timestamp,Thigh_L_Acc_X,Thigh_L_Acc_Y,Thigh_L_Acc_Z,Thigh_L_Gyr_X,Thigh_L_Gyr_Y,Thigh_L_Gyr_Z,Thigh_R_Acc_X,Thigh_R_Acc_Y,Thigh_R_Acc_Z,Thigh_R_Gyr_X,Thigh_R_Gyr_Y,Thigh_R_Gyr_Z,gpio_output
10.000000476837158,2.24097275390625,-15.852009191894531,-13.965378283691406,152.70229007633588,155.9236641221374,-57.02290076335878,-16.462530615234375,4.967968444824218,0.38307226562499996,64.12213740458016,-166.65648854961833,-27.603053435114504,0.0
10.010000467300415,-8.755595471191405,-11.923124267578125,-3.3686417358398435,278.03053435114504,226.24427480916032,-60.58015267175573,-12.327744348144531,4.436455676269531,-1.7836802368164062,41.282442748091604,-165.70992366412213,-32.06106870229008,1.0
10.020000696182251,-14.190433239746094,0.30406361083984373,-1.0319009155273438,271.37404580152673,211.3587786259542,-90.76335877862596,-9.038111267089842,7.182604980468749,-3.1196447631835937,20.229007633587788,-156.3053435114504,-45.57251908396947,1.0
10.030000925064087,-22.577321655273437,17.53752716064453,3.3327287109375,240.36641221374046,201.34351145038167,-97.38931297709924,-9.890447058105469,1.4245499877929686,-1.6041151123046875,-2.5801526717557253,-137.86259541984734,-43.19083969465649,1.0
10.040000677108765,-21.236568725585936,26.36016027832031,4.65432802734375,55.06870229007634,132.0916030534351,-109.48091603053435,-11.425130322265625,3.6655227416992187,-3.5865140869140624,1.786259541984733,-134.3969465648855,-49.25190839694657,1.0
10.050000429153442,-12.780248461914061,14.051569543457031,3.4955344238281247,-77.09923664122137,70.41221374045801,-105.90839694656489,-10.007762939453125,5.2816088623046875,-3.6655227416992187,-27.69465648854962,-115.38931297709924,-47.9236641221374,1.0
10.060001134872437,-10.115502014160155,6.890512377929687,0.38786066894531246,-133.14503816793894,27.557251908396946,-95.66412213740458,-11.743559143066406,1.465251416015625,-2.061407629394531,-9.099236641221374,-107.69465648854961,-35.786259541984734,1.0
10.070000648498535,-5.88015927734375,-1.3718775512695311,-3.0526071166992184,-85.74045801526718,37.908396946564885,-68.35114503816794,-12.215216870117187,3.840299462890625,-2.607285607910156,-3.3740458015267176,-102.09160305343511,-25.14503816793893,1.0
10.080000877380371,-5.84185205078125,-4.920084411621094,-1.8195932617187498,-26.18320610687023,60.656488549618324,-51.17557251908397,-11.250353601074218,0.18435352783203124,0.4070142822265625,1.618320610687023,-86.09160305343511,-22.3206106870229,1.0
10.09000039100647,-8.219294299316406,-1.6998831787109374,0.1388636962890625,18.259541984732824,78.09160305343511,-51.19083969465649,-9.406818322753905,2.612074011230469,-2.70065947265625,14.290076335877863,-93.09923664122137,-28.625954198473284,1.0
10.100000858306885,-10.50815108642578,0.622492431640625,1.6424223388671875,19.267175572519083,79.55725190839695,-60.16793893129771,-10.709264025878905,1.7669208251953124,0.2561795776367187,14.442748091603054,-85.25190839694656,-35.770992366412216,1.0
10.110000610351562,-10.673351000976561,2.9376854370117185,1.7262193969726563,19.0381679389313,81.6793893129771,-65.6030534351145,-8.985438830566405,3.6296097167968746,-0.8212111694335937,13.099236641221374,-90.76335877862596,-38.56488549618321,1.0
10.12000060081482,-9.572018237304688,1.5059528442382812,0.9313444458007812,1.5877862595419847,76.68702290076335,-70.90076335877863,-6.809109521484374,5.6407391113281244,-0.6607996582031249,-8.778625954198473,-82.59541984732824,-37.603053435114504,1.0
10.130000591278076,-9.327809667968749,2.7940333374023436,1.4508862060546874,0.916030534351145,74.77862595419847,-72.41221374045801,-8.154650854492187,1.9895815795898437,0.9145850341796874,-2.6412213740458017,-77.90839694656489,-28.900763358778626,1.0
10.140000581741333,-9.469067565917967,1.0941501586914062,1.01514150390625,-5.9541984732824424,68.93129770992367,-73.38931297709924,-6.777984899902344,4.589684582519531,-1.8195932617187498,-12.977099236641221,-86.99236641221374,-30.366412213740457,1.0
10.15000033378601,-9.411606726074218,2.712630480957031,1.1228805786132812,7.343511450381679,74.77862595419847,-69.69465648854961,-7.350199096679687,2.920926025390625,0.852335791015625,-22.625954198473284,-75.58778625954199,-27.389312977099237,1.0
10.160000562667847,-9.248801013183593,2.913743420410156,0.45968671875,-10.427480916030534,66.97709923664122,-67.86259541984732,-9.60793126220703,1.4437036010742186,2.0446482177734375,-16.38167938931298,-79.41984732824427,-23.34351145038168,1.0
10.170000553131104,-9.126696728515624,2.6192566162109374,1.1228805786132812,-9.404580152671755,68.4885496183206,-67.98473282442748,-9.253589416503905,0.9217676391601562,2.7940333374023436,-18.15267175572519,-81.32824427480917,-23.801526717557252,1.0
10.18000054359436,-13.527239379882811,8.939948999023438,4.733336682128906,-53.465648854961835,57.51145038167939,-74.36641221374046,-8.8872765625,2.039859814453125,2.1356278808593747,-15.083969465648854,-89.64885496183206,-22.99236641221374,1.0
10.190000772476196,-10.579977136230468,3.67749375,1.7357962036132812,-96.35114503816794,36.595419847328245,-69.49618320610686,-10.383652600097655,0.9026140258789062,3.430890979003906,-13.49618320610687,-89.1145038167939,-18.65648854961832,1.0
10.200000524520874,-18.152836987304685,14.197615844726561,8.29351455078125,-119.00763358778626,40.48854961832061,-70.91603053435115,-10.510545288085936,0.6943184814453125,3.318363500976562,-12.610687022900763,-91.69465648854961,-14.0,1.0
10.21000075340271,-7.237671618652343,0.09337386474609374,-0.7805097412109374,-163.93893129770993,3.9236641221374047,-51.16030534351145,-10.302249743652343,2.597708801269531,1.1875240234375,-3.145038167938931,-105.96946564885496,-14.198473282442748,0.0
10.220000505447388,-20.12805335693359,13.441048120117186,4.65432802734375,-152.8854961832061,18.977099236641223,-48.80916030534351,-13.991714501953124,0.09576806640624999,4.165910888671875,-1.5114503816793894,-94.03053435114504,-8.213740458015268,0.0
10.230000734329224,-8.319850769042969,-1.24498486328125,-1.2210428466796874,-203.0229007633588,-18.3206106870229,-27.87786259541985,-13.345280053710937,1.0127473022460938,3.3303345092773435,-0.44274809160305345,-103.1145038167939,-12.625954198473282,0.0
10.240000486373901,-18.461689001464844,9.105148913574219,5.145139367675781,-180.70229007633588,-13.206106870229007,-19.69465648854962,-12.670115185546875,-0.6177040283203125,5.125985754394531,-6.442748091603053,-99.54198473282443,-11.98473282442748,0.0
10.250000715255737,-9.1554271484375,-1.7381904052734374,-1.3072341064453123,-199.16030534351145,-34.93129770992366,-0.8244274809160306,-11.360486877441405,0.4740519287109375,2.5905261962890624,-6.305343511450381,-111.78625954198473,-22.732824427480917,0.0
10.260000467300415,-16.68040296630859,4.781220715332031,6.224924316406249,-158.04580152671755,-12.870229007633588,2.854961832061069,-13.24711778564453,-0.41419688720703124,5.549759448242187,-4.9465648854961835,-108.12213740458016,-19.61832061068702,0.0
10.270000696182251,-9.969455712890625,-2.980781066894531,-0.689530078125,-162.61068702290078,-34.12213740458015,12.229007633587786,-13.412317700195311,-0.06703764648437499,5.085284326171875,7.099236641221374,-115.52671755725191,-21.419847328244273,0.0
10.280000448226929,-15.727510705566406,0.9552864624023437,1.879448303222656,-130.21374045801528,-22.290076335877863,9.938931297709924,-12.878410729980468,-1.5538368774414062,5.781997009277344,8.259541984732824,-119.17557251908397,-19.129770992366414,0.0
10.290000915527344,-8.789114294433594,-3.337517114257812,-1.7238251953125,-125.06870229007633,-27.908396946564885,12.961832061068701,-8.219294299316406,1.9225439331054686,2.6288334228515624,-0.3053435114503817,-125.45038167938931,-29.87786259541985,0.0
10.300000429153442,-9.617508068847656,-5.035006091308594,-1.1085153686523437,-76.1526717557252,-6.473282442748092,12.992366412213741,-6.8976949829101555,2.1691467041015624,3.3590649291992185,-9.358778625954198,-114.0,-26.916030534351144,0.0
10.310000658035278,-6.845022546386718,-3.4668040039062498,-0.41419688720703124,-35.725190839694655,21.0381679389313,0.15267175572519084,-4.778826513671874,1.2904746948242187,3.342305517578125,-16.137404580152673,-103.12977099236642,-26.045801526717558,0.0
10.320000886917114,-9.074024291992187,-0.7685387329101562,0.04548983154296875,-33.02290076335878,26.748091603053435,-14.67175572519084,-6.524199523925781,0.411802685546875,5.662286926269531,-11.068702290076336,-87.86259541984732,-21.6793893129771,0.0
10.330000638961792,-8.90643017578125,-0.6584054565429687,-0.4285620971679687,-16.793893129770993,38.10687022900763,-18.15267175572519,-4.309562988281249,-0.5578489868164063,5.571307263183593,-15.633587786259541,-79.20610687022901,-19.31297709923664,0.0
10.340000629425049,-9.117119921875,0.36631285400390623,-0.7254431030273437,-12.320610687022901,43.52671755725191,-20.9618320610687,-5.202600207519531,-0.5746083984375,4.855440966796874,-6.732824427480916,-75.31297709923665,-19.83206106870229,0.0
10.350000619888306,-9.469067565917967,0.4836287353515625,-1.0223241088867188,-10.854961832061068,48.42748091603053,-23.786259541984734,-4.790797521972656,0.40222587890625,4.924872814941406,-10.183206106870228,-62.88549618320611,-22.12213740458015,0.0
10.360000610351562,-8.99501563720703,-0.12689268798828124,-0.8882488159179687,-9.221374045801527,54.80916030534351,-21.068702290076335,-9.014169250488282,-1.8291700683593748,6.543353137207031,-1.1755725190839694,-59.61832061068702,-20.03053435114504,0.0
10.37000036239624,-9.878476049804688,1.5059528442382812,-0.9026140258789062,-6.625954198473282,56.70229007633588,-26.290076335877863,-5.530605834960937,1.0271125122070313,3.21780703125,-7.297709923664122,-63.32824427480916,-24.9618320610687,0.0
10.380000591278076,-10.742782849121093,2.6862942626953124,-0.6751648681640625,-17.51145038167939,54.62595419847328,-24.68702290076336,-4.486733911132812,1.0606313354492187,3.584119885253906,-14.763358778625955,-50.79389312977099,-25.69465648854962,0.0
10.390000820159912,-10.864887133789061,2.7174188842773437,-0.15322890625,-25.49618320610687,51.404580152671755,-21.267175572519083,-8.827421520996094,-1.1611878051757811,6.153098266601562,-20.47328244274809,-41.37404580152672,-19.16030534351145,0.0
10.40000057220459,-10.096348400878906,2.2840683837890623,-0.430956298828125,-34.44274809160305,46.36641221374046,-18.48854961832061,-8.180987072753906,-0.15083470458984374,4.2688615600585935,-14.687022900763358,-51.17557251908397,-18.778625954198475,0.0
10.410000562667847,-11.803414184570311,2.4564509033203126,0.02633621826171875,-44.3206106870229,40.35114503816794,-17.328244274809162,-4.680664245605469,2.2170307373046874,3.323151904296875,-20.68702290076336,-47.038167938931295,-21.633587786259543,0.0
10.420000791549683,-10.62307276611328,1.6065093139648436,-0.40462008056640625,-49.63358778625954,39.343511450381676,-12.625954198473282,-0.15562310791015624,4.4196962646484375,1.3311761230468748,-47.23664122137404,-34.87022900763359,-23.923664122137403,0.0
10.43000054359436,-10.402806213378906,0.9433154541015625,0.44053310546874996,-47.725190839694655,44.87022900763359,-11.786259541984732,-6.4284314575195305,-0.5051765502929687,6.011840368652344,-50.2442748091603,-8.50381679389313,-14.931297709923664,0.0
10.440000772476196,-8.161833459472655,-0.5291185668945312,0.19153613281249998,-43.954198473282446,47.786259541984734,-14.320610687022901,-5.006275671386718,-1.120486376953125,3.7612908081054686,-52.045801526717554,-13.358778625954198,-14.854961832061068,0.0
10.450000762939453,-10.979808813476561,-0.086191259765625,0.9457096557617187,-40.534351145038165,45.80152671755725,-17.236641221374047,-6.4356140625,-1.2473790649414063,5.2648494506835934,-37.87786259541985,-12.488549618320612,-13.557251908396946,0.0
10.46000051498413,-12.449848632812499,2.0302830078125,3.009511486816406,-34.595419847328245,46.01526717557252,-21.114503816793892,-4.802768530273437,-0.9888052856445312,4.623203405761719,-36.35114503816794,-9.755725190839694,-14.687022900763358,0.0
10.470000743865967,-12.734758630371093,1.7860744384765623,3.670311145019531,-40.030534351145036,35.74045801526717,-18.427480916030536,-5.2433016357421875,-1.1037269653320312,4.747701892089843,-27.740458015267176,-5.786259541984733,-14.534351145038167,0.0
10.480000495910645,-11.999738720703125,0.45489831542968745,3.1316157714843746,-26.732824427480917,32.534351145038165,-11.603053435114504,-3.861847277832031,-0.6009446166992187,3.8953661010742184,-26.427480916030536,-3.6946564885496183,-15.435114503816793,0.0
10.490000486373901,-10.196904870605469,-1.4700398193359374,2.5330653564453125,-16.33587786259542,23.083969465648856,-6.778625954198473,-6.1267620483398435,-2.0973206542968748,5.370194323730469,-16.977099236641223,0.8244274809160306,-13.32824427480916,0.0
10.500000715255737,-11.262324609375,-0.8595183959960937,2.2768857788085937,-8.549618320610687,19.72519083969466,-9.801526717557252,-4.173093493652344,-1.4891934326171874,4.496310717773437,-18.519083969465647,1.5419847328244274,-16.549618320610687,0.0
10.510000705718994,-10.371681591796875,-0.9074024291992187,2.501940734863281,-1.8625954198473282,16.595419847328245,-12.702290076335878,-4.331110803222656,-1.927332336425781,5.106832141113281,-14.687022900763358,8.366412213740459,-17.66412213740458,0.0
10.520000696182251,-10.180145458984374,0.03591302490234375,2.7557261108398436,2.50381679389313,13.816793893129772,-17.00763358778626,-7.357381701660156,-4.369418029785156,6.744466076660156,3.5419847328244276,6.244274809160306,-13.450381679389313,0.0
10.530000686645508,-11.973402502441406,2.6910826660156246,3.296815686035156,0.9618320610687023,10.106870229007633,-21.31297709923664,-3.9336733276367184,-1.618480322265625,4.6998178588867185,3.7251908396946565,3.9083969465648853,-19.14503816793893,0.0
10.540000677108765,-11.994950317382811,3.782838623046875,3.6367923217773437,-18.076335877862597,-4.015267175572519,-17.17557251908397,-2.602497204589844,0.430956298828125,3.459621398925781,-0.2595419847328244,10.106870229007633,-17.862595419847327,0.0
10.550000429153442,-10.378864196777343,0.39264907226562495,1.8459294799804686,-9.267175572519085,-7.770992366412214,-6.091603053435114,-5.130774157714844,-1.5825672973632812,5.576095666503906,-6.351145038167939,25.389312977099237,-10.351145038167939,0.0
10.560000896453857,-12.34689796142578,2.5809493896484375,3.172317199707031,-10.381679389312977,-8.564885496183207,-9.923664122137405,-4.450820886230469,-1.197100830078125,4.515464331054687,-8.870229007633588,26.427480916030536,-6.2748091603053435,0.0
10.570000410079956,-12.176909643554687,2.346317626953125,3.2728736694335936,-22.290076335877863,-23.00763358778626,-11.068702290076336,-3.361459130859375,0.42377369384765623,3.19865341796875,-13.770992366412214,28.259541984732824,-2.7022900763358777,0.0
10.580000877380371,-13.984531896972655,1.8411410766601561,4.216189123535156,-18.229007633587788,-27.61832061068702,-9.816793893129772,-1.0630255371093749,1.6543933471679686,0.9193734375,-32.18320610687023,42.274809160305345,1.0534351145038168,0.0
10.590000629425049,-12.830526696777342,1.0199299072265624,4.8506525634765625,-18.366412213740457,-40.01526717557252,-11.404580152671755,-1.5538368774414062,0.8571241943359375,-1.7956512451171873,-41.20610687022901,65.06870229007633,2.519083969465649,0.0
10.600000858306885,-13.381193078613281,0.6153098266601562,5.521029028320312,-9.938931297709924,-49.43511450381679,-13.114503816793894,-4.235342736816406,0.7278373046875,-1.1085153686523437,-46.56488549618321,98.91603053435115,-5.847328244274809,0.0
10.610000610351562,-14.298172314453124,1.0223241088867188,7.64229169921875,0.10687022900763359,-54.0763358778626,-16.12213740458015,-14.290989709472655,-3.5146880371093747,10.807426293945312,-56.35114503816794,122.74809160305344,-5.450381679389313,0.0
10.62000060081482,-14.420276599121093,1.5682020874023437,8.748412866210938,14.13740458015267,-68.10687022900764,-19.053435114503817,-5.336675500488281,3.0214824951171875,4.019864587402344,-100.33587786259542,111.89312977099236,-24.3206106870229,0.0
10.630000591278076,-16.979678173828123,3.842693664550781,12.344503759765624,22.900763358778626,-78.8854961832061,-14.641221374045802,-10.216058483886718,3.1938650146484373,8.25520732421875,-139.58778625954199,172.91603053435114,-9.84732824427481,0.0
10.640000581741333,-15.08586466064453,0.48123453369140623,14.681244580078124,42.10687022900763,-98.10687022900764,-1.6641221374045803,0.5889736083984375,5.664681127929687,-8.298302954101562,-144.35114503816794,135.0229007633588,15.267175572519085,0.0
10.65000057220459,-19.63245361328125,0.33039982910156246,16.98925498046875,76.50381679389314,-129.46564885496184,-1.282442748091603,-7.812280017089844,8.449137658691406,-6.313509777832031,-178.29007633587787,194.36641221374046,20.625954198473284,0.0
10.660000562667847,-22.864625854492186,0.3711012573242187,17.851167578125,110.9618320610687,-164.2290076335878,6.1679389312977095,-8.779537487792968,1.5059528442382812,-5.6191912963867185,-146.2290076335878,180.7175572519084,36.51908396946565,0.0
10.670000553131104,-26.870125231933592,6.806715319824218,12.224793676757812,125.83206106870229,-192.4732824427481,21.709923664122137,-15.926229443359373,-4.797980126953124,2.0781670410156248,-122.87022900763358,198.61068702290078,40.12213740458015,0.0
10.68000054359436,-30.030471423339844,10.582371337890624,8.75320126953125,83.83206106870229,-222.85496183206106,54.229007633587784,6.191405493164062,10.812214697265624,-10.01015714111328,-149.9236641221374,158.5801526717557,23.31297709923664,0.0
10.690000295639038,-28.29467521972656,6.76122548828125,4.515464331054687,25.84732824427481,-261.08396946564886,86.21374045801527,-7.182604980468749,17.39866346435547,-9.368511096191405,-344.3358778625954,242.0763358778626,18.50381679389313,0.0
10.700000524520874,-21.83272493896484,-0.08858546142578125,-5.755660791015624,14.778625954198473,-286.42748091603056,121.74045801526718,-20.87025587158203,-5.061342309570312,1.9033903198242186,-328.7175572519084,222.4732824427481,53.16030534351145,0.0
10.71000075340271,-14.911087939453123,-3.1603461914062496,-8.52335791015625,-5.694656488549619,-294.80916030534354,115.34351145038168,-28.63944025878906,-17.013196997070313,7.453149768066406,-196.4732824427481,189.66412213740458,66.12213740458016,0.0
10.720000505447388,-10.352527978515624,-7.407659936523437,-7.869740856933594,11.511450381679388,-274.03053435114504,108.3206106870229,-17.911022619628906,-18.289306481933593,7.558494641113281,-4.015267175572519,109.46564885496183,79.45038167938931,0.0
10.730000734329224,-2.2002713256835937,-12.248735693359373,-8.93755479736328,60.35114503816794,-248.99236641221373,93.16030534351145,-16.18959162597656,-12.746729638671875,5.882553479003906,147.78625954198472,53.98473282442748,107.02290076335878,0.0
10.740000486373901,-4.781220715332031,-8.360552197265624,-3.5529952636718747,113.83206106870229,-184.3969465648855,76.76335877862596,-7.81467421875,3.2441432495117186,-3.699041564941406,146.87022900763358,43.6793893129771,103.58778625954199,0.0
10.750000476837158,-10.242394702148436,-4.04141240234375,-1.0678139404296874,137.12977099236642,-152.18320610687022,62.19847328244275,-9.22485899658203,-0.565031591796875,-2.1068974609374997,115.05343511450381,45.587786259541986,92.25954198473282,0.0
10.760000705718994,-2.583343591308594,-10.359710583496094,-7.498639599609374,164.83969465648855,-142.12213740458014,63.267175572519086,-5.968744738769531,4.496310717773437,-3.258508459472656,93.58778625954199,48.13740458015267,79.7557251908397,0.0
10.770000696182251,-5.305550878906249,-7.156268762207031,-4.13718046875,178.53435114503816,-87.40458015267176,50.93129770992366,-7.948749511718749,3.890577697753906,-1.43652099609375,42.2442748091603,68.62595419847328,61.9236641221374,0.0
10.780000448226929,-5.719747766113281,-1.9776105712890624,-3.394977954101562,168.94656488549617,-78.68702290076335,41.282442748091604,-4.378994836425781,7.149086157226562,-2.1691467041015624,-28.977099236641223,100.09160305343511,48.56488549618321,0.0
10.790000438690186,-12.361263171386717,6.318298181152343,2.094926452636719,133.206106870229,-73.43511450381679,40.48854961832061,-11.693280908203125,-1.120486376953125,1.8363526733398436,-27.954198473282442,99.87786259541984,62.99236641221374,0.0
10.800000429153442,-3.4859576171874997,2.461239306640625,-0.6344634399414062,102.13740458015268,-90.1526717557252,56.68702290076336,-10.374075793457031,-2.3151930053710936,2.6910826660156246,-28.65648854961832,100.91603053435115,74.56488549618321,0.0
10.810000658035278,-9.37808790283203,8.817844714355468,1.4437036010742186,45.969465648854964,-100.29007633587786,53.847328244274806,-11.334150659179686,-2.9041666137695312,3.392583752441406,18.671755725190838,80.12213740458016,81.20610687022901,0.0
10.820000648498535,-9.09796630859375,6.9719152343749995,0.3950432739257812,-16.03053435114504,-124.53435114503817,54.458015267175576,-10.967837805175781,-6.057330200195312,3.7421371948242186,11.038167938931299,81.05343511450381,87.43511450381679,0.0
10.830000400543213,-7.256825231933593,4.271255761718749,-1.3934253662109375,-52.656488549618324,-131.9083969465649,59.57251908396947,-9.852139831542969,-5.0014872680664055,3.641580725097656,56.6412213740458,60.396946564885496,92.70229007633588,0.0
10.840000629425049,-4.733336682128906,2.4947581298828125,-2.0733786376953125,-71.66412213740458,-121.80152671755725,60.48854961832061,-7.989450939941406,0.6368576416015624,0.6584054565429687,12.259541984732824,76.53435114503817,83.22137404580153,0.0
10.850000858306885,-0.7445967163085937,-0.277727392578125,-3.0119056884765625,-66.16793893129771,-95.5114503816794,59.099236641221374,-10.498574279785156,-4.592078784179687,3.854664672851562,15.557251908396946,84.62595419847328,85.32824427480917,0.0
10.860000610351562,2.5617957763671875,-4.4196962646484375,-4.376600634765625,-75.45038167938931,-80.33587786259542,50.29007633587786,-4.359841223144531,2.1643583007812497,1.4820108276367188,14.305343511450381,80.36641221374046,80.50381679389314,0.0
10.87000036239624,4.920084411621094,-6.426037255859375,-4.302380383300781,-57.37404580152672,-43.87786259541985,38.62595419847328,-10.625466967773438,-4.8650177734375,3.5673604736328124,17.69465648854962,76.19847328244275,86.44274809160305,0.0
10.880000591278076,4.836287353515624,-5.805939025878906,-3.287238879394531,-34.19847328244275,-7.557251908396947,22.091603053435115,-11.824961999511718,-8.856151940917968,6.6271501953125,14.580152671755725,91.64885496183206,90.41221374045801,0.0
10.890000581741333,2.398990063476562,-3.7229835815429686,-2.2481553588867187,-18.259541984732824,14.717557251908397,5.404580152671755,-7.098807922363281,-5.312733483886719,4.759672900390624,95.22137404580153,40.152671755725194,87.09923664122137,0.0
10.90000057220459,0.22266075439453123,-0.852335791015625,0.06464344482421874,-9.312977099236642,33.038167938931295,-5.847328244274809,-8.985438830566405,2.6336218261718747,-1.707065783691406,57.3587786259542,38.97709923664122,77.64885496183206,0.0
10.910000324249268,0.948103857421875,-2.1021090576171875,2.5330653564453125,12.01526717557252,43.038167938931295,-4.961832061068702,-14.195221643066406,-6.8402341430664055,3.9145197143554684,13.511450381679388,64.22900763358778,72.36641221374046,0.0
10.920000553131104,0.18914193115234373,-2.6096798095703124,5.463568188476562,44.85496183206107,61.89312977099237,-4.259541984732825,-10.93671318359375,-3.725377783203125,4.893748193359374,78.33587786259542,33.00763358778626,65.6793893129771,0.0
10.93000054359436,-0.6200982299804687,-4.7955859252929685,5.8226984375,82.53435114503817,85.00763358778626,-9.17557251908397,-7.991845141601562,3.6176387084960937,-1.9321207397460936,39.57251908396947,30.519083969465647,52.35114503816794,0.0
10.940000534057617,3.69664736328125,-6.488286499023437,4.7381250854492185,117.72519083969466,77.64885496183206,-13.206106870229007,-19.017143786621094,-11.089942089843749,9.184157568359375,6.809160305343512,75.89312977099236,59.12977099236641,0.0
10.950000762939453,-2.3127988037109373,-0.7326257080078125,6.988674645996094,173.46564885496184,103.87786259541984,-23.251908396946565,-10.065223779296874,-5.286397265624999,6.1267620483398435,132.18320610687022,2.3053435114503817,59.3587786259542,0.0
10.960000276565552,-4.553771557617187,6.083666418457031,7.448361364746093,193.206106870229,94.19847328244275,-28.595419847328245,-7.747636572265624,1.350329736328125,-1.446097802734375,70.2442748091603,7.847328244274809,44.06106870229008,0.0
10.970000743865967,-11.240776794433593,13.979743493652343,8.738836059570312,197.6946564885496,99.64885496183206,-16.732824427480917,-10.24718310546875,1.7717092285156248,-0.7326257080078125,18.702290076335878,21.34351145038168,30.076335877862597,0.0
10.980000495910645,2.061407629394531,1.9728221679687499,-7.390900524902343,160.74809160305344,91.26717557251908,2.381679389312977,-9.064447485351561,6.912060192871094,-4.3622354248046875,-28.702290076335878,24.702290076335878,22.763358778625953,0.0
10.990000486373901,-11.516109985351562,4.106055847167968,-6.5505357421875,141.206106870229,139.78625954198472,-7.587786259541985,-14.954183569335937,-4.084508032226562,2.2266075439453124,-34.274809160305345,39.23664122137404,30.870229007633586,0.0
11.000000476837158,-11.587936035156249,-1.6831237670898436,-0.842758984375,86.59541984732824,120.13740458015268,-32.79389312977099,-11.015721838378905,-1.158793603515625,1.0199299072265624,-28.15267175572519,39.847328244274806,21.297709923664122,0.0
11.010000944137573,-23.094469213867185,7.022193469238281,15.62216583251953,110.99236641221374,122.36641221374046,-31.755725190839694,-13.76426534423828,-4.256890551757812,2.849099975585937,-7.893129770992366,28.519083969465647,16.03053435114504,0.0
11.020000457763672,-8.93755479736328,-4.299986181640625,4.1754876953124995,93.22137404580153,85.43511450381679,-4.6106870229007635,-11.583147631835937,-0.1005564697265625,2.2385785522460937,-24.900763358778626,30.076335877862597,4.152671755725191,0.0
11.030000686645508,-11.650185278320311,-9.409212524414063,6.37815322265625,110.38167938931298,120.10687022900764,-13.129770992366412,-15.555128186035155,-1.8650830932617186,5.068524914550781,-5.404580152671755,23.236641221374047,-3.8625954198473282,0.0
11.040001153945923,-8.161833459472655,-6.663063220214843,-1.9488801513671874,60.82442748091603,85.6793893129771,-49.98473282442748,-13.792995764160155,5.537788439941406,0.7781155395507812,-12.977099236641221,2.549618320610687,-15.022900763358779,0.0
11.050000667572021,-11.056423266601563,-0.239420166015625,-4.295197778320312,51.16030534351145,87.64885496183206,-66.22900763358778,-17.91341682128906,1.388636962890625,2.9089550170898435,-46.70229007633588,2.7938931297709924,-9.816793893129772,0.0
11.06008768081665,-7.40526573486328,-6.505045910644531,-2.901772412109375,36.916030534351144,69.55725190839695,-74.61068702290076,-20.86307326660156,-2.128445275878906,3.8762124877929685,-28.732824427480917,-22.946564885496183,-16.977099236641223,0.0
11.070000648498535,-13.48414375,-0.8307879760742187,0.5099649536132812,73.17557251908397,88.04580152671755,-80.85496183206106,-16.340426330566405,2.540247961425781,1.5705962890624998,-49.038167938931295,-45.70992366412214,-20.65648854961832,0.0
11.080000638961792,-13.098677282714842,3.0837317382812497,-1.01514150390625,53.83206106870229,82.22900763358778,-80.6412213740458,-17.824831359863282,-3.6655227416992187,7.630320690917968,-35.93893129770992,-48.19847328244275,-14.473282442748092,0.0
11.090000629425049,-13.012486022949219,3.5506010620117183,-1.5825672973632812,27.87786259541985,74.13740458015268,-79.90839694656489,-12.066776367187499,2.2840683837890623,-0.3495534423828125,-6.717557251908397,-86.99236641221374,-14.305343511450381,0.0
11.100000858306885,-12.919112158203124,3.5194764404296874,-1.9105729248046874,18.83969465648855,76.09160305343511,-79.74045801526718,-14.968548779296874,-10.249577307128906,7.884106066894531,10.305343511450381,-74.67175572519083,-8.473282442748092,0.0
11.110000371932983,-11.73398233642578,2.6982652709960937,-2.2673089721679687,4.763358778625954,72.6412213740458,-81.57251908396947,-9.485826977539062,-2.398990063476562,0.28490999755859375,103.87786259541984,-142.38167938931298,-16.50381679389313,0.0
11.12000036239624,-10.510545288085936,3.545812658691406,-1.678335363769531,7.190839694656488,79.49618320610686,-81.92366412213741,-10.831368310546875,2.3965958618164063,-2.231395947265625,83.06870229007633,-134.94656488549617,-30.35114503816794,0.0
11.130000591278076,-8.427589843749999,3.5673604736328124,-1.4317325927734375,-11.007633587786259,76.90076335877863,-80.70229007633588,-12.287042919921875,2.6671406494140624,-2.3415292236328122,51.64885496183206,-116.16793893129771,-40.79389312977099,0.0
11.140000581741333,-7.575254052734374,3.0909143432617188,-0.7206546997070312,-8.473282442748092,79.00763358778626,-77.61832061068702,-17.209521533203123,-9.76116016845703,6.663063220214843,51.7557251908397,-79.57251908396947,-38.93129770992366,0.0
11.15000057220459,-9.382876306152344,2.7461493041992187,-0.9720458740234375,-16.85496183206107,76.19847328244275,-73.41984732824427,-8.463502868652343,-0.82360537109375,0.05746083984375,126.53435114503817,-146.65648854961833,-48.83969465648855,0.0
11.160000324249268,-9.897629663085937,5.779602807617187,0.37828386230468747,-12.900763358778626,81.89312977099236,-73.02290076335878,-15.435418103027343,0.031124621582031248,1.465251416015625,118.1526717557252,-132.44274809160305,-52.61068702290076,0.0
11.170000553131104,-8.686163623046875,2.8850130004882812,-0.08379705810546874,-32.33587786259542,72.9618320610687,-67.96946564885496,-12.919112158203124,5.863399865722656,-2.427720483398437,100.10687022900764,-140.3969465648855,-58.717557251908396,0.0
11.18000054359436,-9.698910925292969,3.268085266113281,1.2785036865234374,-32.12213740458015,78.1526717557252,-67.29770992366412,-15.176844323730467,3.902548706054687,-1.4987702392578124,67.3587786259542,-116.3969465648855,-54.2442748091603,0.0
11.190001010894775,-8.257601525878906,0.7038952880859375,0.18914193115234373,-53.038167938931295,66.41221374045801,-68.85496183206106,-11.152191333007812,5.109226342773437,-4.101267443847656,55.86259541984733,-120.58015267175573,-51.786259541984734,0.0
11.200000524520874,-7.716511950683593,-1.7166425903320313,-0.5722141967773438,-38.01526717557252,72.51908396946565,-64.79389312977099,-10.441113439941406,4.474762902832031,-2.5905261962890624,28.03053435114504,-98.79389312977099,-49.41984732824427,0.0
11.21000075340271,-10.275913525390624,-0.9265560424804687,1.0965443603515623,-37.3587786259542,71.2824427480916,-66.45801526717557,-4.3622354248046875,7.015010864257812,-4.975151049804687,18.03053435114504,-111.98473282442748,-52.29007633587786,0.0
11.220000505447388,-9.928754284667969,-0.8810662109374999,0.41419688720703124,-25.389312977099237,71.19083969465649,-66.61068702290076,-9.497797985839844,4.201823913574218,0.5698199951171875,5.206106870229007,-94.33587786259542,-50.51908396946565,0.0
11.230000734329224,-10.232817895507813,1.0079588989257813,1.7166425903320313,-15.007633587786259,75.89312977099236,-67.05343511450381,-9.358934289550781,2.061407629394531,1.254561669921875,-3.572519083969466,-90.2442748091603,-44.80916030534351,0.0
11.240000486373901,-9.83777462158203,0.5051765502929687,0.718260498046875,-27.633587786259543,68.16793893129771,-66.51908396946565,-7.577648254394531,2.1978771240234374,0.6392518432617187,-9.908396946564885,-92.4885496183206,-46.61068702290076,0.0
11.250000476837158,-8.487444885253906,0.1197100830078125,-0.13407529296874998,-21.374045801526716,68.74809160305344,-63.02290076335878,-8.202534887695313,2.0925322509765625,0.507570751953125,-5.0534351145038165,-100.94656488549619,-46.44274809160305,0.0
11.260000705718994,-12.849680310058593,8.769960681152343,3.1172505615234374,-56.68702290076336,61.70992366412214,-70.21374045801527,-11.166556542968749,0.16280571289062498,3.1028853515624997,-6.763358778625954,-91.02290076335878,-40.44274809160305,0.0
11.270000696182251,-8.94473740234375,2.032677209472656,-0.40462008056640625,-105.57251908396947,38.12213740458015,-63.05343511450382,-8.32463917236328,3.3399113159179685,0.13646949462890623,-10.82442748091603,-104.35114503816794,-40.38167938931298,0.0
11.280000686645508,-11.506533178710937,4.563348364257812,1.66636435546875,-108.21374045801527,35.20610687022901,-54.274809160305345,-8.13310303955078,4.0222587890625,-0.296881005859375,-20.396946564885496,-105.3587786259542,-40.213740458015266,0.0
11.290000438690186,-7.529764221191406,-1.9033903198242186,-2.068590234375,-95.09923664122137,37.343511450381676,-42.87022900763359,-10.606313354492187,3.189076611328125,1.120486376953125,-27.72519083969466,-93.66412213740458,-35.38931297709924,0.0
11.3000009059906,-16.364368347167968,5.758054992675781,3.347093920898437,-108.44274809160305,40.12213740458015,-46.35114503816794,-7.620743884277343,2.9831752685546875,0.39743747558593745,-39.7557251908397,-92.16793893129771,-33.37404580152672,0.0
11.310000896453857,-9.085995300292968,-0.5482721801757812,-0.928950244140625,-106.09160305343511,34.152671755725194,-36.58015267175573,-9.14824454345703,1.3814543579101561,1.7453730102539062,-40.47328244274809,-87.58778625954199,-31.358778625954198,0.0
11.320001125335693,-13.338097448730467,4.074931225585937,1.7597382202148437,-115.95419847328245,29.297709923664122,-37.98473282442748,-8.494627490234375,0.3687070556640625,2.786850732421875,-45.48091603053435,-82.80916030534351,-30.137404580152673,0.0
11.330000638961792,-9.732429748535155,-2.858676782226562,-0.7302315063476562,-120.94656488549619,23.603053435114504,-30.396946564885496,-9.138667736816405,0.6727706665039062,2.128445275878906,-37.6793893129771,-84.59541984732824,-30.870229007633586,0.0
11.340000629425049,-14.324508532714843,2.645592834472656,3.641580725097656,-103.86259541984732,28.931297709923665,-32.717557251908396,-9.6151138671875,-1.0319009155273438,3.8690298828125,-38.01526717557252,-75.46564885496183,-29.374045801526716,0.0
11.350000619888306,-9.947907897949218,-2.272097375488281,-0.8882488159179687,-112.94656488549619,18.977099236641223,-27.801526717557252,-8.774749084472656,0.8954314208984374,2.090138049316406,-27.0381679389313,-82.22900763358778,-30.885496183206108,0.0
11.360000610351562,-14.583082312011717,4.987122058105468,2.4756045166015626,-101.32824427480917,24.717557251908396,-29.19083969465649,-11.693280908203125,-2.6527754394531247,5.236119030761718,-16.3206106870229,-75.09923664122137,-26.16793893129771,0.0
11.37000060081482,-8.537723120117187,-2.5617957763671875,-2.5761609863281247,-99.54198473282443,14.076335877862595,-16.9618320610687,-7.122749938964843,1.9393033447265624,0.97683427734375,-11.221374045801527,-91.64885496183206,-30.82442748091603,0.0
11.380000352859497,-15.952565661621092,4.431667272949219,3.189076611328125,-83.09923664122137,24.35114503816794,-13.664122137404581,-15.811307763671874,-6.066907006835937,8.52335791015625,5.587786259541985,-76.8854961832061,-22.33587786259542,0.0
11.390000581741333,-10.101136804199218,-2.3032219970703123,-0.5147533569335937,-90.22900763358778,10.610687022900763,-7.694656488549619,-15.160084912109374,-2.6431986328124997,5.176263989257812,45.06870229007634,-109.22137404580153,-26.27480916030534,0.0
11.40000057220459,-15.217545751953125,3.0142998901367184,3.4620156005859375,-78.68702290076335,10.748091603053435,-13.099236641221374,-23.66668341064453,-10.307038146972655,13.065158459472656,74.74809160305344,-109.69465648854961,-23.16030534351145,0.0
11.410000562667847,-9.890447058105469,-3.4668040039062498,-0.07422025146484375,-80.12213740458016,-2.0610687022900764,-6.33587786259542,-19.936517224121094,-5.051765502929687,6.58884296875,109.31297709923665,-161.14503816793894,-43.343511450381676,0.0
11.420000553131104,-14.966154577636718,1.6304513305664061,2.7054478759765623,-63.41984732824427,3.3740458015267176,-10.625954198473282,-9.674968908691406,2.8131869506835936,1.216254443359375,73.19083969465649,-181.22137404580153,-61.908396946564885,0.0
11.43000054359436,-9.811438403320311,0.011971008300781249,0.6679822631835937,-81.58778625954199,-7.740458015267175,-2.2748091603053435,-2.8227637573242186,8.01818135986328,-0.5865794067382812,40.51908396946565,-157.55725190839695,-64.90076335877863,0.0
11.440000534057617,-11.283872424316405,2.3678654418945313,1.944091748046875,-87.1145038167939,-4.549618320610687,2.1374045801526718,9.349357482910156,9.552864624023437,-5.6215854980468745,-18.47328244274809,-133.206106870229,-56.6412213740458,0.0
11.450001001358032,-8.55448253173828,1.8124106567382812,0.8307879760742187,-95.70992366412214,-4.2748091603053435,7.679389312977099,11.367669482421874,8.44674345703125,-3.0454245117187497,-52.58015267175573,-68.10687022900764,-31.099236641221374,0.0
11.460000276565552,-10.081983190917969,2.0446482177734375,1.0678139404296874,-86.50381679389314,8.106870229007633,10.900763358778626,3.27526787109375,1.0271125122070313,1.1348515869140625,-78.06106870229007,-11.801526717557252,-15.709923664122137,0.0
11.470000743865967,-8.43956085205078,-1.0821791503906248,-1.2713210815429687,-75.22137404580153,9.419847328244275,8.992366412213741,-6.030993981933594,-3.4644098022460934,6.6319385986328125,-78.85496183206106,17.954198473282442,-10.961832061068701,0.0
11.480000495910645,-8.985438830566405,-3.229778039550781,-2.042254016113281,-42.10687022900763,17.46564885496183,1.3129770992366412,-7.912836486816405,-4.7955859252929685,5.166687182617188,-51.23664122137404,2.7022900763358777,-10.83969465648855,0.0
11.490000486373901,-10.026916552734374,-1.3551181396484375,-2.176329309082031,-23.84732824427481,21.0381679389313,-14.702290076335878,-7.015010864257812,-2.750937707519531,5.633556506347656,-23.053435114503817,3.5877862595419847,-14.992366412213741,0.0
11.500000476837158,-11.891999645996092,-1.7310078002929687,-1.2306196533203124,-14.80916030534351,24.15267175572519,-20.885496183206108,-5.6958057495117185,-0.33758243408203126,4.426878869628906,-14.259541984732824,-0.16793893129770993,-15.48091603053435,0.0
11.510000705718994,-10.649408984374999,-0.63206923828125,-1.2665326782226562,-2.6259541984732824,25.770992366412212,-19.541984732824428,-6.603208178710937,-0.612915625,5.181052392578125,-16.671755725190838,6.412213740458015,-10.564885496183207,0.0
11.520000696182251,-8.52335791015625,-1.3958195678710936,-1.6615759521484375,-3.1297709923664123,25.16030534351145,-15.236641221374045,-6.279990954589843,0.22744915771484372,3.5673604736328124,-12.977099236641221,-3.66412213740458,-8.320610687022901,0.0
11.530000686645508,-7.675810522460937,-1.2330138549804688,-1.8698714965820311,6.412213740458015,29.84732824427481,-10.13740458015267,-7.256825231933593,-0.1005564697265625,4.369418029785156,-10.091603053435115,-1.8015267175572518,-4.931297709923665,0.0
11.540000677108765,-7.6614453125,-0.5315127685546874,-1.1611878051757811,8.488549618320612,34.50381679389313,-9.908396946564885,-4.604049792480469,1.22583125,2.712630480957031,-15.572519083969466,-7.038167938931298,-6.549618320610687,0.0
11.550000667572021,-8.394071020507813,0.6536170532226562,-0.622492431640625,4.519083969465649,36.99236641221374,-14.793893129770993,-5.887341882324218,-0.35194764404296874,4.544194750976562,-19.022900763358777,1.6946564885496183,-3.3893129770992365,0.0
11.560000896453857,-10.534487304687499,0.7134720947265625,0.8092401611328125,0.6259541984732825,38.56488549618321,-19.587786259541986,-6.349422802734375,-1.5849614990234373,5.267243652343749,-19.129770992366414,4.8396946564885495,-1.2213740458015268,0.0
11.570000648498535,-10.812214697265624,0.8307879760742187,1.4221557861328125,-3.1755725190839694,37.06870229007634,-25.053435114503817,-6.342240197753906,-2.0733786376953125,5.786785412597656,-13.816793893129772,5.435114503816794,-0.6717557251908397,0.0
11.580000877380371,-11.915941662597655,1.7022773803710936,2.24097275390625,-6.061068702290076,34.396946564885496,-28.47328244274809,-6.186617089843749,-1.9752163696289062,6.095637426757812,-7.8320610687022905,6.625954198473282,0.183206106870229,0.0
11.590000629425049,-12.382810986328124,1.2282254516601563,2.2026655273437497,-12.977099236641221,26.442748091603054,-26.83969465648855,-5.858611462402344,-1.7932570434570312,5.882553479003906,-3.786259541984733,8.15267175572519,2.2900763358778624,0.0
11.600000858306885,-10.536881506347656,1.1923124267578125,1.5753846923828123,-11.068702290076336,22.427480916030536,-23.435114503816795,-6.603208178710937,-2.7844565307617186,6.102820031738281,3.1603053435114505,9.633587786259541,5.343511450381679,0.0
11.610000610351562,-10.266336718749999,0.9888052856445312,1.6519991455078125,-14.122137404580153,18.671755725190838,-21.64885496183206,-4.642357019042969,-1.0797849487304687,4.283226770019531,4.320610687022901,6.8396946564885495,3.648854961832061,0.0
11.62000036239624,-10.558429321289061,1.4939818359375,1.3862427612304686,-23.87786259541985,12.13740458015267,-21.69465648854962,-3.9815573608398434,-0.2442085693359375,3.296815686035156,-2.9160305343511452,14.488549618320612,4.015267175572519,0.0
11.630000591278076,-10.314220751953124,0.6751648681640625,1.3958195678710936,-23.31297709923664,9.206106870229007,-20.977099236641223,-4.675875842285156,-0.6679822631835937,3.5386300537109374,-16.137404580152673,26.198473282442748,7.419847328244275,0.0
11.640000343322754,-10.982203015136719,0.7996633544921875,2.3151930053710936,-21.84732824427481,9.938931297709924,-22.931297709923665,-2.233790148925781,2.0278888061523435,1.180341418457031,-41.969465648854964,33.05343511450382,6.580152671755725,0.0
11.65000033378601,-10.73799444580078,-0.19153613281249998,2.4444798950195312,-16.68702290076336,5.7251908396946565,-22.931297709923665,-4.814739538574218,1.5346832641601562,2.2601263671875,-62.16793893129771,59.52671755725191,10.732824427480915,0.0
11.660000324249268,-13.318943835449218,1.4963760375976562,3.9432501342773434,-14.793893129770993,0.8244274809160306,-24.732824427480917,-0.5458779785156249,5.9950809570312495,-5.185840795898438,-84.58015267175573,59.64885496183206,4.3816793893129775,0.0
11.670000553131104,-13.450624926757811,2.6599580444335937,5.157110375976562,-10.534351145038167,-5.969465648854962,-23.69465648854962,-4.9416322265625,5.6574985229492185,-0.1197100830078125,-124.67175572519083,136.61068702290078,3.7251908396946565,0.0
11.68000054359436,-16.086640954589843,4.824316345214844,7.903259680175781,-19.69465648854962,-18.3206106870229,-15.34351145038168,-10.029310754394531,-0.45489831542968745,2.269703173828125,-156.0763358778626,148.3969465648855,19.14503816793893,0.0
11.690000772476196,-17.87510959472656,5.317521887207031,9.222464794921875,-25.81679389312977,-47.66412213740458,-6.900763358778626,-15.933412048339843,-8.647856396484375,6.845022546386718,-154.15267175572518,153.81679389312978,24.16793893129771,0.0
11.700000286102295,-21.24614553222656,5.863399865722656,11.738770739746093,-30.33587786259542,-75.96946564885496,2.7480916030534353,-7.970297326660156,-2.5450363647460934,-1.8507178833007811,-123.1145038167939,121.20610687022901,22.259541984732824,0.0
11.71000075340271,-21.124041247558594,4.659116430664063,15.073893652343749,-42.58015267175573,-122.41221374045801,9.816793893129772,-9.993397729492187,6.1459156616210935,-0.7541735229492187,-152.04580152671755,150.25954198473283,21.404580152671755,0.0
11.720000743865967,-23.50866610107422,2.4133552734375,17.642872033691404,-29.51145038167939,-162.90076335877862,20.427480916030536,-10.66137999267578,1.2952630981445312,1.1324573852539062,-129.31297709923663,138.42748091603053,49.969465648854964,0.0
11.730000495910645,-24.516624999999998,0.9816226806640624,17.532738757324218,4.67175572519084,-213.61832061068702,31.282442748091604,-15.416264489746093,-4.165910888671875,-0.5913678100585937,-102.90076335877863,134.9618320610687,47.725190839694655,0.0
11.74000072479248,-26.982652709960934,4.673481640625,12.624625354003905,53.89312977099237,-245.00763358778627,55.86259541984733,-7.982268334960937,-2.157175695800781,-2.9735984619140625,-48.99236641221374,100.83969465648855,42.19847328244275,0.0
11.750000476837158,-24.301146850585937,3.7038299682617186,5.439626171875,39.7557251908397,-277.64885496183206,76.30534351145039,-6.785167504882812,-0.6440402465820312,-2.3487118286132813,-53.16030534351145,113.25190839694656,42.93129770992366,0.0
11.760000705718994,-22.155942163085935,-0.16998831787109375,0.3112462158203125,16.885496183206108,-295.2519083969466,87.49618320610686,-7.812280017089844,0.12210428466796874,-3.883395092773437,-15.938931297709924,96.4885496183206,53.6793893129771,0.0
11.770000696182251,-18.612523706054688,-5.432443566894531,-5.485116003417969,3.3282442748091605,-307.0534351145038,92.41221374045801,-13.47696114501953,1.9895815795898437,-2.252943762207031,-52.74809160305343,130.1679389312977,55.83206106870229,0.0
11.780000686645508,-13.551181396484374,-10.330980163574218,-10.805032092285156,17.96946564885496,-299.8625954198473,95.25190839694656,-7.041347082519531,10.702081420898438,-7.955932116699218,-78.10687022900764,120.73282442748092,49.847328244274806,0.0
11.790000677108765,-12.950236779785156,-6.519411120605469,-6.217741711425781,25.51145038167939,-273.0229007633588,81.96946564885496,-9.945513696289062,9.093177905273437,-4.783614916992187,-201.9083969465649,176.83969465648855,49.221374045801525,0.0
11.8000009059906,-3.5577836669921874,-11.03248125,-7.153874560546875,76.27480916030534,-253.48091603053436,79.05343511450381,-20.35310831298828,-5.058948107910156,6.983886242675781,-150.94656488549617,177.6030534351145,71.90839694656489,0.0
11.810000658035278,-6.83783994140625,-7.532158422851562,-0.8930372192382812,131.98473282442748,-186.2290076335878,62.18320610687023,-18.471265808105468,-14.494496850585938,7.029376074218749,-25.251908396946565,122.77862595419847,82.19847328244275,0.0
11.820000886917114,-3.6631285400390623,-9.375693701171874,-6.308721374511719,181.49618320610688,-161.74045801526717,56.85496183206107,-14.49210264892578,-11.389217297363281,7.132326745605468,94.47328244274809,79.74045801526718,91.09923664122137,0.0
11.830000638961792,-8.341398583984375,-6.335057592773437,-4.666299035644531,215.4198473282443,-115.14503816793894,47.41984732824427,-10.342951171874999,-1.2808978881835937,0.2753331909179687,146.4885496183206,41.55725190839695,96.90076335877863,0.0
11.840000867843628,-10.371681591796875,-0.7517793212890624,-4.264073156738281,201.61832061068702,-111.98473282442748,42.33587786259542,-7.558494641113281,1.3120225097656248,-1.1851298217773436,89.09923664122137,43.61832061068702,85.87786259541984,0.0
11.850000381469727,-12.722787622070312,5.087678527832031,0.062249243164062495,169.57251908396947,-107.57251908396947,51.37404580152672,-9.849745629882811,3.4715924072265625,-0.02633621826171875,61.02290076335878,41.221374045801525,77.98473282442748,0.0
11.860000371932983,-8.176198669433592,5.760449194335937,0.5698199951171875,133.84732824427482,-120.8854961832061,68.35114503816794,-8.111555224609374,7.599196069335937,-1.8267758666992187,-9.32824427480916,62.36641221374046,63.7557251908397,0.0
11.87000036239624,-9.821015209960937,8.458714465332031,2.8945898071289062,87.2824427480916,-124.18320610687023,76.51908396946565,-11.717222924804688,-0.9792284790039062,3.1842882080078123,-32.030534351145036,79.00763358778626,70.03053435114504,0.0
11.880000591278076,-6.564900952148437,5.6311623046875,0.19632453613281248,41.9236641221374,-136.6412213740458,77.48091603053435,-10.603919152832031,-0.19632453613281248,2.559401574707031,20.3206106870229,63.86259541984733,80.45801526717557,0.0
11.890000581741333,-6.950367419433594,4.235342736816406,-0.39743747558593745,3.282442748091603,-136.7175572519084,72.50381679389314,-10.007762939453125,-2.4349030883789062,0.737414111328125,-12.992366412213741,77.55725190839695,84.38167938931298,0.0
11.90000033378601,-5.125985754394531,1.2473790649414063,-3.2058360229492187,-14.916030534351146,-133.9236641221374,68.77862595419847,-11.559205615234374,-4.479551306152343,1.5729904907226562,13.801526717557252,71.32824427480917,92.21374045801527,0.0
11.910000801086426,-4.65432802734375,2.0829554443359375,-2.3127988037109373,-28.396946564885496,-116.79389312977099,60.961832061068705,-10.421959826660157,-3.5793314819335937,1.2593500732421874,-10.732824427480915,86.53435114503817,91.37404580152672,0.0
11.920000314712524,-2.559401574707031,0.13407529296874998,-3.450044592285156,-37.587786259541986,-103.57251908396947,56.717557251908396,-9.533711010742186,-0.9145850341796874,0.13168109130859373,9.98473282442748,69.48091603053435,85.08396946564885,0.0
11.93000054359436,-1.8459294799804686,0.43574470214843747,-2.2098481323242187,-49.32824427480916,-79.14503816793894,49.099236641221374,-12.272677709960936,-6.442796667480469,2.176329309082031,-5.236641221374046,77.6793893129771,90.62595419847328,0.0
11.940000534057617,1.429338391113281,-2.8730419921875,-4.278438366699218,-58.229007633587784,-66.91603053435115,44.76335877862596,-6.698976245117187,-1.4173673828125,1.3623007446289062,14.687022900763358,70.97709923664122,78.68702290076335,0.0
11.950000762939453,0.8978256225585937,-3.3590649291992185,-2.5809493896484375,-52.68702290076336,-36.030534351145036,35.45038167938932,-12.528857287597656,-5.408501550292969,2.123656872558594,32.83969465648855,60.0,82.27480916030534,0.0
11.96000051498413,0.6248866333007812,-3.057395520019531,-1.678335363769531,-51.603053435114504,-15.312977099236642,21.755725190839694,-8.520963708496094,-0.8978256225585937,-0.13646949462890623,20.137404580152673,67.05343511450381,76.35114503816794,0.0
11.970000743865967,-1.0869675537109373,-1.5251064575195312,-0.11252747802734374,-40.36641221374046,2.564885496183206,9.404580152671755,-12.011709729003906,-3.1555577880859373,1.2761094848632812,42.93129770992366,53.93893129770992,77.46564885496183,0.0
11.980000495910645,0.5482721801757812,-2.272097375488281,0.9337386474609375,-22.732824427480917,14.900763358778626,6.961832061068702,-8.40843623046875,1.7645266235351562,-0.5913678100585937,17.14503816793893,64.87022900763358,78.06106870229007,0.0
11.99000072479248,0.2825157958984375,-3.670311145019531,3.337517114257812,10.687022900763358,32.213740458015266,6.152671755725191,-11.729193933105469,-0.105344873046875,0.19153613281249998,27.46564885496183,57.51145038167939,72.25954198473282,0.0
12.000000476837158,-1.2282254516601563,-2.834734765625,6.133944653320312,50.3206106870229,52.36641221374046,3.0381679389312977,-11.295843432617186,-2.6767174560546874,1.5921441040039062,3.450381679389313,74.3206106870229,76.65648854961832,0.0
12.010000705718994,0.03591302490234375,-6.414066247558593,6.287173559570312,136.7175572519084,86.04580152671755,5.145038167938932,-6.770802294921874,2.952050646972656,-0.5506663818359374,10.091603053435115,69.31297709923665,67.38931297709924,0.0
12.020000696182251,-0.5123591552734374,-1.4724340209960938,8.195352282714843,170.5801526717557,77.66412213740458,-8.091603053435115,-10.651803186035156,2.492363928222656,-1.139639990234375,16.03053435114504,61.89312977099237,66.33587786259542,0.0
12.030000686645508,-7.888894470214844,8.305485559082031,14.475343237304687,194.68702290076337,78.44274809160305,-11.419847328244275,-16.438588598632812,-3.833116857910156,2.7269956909179687,2.6106870229007635,77.72519083969466,73.29770992366412,0.0
12.040000438690186,0.2609679809570312,1.218648645019531,8.228871105957031,226.3206106870229,57.57251908396947,8.870229007633588,-11.465831750488281,-1.4772224243164063,1.838746875,-3.3587786259541983,76.99236641221374,64.93129770992367,0.0
12.050000667572021,-7.745242370605468,9.315838659667968,3.0789433349609374,252.42748091603053,92.93129770992367,14.183206106870228,-11.355698474121093,0.3950432739257812,1.2042834350585936,1.7404580152671756,71.02290076335878,56.6412213740458,0.0
12.060000896453857,-6.1076084350585935,6.9719152343749995,-12.406753002929687,120.70229007633588,76.53435114503817,-11.679389312977099,-9.617508068847656,3.7804444213867185,-2.9664158569335934,5.083969465648855,45.23664122137404,46.97709923664122,0.0
12.070000648498535,-10.862492932128905,0.22266075439453123,-7.161057165527343,18.625954198473284,76.62595419847328,-45.541984732824424,-16.462530615234375,-4.2329485351562495,1.9847931762695312,-7.847328244274809,51.282442748091604,54.87022900763359,0.0
12.080000877380371,-19.481618908691406,6.830657336425781,8.432378247070313,-16.091603053435115,65.09923664122137,-60.19847328244275,-14.542380883789061,-3.0909143432617188,2.770091320800781,-32.656488549618324,53.41984732824427,42.67175572519084,0.0
12.09000039100647,-23.72893265380859,20.02031428222656,12.179303845214843,-16.244274809160306,56.16793893129771,-20.748091603053435,-13.172897534179686,2.7246014892578123,-0.7398083129882812,-32.717557251908396,26.80916030534351,22.85496183206107,0.0
12.100000858306885,-11.087547888183593,-9.574412438964844,3.81156904296875,-46.2442748091603,53.19083969465649,12.977099236641221,-19.661184033203124,-5.635950708007812,3.9336733276367184,-34.900763358778626,17.022900763358777,17.19083969465649,0.0
12.110000848770142,-10.654197387695312,-14.504073657226561,-2.7581203125,2.5343511450381677,72.99236641221374,-13.389312977099237,-19.527108740234375,-4.604049792480469,3.5529952636718747,-6.900763358778626,-7.435114503816794,1.6946564885496183,0.0
12.12000060081482,1.9297265380859374,-21.813571325683593,-19.129671264648437,70.41221374045801,92.19847328244275,-30.412213740458014,-17.51837354736328,-1.687912170410156,1.0462661254882812,-27.0381679389313,-19.251908396946565,-16.595419847328245,0.0
12.130000591278076,-3.5218706420898434,-12.955025183105468,-8.942343200683593,195.12977099236642,166.44274809160305,-42.030534351145036,-13.855245007324218,-4.548983154296875,3.1076737548828124,-34.900763358778626,-31.69465648854962,-21.022900763358777,0.0
12.140000581741333,-10.43153663330078,-1.6065093139648436,-1.7645266235351562,196.53435114503816,170.8091603053435,-64.90076335877863,-13.3692220703125,-7.920019091796875,7.350199096679687,-9.34351145038168,-36.656488549618324,-26.27480916030534,0.0
12.15000057220459,-15.780183142089843,10.778695874023438,0.4070142822265625,192.83969465648855,184.10687022900763,-66.51908396946565,-10.376469995117187,0.4381389038085937,0.15322890625,42.229007633587784,-92.4885496183206,-35.16030534351145,0.0
12.160000562667847,-11.81777939453125,6.347028601074219,-1.458068811035156,105.08396946564885,154.13740458015266,-71.52671755725191,-14.006079711914062,-5.5641246582031245,4.766855505371093,26.916030534351144,-78.35114503816794,-39.267175572519086,0.0
12.170001029968262,-13.931859460449218,6.931213806152344,3.3877953491210935,47.11450381679389,138.73282442748092,-72.83969465648855,-12.344503759765624,1.2306196533203124,-1.1085153686523437,87.25190839694656,-126.36641221374046,-44.0,0.0
12.18000054359436,-14.681244580078124,9.550470422363281,6.430825659179687,-15.022900763358779,108.01526717557252,-81.87786259541984,-15.399505078125,-4.220977526855468,2.4444798950195312,63.770992366412216,-108.13740458015268,-47.89312977099237,0.0
12.190000772476196,-10.733206042480468,3.095702746582031,3.2034418212890623,-74.73282442748092,68.56488549618321,-79.34351145038168,-9.34696328125,4.168305090332031,-3.019088293457031,88.87022900763358,-142.8091603053435,-54.35114503816794,0.0
12.200000286102295,-10.946289990234375,1.6831237670898436,1.9895815795898437,-76.01526717557252,60.961832061068705,-75.58778625954199,-10.905588562011719,2.205059729003906,-1.218648645019531,68.36641221374046,-131.7709923664122,-56.19847328244275,0.0
12.21000075340271,-8.609549169921875,-4.402936853027343,0.062249243164062495,-59.81679389312977,59.52671755725191,-67.78625954198473,-7.649474304199218,7.544129431152343,-5.322310290527343,69.77099236641222,-144.87022900763358,-64.99236641221374,0.0
12.220000267028809,-10.223241088867187,-1.7741034301757812,0.565031591796875,-25.419847328244273,69.06870229007633,-64.67175572519083,-12.401964599609375,3.6439749267578123,-1.8555062866210936,55.89312977099237,-122.82442748091603,-62.6412213740458,0.0
12.230000734329224,-9.672574707031249,0.354341845703125,0.1580173095703125,-7.648854961832061,76.9618320610687,-65.6793893129771,-9.612719665527344,9.062053283691405,-5.6574985229492185,67.77099236641222,-129.08396946564886,-67.54198473282443,0.0
12.240000486373901,-9.430760339355468,0.5602431884765625,0.48123453369140623,-7.541984732824427,72.94656488549619,-68.62595419847328,-15.083470458984374,1.8770541015625,0.44532150878906246,51.7557251908397,-96.97709923664122,-56.99236641221374,0.0
12.250000476837158,-10.134655627441406,1.5011644409179687,0.16041151123046873,-2.015267175572519,74.82442748091603,-69.92366412213741,-9.402029919433593,5.161898779296875,-2.987963671875,51.61832061068702,-106.38167938931298,-55.31297709923664,0.0
12.260000944137573,-9.394847314453125,-0.3902548706054687,-0.9265560424804687,-4.122137404580153,70.45801526717557,-68.03053435114504,-8.1594392578125,4.42448466796875,-1.9776105712890624,39.29770992366412,-99.58778625954199,-52.030534351145036,0.0
12.270000696182251,-9.502586389160156,1.8315642700195311,-0.5722141967773438,5.4961832061068705,75.92366412213741,-65.72519083969466,-7.237671618652343,5.884947680664062,-4.11802685546875,50.51908396946565,-114.61068702290076,-49.770992366412216,0.0
12.280001163482666,-10.012551342773437,1.1085153686523437,-0.5267243652343749,5.923664122137405,75.02290076335878,-64.97709923664122,-12.655749975585938,-0.3687070556640625,1.5227122558593749,38.12213740458015,-89.72519083969466,-39.770992366412216,0.0
12.290000677108765,-9.591171850585937,1.697488977050781,0.32561142578124996,9.786259541984732,76.4885496183206,-63.70992366412214,-9.70369932861328,2.8850130004882812,-0.4860229370117187,35.465648854961835,-97.66412213740458,-43.282442748091604,0.0
12.3000009059906,-10.256759912109374,2.7174188842773437,0.7158662963867187,-7.969465648854962,66.16793893129771,-66.6412213740458,-9.634267480468749,2.327164013671875,1.0845733520507812,15.053435114503817,-85.43511450381679,-48.50381679389313,0.0
12.310000658035278,-10.426748229980468,0.7302315063476562,-0.1149216796875,-9.786259541984732,66.13740458015268,-63.43511450381679,-5.324704492187499,5.190629199218749,-2.4253262817382812,13.770992366412214,-102.51908396946565,-53.587786259541986,0.0
12.320000648498535,-11.458649145507811,3.4093431640625,0.7517793212890624,-11.587786259541986,71.22137404580153,-66.8854961832061,-8.532934716796875,3.5673604736328124,-0.6344634399414062,2.9770992366412212,-96.36641221374046,-54.70229007633588,0.0
12.330000400543213,-9.605537060546874,1.3910311645507811,-0.4477157104492187,-33.20610687022901,64.45801526717557,-65.74045801526718,-8.808267907714843,3.1555577880859373,-1.3144167114257812,6.809160305343512,-107.23664122137404,-52.94656488549618,0.0
12.340000867843628,-14.341267944335936,10.970232006835937,3.3494881225585935,-73.19083969465649,55.587786259541986,-73.64885496183206,-14.714763403320312,-1.7669208251953124,3.5577836669921874,7.129770992366412,-92.22900763358778,-43.786259541984734,0.0
12.350000619888306,-10.211270080566406,1.3359645263671873,-1.0414777221679687,-91.61832061068702,47.404580152671755,-62.83969465648855,-12.715605017089842,0.17238251953125,1.3096283081054687,24.702290076335878,-117.05343511450381,-43.12977099236641,0.0
12.360000610351562,-16.575058093261717,8.626308581542968,1.1923124267578125,-115.40458015267176,36.19847328244275,-63.282442748091604,-13.469778540039062,0.373495458984375,2.2553379638671873,9.664122137404581,-111.98473282442748,-46.01526717557252,0.0
12.37000060081482,-8.63109698486328,-1.3934253662109375,-1.2665326782226562,-95.02290076335878,48.67175572519084,-45.80152671755725,-10.721235034179687,2.920926025390625,0.19153613281249998,-1.7099236641221374,-114.03053435114504,-49.282442748091604,0.0
12.380000591278076,-10.68053360595703,2.5139117431640625,1.9991583862304687,-106.83969465648855,39.16030534351145,-42.396946564885496,-10.457872851562499,2.375048046875,0.3758896606445312,-13.34351145038168,-106.61068702290076,-49.11450381679389,0.0
12.390000581741333,-6.8569935546875,-4.821922143554687,-2.231395947265625,-100.87022900763358,35.083969465648856,-38.25954198473283,-10.649408984374999,-0.239420166015625,2.4516625,-15.465648854961833,-98.74809160305344,-46.0,0.0
12.40000057220459,-12.203245861816406,1.68551796875,1.0295067138671874,-95.06870229007633,33.89312977099237,-45.908396946564885,-8.846575134277343,0.277727392578125,2.6312276245117188,-17.862595419847327,-97.6030534351145,-45.23664122137404,0.0
12.410000562667847,-11.504138977050781,0.4477157104492187,1.6903063720703124,-96.91603053435115,29.72519083969466,-45.25190839694657,-8.001421948242188,1.4915876342773438,1.484405029296875,-17.938931297709924,-96.42748091603053,-46.50381679389313,0.0
12.420000314712524,-16.457742211914063,5.686228942871093,5.549759448242187,-104.76335877862596,26.229007633587788,-45.74045801526717,-9.459490759277344,0.1580173095703125,2.6719290527343746,-13.618320610687023,-87.70992366412214,-41.37404580152672,0.0
12.43000054359436,-8.597578161621094,-1.7429788085937499,-0.5626373901367188,-115.64885496183206,2.122137404580153,-32.152671755725194,-8.343792785644531,1.5682020874023437,1.8291700683593748,-14.641221374045802,-86.7175572519084,-40.88549618320611,0.0
12.440000772476196,-19.246987145996094,13.40034669189453,10.409988818359375,-111.32824427480917,2.732824427480916,-30.870229007633586,-10.637437976074217,-0.023942016601562498,3.938461730957031,-11.129770992366412,-76.58015267175573,-36.54961832061068,0.0
12.450000762939453,-9.90241806640625,1.446097802734375,0.45489831542968745,-153.63358778625954,-33.908396946564885,-10.641221374045802,-10.194510668945313,0.5099649536132812,0.59376201171875,-4.534351145038168,-90.93129770992367,-38.3206106870229,0.0
12.460000276565552,-13.946224670410155,3.0238766967773434,3.0166940917968748,-100.35114503816794,-25.14503816793893,7.00763358778626,-12.502521069335936,-1.5179238525390624,4.055777612304687,6.366412213740458,-88.18320610687023,-31.46564885496183,0.0
12.470000505447388,-9.303867651367186,-4.910507604980468,-2.1883003173828124,-76.90076335877863,-30.458015267175572,22.198473282442748,-11.884817041015625,0.229843359375,3.189076611328125,29.69465648854962,-105.74045801526718,-36.396946564885496,0.0
12.480000257492065,-12.861651318359375,0.814028564453125,1.5777788940429687,-48.656488549618324,-16.870229007633586,15.48091603053435,-19.27571756591797,-6.505045910644531,9.56962403564453,55.55725190839695,-97.81679389312977,-28.27480916030534,0.0
12.490000486373901,-9.117119921875,-3.912125512695312,-1.4149731811523436,-53.43511450381679,-20.99236641221374,8.931297709923664,-14.389151977539061,-3.6056677001953124,4.450820886230469,90.22900763358778,-148.8854961832061,-41.81679389312977,0.0
12.500000476837158,-12.593500732421875,0.8499415893554687,0.38786066894531246,-37.32824427480916,-12.65648854961832,-4.641221374045801,-16.82884346923828,-1.426944189453125,5.616797094726562,83.26717557251908,-150.793893129771,-55.954198473282446,0.0
12.510000467300415,-8.59278975830078,-1.9871873779296874,-0.7422025146484375,-44.85496183206107,-6.748091603053435,-4.656488549618321,-12.897564343261719,0.852335791015625,5.145139367675781,78.2442748091603,-161.61832061068702,-61.29770992366412,0.0
12.520000696182251,-10.005368737792969,1.6352397338867186,-0.6751648681640625,-41.541984732824424,4.99236641221374,-9.679389312977099,6.095637426757812,13.390769885253906,-6.955155822753905,16.977099236641223,-176.2290076335878,-77.89312977099236,0.0
12.530000686645508,-7.9295958984374995,2.109291662597656,-1.0103531005859374,-58.0,13.877862595419847,-4.809160305343512,11.212046374511718,10.426748229980468,-2.04943662109375,-40.13740458015267,-89.32824427480917,-44.51908396946565,0.0
12.540001153945923,-8.710105639648438,2.4492682983398435,0.3591302490234375,-70.10687022900764,26.458015267175572,2.1374045801526718,6.440402465820312,1.4772224243164063,-0.09337386474609374,-69.78625954198473,-49.099236641221374,-18.83969465648855,0.0
12.5500009059906,-6.888118176269531,0.46208092041015625,-2.0159177978515626,-60.6412213740458,29.236641221374047,2.381679389312977,-3.239354846191406,-1.7477672119140624,4.180276098632812,-62.62595419847328,-9.770992366412214,-16.290076335877863,0.0
12.560000896453857,-14.166491223144531,4.295197778320312,1.68551796875,-49.93893129770992,45.80152671755725,-6.778625954198473,-6.4475850708007805,-2.128445275878906,4.84586416015625,-59.37404580152672,-5.404580152671755,-14.961832061068701,0.0
12.570000648498535,-10.053252770996092,1.0390835205078124,-1.0462661254882812,-48.76335877862596,29.938931297709924,-11.801526717557252,-6.56968935546875,-0.9528922607421875,4.431667272949219,-45.66412213740458,1.251908396946565,-17.49618320610687,0.0
12.580000877380371,-9.320627062988281,-2.5522189697265625,-1.3862427612304686,-27.404580152671755,29.740458015267176,-8.793893129770993,-7.773972790527344,-1.5155296508789062,4.826710546875,-30.076335877862597,0.7786259541984732,-13.221374045801527,0.0
12.590000629425049,-10.08677159423828,-3.0119056884765625,-0.5386953735351562,-8.122137404580153,34.19847328244275,-16.03053435114504,-8.978256225585938,-3.0837317382812497,5.9400143188476555,-12.381679389312977,-1.6793893129770991,-8.748091603053435,0.0
12.600000858306885,-11.956643090820311,0.0909796630859375,1.0678139404296874,-2.0763358778625953,33.847328244274806,-23.099236641221374,-5.853823059082031,0.3687070556640625,3.3638533325195312,-2.9770992366412212,-19.64885496183206,-10.916030534351146,0.0
12.610000610351562,-10.960655200195312,0.13407529296874998,1.0869675537109373,-2.2290076335877864,30.366412213740457,-18.65648854961832,-5.963956335449218,1.5658078857421873,3.7421371948242186,-8.442748091603054,-12.15267175572519,-9.236641221374045,0.0
12.62000060081482,-11.291055029296874,0.27293898925781246,1.714248388671875,0.22900763358778625,30.625954198473284,-12.595419847328245,-5.221753820800781,1.39821376953125,3.1292215698242187,-22.03053435114504,-5.6183206106870225,-5.587786259541985,0.0
12.630000591278076,-9.694122521972655,-1.6017209106445311,0.9361328491210937,1.3282442748091603,30.3206106870229,-9.664122137404581,-7.055712292480468,-0.9050082275390624,4.5585599609375,-19.31297709923664,0.366412213740458,-0.3969465648854962,0.0
12.640000343322754,-8.145074047851562,-0.2609679809570312,0.5817910034179687,13.740458015267176,32.33587786259542,-12.610687022900763,-6.375759020996093,-0.7326257080078125,4.029441394042968,-16.48854961832061,-0.22900763358778625,0.4732824427480916,0.0
12.65000057220459,-10.520122094726561,0.36152445068359373,1.158793603515625,4.748091603053435,29.328244274809162,-18.50381679389313,-6.737283471679687,-1.0965443603515623,4.800374328613281,-10.625954198473282,5.923664122137405,2.7938931297709924,0.0
12.660000562667847,-10.445901843261717,0.5099649536132812,0.7733271362304687,7.770992366412214,23.786259541984734,-17.358778625954198,-6.519411120605469,-1.3359645263671873,4.759672900390624,-4.458015267175573,9.267175572519085,6.320610687022901,0.0
12.670000553131104,-8.978256225585938,-0.10295067138671875,-0.6512228515624999,17.61832061068702,24.106870229007633,-19.358778625954198,-6.440402465820312,-1.5777788940429687,4.8123453369140625,3.114503816793893,13.664122137404581,8.763358778625955,0.0
12.68000054359436,-8.621520178222656,1.0630255371093749,-0.8714894042968749,20.244274809160306,26.717557251908396,-23.66412213740458,-6.303932971191406,-1.3072341064453123,4.568136767578125,9.557251908396946,17.083969465648856,10.549618320610687,0.0
12.690000295639038,-12.028469140624999,2.1835119140624997,0.296881005859375,9.633587786259541,25.19083969465649,-27.450381679389313,-6.2392895263671875,-1.1444283935546875,4.216189123535156,14.01526717557252,21.083969465648856,12.625954198473282,0.0
12.700000286102295,-10.467449658203124,2.5953145996093747,0.23702596435546874,0.5343511450381679,19.129770992366414,-26.045801526717558,-6.260837341308593,-0.7757213378906249,3.718195178222656,15.816793893129772,24.50381679389313,13.969465648854962,0.0
12.71000051498413,-9.823409411621093,1.158793603515625,-0.2609679809570312,-10.687022900763358,14.549618320610687,-23.572519083969464,-5.767631799316406,0.14125789794921875,3.0047230834960934,9.32824427480916,30.916030534351144,14.030534351145038,0.0
12.720000505447388,-12.603077539062499,2.817975354003906,1.7381904052734374,-15.19083969465649,18.580152671755727,-25.541984732824428,-5.911283898925781,-0.1292868896484375,2.442085693359375,5.358778625954199,32.458015267175576,15.770992366412214,0.0
12.730000734329224,-9.890447058105469,0.16519991455078123,0.8786720092773437,-15.755725190839694,12.15267175572519,-23.51145038167939,-4.690241052246093,1.6519991455078125,1.9105729248046874,-5.603053435114504,39.64885496183206,15.587786259541986,0.0
12.740000486373901,-11.429918725585937,2.1499930908203124,2.231395947265625,-13.374045801526718,13.86259541984733,-24.427480916030536,-3.5338416503906247,3.1220389648437497,1.7094599853515624,-27.81679389312977,51.20610687022901,17.61832061068702,0.0
12.750000476837158,-12.488155859374999,3.2632968627929686,2.999934680175781,-30.38167938931298,0.5648854961832062,-24.610687022900763,-5.2648494506835934,2.4564509033203126,1.8124106567382812,-49.87786259541985,74.29007633587786,23.66412213740458,0.0
12.760000705718994,-14.420276599121093,4.745307690429687,5.0182466796875,-41.969465648854964,-11.816793893129772,-20.106870229007633,3.9456443359374997,9.598354455566406,-5.078101721191406,-94.09160305343511,86.62595419847328,17.862595419847327,0.0
12.770000696182251,-12.220005273437499,3.725377783203125,4.07971962890625,-57.404580152671755,-28.47328244274809,-10.229007633587786,0.4429273071289062,6.138733056640625,-3.31357509765625,-143.66412213740458,154.13740458015266,33.603053435114504,0.0
12.780000448226929,-14.525621472167968,4.149151477050781,6.160280871582031,-58.534351145038165,-31.328244274809162,-5.770992366412214,-5.295974072265625,1.3814543579101561,-3.612850305175781,-145.22137404580153,161.6030534351145,57.83206106870229,0.0
12.790000438690186,-13.022062829589842,2.731784094238281,5.1714755859374995,-60.94656488549618,-52.38167938931298,-1.9083969465648856,-17.482460522460936,-2.233790148925781,4.639962817382812,-138.8854961832061,182.33587786259542,59.404580152671755,0.0
12.800000429153442,-16.07706414794922,2.6886884643554687,6.940790612792968,-45.06870229007634,-58.85496183206107,4.290076335877862,-8.111555224609374,-2.4349030883789062,1.448492004394531,-157.31297709923663,161.5114503816794,38.06106870229008,0.0
12.810000658035278,-15.538368774414062,2.916137622070312,7.819462622070312,-42.656488549618324,-78.27480916030534,7.786259541984733,-18.94292353515625,-5.844246252441406,6.5409589355468745,-195.34351145038167,200.53435114503816,26.717557251908396,0.0
12.820000886917114,-19.421763867187497,2.4851813232421875,10.611101757812499,-29.14503816793893,-89.7557251908397,14.65648854961832,-18.70589757080078,-4.563348364257812,5.942408520507812,-140.53435114503816,157.57251908396947,47.69465648854962,0.0
12.830000638961792,-20.654777722167967,1.0366893188476562,12.435483422851561,-21.251908396946565,-122.41221374045801,10.290076335877863,-19.14643067626953,-4.819527941894531,9.775525378417969,-96.3969465648855,136.25954198473283,65.52671755725191,0.0
12.840000867843628,-22.340295690917966,0.20829554443359374,14.635754748535156,10.916030534351146,-139.87786259541986,16.80916030534351,-13.084312072753905,2.73896669921875,-1.0438719238281249,-22.458015267175572,59.49618320610687,70.2442748091603,0.0
12.850000381469727,-21.001936962890625,0.5027823486328125,15.289371801757811,30.65648854961832,-178.83969465648855,25.404580152671755,-7.302315063476562,8.207323291015625,-10.050858569335936,-116.18320610687023,121.45038167938931,59.19083969465649,0.0
12.860000610351562,-20.685902343749998,-0.32561142578124996,10.943895788574219,63.7557251908397,-210.35114503816794,49.87786259541985,-1.9536685546875,6.327874987792969,-11.298237634277344,-121.61832061068702,118.6412213740458,61.12977099236641,0.0
12.87000060081482,-19.12248865966797,0.06703764648437499,6.375759020996093,70.68702290076335,-228.0763358778626,60.62595419847328,-6.380547424316406,-1.1827356201171875,-1.4221557861328125,-138.74809160305344,147.6946564885496,69.72519083969466,0.0
12.880000352859497,-14.630966345214842,-5.066130712890625,1.0223241088867188,77.69465648854961,-241.96946564885496,75.09923664122137,-9.10993731689453,-6.248866333007812,1.2401964599609374,-76.54961832061069,130.87022900763358,73.80152671755725,0.0
12.890000581741333,-13.615824841308592,-7.436390356445312,-3.651157531738281,80.0,-230.33587786259542,78.2442748091603,-13.76426534423828,-9.53131680908203,2.0087351928710935,-37.66412213740458,131.49618320610688,74.19847328244275,0.0
12.90000057220459,-6.955155822753905,-11.207257971191405,-13.716381311035155,96.41221374045801,-231.08396946564886,77.41984732824427,-12.320561743164061,-5.442020373535156,2.999934680175781,40.85496183206107,111.57251908396947,70.27480916030534,0.0
12.910000801086426,-8.827421520996094,-6.256048937988281,-10.455478649902343,111.12977099236642,-190.93129770992365,58.045801526717554,-11.633425866699218,0.18914193115234373,-0.1197100830078125,95.19083969465649,69.77099236641222,75.14503816793894,0.0
12.920000553131104,-10.134655627441406,-2.4564509033203126,-5.288791467285156,125.20610687022901,-174.54961832061068,46.48854961832061,-12.466608044433594,-0.19871873779296872,-0.7158662963867187,61.541984732824424,75.77099236641222,71.0381679389313,0.0
12.93000054359436,-13.546392993164062,-0.06943184814453125,1.16837041015625,145.81679389312978,-156.2290076335878,54.58015267175573,-13.050793249511718,-1.4724340209960938,3.0526071166992184,57.847328244274806,67.66412213740458,68.47328244274809,0.0
12.940000295639038,-17.808071948242187,5.652710119628906,5.442020373535156,144.18320610687022,-151.38931297709922,65.17557251908397,-12.19366905517578,2.9951462768554684,1.5682020874023437,63.45038167938932,56.01526717557252,63.038167938931295,0.0
12.950000524520874,-12.76827745361328,1.5514426757812498,0.9193734375,136.83969465648855,-164.50381679389312,85.80152671755725,-9.880870251464843,8.070853796386718,-2.4444798950195312,12.061068702290076,62.412213740458014,55.7557251908397,0.0
12.960000276565552,-9.387664709472656,-1.4532804077148436,-2.5426421630859375,127.70992366412214,-158.7175572519084,94.2442748091603,-11.839327209472655,0.9864110839843749,2.0973206542968748,-3.83206106870229,68.73282442748092,63.221374045801525,0.0
12.970000743865967,-10.424354028320312,0.9504980590820312,-1.7884686401367187,100.01526717557252,-156.9770992366412,86.47328244274809,-10.733206042480468,-1.2641384765625,3.399766357421875,32.87022900763359,65.61832061068702,72.85496183206106,0.0
12.980000495910645,-7.438784558105469,-0.7326257080078125,-2.152387292480469,80.91603053435115,-163.74045801526717,83.93893129770993,-5.590460876464843,4.817133740234374,-2.3415292236328122,15.450381679389313,65.3587786259542,68.04580152671755,0.0
12.990000486373901,-9.342174877929686,2.2074539306640624,0.047884033203124995,60.70229007633588,-152.70229007633588,75.69465648854961,-9.911994873046874,-2.4851813232421875,1.177947216796875,-7.343511450381679,73.8473282442748,74.51908396946565,0.0
13.000000238418579,-4.508281726074219,-0.11013327636718749,-2.0446482177734375,45.31297709923664,-152.77862595419847,73.05343511450381,-8.923189587402343,0.8068459594726562,1.1037269653320312,21.053435114503817,69.32824427480917,76.13740458015268,0.0
13.010000705718994,-7.2903440551757805,2.020706201171875,-2.1068974609374997,10.610687022900763,-144.42748091603053,62.2442748091603,-11.413159313964844,-3.1866824096679687,2.7629087158203123,8.870229007633588,77.34351145038168,82.18320610687023,0.0
13.020000696182251,-6.653486413574218,3.0597897216796874,-1.2832920898437499,-6.106870229007634,-135.87786259541986,59.20610687022901,-8.384494213867187,1.6017209106445311,0.0526724365234375,33.31297709923664,64.0,79.98473282442748,0.0
13.030000448226929,-4.50109912109375,2.176329309082031,-1.5682020874023437,-21.419847328244273,-124.19847328244275,57.343511450381676,-11.480196960449218,-3.23696064453125,1.7334020019531249,16.290076335877863,69.93893129770993,86.51908396946565,0.0
13.040000677108765,-0.105344873046875,0.03591302490234375,-3.517082238769531,-31.14503816793893,-113.74045801526718,55.61832061068702,-10.582371337890624,-0.7661445312499999,1.0558429321289062,55.86259541984733,54.10687022900763,85.98473282442748,0.0
13.050000429153442,1.7190367919921874,-2.6623522460937497,-3.763685009765625,-38.88549618320611,-91.90839694656489,47.7557251908397,-11.947066284179687,-4.218583325195312,0.9888052856445312,21.64885496183206,72.09160305343511,87.48091603053435,0.0
13.060000896453857,1.4963760375976562,-3.0406361083984375,-3.134009973144531,-50.50381679389313,-72.27480916030534,31.16030534351145,-11.209652172851563,-2.1452046874999997,0.842758984375,55.9236641221374,57.267175572519086,84.54961832061069,0.0
13.070000410079956,4.510675927734375,-5.4707507934570305,-3.1794998046874996,-40.68702290076336,-46.961832061068705,18.47328244274809,-10.728417639160156,-4.599261389160156,1.139639990234375,26.732824427480917,71.72519083969466,87.12977099236642,0.0
13.080000877380371,6.586448767089843,-6.363788012695312,-3.0358477050781247,-2.0610687022900764,-16.793893129770993,7.587786259541985,-9.995791931152343,-0.4644751220703125,0.05746083984375,53.86259541984733,53.847328244274806,80.62595419847328,0.0
13.090000629425049,3.2920272827148436,-1.8219874633789062,1.446097802734375,29.282442748091604,12.82442748091603,-7.282442748091603,-11.566388220214844,-4.436455676269531,1.4149731811523436,30.793893129770993,67.55725190839695,83.5114503816794,0.0
13.100000619888306,0.40462008056640625,-0.316034619140625,5.351040710449219,56.396946564885496,26.82442748091603,-8.305343511450381,-7.52737001953125,2.020706201171875,-0.7637503295898437,43.31297709923664,55.98473282442748,70.6412213740458,0.0
13.110105514526367,4.091690637207031,-5.439626171875,6.2201359130859375,101.64885496183206,36.412213740458014,0.33587786259541985,-14.020444921874999,-2.7341782958984373,2.3367408203125,35.70992366412214,62.961832061068705,71.69465648854961,0.0
13.12000060081482,-0.7110778930664062,-2.212242333984375,9.919177478027343,187.87786259541986,77.6030534351145,-1.7404580152671756,-10.781090075683593,-2.061407629394531,1.7645266235351562,12.748091603053435,80.12213740458016,61.38931297709924,0.0
13.130000591278076,-7.917624890136718,10.939107385253905,15.974113476562499,202.9770992366412,57.41984732824427,-17.893129770992367,-7.180210778808593,3.0526071166992184,-1.2282254516601563,21.49618320610687,58.68702290076336,47.87786259541985,0.0
13.140000343322754,-1.8100164550781248,8.8489693359375,7.766790185546874,207.05343511450383,33.61832061068702,4.549618320610687,-15.861585998535155,-0.33758243408203126,-0.5363011718749999,9.587786259541986,61.37404580152672,49.908396946564885,0.0
13.150000810623169,-6.414066247558593,12.227187878417968,-5.05655390625,179.80152671755727,75.41984732824427,12.061068702290076,-15.959748266601562,-4.496310717773437,2.1811177124023438,-2.9160305343511452,69.86259541984732,48.229007633587784,0.0
13.160000562667847,-13.934253662109374,11.652579479980469,-5.111620544433594,29.893129770992367,58.56488549618321,-29.541984732824428,-11.152191333007812,-0.047884033203124995,0.1388636962890625,-14.854961832061068,70.70229007633588,36.045801526717554,0.0
13.170000553131104,-4.786009118652344,-4.328716601562499,-5.578489868164062,-12.80916030534351,40.48854961832061,-32.79389312977099,-10.12507882080078,2.04943662109375,-1.7166425903320313,-20.106870229007633,47.29770992366412,28.702290076335878,0.0
13.180000305175781,-16.634913134765625,3.2824504760742186,6.629544396972656,78.3969465648855,108.36641221374046,-17.236641221374047,-16.148890197753904,-3.5386300537109374,2.360682836914062,-8.595419847328245,32.94656488549618,31.083969465648856,0.0
13.190001010894775,-23.623587780761717,14.238317272949217,16.565481286621093,60.62595419847328,109.16030534351145,-5.022900763358779,-14.681244580078124,-1.8626888916015625,2.27927998046875,-25.72519083969466,34.16793893129771,20.427480916030536,0.0
13.200000524520874,-13.204022155761718,-7.982268334960937,5.671863732910156,-17.954198473282442,72.9618320610687,2.16793893129771,-13.989320300292968,-2.7437551025390623,1.8435352783203125,-4.091603053435114,12.793893129770993,14.412213740458014,0.0
13.21000075340271,-10.596736547851561,-8.834604125976561,-3.5482068603515624,-4.244274809160306,84.67175572519083,-22.65648854961832,-15.677232470703125,0.13407529296874998,-0.8690952026367187,0.8091603053435115,-3.9083969465648853,6.290076335877862,0.0
13.220000743865967,0.6631938598632812,-17.080234643554686,-11.777077966308592,44.36641221374046,84.85496183206106,-35.64885496183206,-28.287492614746093,-23.97314122314453,18.013973291015624,39.6793893129771,21.114503816793892,16.732824427480917,0.0
13.230000495910645,-4.987122058105468,-13.393164086914062,-5.97592734375,174.18320610687022,149.00763358778627,-44.42748091603053,-11.473014355468749,1.3311761230468748,-1.927332336425781,183.09923664122138,-108.9618320610687,-9.770992366412214,0.0
13.240000486373901,-7.819462622070312,-3.8043864379882812,-2.501940734863281,195.1145038167939,150.99236641221373,-64.62595419847328,-23.175872070312497,-14.958971972656249,15.672444067382811,157.206106870229,-88.56488549618321,-19.099236641221374,0.0
13.250000238418579,-15.624560034179687,7.144297753906249,0.9552864624023437,199.49618320610688,166.91603053435114,-66.33587786259542,-12.167332836914062,-0.12689268798828124,2.2960393920898436,223.80152671755727,-173.23664122137404,-43.908396946564885,0.0
13.260000705718994,-11.729193933105469,9.0788126953125,1.0749965454101562,104.68702290076335,143.16030534351145,-75.57251908396947,-19.361908825683592,-1.2761094848632812,3.6008792968749996,176.15267175572518,-175.87786259541986,-50.152671755725194,0.0
13.270000696182251,-13.55357559814453,7.273584643554687,3.689464758300781,41.14503816793893,126.94656488549619,-83.72519083969466,-14.482525842285156,8.748412866210938,-4.498704919433593,169.84732824427482,-207.25190839694656,-60.68702290076336,0.0
13.280000448226929,-15.442600708007811,11.094730493164063,4.498704919433593,-25.282442748091604,103.17557251908397,-98.80916030534351,-11.757924353027343,4.520252734375,-0.97683427734375,115.06870229007633,-207.4351145038168,-55.98473282442748,0.0
13.290000677108765,-10.869675537109375,3.038241906738281,0.6512228515624999,-76.67175572519083,76.18320610687023,-96.77862595419847,-14.355633154296875,5.2816088623046875,-2.3223756103515623,113.6793893129771,-204.65648854961833,-55.64885496183206,0.0
13.3000009059906,-11.204863769531249,1.0558429321289062,0.35194764404296874,-82.59541984732824,69.70992366412214,-91.58778625954199,-10.864887133789061,7.611167077636718,-6.5385647338867185,70.8854961832061,-211.74045801526717,-68.9618320610687,0.0
13.310000896453857,-8.827421520996094,-1.3359645263671873,-1.3814543579101561,-66.61068702290076,75.09923664122137,-80.50381679389314,-10.848127722167968,7.769184387207031,-4.458003491210937,23.358778625954198,-175.46564885496184,-73.87786259541984,0.0
13.320000886917114,-8.870517150878905,-0.8092401611328125,0.00718260498046875,-41.23664122137404,89.54198473282443,-72.68702290076335,-8.695740429687499,6.047753393554687,-4.146757275390625,10.549618320610687,-161.6030534351145,-77.12977099236642,0.0
13.330000638961792,-8.729259252929687,-0.3327940307617187,-0.6440402465820312,-35.9236641221374,91.57251908396947,-74.42748091603053,-9.311050256347656,6.900089184570312,-2.712630480957031,-5.908396946564886,-144.38167938931298,-71.92366412213741,0.0
13.340000867843628,-10.12507882080078,1.0797849487304687,-0.2825157958984375,-25.129770992366414,96.03053435114504,-76.21374045801527,-6.411672045898437,9.162609753417968,-4.04141240234375,-17.72519083969466,-136.38167938931298,-63.81679389312977,0.0
13.350000381469727,-8.0828248046875,-0.63206923828125,-1.0295067138671874,-21.374045801526716,90.27480916030534,-75.3587786259542,-10.455478649902343,6.842628344726562,-2.829946362304687,-16.366412213740457,-122.76335877862596,-49.404580152671755,0.0
13.360000371932983,-9.502586389160156,0.44532150878906246,-1.1635820068359375,-18.885496183206108,87.69465648854961,-73.87786259541984,-9.770736975097655,5.825092639160156,-4.283226770019531,-31.709923664122137,-106.70229007633588,-36.412213740458014,0.0
13.37000060081482,-9.9981861328125,1.8507178833007811,-0.011971008300781249,-8.183206106870228,88.9618320610687,-68.12213740458016,-9.445125549316407,2.221819140625,-2.817975354003906,-29.236641221374047,-96.53435114503817,-34.36641221374046,0.0
13.380000591278076,-9.919177478027343,0.19393033447265623,0.1292868896484375,-6.854961832061068,81.0381679389313,-62.76335877862596,-7.671022119140624,4.695029455566406,-2.825157958984375,-39.770992366412216,-91.81679389312977,-36.62595419847328,0.0
13.390000343322754,-10.862492932128905,2.0757728393554684,1.3335703247070312,3.282442748091603,82.67175572519083,-60.2442748091603,-9.267954626464844,1.3072341064453123,0.7038952880859375,-41.25190839694657,-79.80152671755725,-38.54961832061068,0.0
13.40000057220459,-10.156203442382813,0.33039982910156246,1.2593500732421874,-1.465648854961832,76.85496183206106,-59.70992366412214,-6.500257507324219,4.465186096191406,-1.6256629272460936,-42.2442748091603,-91.77099236641222,-43.847328244274806,0.0
13.410000562667847,-9.763554370117188,1.599326708984375,1.6735469604492186,2.8244274809160306,75.06870229007633,-62.50381679389313,-9.813832604980469,1.0582371337890624,2.0278888061523435,-39.74045801526717,-81.64885496183206,-44.97709923664122,0.0
13.420000553131104,-9.555258825683593,1.139639990234375,1.35990654296875,-16.229007633587788,65.93893129770993,-62.54961832061068,-8.633491186523438,1.2976572998046874,1.0271125122070313,-32.213740458015266,-92.93129770992367,-43.847328244274806,0.0
13.43000054359436,-14.45379542236328,8.724470849609375,3.1220389648437497,-43.465648854961835,62.83969465648855,-71.61832061068702,-10.20887587890625,0.7302315063476562,1.2473790649414063,-18.076335877862597,-101.12977099236642,-45.43511450381679,0.0
13.440000534057617,-8.836998327636719,2.6144682128906247,0.01915361328125,-75.32824427480917,42.85496183206107,-62.06106870229008,-12.107477795410155,0.3232172241210937,2.0087351928710935,-9.038167938931299,-106.59541984732824,-41.969465648854964,0.0
13.450000524520874,-10.342951171874999,2.272097375488281,-0.40462008056640625,-60.29007633587786,52.88549618320611,-54.6412213740458,-8.659827404785156,0.411802685546875,1.9393033447265624,-11.251908396946565,-111.49618320610686,-40.030534351145036,0.0
13.460000276565552,-13.958195678710936,9.131485131835937,3.4524387939453125,-79.78625954198473,58.19847328244275,-57.49618320610687,-8.508992700195313,0.6248866333007812,1.8100164550781248,-8.916030534351146,-112.53435114503817,-40.01526717557252,0.0
13.470000743865967,-10.512939489746094,0.8667010009765624,0.3711012573242187,-117.06870229007633,35.43511450381679,-51.083969465648856,-9.7683427734375,1.3359645263671873,0.21308394775390624,-0.07633587786259542,-125.78625954198473,-42.87022900763359,0.0
13.480000734329224,-9.124302526855468,0.7613561279296874,-0.4381389038085937,-86.82442748091603,40.18320610687023,-42.97709923664122,-10.129867224121092,2.3965958618164063,0.5770026000976562,1.5419847328244274,-128.90076335877862,-44.25954198473283,0.0
13.490000247955322,-8.494627490234375,-0.02154781494140625,0.12689268798828124,-85.23664122137404,39.786259541984734,-39.847328244274806,-9.351751684570312,3.4620156005859375,-0.354341845703125,-6.854961832061068,-123.34351145038168,-47.81679389312977,0.0
13.500000476837158,-15.483302136230467,6.045359191894531,5.801150622558594,-106.45801526717557,36.30534351145038,-47.43511450381679,-13.539210388183593,-3.0262708984374997,6.105214233398437,-3.7099236641221376,-99.37404580152672,-36.732824427480914,0.0
13.510000705718994,-13.869610217285155,5.181052392578125,3.816357446289062,-144.77862595419847,10.549618320610687,-43.69465648854962,-15.689203479003906,-3.641580725097656,3.871424084472656,8.106870229007633,-116.16793893129771,-38.229007633587784,0.0
13.520000696182251,-8.954314208984375,-1.8411410766601561,-0.5315127685546874,-136.10687022900763,0.6717557251908397,-30.229007633587788,-13.280636608886718,0.7493851196289062,1.5514426757812498,5.541984732824427,-124.56488549618321,-48.56488549618321,0.0
13.530000448226929,-14.324508532714843,2.5905261962890624,2.3319524169921872,-96.21374045801527,15.709923664122137,-18.580152671755727,-13.730746520996092,-2.7629087158203123,5.087678527832031,2.6564885496183206,-105.95419847328245,-45.66412213740458,0.0
13.540000438690186,-8.336610180664062,-3.2537200561523436,-0.3687070556640625,-100.42748091603053,0.48854961832061067,-10.427480916030534,-13.735534924316406,-0.36391865234375,1.6831237670898436,7.938931297709924,-120.50381679389314,-54.30534351145038,0.0
13.550000667572021,-8.513781103515624,-3.5410242553710933,-2.0159177978515626,-52.717557251908396,10.396946564885496,-9.84732824427481,-9.272743029785156,1.216254443359375,1.467645617675781,2.4580152671755724,-121.61832061068702,-58.74809160305343,0.0
13.560000896453857,-19.04587420654297,8.475473876953124,7.9104422851562495,-60.50381679389313,24.778625954198475,-21.908396946564885,-7.058106494140625,0.7733271362304687,2.5809493896484375,0.183206106870229,-111.22137404580153,-58.458015267175576,0.0
13.570000648498535,-11.006145031738281,2.8945898071289062,1.7286135986328124,-118.12213740458016,-16.290076335877863,-16.68702290076336,-4.522646936035156,3.0119056884765625,2.346317626953125,-5.312977099236641,-104.30534351145039,-56.10687022900763,0.0
13.58000111579895,-8.726865051269531,-3.835511059570312,-1.7262193969726563,-73.90839694656489,-14.351145038167939,3.145038167938931,-6.059724401855468,1.5514426757812498,3.7397429931640622,-10.061068702290076,-90.67175572519083,-41.55725190839695,0.0
13.590000629425049,-14.982913989257812,3.9624037475585934,5.42047255859375,-55.69465648854962,7.694656488549619,1.9236641221374047,-5.549759448242187,0.040701428222656245,4.855440966796874,-13.099236641221374,-73.48091603053435,-35.969465648854964,0.0
13.600000858306885,-10.335768566894531,-0.033518823242187495,0.8810662109374999,-82.30534351145039,-17.786259541984734,5.297709923664122,-4.620809204101562,1.2234370483398436,2.9448680419921875,-6.106870229007634,-76.79389312977099,-35.89312977099237,0.0
13.610000371932983,-18.15044278564453,8.269572534179687,5.159504577636718,-72.47328244274809,-12.702290076335878,5.679389312977099,-6.387730029296875,-0.9864110839843749,5.090072729492187,0.6259541984732825,-59.16030534351145,-26.213740458015266,0.0
13.62000060081482,-11.405976708984374,0.7493851196289062,-0.06703764648437499,-93.64885496183206,-37.847328244274806,21.114503816793892,-5.987898352050781,1.5897499023437498,3.373430139160156,4.091603053435114,-64.10687022900764,-25.236641221374047,0.0
13.630000591278076,-22.194249389648437,2.0254946044921875,3.9935283691406247,-58.045801526717554,-24.458015267175572,23.022900763358777,-5.406107348632812,0.3687070556640625,4.405331054687499,1.2213740458015268,-48.045801526717554,-19.022900763358777,0.0
13.640000343322754,-9.947907897949218,-4.716577270507813,-0.4213794921875,-37.541984732824424,-20.80916030534351,23.84732824427481,-7.137115148925781,-0.8164227661132812,4.431667272949219,7.3893129770992365,-45.83206106870229,-14.977099236641221,0.0
13.65000057220459,-6.904877587890625,-4.508281726074219,-1.608903515625,-1.633587786259542,-5.801526717557252,12.793893129770993,-3.6391865234374996,1.6807295654296874,2.93050283203125,4.67175572519084,-46.68702290076336,-16.076335877862597,0.0
13.660000562667847,-7.539341027832031,-2.442085693359375,-1.7932570434570312,15.450381679389313,10.900763358778626,-6.442748091603053,-5.181052392578125,-0.2920926025390625,4.975151049804687,4.442748091603053,-22.80916030534351,-12.900763358778626,0.0
13.670000553131104,-9.516951599121093,1.177947216796875,-0.5961562133789062,16.931297709923665,30.47328244274809,-21.87786259541985,-5.595249279785156,-0.9792284790039062,4.649539624023437,5.755725190839694,-25.740458015267176,-9.389312977099237,0.0
13.68000078201294,-10.953472595214842,0.5458779785156249,-0.9576806640625,14.946564885496183,37.17557251908397,-25.52671755725191,-6.1459156616210935,0.023942016601562498,5.432443566894531,10.900763358778626,-20.80916030534351,-11.465648854961833,0.0
13.690000772476196,-11.688492504882811,0.46686932373046874,-0.1292868896484375,9.32824427480916,44.19847328244275,-22.137404580152673,-4.319139794921875,1.908178723144531,3.5434184570312497,-0.24427480916030533,-13.954198473282442,-11.908396946564885,0.0
13.700000524520874,-10.730811840820312,0.45968671875,-0.36631285400390623,1.2061068702290076,44.916030534351144,-19.61832061068702,-6.60799658203125,0.16280571289062498,4.082113830566406,-9.221374045801527,-2.4732824427480917,-7.816793893129771,0.0
13.71000075340271,-11.563994018554688,1.2761094848632812,0.93852705078125,-1.4045801526717556,49.29770992366412,-19.114503816793892,-7.055712292480468,-0.4644751220703125,4.367023828124999,-11.099236641221374,-0.6259541984732825,-4.473282442748092,0.0
13.720000505447388,-9.840168823242188,2.1595698974609374,0.8116343627929687,-5.099236641221374,42.68702290076336,-19.541984732824428,-7.1778165771484375,-0.16041151123046873,4.479551306152343,-9.038167938931299,2.366412213740458,-3.1755725190839694,0.0
13.730000734329224,-12.90235274658203,3.854664672851562,2.4971523315429685,-9.236641221374045,41.57251908396947,-23.587786259541986,-5.480327600097656,0.4477157104492187,3.921702319335937,-15.206106870229007,6.259541984732825,-2.2748091603053435,0.0
13.740000486373901,-10.998962426757812,2.104503259277344,1.2401964599609374,-19.114503816793892,31.267175572519083,-23.17557251908397,-5.892130285644531,-0.7230489013671875,4.493916516113281,-17.068702290076335,16.3206106870229,0.0916030534351145,0.0
13.750000476837158,-13.175291735839844,2.7246014892578123,2.1811177124023438,-25.404580152671755,27.419847328244273,-24.15267175572519,-5.693411547851563,-1.0438719238281249,3.928884924316406,-11.954198473282442,11.709923664122137,1.3435114503816794,0.0
13.760000705718994,-11.987767712402343,1.2737152832031249,1.5753846923828123,-24.015267175572518,25.206106870229007,-24.48854961832061,-4.9416322265625,-0.20350714111328125,4.584896179199219,-10.412213740458014,23.49618320610687,0.6412213740458015,0.0
13.770000457763672,-10.761936462402343,-0.3016694091796875,1.189918225097656,-26.061068702290076,23.358778625954198,-21.297709923664122,-6.603208178710937,-0.46686932373046874,4.642357019042969,-13.282442748091603,30.38167938931298,3.114503816793893,0.0
13.780000686645508,-10.826579907226561,0.411802685546875,1.6041151123046875,-21.740458015267176,23.66412213740458,-23.251908396946565,-5.983109948730468,-0.5291185668945312,4.089296435546875,-15.86259541984733,37.02290076335878,3.648854961832061,0.0
13.790000438690186,-10.271125122070313,0.15322890625,0.7445967163085937,-22.625954198473284,21.389312977099237,-23.587786259541986,-2.3439234252929686,2.2601263671875,1.2785036865234374,-26.610687022900763,36.50381679389313,0.8091603053435115,0.0
13.8000009059906,-10.967837805175781,1.3718775512695311,1.9823989746093749,-16.9618320610687,21.053435114503817,-23.16030534351145,-5.398924743652343,-0.6081272216796875,4.759672900390624,-39.66412213740458,64.93129770992367,6.442748091603053,0.0
13.810000658035278,-11.25514200439453,1.4891934326171874,3.1316157714843746,-20.213740458015266,15.32824427480916,-23.450381679389313,-6.344634399414062,-1.4628572143554686,3.88818349609375,-38.2442748091603,52.916030534351144,12.488549618320612,0.0
13.820000886917114,-11.382034692382812,2.0350714111328125,2.5737667846679684,-14.076335877862595,9.84732824427481,-25.358778625954198,-3.8139632446289062,1.687912170410156,2.858676782226562,-41.43511450381679,59.12977099236641,11.404580152671755,0.0
13.830000638961792,-12.39238779296875,2.3678654418945313,4.151545678710937,-17.801526717557252,4.519083969465649,-26.38167938931298,-3.27526787109375,2.243366955566406,2.1356278808593747,-55.954198473282446,71.38931297709924,16.99236641221374,0.0
13.840000867843628,-11.750741748046874,1.695094775390625,3.134009973144531,-24.412213740458014,-12.0,-23.709923664122137,-4.797980126953124,1.6807295654296874,0.74699091796875,-60.412213740458014,79.92366412213741,28.198473282442748,0.0
13.850000619888306,-12.251129895019531,1.5227122558593749,4.592078784179687,-20.793893129770993,-16.427480916030536,-22.580152671755727,-2.6503812377929687,3.1603461914062496,-2.655169641113281,-56.61068702290076,91.92366412213741,33.00763358778626,0.0
13.860000371932983,-11.82975040283203,1.0223241088867188,5.128379956054687,-19.908396946564885,-30.702290076335878,-19.603053435114504,-6.124367846679687,0.8068459594726562,-2.626439221191406,-50.83969465648855,112.38167938931298,42.396946564885496,0.0
13.87000060081482,-13.443442321777344,2.29843359375,6.751648681640624,-18.732824427480917,-42.50381679389313,-21.72519083969466,-6.766013891601562,0.07900865478515624,-0.9002198242187499,-42.85496183206107,125.46564885496183,41.29770992366412,0.0
13.880000591278076,-13.855245007324218,3.143586779785156,8.556876733398436,-23.099236641221374,-63.954198473282446,-19.480916030534353,-11.384428894042967,-1.407790576171875,3.7804444213867185,-40.396946564885496,130.6412213740458,38.87022900763359,0.0
13.890000581741333,-16.024391711425782,3.114856359863281,11.066000073242186,-16.9618320610687,-84.53435114503817,-14.916030534351146,-15.502455749511718,-4.8889597900390624,9.313444458007812,-60.38167938931298,131.57251908396947,28.16793893129771,0.0
13.90000057220459,-16.71392178955078,2.6384102294921874,12.100295190429687,-11.893129770992367,-108.58015267175573,-9.145038167938932,-13.941436267089843,-10.81460889892578,11.643002673339844,-62.778625954198475,122.29007633587786,13.419847328244275,0.0
13.910000801086426,-19.54865655517578,2.7341782958984373,15.574281799316406,1.9236641221374047,-130.82442748091603,1.1755725190839694,-11.547234606933593,-4.721365673828124,4.958391638183594,-33.908396946564885,99.46564885496183,14.351145038167939,0.0
13.920000553131104,-19.302053784179687,3.3638533325195312,14.657302563476561,17.786259541984734,-164.1679389312977,12.442748091603054,-13.469778540039062,0.5913678100585937,9.105148913574219,-14.778625954198473,114.2442748091603,33.267175572519086,0.0
13.93000054359436,-19.778499914550782,3.5386300537109374,14.180856433105468,26.229007633587788,-192.9770992366412,28.16793893129771,2.501940734863281,12.998120812988281,-8.353369592285155,-47.19083969465649,75.70992366412214,32.54961832061068,0.0
13.940000295639038,-18.825607653808593,5.8226984375,11.279084020996093,37.86259541984733,-217.87786259541986,39.6793893129771,0.16998831787109375,14.271836096191405,-9.488221179199218,-138.67175572519085,163.95419847328245,44.99236641221374,0.0
13.950000762939453,-17.58780539550781,0.6943184814453125,6.964732629394531,38.396946564885496,-236.73282442748092,69.93893129770993,-4.42448466796875,5.070919116210937,-9.239224206542968,-145.29770992366412,176.03053435114504,82.12213740458016,0.0
13.960000276565552,-16.90545792236328,-5.015852478027344,1.2306196533203124,38.33587786259542,-248.15267175572518,77.3587786259542,-13.046004846191405,-2.281674182128906,-0.44053310546874996,-148.73282442748092,193.96946564885496,92.56488549618321,0.0
13.970000743865967,-17.597382202148438,-8.748412866210938,-4.113238452148437,41.11450381679389,-251.31297709923663,73.87786259541984,-1.9823989746093749,5.523423229980469,-4.675875842285156,-118.61068702290076,144.4885496183206,72.25954198473282,0.0
13.980000495910645,-16.768988427734374,-8.090007409667969,-8.307879760742187,53.98473282442748,-251.38931297709922,66.18320610687023,-11.389217297363281,3.5410242553710933,-6.227318518066406,-223.75572519083968,200.06106870229007,60.80916030534351,0.0
13.990000247955322,-13.113042492675781,-5.128379956054687,-9.050082275390624,74.41221374045801,-245.4351145038168,62.54961832061068,-9.533711010742186,4.800374328613281,-3.9624037475585934,-197.206106870229,167.206106870229,52.85496183206107,0.0
14.000000715255737,-11.645396875,-1.9201497314453124,-3.1076737548828124,92.58015267175573,-222.42748091603053,58.229007633587784,-19.36909143066406,-5.7891796142578125,2.817975354003906,-217.45038167938932,174.0916030534351,68.27480916030534,0.0
14.010000705718994,-9.698910925292969,-3.1364041748046874,-0.6344634399414062,123.40458015267176,-196.0763358778626,65.25190839694656,-17.60695900878906,-17.70512127685547,10.350133776855468,-70.53435114503817,107.98473282442748,76.36641221374046,0.0
14.020000696182251,-10.905588562011719,-2.971204260253906,0.8116343627929687,138.33587786259542,-175.95419847328245,63.61832061068702,-18.56703387451172,-16.776171032714842,9.251195214843749,96.3969465648855,37.57251908396947,86.38167938931298,0.0
14.030000686645508,-11.233594189453123,-2.2553379638671873,0.3280056274414062,142.6259541984733,-168.24427480916032,61.80152671755725,-6.564900952148437,-0.1149216796875,-2.7940333374023436,71.14503816793894,39.29770992366412,67.89312977099236,0.0
14.040000677108765,-12.452242834472656,1.3215993164062498,-0.9169792358398436,129.40458015267177,-158.35114503816794,60.0,-8.997409838867187,0.7038952880859375,-0.9696516723632812,63.80152671755725,27.022900763358777,66.07633587786259,0.0
14.050000429153442,-8.231265307617187,0.5626373901367188,-3.0454245117187497,116.67175572519083,-157.22137404580153,64.68702290076335,-9.562441430664062,0.8475473876953125,-1.2617442749023438,66.03053435114504,30.259541984732824,69.16030534351145,0.0
14.060000896453857,-7.888894470214844,1.6400281372070311,0.181959326171875,99.70992366412214,-145.14503816793894,65.29770992366412,-10.809820495605468,-1.180341418457031,0.2657563842773437,67.20610687022901,33.89312977099237,69.55725190839695,0.0
14.070000648498535,-6.567295153808593,2.109291662597656,0.26815058593749996,74.35114503816794,-144.61068702290078,64.36641221374046,-6.785167504882812,4.936843823242187,-4.302380383300781,31.81679389312977,51.98473282442748,56.56488549618321,0.0
14.08000111579895,-8.161833459472655,4.611232397460937,1.6304513305664061,49.9236641221374,-132.29007633587787,61.89312977099237,-8.520963708496094,-0.1292868896484375,-1.448492004394531,-20.916030534351144,84.54961832061069,61.63358778625954,0.0
14.090000867843628,-5.418078356933593,2.061407629394531,-0.49320554199218747,29.206106870229007,-138.2290076335878,63.98473282442748,-9.483432775878907,-2.530671154785156,0.41419688720703124,8.412213740458014,76.19847328244275,68.76335877862596,0.0
14.100000858306885,-6.622361791992187,3.0693665283203124,-0.3016694091796875,11.923664122137405,-124.30534351145039,62.54961832061068,-11.269507214355468,-5.128379956054687,1.9752163696289062,9.099236641221374,78.30534351145039,78.38167938931298,0.0
14.110000371932983,-1.0007762939453124,-1.2689268798828124,-4.187458703613281,11.129770992366412,-115.54198473282443,65.1145038167939,-8.003816149902343,0.35194764404296874,0.9696516723632812,34.06106870229008,63.6793893129771,69.00763358778626,0.0
14.12000036239624,-1.7932570434570312,0.7517793212890624,-2.250549560546875,3.068702290076336,-91.74045801526718,58.99236641221374,-11.3006318359375,-3.766079211425781,2.7724855224609373,29.908396946564885,66.3969465648855,77.5114503816794,0.0
14.130000591278076,3.1842882080078123,-2.7078420776367187,-4.055777612304687,2.2595419847328246,-76.79389312977099,54.778625954198475,-9.624690673828125,0.10773907470703124,1.5849614990234373,59.49618320610687,51.16030534351145,70.70229007633588,0.0
14.140000581741333,0.45968671875,-0.016759411621093748,-0.6105214233398437,-5.083969465648855,-43.770992366412216,40.900763358778626,-11.518504187011718,-2.3870190551757813,2.142810485839844,27.893129770992367,62.18320610687023,73.8473282442748,0.0
14.15000057220459,0.6679822631835937,-1.0438719238281249,-0.011971008300781249,-21.81679389312977,-35.786259541984734,30.80916030534351,-10.761936462402343,-1.7812860351562498,2.403778466796875,44.68702290076336,56.595419847328245,70.36641221374046,0.0
14.160000801086426,1.0295067138671874,-0.8738836059570312,1.6639701538085936,-24.137404580152673,-14.183206106870228,21.0381679389313,-7.838616235351562,0.29448680419921874,0.3136404174804687,22.50381679389313,57.7557251908397,71.64885496183206,0.0
14.170000314712524,0.6416460449218749,-1.2282254516601563,2.3774422485351563,-19.740458015267176,-8.854961832061068,14.900763358778626,-11.374852087402344,-0.59376201171875,0.43574470214843747,29.908396946564885,51.00763358778626,71.87786259541984,0.0
14.180000305175781,0.9313444458007812,-1.4221557861328125,4.187458703613281,7.343511450381679,8.82442748091603,12.351145038167939,-8.398859423828124,0.5482721801757812,-0.316034619140625,10.305343511450381,58.94656488549618,71.63358778625954,0.0
14.190000772476196,1.0869675537109373,-2.291250988769531,4.685452648925781,35.19083969465649,17.17557251908397,9.98473282442748,-12.23915888671875,0.411802685546875,-0.028730419921875,23.52671755725191,49.61832061068702,67.78625954198473,0.0
14.200000524520874,-1.1276689819335937,0.70868369140625,6.885723974609375,60.0763358778626,32.16793893129771,4.290076335877862,-11.152191333007812,-2.8754361938476563,1.4341267944335936,4.2748091603053435,67.52671755725191,67.69465648854961,0.0
14.21000051498413,-2.8203695556640622,2.710236279296875,7.331045483398437,66.58015267175573,27.72519083969466,-0.22900763358778625,-11.71482872314453,-1.484405029296875,1.927332336425781,30.9618320610687,57.099236641221374,61.48091603053435,0.0
14.220000505447388,-3.2728736694335936,3.4931402221679684,8.667010009765624,80.30534351145039,26.65648854961832,-0.7786259541984732,-11.724405529785155,-3.8690298828125,2.511517541503906,47.282442748091604,44.61068702290076,63.221374045801525,0.0
14.230000734329224,-5.396530541992187,7.733271362304687,9.710881933593749,83.5114503816794,22.610687022900763,-2.8702290076335877,-13.395558288574218,-2.6575638427734374,2.3918074584960936,60.58015267175573,43.14503816793893,57.02290076335878,0.0
14.240000486373901,-6.0884548217773435,9.119514123535156,8.20971749267578,72.35114503816794,18.3206106870229,5.0534351145038165,-11.104307299804686,1.2497732666015624,-0.97683427734375,35.725190839694655,44.717557251908396,49.725190839694655,0.0
14.250000476837158,-5.276820458984375,6.035782385253906,4.774038110351563,67.41984732824427,21.34351145038168,17.81679389312977,-15.217545751953125,-5.159504577636718,4.879382983398437,41.908396946564885,47.954198473282446,53.465648854961835,0.0
14.260000944137573,-8.968679418945312,8.319850769042969,1.3359645263671873,39.06870229007634,29.938931297709924,14.50381679389313,-9.78031378173828,4.048595007324218,-3.689464758300781,58.06106870229008,17.740458015267176,40.82442748091603,0.0
14.27000093460083,-11.192892761230468,5.693411547851563,-2.142810485839844,-4.9465648854961835,43.69465648854962,8.458015267175572,-16.32366691894531,-1.0127473022460938,1.0319009155273438,0.3816793893129771,46.54961832061068,36.79389312977099,0.0
14.280000448226929,-13.769053747558592,-2.8658593872070313,1.2832920898437499,13.908396946564885,85.02290076335878,4.458015267175573,-12.722787622070312,-2.01112939453125,-0.2561795776367187,18.396946564885496,15.908396946564885,24.3206106870229,0.0
14.290000677108765,-2.1404162841796874,-15.907075830078124,-7.56567724609375,72.83969465648855,88.07633587786259,4.091603053435114,-18.990807568359372,-2.8706477905273435,3.35188232421875,26.458015267175572,7.114503816793893,19.6793893129771,0.0
14.3000009059906,-9.519345800781249,-9.631873278808593,-1.9584569580078124,175.38931297709922,173.81679389312978,-11.251908396946565,-14.784195251464842,0.2537853759765625,1.3168109130859373,12.244274809160306,-6.091603053435114,9.297709923664122,0.0
14.310000658035278,-4.6351744140625,-11.5304751953125,-6.042964990234375,169.17557251908397,173.95419847328245,-32.152671755725194,-20.41056915283203,-15.990872888183592,14.302960717773436,36.01526717557252,13.221374045801527,9.709923664122137,0.0
14.320000886917114,-14.130578198242187,-3.0262708984374997,-5.035006091308594,201.8320610687023,208.42748091603053,-48.3206106870229,-9.878476049804688,-0.8403647827148437,1.7884686401367187,114.01526717557252,-80.80916030534351,-13.877862595419847,0.0
14.330000638961792,-2.0254946044921875,-17.073052038574218,-8.449137658691406,191.54198473282443,173.54198473282443,-53.083969465648856,-17.753005310058594,-1.8243816650390623,4.963180041503906,91.09923664122137,-96.77862595419847,-28.38167938931298,0.0
14.340000867843628,-11.37006368408203,-8.039729174804688,-1.0893617553710937,312.412213740458,246.91603053435114,-60.3206106870229,-13.510479968261718,0.6703764648437499,-1.3263877197265623,106.45801526717557,-147.93893129770993,-40.79389312977099,0.0
14.350000619888306,-18.59815849609375,20.163966381835937,3.1675287963867187,203.98473282442748,195.5267175572519,-93.26717557251908,-18.36113253173828,-2.7820623291015623,4.209006518554688,98.06106870229007,-138.04580152671755,-45.61832061068702,0.0
14.360000610351562,-20.798429821777344,20.585345874023435,5.647921716308593,44.68702290076336,147.93893129770993,-94.62595419847328,-16.704344982910154,2.8467057739257813,-0.7398083129882812,102.19847328244275,-164.82442748091603,-50.778625954198475,0.0
14.37000060081482,-16.826449267578123,12.897564343261719,5.834669445800781,-83.37404580152672,94.83969465648855,-102.27480916030534,-17.305289599609374,5.394136340332031,-2.1404162841796874,70.30534351145039,-173.61832061068702,-52.16793893129771,0.0
14.380000829696655,-11.621454858398437,3.507505432128906,1.5849614990234373,-143.6030534351145,53.23664122137404,-98.47328244274809,-10.249577307128906,6.828263134765624,-6.026205578613281,55.969465648854964,-186.24427480916032,-53.343511450381676,0.0
14.390000581741333,-8.726865051269531,-1.0031704956054688,-0.28012159423828126,-140.01526717557252,44.152671755725194,-86.50381679389314,-16.646884143066405,2.664746447753906,-4.163516687011718,40.274809160305345,-160.4885496183206,-53.66412213740458,0.0
14.40000057220459,-4.431667272949219,-8.219294299316406,-3.9743747558593747,-83.37404580152672,59.80152671755725,-68.41221374045801,-11.044452258300781,4.7572786987304685,-2.990357873535156,29.954198473282442,-145.4198473282443,-58.19847328244275,0.0
14.410000562667847,-7.163451367187499,-3.284844677734375,-1.1851298217773436,-22.83969465648855,90.76335877862596,-64.77862595419847,-6.093243225097656,6.45476767578125,-4.8314989501953125,16.732824427480917,-138.59541984732823,-68.01526717557252,0.0
14.420000553131104,-6.387730029296875,-2.7437551025390623,-1.7788918334960937,-1.4198473282442747,98.77862595419847,-65.74045801526718,-9.502586389160156,3.39018955078125,-1.7357962036132812,17.236641221374047,-121.26717557251908,-66.87022900763358,0.0
14.43000054359436,-9.414000927734374,-0.8930372192382812,0.51714755859375,17.557251908396946,103.80152671755725,-69.37404580152672,-8.389282617187499,6.086060620117187,-1.5682020874023437,6.687022900763359,-107.38931297709924,-56.274809160305345,0.0
14.440000534057617,-12.318167541503906,2.6048914062499997,0.7876923461914062,16.9618320610687,100.33587786259542,-71.2824427480916,-8.458714465332031,5.7700260009765625,-2.808398547363281,10.183206106870228,-105.96946564885496,-54.74809160305343,0.0
14.450000524520874,-8.865728747558594,1.5682020874023437,0.16998831787109375,11.129770992366412,87.1145038167939,-70.03053435114504,-8.583212951660157,5.896918688964844,-2.4899697265625,-7.6183206106870225,-92.62595419847328,-48.458015267175576,0.0
14.46000051498413,-8.741230261230468,2.9927520751953125,1.0175357055664063,-6.702290076335878,75.72519083969466,-68.47328244274809,-8.882488159179687,3.399766357421875,-1.4437036010742186,-4.1679389312977095,-89.58778625954199,-46.06106870229008,0.0
14.470000743865967,-9.215282189941405,1.8746598999023436,0.7996633544921875,-10.946564885496183,72.82442748091603,-65.46564885496183,-7.173028173828125,4.951209033203125,-0.9840168823242187,-15.17557251908397,-87.80152671755725,-42.900763358778626,0.0
14.480000257492065,-11.79862578125,4.182670300292968,2.2194249389648437,-28.625954198473284,64.90076335877863,-64.93129770992367,-8.192958081054687,2.9544448486328125,-0.316034619140625,-15.129770992366412,-87.08396946564885,-43.221374045801525,0.0
14.490000247955322,-18.722656982421874,15.966930871582031,9.469067565917967,-73.64885496183206,55.98473282442748,-74.36641221374046,-9.248801013183593,2.528276953125,1.8602946899414061,-15.267175572519085,-84.3969465648855,-39.12977099236641,0.0
14.500000476837158,-7.321468676757812,-1.4939818359375,1.22583125,-89.08396946564885,43.74045801526717,-57.64885496183206,-8.379705810546875,4.76924970703125,-1.2473790649414063,-10.458015267175572,-100.61068702290076,-45.83206106870229,0.0
14.510000705718994,-14.420276599121093,7.371746911621093,2.5474305664062498,-90.70229007633588,35.06870229007634,-61.038167938931295,-12.208034265136718,1.0821791503906248,2.2840683837890623,-9.679389312977099,-93.87786259541984,-40.33587786259542,0.0
14.52000093460083,-6.064512805175781,-2.3870190551757813,-1.6208745239257811,-103.6030534351145,22.458015267175572,-48.83969465648855,-9.789890588378906,1.8531120849609375,1.5466542724609373,-5.32824427480916,-101.25190839694656,-40.87022900763359,0.0
14.530000448226929,-18.428170178222654,13.050793249511718,6.624755993652343,-117.02290076335878,32.732824427480914,-54.534351145038165,-8.346186987304687,1.3646949462890625,1.6328455322265625,-4.763358778625954,-102.99236641221374,-37.52671755725191,0.0
14.540000677108765,-9.631873278808593,4.012681982421875,1.3335703247070312,-182.3206106870229,-4.091603053435114,-41.45038167938932,-6.804321118164062,4.321533996582031,-0.8451531860351562,-9.068702290076336,-117.58778625954199,-40.85496183206107,0.0
14.550000667572021,-18.83279025878906,13.036428039550781,7.8362220336914055,-180.15267175572518,-1.7404580152671756,-30.900763358778626,-9.014169250488282,2.2673089721679687,0.5099649536132812,-13.725190839694656,-115.22137404580153,-33.70992366412214,0.0
14.560000896453857,-8.461108666992187,0.9983820922851562,-0.44053310546874996,-207.5267175572519,-27.84732824427481,-10.717557251908397,-8.003816149902343,3.919308117675781,-0.6464344482421874,-11.022900763358779,-124.25954198473282,-38.35114503816794,0.0
14.570000648498535,-16.80250725097656,5.588066674804687,3.114856359863281,-168.73282442748092,-11.557251908396946,-1.6946564885496183,-8.992621435546875,1.8555062866210936,1.0486603271484374,-18.717557251908396,-120.30534351145039,-34.88549618320611,0.0
14.580000877380371,-10.014945544433592,-2.0302830078125,1.0271125122070313,-169.49618320610688,-27.6793893129771,11.022900763358779,-7.860164050292968,2.592920397949219,0.15083470458984374,-19.603053435114504,-120.44274809160305,-41.02290076335878,0.0
14.590000867843628,-10.12507882080078,-3.5218706420898434,0.93852705078125,-114.07633587786259,-15.587786259541986,17.908396946564885,-14.044386938476562,-1.1755530151367186,4.173093493652344,-16.916030534351144,-106.2442748091603,-32.961832061068705,0.0
14.600000858306885,-6.069301208496094,-6.979097839355468,-0.6560112548828124,-76.90076335877863,-6.5038167938931295,14.274809160305344,-12.670115185546875,-0.6823474731445313,2.250549560546875,-13.34351145038168,-116.61068702290076,-41.770992366412216,0.0
14.610000610351562,-8.039729174804688,-3.584119885253906,0.7350199096679687,-37.770992366412216,13.282442748091603,-0.7480916030534351,-11.240776794433593,-1.5370774658203123,4.520252734375,-11.19083969465649,-114.68702290076335,-46.38167938931298,0.0
14.62000060081482,-7.632714892578124,-2.8419173706054686,0.6177040283203125,-22.15267175572519,22.870229007633586,-13.221374045801527,-7.5465236328125,0.105344873046875,1.3527239379882812,-11.34351145038168,-117.29770992366412,-54.045801526717554,0.0
14.630000829696655,-11.789048974609374,1.8914193115234375,2.5354595581054684,-11.48091603053435,35.969465648854964,-21.31297709923664,-7.261613635253906,-0.8978256225585937,3.31357509765625,-8.244274809160306,-107.20610687022901,-53.404580152671755,0.0
14.640000581741333,-8.607154968261717,0.6153098266601562,0.41419688720703124,-14.717557251908397,31.419847328244273,-18.564885496183205,-5.985504150390625,0.04548983154296875,2.408566870117187,-3.5572519083969465,-102.79389312977099,-52.56488549618321,0.0
14.65000033378601,-9.70369932861328,1.4796166259765624,0.8403647827148437,-8.50381679389313,37.908396946564885,-17.786259541984734,-7.3478048950195305,-0.7062894897460937,3.938461730957031,-0.33587786259541985,-84.38167938931298,-45.86259541984733,0.0
14.660000562667847,-8.525752111816406,0.8882488159179687,0.2346317626953125,-16.625954198473284,33.66412213740458,-16.03053435114504,-4.6998178588867185,2.114080065917969,2.6791116577148437,-6.656488549618321,-77.43511450381679,-43.49618320610687,0.0
14.670000553131104,-10.618284362792968,2.6312276245117188,0.82360537109375,-17.221374045801525,32.82442748091603,-13.908396946564885,-7.991845141601562,0.3447650390625,3.31357509765625,-1.5419847328244274,-65.05343511450381,-34.030534351145036,0.0
14.680000305175781,-9.734823950195311,1.484405029296875,1.2473790649414063,-15.709923664122137,35.908396946564885,-13.816793893129772,-5.295974072265625,2.5522189697265625,2.104503259277344,-6.793893129770993,-60.900763358778626,-35.81679389312977,0.0
14.690001010894775,-10.156203442382813,2.24097275390625,1.5801730957031248,-17.801526717557252,37.81679389312977,-14.030534351145038,-7.388506323242187,0.38307226562499996,4.53940634765625,-5.419847328244275,-46.3206106870229,-28.977099236641223,0.0
14.700000524520874,-10.989385620117186,1.1611878051757811,1.3527239379882812,-17.267175572519083,37.19083969465649,-16.290076335877863,-8.82981572265625,0.14125789794921875,4.319139794921875,1.5419847328244274,-51.770992366412216,-24.702290076335878,0.0
14.71000075340271,-9.564835632324218,0.7613561279296874,0.6607996582031249,-13.98473282442748,36.54961832061068,-17.221374045801525,-5.295974072265625,1.905784521484375,3.536235852050781,-3.0229007633587788,-49.11450381679389,-27.31297709923664,0.0
14.720000505447388,-9.289502441406249,0.8643067993164062,0.3447650390625,-13.694656488549619,37.099236641221374,-17.66412213740458,-7.8721350585937495,-0.4285620971679687,4.6064439941406246,-6.916030534351145,-33.6793893129771,-21.572519083969464,0.0
14.730000495910645,-9.009380847167968,0.258573779296875,-0.0718260498046875,-13.786259541984732,36.274809160305345,-17.51145038167939,-8.528146313476562,-1.0486603271484374,5.0206408813476555,-2.732824427480916,-41.17557251908397,-17.389312977099237,0.0
14.740000486373901,-8.82263311767578,0.18914193115234373,0.10295067138671875,-10.091603053435115,38.47328244274809,-17.96946564885496,-7.953537915039062,1.0989385620117187,3.414131567382812,1.8015267175572518,-46.213740458015266,-18.427480916030536,0.0
14.750000476837158,-8.865728747558594,1.4053963745117186,0.373495458984375,-7.190839694656488,38.717557251908396,-19.450381679389313,-2.5570073730468748,3.2728736694335936,2.5354595581054684,-16.366412213740457,-36.74809160305343,-20.717557251908396,0.0
14.760000467300415,-10.64222637939453,3.3159692993164063,1.898601916503906,-17.801526717557252,40.396946564885496,-19.34351145038168,-5.006275671386718,1.0438719238281249,3.995922570800781,-33.83206106870229,-11.49618320610687,-16.580152671755727,0.0
14.770000696182251,-11.317391247558593,2.7437551025390623,2.3415292236328122,-21.52671755725191,39.81679389312977,-16.916030534351144,-7.244854223632812,-0.7038952880859375,4.367023828124999,-37.725190839694655,-9.389312977099237,-10.83969465648855,0.0
14.780175924301147,-11.001356628417968,1.8148048583984373,2.0661960327148434,-19.435114503816795,37.221374045801525,-15.633587786259541,-7.3478048950195305,-0.9888052856445312,4.826710546875,-28.549618320610687,-9.969465648854962,-9.755725190839694,0.0
