timestamp,Thigh_L_Acc_X,Thigh_L_Acc_Y,Thigh_L_Acc_Z,Thigh_L_Gyr_X,Thigh_L_Gyr_Y,Thigh_L_Gyr_Z,Thigh_R_Acc_X,Thigh_R_Acc_Y,Thigh_R_Acc_Z,Thigh_R_Gyr_X,Thigh_R_Gyr_Y,Thigh_R_Gyr_Z,gpio_output
10.000000476837158,-6.4284314575195305,5.03740029296875,-4.75009609375,26.85496183206107,95.54198473282443,-0.9618320610687023,-20.262128649902344,0.076614453125,5.849034655761718,-18.38167938931298,-86.6412213740458,6.625954198473282,0.0
10.010000705718994,-12.411541406249999,5.729324572753906,-1.24498486328125,30.68702290076336,107.98473282442748,15.664122137404581,-19.639636218261717,-1.0175357055664063,1.9488801513671874,7.297709923664122,-107.61832061068702,6.259541984732825,1.0
10.02000093460083,-17.12811867675781,5.008669873046875,4.187458703613281,-0.7480916030534351,95.92366412213741,9.022900763358779,-20.949264526367188,-2.2026655273437497,4.546588952636719,-4.106870229007634,-103.77099236641222,-8.244274809160306,1.0
10.030000686645508,-16.972495568847656,2.4061726684570313,5.6383449096679685,-48.97709923664122,67.54198473282443,-0.8091603053435115,-13.49611475830078,2.5354595581054684,-0.9864110839843749,0.916030534351145,-116.30534351145039,-23.81679389312977,1.0
10.040000915527344,-15.102624072265623,3.4524387939453125,5.386953735351562,-86.06106870229007,38.18320610687023,-13.404580152671755,-14.111424584960936,1.5873557006835937,0.4285620971679687,14.793893129770993,-99.34351145038168,-18.870229007633586,1.0
10.050000667572021,-9.859322436523437,-3.5889082885742187,0.39743747558593745,-101.06870229007633,18.427480916030536,-17.770992366412212,-8.657433203124999,2.693476867675781,-2.849099975585937,46.30534351145038,-104.36641221374046,-11.404580152671755,1.0
10.060000896453857,-11.326968054199218,-2.961627453613281,0.1005564697265625,-70.74809160305344,23.587786259541986,-17.206106870229007,-7.4962453979492185,5.753266589355468,-2.1691467041015624,42.12213740458015,-93.52671755725191,-22.732824427480917,1.0
10.070055484771729,-9.445125549316407,-3.1507693847656246,-1.2617442749023438,-49.541984732824424,29.84732824427481,-16.763358778625953,-6.129156249999999,6.449979272460937,-4.879382983398437,29.17557251908397,-97.41984732824427,-31.31297709923664,1.0
10.080000400543213,-11.410765112304686,1.1109095703125,0.016759411621093748,-43.63358778625954,37.37404580152672,-19.267175572519083,-11.389217297363281,2.8706477905273435,0.0,34.152671755725194,-81.16030534351145,-25.61832061068702,1.0
10.090000629425049,-8.20971749267578,-0.7541735229492187,-2.2002713256835937,-36.458015267175576,42.79389312977099,-18.061068702290076,-12.102689392089843,0.9050082275390624,3.845087866210937,43.37404580152672,-77.1145038167939,-15.083969465648854,1.0
10.100000381469727,-8.743624462890624,0.51714755859375,-0.9026140258789062,-47.541984732824424,40.97709923664122,-20.47328244274809,-9.361328491210937,3.0502129150390624,3.6272155151367187,36.16793893129771,-67.64885496183206,-8.13740458015267,1.0
10.110000371932983,-10.280701928710936,1.608903515625,-0.1771709228515625,-51.267175572519086,47.20610687022901,-19.984732824427482,-6.720524060058593,5.011064074707031,-0.1484405029296875,27.206106870229007,-65.08396946564885,-3.3435114503816794,1.0
10.12000060081482,-11.097124694824219,2.104503259277344,0.30885201416015623,-52.54961832061068,50.82442748091603,-18.290076335877863,-7.1395093505859375,3.0837317382812497,1.5729904907226562,3.816793893129771,-49.16030534351145,1.297709923664122,1.0
10.130000829696655,-9.662997900390625,0.4070142822265625,0.8355763793945312,-49.45038167938932,50.82442748091603,-13.17557251908397,-7.659051110839843,2.0925322509765625,1.1228805786132812,6.061068702290076,-41.20610687022901,6.870229007633588,1.0
10.140000581741333,-11.180921752929686,0.33758243408203126,2.607285607910156,-44.25954198473283,45.63358778625954,-14.01526717557252,-5.7317187744140625,4.374206433105469,0.02154781494140625,-17.72519083969466,-32.83969465648855,1.282442748091603,1.0
10.150001049041748,-11.037269653320312,0.3327940307617187,4.00310517578125,-39.11450381679389,44.74809160305343,-13.938931297709924,-6.64630380859375,2.4109610717773435,2.3535002319335936,-26.977099236641223,-9.358778625954198,6.244274809160306,1.0
10.160000324249268,-9.473855969238281,-1.2785036865234374,3.019088293457031,-37.80152671755725,37.541984732824424,-16.916030534351144,-6.885723974609375,2.068590234375,1.0893617553710937,-37.74045801526717,-6.732824427480916,5.374045801526718,1.0
10.170000791549683,-10.108319409179687,0.06464344482421874,3.392583752441406,-31.419847328244273,31.16030534351145,-20.091603053435115,-6.648698010253906,2.185906115722656,1.4604630126953124,-39.25190839694657,-3.267175572519084,2.8244274809160306,1.0
10.18000054359436,-11.578359228515625,1.5107412475585937,3.2609026611328122,-29.66412213740458,24.9618320610687,-23.72519083969466,-6.497863305664062,1.448492004394531,1.1420341918945311,-45.41984732824427,-2.4427480916030535,1.5419847328244274,1.0
10.190000534057617,-10.27830772705078,1.9752163696289062,2.877830395507812,-19.221374045801525,28.732824427480917,-19.31297709923664,-6.5026517089843745,0.4955997436523437,1.6998831787109374,-42.0,-0.42748091603053434,1.0687022900763359,1.0
10.200000286102295,-9.93354268798828,1.89620771484375,2.6336218261718747,-20.595419847328245,24.47328244274809,-14.870229007633588,-6.375759020996093,0.1149216796875,1.5179238525390624,-41.221374045801525,-3.0839694656488548,-1.3435114503816794,1.0
10.21000051498413,-9.581595043945311,2.5450363647460934,2.051830822753906,-21.358778625954198,22.53435114503817,-11.053435114503817,-7.050923889160156,-0.718260498046875,2.272097375488281,-32.30534351145038,-3.572519083969466,-0.5801526717557252,0.0
10.220000267028809,-10.419565624999999,3.4668040039062498,2.3630770385742186,-30.900763358778626,21.6793893129771,-10.290076335877863,-6.6893994384765625,-1.4796166259765624,2.7940333374023436,-29.114503816793892,-6.1679389312977095,-1.9083969465648856,0.0
10.230000495910645,-10.644620581054687,4.4819455078125,2.9568390502929685,-46.58015267175573,18.946564885496183,-8.564885496183207,-7.6087728759765625,-1.1013327636718748,3.88818349609375,-21.69465648854962,-8.488549618320612,-2.7786259541984735,0.0
10.240000486373901,-10.972626208496093,3.873818286132812,2.806004345703125,-54.67175572519084,18.50381679389313,-2.885496183206107,-6.177040283203125,-0.7230489013671875,2.592920397949219,-26.045801526717558,-14.83969465648855,-5.32824427480916,0.0
10.250000476837158,-9.627084875488281,1.8243816650390623,1.3359645263671873,-52.3206106870229,13.755725190839694,3.7251908396946565,-8.585607153320312,-0.7350199096679687,4.520252734375,-17.709923664122137,-10.610687022900763,-4.030534351145038,0.0
10.260000944137573,-7.278373046874999,0.4333505004882812,-0.17238251953125,-38.35114503816794,15.404580152671755,5.694656488549619,-7.747636572265624,-0.16280571289062498,4.134786267089844,-19.954198473282442,-13.86259541984733,-5.9541984732824424,0.0
10.270000696182251,-8.870517150878905,1.0390835205078124,1.8435352783203125,-37.00763358778626,20.015267175572518,5.32824427480916,-7.644685900878906,0.28012159423828126,4.024652990722656,-12.83969465648855,-13.908396946564885,-7.938931297709924,0.0
10.280000925064087,-8.91840118408203,0.05985504150390625,1.9991583862304687,-25.801526717557252,23.389312977099237,2.7938931297709924,-5.518634826660156,0.689530078125,2.528276953125,-19.96946564885496,-17.755725190839694,-10.045801526717558,0.0
10.290000677108765,-9.2320416015625,1.1348515869140625,2.829946362304687,-18.610687022900763,26.916030534351144,0.9007633587786259,-7.455543969726562,0.24181436767578124,3.5338416503906247,-11.435114503816793,-15.633587786259541,-7.511450381679389,0.0
10.300000667572021,-10.915165368652342,2.128445275878906,4.350264416503906,-28.82442748091603,15.969465648854962,-5.511450381679389,-7.2903440551757805,0.12210428466796874,3.447650390625,-17.282442748091604,-16.229007633587788,-9.633587786259541,0.0
10.3100004196167,-10.283096130371094,0.8667010009765624,3.1364041748046874,-22.3206106870229,11.19083969465649,0.2748091603053435,-7.000645654296875,0.5722141967773438,3.268085266113281,-14.106870229007633,-16.549618320610687,-9.557251908396946,0.0
10.320000648498535,-9.727641345214844,0.3902548706054687,2.6288334228515624,-7.648854961832061,11.816793893129772,3.3740458015267176,-5.899312890625,0.0909796630859375,2.9975404785156248,-20.38167938931298,-14.549618320610687,-12.580152671755725,0.0
10.330000400543213,-9.485826977539062,-0.5913678100585937,3.0142998901367184,-3.633587786259542,8.549618320610687,1.816793893129771,-6.404489440917969,0.14604630126953125,3.1172505615234374,-17.297709923664122,-12.931297709923664,-12.51908396946565,0.0
10.340000629425049,-9.586383447265625,-0.36391865234375,2.7437551025390623,-1.3129770992366412,5.358778625954199,-1.6641221374045803,-4.429273071289062,0.33518823242187495,1.9536685546875,-24.82442748091603,-11.83206106870229,-14.763358778625955,0.0
10.350000619888306,-9.442731347656249,-0.2609679809570312,2.4971523315429685,2.50381679389313,3.6946564885496183,-4.1679389312977095,-6.167463476562499,-0.0047884033203125,3.900154504394531,-19.984732824427482,-6.641221374045801,-12.50381679389313,0.0
10.360000610351562,-9.801861596679688,0.6536170532226562,2.461239306640625,5.8320610687022905,1.7099236641221374,-6.320610687022901,-5.341463903808593,1.2976572998046874,2.1212626708984375,-27.480916030534353,-7.877862595419847,-15.114503816793894,0.0
10.37000036239624,-8.78432589111328,1.0199299072265624,1.5251064575195312,8.473282442748092,1.6641221374045803,-5.8320610687022905,-4.383783239746093,0.6631938598632812,2.8610709838867185,-31.374045801526716,4.183206106870229,-14.961832061068701,0.0
10.380000352859497,-9.126696728515624,1.4724340209960938,2.1021090576171875,6.977099236641221,1.4045801526717556,-5.9541984732824424,-8.097190014648437,-1.2473790649414063,5.260061047363281,-19.51145038167939,8.183206106870228,-7.908396946564886,0.0
10.390000820159912,-8.769960681152343,1.5897499023437498,1.6424223388671875,13.206106870229007,0.24427480916030533,-6.732824427480916,-7.8362220336914055,-0.5674257934570313,4.5585599609375,-12.01526717557252,1.1450381679389312,-10.259541984732824,0.0
10.40000057220459,-9.78031378173828,2.35589443359375,2.1595698974609374,11.908396946564885,-0.42748091603053434,-5.480916030534351,-6.749254479980468,0.7637503295898437,3.8379052612304685,-13.358778625954198,0.9770992366412213,-14.580152671755725,0.0
10.410000801086426,-8.240842114257813,0.7206546997070312,1.7405846069335937,19.282442748091604,-0.33587786259541985,-3.7099236641221376,-6.342240197753906,0.1771709228515625,3.5577836669921874,-16.80916030534351,4.595419847328245,-11.786259541984732,0.0
10.420000553131104,-9.926360083007811,1.1276689819335937,3.258508459472656,14.274809160305344,-1.4198473282442747,-5.00763358778626,-6.713341455078124,-0.699106884765625,3.323151904296875,-12.16793893129771,6.122137404580153,-9.98473282442748,0.0
10.43000054359436,-9.974244116210937,1.7022773803710936,3.9408559326171875,13.49618320610687,-4.778625954198473,-7.66412213740458,-7.089231115722656,-1.1348515869140625,3.5625720703124997,-8.335877862595419,7.938931297709924,-9.17557251908397,0.0
10.440000534057617,-8.564059338378906,0.9648632690429687,3.0550013183593747,10.51908396946565,-11.16030534351145,-7.236641221374046,-7.395688928222656,-1.0965443603515623,3.3399113159179685,-2.9923664122137406,9.389312977099237,-10.244274809160306,0.0
10.450000286102295,-9.804255798339844,-0.09816226806640624,2.346317626953125,6.3816793893129775,-14.732824427480915,-9.679389312977099,-7.687781530761718,-0.7757213378906249,3.593696691894531,1.282442748091603,11.938931297709924,-12.80916030534351,0.0
10.46000075340271,-10.223241088867187,1.0438719238281249,2.9281086303710935,0.13740458015267176,-15.725190839694656,-14.427480916030534,-7.745242370605468,-0.699106884765625,3.6176387084960937,5.480916030534351,14.51908396946565,-14.320610687022901,0.0
10.470000505447388,-8.734047656249999,-0.08858546142578125,2.7078420776367187,-8.320610687022901,-24.870229007633586,-18.045801526717558,-7.601590270996093,-0.10773907470703124,3.380612744140625,10.427480916030534,15.86259541984733,-14.16793893129771,0.0
10.480000495910645,-8.662221606445312,-0.5674257934570313,1.6328455322265625,-0.5801526717557252,-22.900763358778626,-17.572519083969464,-7.266402038574219,0.00239420166015625,3.4739866088867184,11.725190839694656,17.61832061068702,-11.236641221374045,0.0
10.490000247955322,-5.906495495605468,-2.0566192260742184,-1.1659762084960936,5.984732824427481,-19.893129770992367,-20.03053435114504,-6.7037646484375,0.32561142578124996,3.1842882080078123,13.86259541984733,20.82442748091603,-9.312977099236642,0.0
10.50009536743164,-5.2648494506835934,-2.6958710693359373,-1.838746875,14.396946564885496,-9.923664122137405,-24.442748091603054,-6.533776330566406,0.0383072265625,3.323151904296875,15.740458015267176,25.46564885496183,-7.419847328244275,0.0
10.510000705718994,-9.919177478027343,0.5243301635742187,0.8092401611328125,19.755725190839694,5.099236641221374,-32.10687022900763,-5.693411547851563,0.13168109130859373,2.868253588867187,17.053435114503817,28.27480916030534,-7.083969465648855,0.0
10.52000093460083,-10.79545528564453,4.7931917236328125,2.5641899780273434,11.557251908396946,9.145038167938932,-32.50381679389313,-3.2824504760742186,1.3623007446289062,1.1923124267578125,9.84732824427481,31.603053435114504,-8.427480916030534,0.0
10.530000686645508,-9.255983618164063,4.6447512207031245,2.7940333374023436,9.450381679389313,6.076335877862595,-19.786259541984734,-5.121197351074218,0.32082302246093747,2.6431986328124997,3.5267175572519083,45.45038167938932,-4.1679389312977095,0.0
10.540000915527344,-11.267113012695312,3.5625720703124997,4.225765930175781,8.488549618320612,4.854961832061068,-14.534351145038167,-3.83072265625,0.6248866333007812,1.0797849487304687,-5.557251908396947,46.88549618320611,-4.2748091603053435,0.0
10.550000667572021,-11.044452258300781,2.3367408203125,4.304774584960938,-2.6412213740458017,2.717557251908397,-13.877862595419847,-5.351040710449219,-0.34715924072265625,4.2329485351562495,-9.603053435114504,72.54961832061069,1.2671755725190839,0.0
10.560000658035278,-7.783549597167968,0.33758243408203126,4.012681982421875,-1.7099236641221374,0.030534351145038167,-13.358778625954198,-5.044582897949218,-0.22744915771484372,2.916137622070312,-8.977099236641221,72.19847328244275,6.305343511450381,0.0
10.570000648498535,-6.232106921386718,-0.6057330200195312,4.565742565917969,6.488549618320611,-5.526717557251908,-18.16793893129771,-6.449979272460937,0.14125789794921875,4.125209460449218,-10.564885496183207,83.58778625954199,7.801526717557252,0.0
10.580000400543213,-9.794678991699218,0.8762778076171874,6.248866333007812,4.763358778625954,-6.213740458015267,-25.267175572519083,-7.738059765625,-0.7230489013671875,2.825157958984375,0.6106870229007634,74.8854961832061,10.458015267175572,0.0
10.590000629425049,-9.562441430664062,0.10773907470703124,7.029376074218749,8.595419847328245,-19.19083969465649,-37.49618320610687,-7.4220251464843745,0.6919242797851562,2.9496564453125,-1.3129770992366412,80.38167938931298,3.954198473282443,0.0
10.600000619888306,-8.350975390624999,-2.224213342285156,8.339004382324218,13.755725190839694,-27.236641221374047,-38.94656488549618,-9.143456140136719,0.7613561279296874,2.4133552734375,8.320610687022901,76.58015267175573,-1.1297709923664123,0.0
10.610000610351562,-8.686163623046875,-1.1468225952148436,8.473079675292968,30.061068702290076,-41.61832061068702,-49.16030534351145,-8.834604125976561,4.951209033203125,2.1619640991210938,-13.893129770992367,71.98473282442748,-14.580152671755725,0.0
10.62000060081482,-10.426748229980468,2.0757728393554684,9.828197814941406,30.18320610687023,-55.969465648854964,-54.045801526717554,-14.271836096191405,5.049371301269531,10.828974108886719,-39.70992366412214,77.6793893129771,-16.9618320610687,0.0
10.630000829696655,-13.570335009765625,5.365405920410156,11.286266625976562,16.702290076335878,-74.22900763358778,-52.93129770992366,-21.468806286621092,1.6831237670898436,18.428170178222654,-65.3587786259542,60.12213740458015,-13.801526717557252,0.0
10.640000343322754,-16.79771884765625,7.639897497558593,12.105083593749999,-2.885496183206107,-102.27480916030534,-46.091603053435115,-26.297911035156247,-5.796362219238281,22.550985437011718,-78.3206106870229,23.633587786259543,-13.435114503816793,0.0
10.650000810623169,-17.113753466796872,7.127538342285156,11.489773767089844,-4.916030534351145,-132.06106870229007,-29.114503816793892,-24.935610290527343,-3.679887951660156,17.063475231933595,-21.00763358778626,-33.16030534351145,6.412213740458015,0.0
10.660000801086426,-17.963695056152343,6.277596752929687,8.623914379882812,1.8473282442748091,-153.75572519083968,-7.145038167938932,-19.86229697265625,1.3383587280273437,8.070853796386718,15.603053435114504,-63.74045801526717,25.87786259541985,0.0
10.670000791549683,-18.547880261230468,3.9791631591796874,4.2305543334960936,6.763358778625954,-174.12213740458014,18.885496183206108,-13.608642236328125,0.5961562133789062,-2.8323405639648436,35.23664122137404,-85.72519083969466,29.236641221374047,0.0
10.68000054359436,-20.350714111328124,5.329492895507812,3.1747114013671873,8.458015267175572,-181.70992366412213,40.58015267175573,-9.708487731933593,-0.5291185668945312,-9.0021982421875,14.259541984732824,-63.89312977099237,14.335877862595419,0.0
10.690000534057617,-20.83194864501953,3.7612908081054686,1.656787548828125,9.755725190839694,-192.4732824427481,63.41984732824427,-5.149927770996094,-3.5673604736328124,-9.035717065429687,21.297709923664122,-40.67175572519084,2.4732824427480917,0.0
10.700000762939453,-24.032996264648435,2.5857377929687497,3.35188232421875,9.877862595419847,-193.87786259541986,73.6030534351145,-1.4341267944335936,-4.422090466308593,-10.78348427734375,12.244274809160306,-26.977099236641223,-12.625954198473282,0.0
10.71000051498413,-23.13756484375,0.8020575561523438,1.4628572143554686,13.83206106870229,-200.29007633587787,80.06106870229007,-4.848258361816406,-6.562506750488281,-3.5601778686523438,-3.7709923664122136,11.83206106870229,-18.763358778625953,0.0
10.72012996673584,-21.921310400390624,-2.090138049316406,2.3319524169921872,25.31297709923664,-193.87786259541986,86.42748091603053,-8.12113203125,-6.9336080078124995,-2.9664158569335934,15.114503816793894,18.549618320610687,-20.27480916030534,0.0
10.730000734329224,2.133233679199219,-15.318102221679686,-10.838550915527343,88.62595419847328,-211.08396946564886,97.93893129770993,-9.823409411621093,0.12689268798828124,-3.4452561889648434,11.19083969465649,32.62595419847328,-20.977099236641223,0.0
10.740000486373901,11.269507214355468,-23.65231820068359,-11.305420239257812,178.83969465648855,-93.89312977099236,64.61068702290076,-11.121066711425781,1.3072341064453123,0.28490999755859375,3.633587786259542,60.47328244274809,-11.49618320610687,0.0
10.750000476837158,1.879448303222656,-11.350910070800781,-2.47081611328125,182.24427480916032,-24.68702290076336,-7.1603053435114505,-7.903259680175781,3.0909143432617188,-1.695094775390625,23.480916030534353,69.25190839694656,-1.2061068702290076,0.0
10.760000944137573,-7.012616662597656,-0.7757213378906249,-0.29448680419921874,174.44274809160305,1.0687022900763359,-36.412213740458014,-10.137049829101562,4.00310517578125,-2.8131869506835936,24.68702290076336,69.54198473282443,10.900763358778626,0.0
10.770000457763672,-7.994239343261718,1.3958195678710936,-1.7621324218749999,160.87022900763358,14.778625954198473,-27.0381679389313,-8.52335791015625,6.924031201171875,-6.342240197753906,12.885496183206106,72.30534351145039,20.38167938931298,0.0
10.780000925064087,-15.406687683105467,4.113238452148437,4.390965844726562,114.42748091603053,16.412213740458014,-15.099236641221374,-9.457096557617186,6.667851623535156,-6.016628771972656,-23.603053435114504,96.10687022900764,25.46564885496183,0.0
10.790000915527344,-12.179303845214843,4.7884033203125,4.972756848144531,96.27480916030534,20.885496183206108,5.8320610687022905,-9.006986645507812,4.6639048339843745,-5.987898352050781,-54.83969465648855,109.25190839694656,27.51145038167939,0.0
10.800000667572021,-14.604630126953124,6.58884296875,8.104372619628906,34.732824427480914,-9.251908396946565,8.396946564885496,-11.470620153808593,-0.5530605834960938,0.6751648681640625,-44.33587786259542,104.1526717557252,25.740458015267176,0.0
10.810000658035278,-15.155296508789062,5.391742138671875,6.828263134765624,7.9541984732824424,-40.778625954198475,27.954198473282442,-13.986926098632813,-2.1739351074218747,3.1004911499023438,-3.633587786259542,76.41221374045801,25.954198473282442,0.0
10.820000886917114,-11.415553515625,2.8562825805664063,2.952050646972656,7.083969465648855,-48.36641221374046,43.55725190839695,-15.318102221679686,-7.287949853515625,8.497021691894531,40.93129770992366,64.99236641221374,26.671755725190838,0.0
10.830000400543213,-9.859322436523437,1.8722656982421875,0.9888052856445312,-11.374045801526718,-58.50381679389313,45.908396946564885,-8.250418920898436,-1.0295067138671874,4.350264416503906,104.80916030534351,27.801526717557252,25.022900763358777,0.0
10.840000629425049,-6.921636999511718,0.7852981445312499,-1.9105729248046874,-18.82442748091603,-57.343511450381676,46.35114503816794,-7.860164050292968,-1.5346832641601562,0.8475473876953125,42.50381679389313,51.32824427480916,15.954198473282442,0.0
10.850000619888306,-4.158728283691406,-1.2378022583007813,-4.072537023925781,-14.442748091603054,-41.93893129770992,51.19083969465649,-8.52335791015625,0.48123453369140623,3.746925598144531,36.961832061068705,49.038167938931295,14.687022900763358,0.0
10.860000610351562,1.0821791503906248,-3.852270471191406,-7.714117749023437,-11.404580152671755,-25.129770992366414,43.93893129770992,-10.213664282226562,-3.612850305175781,6.1626750732421876,23.786259541984734,52.30534351145038,17.206106870229007,0.0
10.870001077651978,3.3111808959960936,-5.533000036621093,-8.695740429687499,1.4351145038167938,15.251908396946565,33.81679389312977,-7.831433630371094,-1.697488977050781,2.5234885498046875,43.49618320610687,33.6793893129771,12.229007633587786,0.0
10.880000591278076,4.848258361816406,-6.172251879882812,-8.762778076171875,10.83969465648855,46.213740458015266,16.045801526717558,-8.25520732421875,-1.1133037719726562,3.5194764404296874,27.251908396946565,40.67175572519084,6.351145038167939,0.0
10.890000820159912,0.7613561279296874,-4.4005426513671875,-5.051765502929687,15.34351145038168,81.63358778625954,-1.083969465648855,-9.636661682128906,-0.679953271484375,5.353434912109375,31.770992366412212,37.51145038167939,4.732824427480916,0.0
10.90000033378601,5.425260961914062,-7.764395983886718,-9.435548742675781,35.17557251908397,98.07633587786259,-9.282442748091603,-11.154585534667968,-2.722207287597656,7.613561279296874,35.74045801526717,26.015267175572518,3.4198473282442747,0.0
10.910000801086426,0.5961562133789062,-6.825868933105468,-6.813897924804687,61.969465648854964,143.55725190839695,-22.442748091603054,-10.04846436767578,-2.291250988769531,7.098807922363281,53.49618320610687,10.335877862595419,2.7786259541984735,0.0
10.920000553131104,-1.5514426757812498,-4.285620971679688,-6.224924316406249,49.00763358778626,155.5114503816794,-50.35114503816794,-8.695740429687499,1.4508862060546874,5.88015927734375,40.10687022900763,3.8931297709923665,-3.633587786259542,0.0
10.93000054359436,-5.547365246582031,-0.2442085693359375,1.0678139404296874,45.37404580152672,175.72519083969465,-55.29770992366412,-5.415684155273437,5.633556506347656,4.675875842285156,-9.740458015267176,0.6412213740458015,-1.5267175572519085,0.0
10.940000295639038,-8.262389929199218,2.3319524169921872,9.95987890625,48.16793893129771,176.91603053435114,-46.2442748091603,-9.047688073730468,2.1356278808593747,6.883329772949218,-32.01526717557252,10.65648854961832,18.045801526717558,0.0
10.950000286102295,-13.17050333251953,11.362881079101562,20.38423293457031,78.04580152671755,166.77862595419847,-20.82442748091603,-7.52737001953125,1.5634136840820312,4.422090466308593,-31.572519083969464,-1.0381679389312977,25.19083969465649,0.0
10.960000276565552,-15.332467431640625,23.614010974121094,15.471331127929687,57.31297709923664,129.08396946564886,10.16793893129771,-8.427589843749999,3.1364041748046874,2.808398547363281,-34.33587786259542,-7.099236641221374,24.50381679389313,0.0
10.970000505447388,-14.585476513671875,18.581399084472654,16.314090112304687,-6.809160305343512,87.2824427480916,31.236641221374047,-6.619967590332031,4.465186096191406,1.1180921752929687,-52.3206106870229,-7.404580152671755,23.404580152671755,0.0
10.980000495910645,-10.081983190917969,5.6958057495117185,14.755464831542968,-65.54198473282443,30.931297709923665,27.938931297709924,-7.1395093505859375,1.8435352783203125,0.6344634399414062,-58.274809160305345,-2.7938931297709924,25.00763358778626,0.0
10.990000486373901,-7.963114721679687,-2.233790148925781,11.250353601074218,-55.603053435114504,1.0229007633587786,24.946564885496183,-7.867346655273437,-1.6519991455078125,1.637633935546875,-60.29007633587786,0.2748091603053435,28.763358778625953,0.0
11.000000238418579,-8.13310303955078,-5.884947680664062,11.001356628417968,34.56488549618321,13.099236641221374,35.45038167938932,-8.865728747558594,-3.0310593017578125,4.393360046386719,-51.81679389312977,0.6106870229007634,28.0,0.0
11.010000705718994,-7.987056738281249,-1.6041151123046875,4.455609289550781,34.229007633587784,2.1068702290076335,28.80916030534351,-9.904812268066406,-3.5529952636718747,6.047753393554687,-40.213740458015266,-4.961832061068702,24.641221374045802,0.0
11.02000093460083,-9.275137231445312,-1.1372457885742187,-3.066972326660156,-30.702290076335878,-0.7480916030534351,12.229007633587786,-9.490615380859374,-2.24097275390625,4.910507604980468,-30.30534351145038,-9.98473282442748,20.931297709923665,0.0
11.030000686645508,-18.128894970703122,0.076614453125,8.434772448730468,-20.045801526717558,14.412213740458014,20.9618320610687,-9.751583361816406,0.28012159423828126,2.5426421630859375,-34.0763358778626,-12.030534351145038,15.206106870229007,0.0
11.040000677108765,-24.18861937255859,-2.971204260253906,21.73935107421875,24.12213740458015,6.900763358778626,35.43511450381679,-12.375628381347655,-1.20667763671875,2.3774422485351563,-45.221374045801525,-19.083969465648856,13.145038167938932,0.0
11.05000615119934,-21.619640991210936,2.7198130859375,9.65342109375,-0.8549618320610687,-31.66412213740458,-1.0534351145038168,-12.69166300048828,-0.7038952880859375,0.9313444458007812,-56.900763358778626,-23.389312977099237,12.488549618320612,0.0
11.0600004196167,-17.779341528320312,8.386888415527343,-2.748543505859375,-101.37404580152672,-57.954198473282446,-49.282442748091604,-14.240711474609375,-2.3511060302734372,1.0414777221679687,-57.49618320610687,-20.12213740458015,12.65648854961832,0.0
11.070000648498535,-14.860809704589842,4.402936853027343,-5.487510205078125,-133.6793893129771,-52.18320610687023,-48.396946564885496,-17.532738757324218,-6.931213806152344,1.8722656982421875,-32.25954198473283,-30.396946564885496,14.748091603053435,0.0
11.080000638961792,-8.250418920898436,-1.4030021728515625,-8.377311608886718,-101.32824427480917,-24.076335877862597,-26.80916030534351,-20.554221252441405,-7.278373046874999,4.903325,-4.351145038167939,-38.94656488549618,15.603053435114504,0.0
11.09000039100647,-2.549824768066406,-2.6862942626953124,-10.024522351074218,-37.66412213740458,5.801526717557252,-4.488549618320611,-19.812018737792968,-3.421314172363281,6.287173559570312,8.717557251908397,-53.038167938931295,5.236641221374046,0.0
11.100000619888306,-1.637633935546875,-1.4173673828125,-7.800309008789062,13.511450381679388,41.83206106870229,4.748091603053435,-18.162413793945312,4.96078583984375,3.3303345092773435,8.50381679389313,-58.152671755725194,-1.5725190839694656,0.0
11.110000610351562,-6.912060192871094,1.3407529296874998,-1.9009961181640624,15.725190839694656,61.52671755725191,0.48854961832061067,-14.8248966796875,7.038952880859375,-2.8562825805664063,7.480916030534351,-65.41984732824427,-3.648854961832061,0.0
11.12000036239624,-13.520056774902343,4.031835595703125,-0.5051765502929687,-15.34351145038168,67.64885496183206,-6.351145038167939,-16.5870291015625,1.7573440185546874,1.1061211669921875,4.442748091603053,-58.213740458015266,13.648854961832061,0.0
11.130000829696655,-16.45055960693359,0.9433154541015625,0.8643067993164062,-54.97709923664122,64.30534351145039,-4.931297709923665,-15.964536669921873,-1.235408056640625,1.3910311645507811,23.603053435114504,-62.50381679389313,16.076335877862597,0.0
11.140000343322754,-16.661249353027344,-1.5610194824218748,0.2825157958984375,-82.22900763358778,55.37404580152672,-13.86259541984733,-10.046070166015625,4.3454760131835934,-0.3136404174804687,5.709923664122138,-63.267175572519086,3.1603053435114505,0.0
11.150000810623169,-17.099388256835937,-0.26815058593749996,0.6344634399414062,-102.91603053435115,57.38931297709924,-26.076335877862597,-10.845733520507812,1.8531120849609375,0.9600748657226562,6.687022900763359,-34.80916030534351,8.213740458015268,0.0
11.160000801086426,-9.581595043945311,-3.4644098022460934,-4.410119458007812,-102.3969465648855,46.10687022900763,-33.20610687022901,-10.728417639160156,1.1923124267578125,-1.4413093994140624,30.0,-41.05343511450382,3.877862595419847,0.0
11.170000791549683,-8.458714465332031,-2.9568390502929685,-5.561730456542969,-68.76335877862596,53.55725190839695,-37.9236641221374,-10.20169327392578,5.312733483886719,0.20829554443359374,5.648854961832061,-39.19083969465649,-8.977099236641221,0.0
11.180000305175781,-9.928754284667969,-0.5746083984375,-3.768473413085937,-36.68702290076336,76.65648854961832,-30.870229007633586,-10.963049401855468,4.309562988281249,2.39420166015625,2.198473282442748,-35.61832061068702,-10.305343511450381,0.0
11.190000772476196,-9.478644372558593,1.2425906616210938,-1.5873557006835937,-32.12213740458015,81.02290076335878,-29.358778625954198,-11.518504187011718,0.2561795776367187,4.6830584472656245,11.511450381679388,-46.458015267175576,-2.0916030534351147,0.0
11.200000286102295,-9.229647399902344,1.0726023437499999,-0.7062894897460937,-40.0,79.5114503816794,-28.198473282442748,-8.13310303955078,1.4508862060546874,3.4715924072265625,-0.183206106870229,-61.19083969465649,-7.7251908396946565,0.0
11.21000051498413,-10.28549033203125,4.841075756835937,1.707065783691406,-53.89312977099237,73.16030534351145,-23.267175572519083,-10.963049401855468,-0.1580173095703125,3.5865140869140624,0.5190839694656488,-62.99236641221374,-7.984732824427481,0.0
11.220000267028809,-9.892841259765625,1.9991583862304687,1.3048399047851562,-71.80152671755725,60.18320610687023,-18.80916030534351,-14.082694165039062,-0.9792284790039062,4.455609289550781,15.786259541984732,-72.29007633587786,-1.8778625954198473,0.0
11.230000734329224,-9.682151513671874,1.0797849487304687,2.039859814453125,-55.41984732824427,63.87786259541985,-12.305343511450381,-11.96382569580078,-0.43574470214843747,6.909665991210937,7.893129770992366,-68.07633587786259,-6.106870229007634,0.0
11.240000486373901,-9.380482104492186,-0.06703764648437499,3.778050219726562,-54.274809160305345,57.31297709923664,-9.618320610687023,-5.3199160888671875,3.833116857910156,1.5035586425781249,6.076335877862595,-79.95419847328245,-14.335877862595419,0.0
11.250000238418579,-9.265560424804686,-1.0462661254882812,1.6304513305664061,-45.69465648854962,50.778625954198475,-8.549618320610687,-4.414907861328125,5.473144995117187,0.6679822631835937,-3.49618320610687,-83.38931297709924,-14.320610687022901,0.0
11.260000944137573,-10.462661254882812,2.138022082519531,3.2513258544921873,-48.33587786259542,42.396946564885496,-14.473282442748092,-6.2392895263671875,2.5043349365234375,3.27526787109375,-13.526717557251908,-70.07633587786259,-6.458015267175573,0.0
11.270000696182251,-9.737218151855469,1.1061211669921875,1.6927005737304686,-60.916030534351144,31.938931297709924,-13.511450381679388,-4.450820886230469,2.896984008789062,2.2601263671875,-20.9618320610687,-68.9618320610687,-3.969465648854962,0.0
11.280000925064087,-10.228029492187499,2.1547814941406247,1.4030021728515625,-53.3587786259542,30.80916030534351,-6.442748091603053,-4.994304663085937,1.0103531005859374,3.5482068603515624,-34.229007633587784,-52.534351145038165,-3.0076335877862594,0.0
11.290000677108765,-9.670180505371093,1.4724340209960938,1.9680337646484374,-48.83969465648855,27.893129770992367,-0.24427480916030533,-11.511321582031249,-4.510675927734375,9.167398156738281,-4.030534351145038,-44.82442748091603,6.763358778625954,0.0
11.300000667572021,-8.920795385742187,0.25139117431640623,0.5817910034179687,-34.778625954198475,27.17557251908397,0.7938931297709924,-8.863334545898438,-2.3439234252929686,3.071760729980469,5.755725190839694,-72.54961832061069,-5.068702290076335,0.0
11.310000658035278,-10.59194814453125,1.4915876342773438,2.3247698120117186,-36.50381679389313,20.198473282442748,3.5572519083969465,-4.65432802734375,2.142810485839844,1.3431471313476562,0.24427480916030533,-71.57251908396947,-19.938931297709924,0.0
11.320000648498535,-9.047688073730468,-0.6655880615234374,1.458068811035156,-25.00763358778626,21.099236641221374,4.67175572519084,-5.884947680664062,1.9321207397460936,1.4796166259765624,-15.557251908396946,-60.0763358778626,-18.03053435114504,0.0
11.330000400543213,-8.987833032226561,-0.36631285400390623,1.9752163696289062,-22.12213740458015,19.709923664122137,-0.015267175572519083,-0.17238251953125,3.23696064453125,-4.371812231445312,-58.06106870229008,-56.67175572519084,-23.81679389312977,0.0
11.340000629425049,-10.333374365234375,2.1739351074218747,3.361459130859375,-24.442748091603054,18.244274809160306,0.12213740458015267,-4.977545251464844,0.8475473876953125,1.3239935180664062,-61.6793893129771,-13.312977099236642,-12.900763358778626,0.0
11.350000381469727,-9.931148486328125,1.6400281372070311,3.1316157714843746,-22.229007633587788,14.412213740458014,2.6412213740458017,-2.5617957763671875,-1.3096283081054687,-5.348646508789062,-74.74809160305344,-29.923664122137403,-9.572519083969466,0.0
11.360000610351562,-8.422801440429687,1.177947216796875,1.3958195678710936,-8.045801526717558,18.366412213740457,4.916030534351145,-3.4668040039062498,2.4588451049804685,-1.9608511596679685,-69.90839694656489,-1.450381679389313,-13.435114503816793,0.0
11.370000839233398,-11.17852755126953,1.9321207397460936,4.3622354248046875,-7.648854961832061,19.69465648854962,6.961832061068702,-4.216189123535156,0.6679822631835937,-0.852335791015625,-74.7175572519084,19.00763358778626,-6.305343511450381,0.0
11.380000591278076,-10.029310754394531,1.4700398193359374,3.5889082885742187,-14.580152671755725,13.16030534351145,1.0687022900763359,-5.724536169433593,-1.3455413330078123,0.00239420166015625,-52.01526717557252,28.641221374045802,3.6946564885496183,0.0
11.390000820159912,-11.432312927246093,2.959233251953125,3.0837317382812497,-10.900763358778626,8.625954198473282,-2.381679389312977,-9.449913952636718,-3.373430139160156,2.932897033691406,-10.793893129770993,25.541984732824428,1.9694656488549618,0.0
11.400000810623169,-10.912771166992187,-0.01915361328125,1.120486376953125,-1.297709923664122,2.9770992366412212,0.21374045801526717,-7.151480358886718,1.7693150268554687,-0.031124621582031248,7.068702290076335,11.603053435114504,-8.610687022900763,0.0
11.410000562667847,-13.857639208984374,0.5985504150390625,2.683900061035156,8.65648854961832,11.114503816793894,3.572519083969466,-9.167398156738281,-0.6368576416015624,3.277662072753906,22.900763358778626,9.541984732824428,-15.038167938931299,0.0
11.420000553131104,-12.504915270996094,0.258573779296875,1.7238251953125,14.931297709923664,3.5877862595419847,-1.099236641221374,-10.103531005859374,-0.4860229370117187,2.9735984619140625,31.51145038167939,-6.488549618320611,-19.6793893129771,0.0
11.430000305175781,-13.273454003906249,1.6831237670898436,2.4253262817382812,18.564885496183205,6.931297709923665,-5.6183206106870225,-10.78348427734375,2.2673089721679687,4.841075756835937,25.374045801526716,-7.66412213740458,-28.641221374045802,0.0
11.440000534057617,-9.72285294189453,0.3495534423828125,0.8595183959960937,20.641221374045802,6.427480916030534,-6.091603053435114,-9.967061511230469,1.9847931762695312,4.690241052246093,17.374045801526716,-9.526717557251908,-26.137404580152673,0.0
11.450000762939453,-9.5001921875,1.62805712890625,1.446097802734375,16.061068702290076,7.572519083969466,-8.580152671755725,-8.757989672851561,2.5378537597656248,2.6192566162109374,7.022900763358779,-14.82442748091603,-25.801526717557252,0.0
11.460000276565552,-9.380482104492186,2.408566870117187,1.5658078857421873,7.984732824427481,9.358778625954198,-10.732824427480915,-6.054935998535156,5.446808776855469,0.9337386474609375,-9.526717557251908,-9.664122137404581,-23.893129770992367,0.0
11.470000505447388,-10.129867224121092,3.076549133300781,2.806004345703125,-5.221374045801527,10.80916030534351,-8.183206106870228,-6.0716954101562495,3.1555577880859373,1.2761094848632812,-26.3206106870229,5.526717557251908,-12.183206106870228,0.0
11.480000495910645,-9.246406811523437,2.6886884643554687,2.1715409057617188,-9.633587786259541,7.847328244274809,-7.282442748091603,-8.690952026367187,-0.7781155395507812,3.268085266113281,-26.27480916030534,11.679389312977099,-3.450381679389313,0.0
11.490000486373901,-8.858546142578124,2.4444798950195312,2.2457611572265623,-10.442748091603054,4.198473282442748,-6.183206106870229,-10.54645831298828,-3.366247534179687,4.405331054687499,-8.061068702290076,15.068702290076336,-2.9923664122137406,0.0
11.500000476837158,-7.345410693359375,0.6464344482421874,0.47884033203125,-6.580152671755725,-2.3053435114503817,-3.2213740458015265,-8.566453540039062,-2.3822306518554686,2.863465185546875,-0.32061068702290074,8.65648854961832,-10.488549618320612,0.0
11.510000705718994,-8.25520732421875,1.7573440185546874,0.9576806640625,2.4732824427480917,2.351145038167939,-1.5267175572519085,-4.2305543334960936,-0.10295067138671875,-0.6081272216796875,2.198473282442748,2.0916030534351147,-17.435114503816795,0.0
11.520000696182251,-8.774749084472656,1.659181750488281,1.9393033447265624,1.3435114503816794,1.297709923664122,-0.366412213740458,-3.5386300537109374,2.0183119995117185,-0.03591302490234375,-19.221374045801525,23.450381679389313,-19.954198473282442,0.0
11.530000686645508,-9.97903251953125,1.3551181396484375,2.6408044311523438,4.916030534351145,-0.32061068702290074,4.580152671755725,-1.8004396484374998,2.877830395507812,-1.4772224243164063,-49.41984732824427,44.19847328244275,-16.27480916030534,0.0
11.540000677108765,-11.154585534667968,0.28969840087890625,3.411737365722656,5.6183206106870225,-3.49618320610687,4.183206106870229,-6.296750366210937,0.00718260498046875,3.0047230834960934,-44.732824427480914,54.70229007633588,-4.595419847328245,0.0
11.550000667572021,-10.070012182617187,-1.867477294921875,2.5713725830078125,9.419847328244275,-7.984732824427481,-1.4198473282442747,-4.187458703613281,1.6831237670898436,0.00718260498046875,-39.64885496183206,56.534351145038165,0.366412213740458,0.0
11.560000658035278,-10.12507882080078,-2.6599580444335937,3.4739866088867184,16.244274809160306,-7.572519083969466,-6.763358778625954,-7.556100439453124,0.09337386474609374,2.5043349365234375,-37.05343511450382,58.412213740458014,0.44274809160305345,0.0
11.570000886917114,-9.169792358398437,-3.0909143432617188,4.237736938476562,22.045801526717558,-16.946564885496183,-16.061068702290076,-4.551377355957031,1.9488801513671874,-0.047884033203124995,-36.30534351145038,58.0763358778626,1.7404580152671756,0.0
11.580000638961792,-7.781155395507812,-3.366247534179687,2.6192566162109374,37.55725190839695,-17.435114503816795,-20.106870229007633,-7.884106066894531,-0.9696516723632812,3.5984850952148437,-32.19847328244275,57.969465648854964,0.8091603053435115,0.0
11.590000629425049,-7.711723547363281,-1.5418658691406248,3.6846763549804686,36.778625954198475,-20.0,-28.427480916030536,-6.124367846679687,3.189076611328125,0.6272808349609375,-10.13740458015267,40.99236641221374,4.106870229007634,0.0
11.600000619888306,-9.660603698730467,2.1835119140624997,5.291185668945312,32.82442748091603,-26.977099236641223,-32.82442748091603,-8.010998754882811,0.6751648681640625,2.1715409057617188,-42.534351145038165,66.10687022900764,2.8396946564885495,0.0
11.610000371932983,-12.260706701660155,4.96078583984375,6.880935571289062,19.221374045801525,-32.19847328244275,-31.923664122137403,-10.536881506347656,-3.8043864379882812,7.048529687499999,10.305343511450381,42.56488549618321,16.366412213740457,0.0
11.62000060081482,-9.354145886230468,4.855440966796874,4.244919543457031,-5.923664122137405,-52.61068702290076,-28.9618320610687,-7.972691528320312,0.5530605834960938,3.39018955078125,42.732824427480914,18.80916030534351,14.580152671755725,0.0
11.630000829696655,-9.05965908203125,4.714183068847656,2.8610709838867185,-10.320610687022901,-56.30534351145038,-17.450381679389313,-5.082890124511718,1.39821376953125,-1.0342951171875,20.137404580152673,22.717557251908396,8.427480916030534,0.0
11.640000581741333,-5.949591125488281,2.4779987182617185,0.8667010009765624,-17.83206106870229,-61.25190839694657,-13.404580152671755,-3.038241906738281,2.7653029174804686,-2.231395947265625,-14.702290076335878,38.13740458015267,2.045801526717557,0.0
11.650000810623169,-7.843404638671874,4.484339709472656,1.0582371337890624,-22.68702290076336,-57.6793893129771,-9.007633587786259,-1.20667763671875,3.7397429931640622,-3.2537200561523436,-47.19083969465649,59.69465648854962,4.458015267175573,0.0
11.660000562667847,-6.835445739746094,3.323151904296875,1.5849614990234373,-34.916030534351144,-63.37404580152672,-3.3282442748091605,-6.543353137207031,-2.5617957763671875,1.7190367919921874,-53.02290076335878,78.25954198473282,14.229007633587786,0.0
11.670000553131104,-8.434772448730468,2.0973206542968748,4.65432802734375,-22.106870229007633,-57.48091603053435,2.5343511450381677,-4.99909306640625,-0.0143652099609375,0.20829554443359374,-11.038167938931299,59.725190839694655,24.65648854961832,0.0
11.680000305175781,-8.109161022949218,1.2114660400390624,4.994304663085937,-13.129770992366412,-63.20610687022901,2.9770992366412212,-7.618349682617187,-2.4971523315429685,1.956062756347656,-14.65648854961832,75.3587786259542,21.984732824427482,0.0
11.690000534057617,-14.15452021484375,3.708618371582031,12.152967626953124,-18.396946564885496,-61.93893129770992,-1.1603053435114503,-5.003881469726562,1.0079588989257813,-0.15083470458984374,10.229007633587786,70.30534351145039,22.549618320610687,0.0
11.700000524520874,-12.483367456054687,-0.33039982910156246,9.528922607421874,-27.908396946564885,-85.09923664122137,-2.687022900763359,-8.463502868652343,-0.7613561279296874,0.7517793212890624,6.931297709923665,80.25954198473282,13.84732824427481,0.0
11.710000276565552,-12.878410729980468,-4.005499377441406,8.281543542480469,-15.34351145038168,-92.53435114503817,-3.7557251908396947,-8.164227661132813,5.884947680664062,-1.0175357055664063,7.816793893129771,90.27480916030534,1.786259541984733,0.0
11.720000505447388,-9.548076220703125,-4.350264416503906,6.969521032714844,-9.557251908396946,-120.73282442748092,-20.564885496183205,-15.138537097167967,5.374982727050781,6.5601125488281244,-33.954198473282446,103.6030534351145,-17.328244274809162,0.0
11.730000495910645,-7.005434057617187,-3.9743747558593747,6.358999609374999,24.931297709923665,-136.0763358778626,-30.916030534351144,-20.424934362792968,6.1076084350585935,16.64448994140625,-83.57251908396947,81.64885496183206,-35.541984732824424,0.0
11.740000247955322,-8.846575134277343,4.134786267089844,6.744466076660156,42.38167938931298,-133.45038167938932,-42.25954198473283,-30.154969909667965,-6.318298181152343,26.429592126464843,-148.87022900763358,62.274809160305345,-52.0763358778626,0.0
11.750000476837158,-4.158728283691406,2.039859814453125,0.35194764404296874,63.11450381679389,-140.12213740458014,-36.778625954198475,-32.37439484863281,-15.409081884765625,28.81900538330078,-40.595419847328245,-22.48854961832061,-28.732824427480917,0.0
11.760000944137573,-9.255983618164063,5.992686755371094,3.81156904296875,81.17557251908397,-105.5114503816794,-29.862595419847327,-26.010606835937498,-2.0638018310546875,14.506467858886717,59.74045801526717,-90.6412213740458,15.664122137404581,0.0
11.77000093460083,-9.121908325195312,5.298368273925781,-0.55545478515625,85.61832061068702,-105.93893129770993,-11.709923664122137,-12.907141149902342,4.76924970703125,1.0845733520507812,102.3969465648855,-127.86259541984732,53.81679389312977,0.0
11.780000925064087,-16.565481286621093,5.5258174316406246,3.0166940917968748,86.42748091603053,-86.38167938931298,13.49618320610687,-6.734889270019531,2.3870190551757813,-14.010868115234373,100.61068702290076,-128.82442748091603,71.95419847328245,0.0
11.790000438690186,-14.00129130859375,3.366247534179687,-1.0342951171875,88.41221374045801,-94.90076335877863,36.900763358778626,-5.197811804199218,-6.100425830078125,-10.43871923828125,52.79389312977099,-80.41221374045801,38.61068702290076,0.0
11.800000667572021,-17.290924389648435,1.5346832641601562,1.2425906616210938,103.46564885496183,-76.80916030534351,52.42748091603053,-2.2026655273437497,-6.4475850708007805,-9.423577734375,26.82442748091603,-52.97709923664122,-1.6030534351145038,0.0
11.810000658035278,-20.24536923828125,4.75009609375,5.863399865722656,84.62595419847328,-79.72519083969466,47.17557251908397,-3.0550013183593747,-11.094730493164063,-6.706158850097656,13.786259541984732,-11.954198473282442,-36.396946564885496,0.0
11.820000648498535,-17.061081030273435,-0.6440402465820312,2.233790148925781,88.2442748091603,-70.36641221374046,49.908396946564885,-10.433930834960936,-10.733206042480468,-2.6431986328124997,35.770992366412216,0.15267175572519084,-45.282442748091604,0.0
11.830000638961792,-18.62210051269531,0.967257470703125,3.258508459472656,68.21374045801527,-79.29770992366412,39.64885496183206,-15.713145495605469,-5.109226342773437,0.86191259765625,62.2442748091603,11.801526717557252,-38.87022900763359,0.0
11.840000629425049,-17.764976318359373,0.7829039428710937,3.294421484375,46.900763358778626,-81.74045801526718,35.465648854961835,-15.586252807617187,2.77727392578125,2.123656872558594,48.61068702290076,29.908396946564885,-21.52671755725191,0.0
11.850000381469727,-15.406687683105467,-0.24181436767578124,2.8275521606445313,41.69465648854962,-75.6030534351145,54.045801526717554,-10.675745202636719,8.111555224609374,-0.8403647827148437,17.72519083969466,37.847328244274806,-8.610687022900763,0.0
11.860000610351562,-12.267889306640624,-0.4070142822265625,3.0047230834960934,39.49618320610687,-63.404580152671755,68.58015267175573,-8.33182177734375,7.618349682617187,-1.2114660400390624,-39.9236641221374,52.595419847328245,-2.427480916030534,0.0
11.870000839233398,-9.56962403564453,-0.28490999755859375,3.670311145019531,17.61832061068702,-57.81679389312977,72.67175572519083,-11.353304272460937,-1.7812860351562498,1.8052280517578123,-40.16793893129771,61.81679389312977,6.900763358778626,0.0
11.880000591278076,-6.675034228515624,-2.099714855957031,2.8371289672851563,-5.068702290076335,-56.42748091603053,67.87786259541984,-10.845733520507812,-2.6408044311523438,0.8978256225585937,-10.870229007633588,51.099236641221374,10.82442748091603,0.0
11.890000581741333,-4.88417138671875,-4.264073156738281,1.6448165405273436,-5.786259541984733,-50.88549618320611,60.19847328244275,-13.01727442626953,-3.859453076171875,1.8171990600585937,24.33587786259542,54.0,16.229007633587788,0.0
11.90000057220459,-2.9975404785156248,-7.651868505859374,0.354341845703125,2.9160305343511452,-42.412213740458014,48.961832061068705,-12.797007873535156,-3.1555577880859373,2.0542250244140625,82.83969465648855,40.29007633587786,21.19083969465649,0.0
11.910000801086426,-2.4061726684570313,-7.721300354003906,-0.7709329345703124,14.641221374045802,-31.786259541984734,27.908396946564885,-10.532093103027343,1.024718310546875,-1.1180921752929687,82.33587786259542,40.916030534351144,15.648854961832061,0.0
11.920000791549683,-4.209006518554688,-5.928043310546875,-0.8834604125976562,20.290076335877863,-26.80916030534351,14.763358778625955,-9.545682019042967,2.73896669921875,0.5530605834960938,69.49618320610686,42.961832061068705,10.305343511450381,0.0
11.93000054359436,-4.314351391601562,-3.9983167724609374,-0.9145850341796874,29.770992366412212,-13.740458015267176,7.114503816793893,-9.782707983398437,1.7645266235351562,0.6751648681640625,54.961832061068705,46.778625954198475,10.625954198473282,0.0
11.940000534057617,-4.797980126953124,-2.166752502441406,-0.8499415893554687,26.3206106870229,-7.3893129770992365,0.5343511450381679,-10.251971508789062,0.4572925170898437,2.224213342285156,48.0763358778626,45.343511450381676,9.511450381679388,0.0
11.950000524520874,-3.0621839233398433,-1.446097802734375,-2.588131994628906,26.458015267175572,1.2061068702290076,-1.3282442748091603,-11.358092675781249,-1.2832920898437499,4.311957189941406,37.81679389312977,45.81679389312977,14.961832061068701,0.0
11.96000051498413,-4.714183068847656,-0.00718260498046875,-0.82360537109375,15.648854961832061,14.290076335877863,-5.282442748091603,-7.723694555664062,0.7876923461914062,3.2537200561523436,29.251908396946565,35.267175572519086,10.916030534351146,0.0
11.970000505447388,-2.5378537597656248,-1.7788918334960937,-2.8371289672851563,6.763358778625954,19.6793893129771,-10.732824427480915,-9.437942944335937,-0.13168109130859373,4.046200805664062,17.450381679389313,32.61068702290076,13.236641221374045,0.0
11.980000495910645,-3.6487633300781246,-2.231395947265625,-2.703053674316406,8.732824427480915,40.18320610687023,-12.488549618320612,-8.568847741699217,0.47165772705078124,3.9983167724609374,3.9083969465648853,27.541984732824428,12.50381679389313,0.0
11.990000247955322,-2.023100402832031,-3.373430139160156,-4.132392065429687,5.526717557251908,50.900763358778626,-20.53435114503817,-8.88009395751953,0.25139117431640623,4.218583325195312,-3.5877862595419847,24.50381679389313,9.419847328244275,0.0
12.000000476837158,-4.125209460449218,-1.8411410766601561,-2.906560815429687,7.572519083969466,68.68702290076335,-26.671755725190838,-9.471461767578125,-1.3096283081054687,4.2688615600585935,-5.038167938931298,19.770992366412212,9.816793893129772,0.0
12.010000944137573,-2.4492682983398435,-3.3686417358398435,-4.642357019042969,2.5801526717557253,79.05343511450381,-33.43511450381679,-8.9255837890625,-1.3239935180664062,5.6215854980468745,-2.2290076335877864,20.015267175572518,8.290076335877863,0.0
12.02000093460083,-3.21780703125,-3.0789433349609374,-4.3263223999023435,17.31297709923664,99.54198473282443,-35.19083969465649,-7.754819177246094,1.0965443603515623,3.227383837890625,-2.6412213740458017,6.931297709923665,3.83206106870229,0.0
12.030000686645508,-2.3678654418945313,-2.4396914916992185,-5.307945080566406,21.786259541984734,114.97709923664122,-40.70229007633588,-7.0078282592773435,1.2832920898437499,2.3319524169921872,-19.81679389312977,13.129770992366412,5.877862595419847,0.0
12.040000677108765,-3.749319799804687,-0.8858546142578124,-3.7421371948242186,29.81679389312977,136.0916030534351,-43.16030534351145,-7.280767248535156,-0.3280056274414062,2.463633508300781,-18.732824427480917,9.877862595419847,11.221374045801527,0.0
12.050000429153442,-5.9783215454101555,1.7166425903320313,1.0773907470703123,25.17557251908397,145.54198473282443,-47.51145038167939,-10.69968721923828,-3.27526787109375,5.590460876464843,-20.9618320610687,13.709923664122137,18.946564885496183,0.0
12.0600004196167,-8.84178673095703,1.8148048583984373,8.135497241210937,34.79389312977099,146.06106870229007,-40.85496183206107,-9.744400756835937,-2.6288334228515624,5.157110375976562,-17.251908396946565,7.694656488549619,20.717557251908396,0.0
12.070000648498535,-10.096348400878906,1.3838485595703125,14.00129130859375,82.1526717557252,138.42748091603053,-26.519083969465647,-9.074024291992187,-1.5059528442382812,3.7995980346679685,-13.358778625954198,1.4961832061068703,20.229007633587788,0.0
12.080000638961792,-13.998897106933592,10.13226142578125,18.198326818847654,121.26717557251908,128.10687022900763,-10.931297709923664,-8.678981018066406,-0.15562310791015624,2.6815058593749996,-16.03053435114504,-1.1755725190839694,22.366412213740457,0.0
12.09000039100647,-16.953341955566405,19.007566979980467,18.454506396484373,87.2824427480916,92.73282442748092,8.564885496183207,-8.633491186523438,-0.0430956298828125,1.4891934326171874,-11.099236641221374,-1.7404580152671756,25.938931297709924,0.0
12.100000381469727,-18.73702219238281,19.072210424804688,19.48401311035156,26.931297709923665,53.41984732824427,30.977099236641223,-7.582436657714843,0.17477672119140625,0.7637503295898437,-8.259541984732824,-2.2748091603053435,29.14503816793893,0.0
12.110000610351562,-16.321272717285154,8.226476904296874,16.32366691894531,-38.47328244274809,1.0534351145038168,34.396946564885496,-7.505822204589843,0.16519991455078123,0.28969840087890625,-3.236641221374046,-3.0076335877862594,30.12213740458015,0.0
12.12000036239624,-10.704475622558594,-3.758896606445312,11.262324609375,7.893129770992366,-12.061068702290076,44.045801526717554,-7.599196069335937,0.11731588134765625,1.1923124267578125,1.0534351145038168,-2.8244274809160306,34.44274809160305,0.0
12.130000352859497,-6.48589229736328,-8.856151940917968,6.45476767578125,50.48854961832061,-13.740458015267176,43.847328244274806,-8.224082702636718,0.5698199951171875,2.5641899780273434,4.351145038167939,-1.099236641221374,35.19083969465649,0.0
12.140000581741333,-8.288726147460936,-6.624755993652343,2.85388837890625,-2.0916030534351147,-30.015267175572518,10.854961832061068,-8.978256225585938,1.6615759521484375,1.3096283081054687,2.1526717557251906,2.2290076335877864,31.083969465648856,0.0
12.150000810623169,-11.942277880859374,-6.749254479980468,2.959233251953125,-4.244274809160306,-28.916030534351144,-5.175572519083969,-11.128249316406249,3.6439749267578123,0.6655880615234374,-16.717557251908396,6.809160305343512,24.198473282442748,0.0
12.160000562667847,-18.938135131835935,4.6447512207031245,9.672574707031249,57.267175572519086,-6.015267175572519,4.152671755725191,-13.237540979003905,3.342305517578125,1.5227122558593749,-43.9236641221374,5.1603053435114505,23.221374045801525,0.0
12.170000553131104,-17.623718420410157,6.452373474121093,10.709264025878905,36.091603053435115,-15.526717557251908,0.3816793893129771,-14.573505505371093,2.2673089721679687,1.9776105712890624,-57.32824427480916,1.3587786259541985,29.49618320610687,0.0
12.180000305175781,-12.7563064453125,4.8698061767578125,-0.40462008056640625,-31.557251908396946,-32.778625954198475,-29.541984732824428,-14.920664746093749,-0.2609679809570312,2.9544448486328125,-64.83969465648855,-6.9465648854961835,33.603053435114504,0.0
12.190000534057617,-12.397176196289061,4.402936853027343,-4.472368701171875,-85.95419847328245,-33.61832061068702,-42.83969465648855,-18.30367169189453,-3.9552211425781247,4.2305543334960936,-52.87022900763359,-21.61832061068702,35.282442748091604,0.0
12.200000524520874,-10.280701928710936,2.2744915771484373,-5.779602807617187,-84.03053435114504,-13.694656488549619,-28.519083969465647,-19.79765352783203,-4.228160131835938,3.9839515624999997,-50.396946564885496,-34.83969465648855,36.42748091603053,0.0
12.21000051498413,-8.611943371582031,4.841075756835937,-5.236119030761718,-68.87022900763358,2.366412213740458,-12.473282442748092,-18.918981518554688,-1.9632453613281249,4.96078583984375,-47.63358778625954,-32.2442748091603,31.61832061068702,0.0
12.220000743865967,-5.6407391113281244,2.4253262817382812,-5.932831713867187,-56.717557251908396,14.51908396946565,-2.4122137404580153,-17.293318591308594,-1.0390835205078124,3.622427111816406,-36.16793893129771,-38.88549618320611,22.80916030534351,0.0
12.230000257492065,-9.009380847167968,1.6711527587890624,-3.797203833007812,-31.984732824427482,40.18320610687023,0.9312977099236641,-15.919046838378906,-3.143586779785156,2.5139117431640625,-10.992366412213741,-47.099236641221374,12.900763358778626,0.0
12.240000486373901,-10.54645831298828,0.4644751220703125,-3.699041564941406,-34.030534351145036,46.80916030534351,0.42748091603053434,-13.723563916015625,-0.36152445068359373,-1.5777788940429687,14.67175572519084,-60.87022900763359,0.183206106870229,0.0
12.250000238418579,-12.720393420410156,-0.41898529052734373,-3.0502129150390624,-37.37404580152672,57.70992366412214,-1.0229007633587786,-10.845733520507812,3.787627026367187,-2.39420166015625,-6.106870229007634,-44.412213740458014,-6.67175572519084,0.0
12.260000705718994,-13.76426534423828,0.13168109130859373,-1.6400281372070311,-52.045801526717554,57.80152671755725,-5.038167938931298,-10.723629235839843,4.189852905273438,-2.9664158569335934,-5.114503816793893,-27.053435114503817,-4.702290076335878,0.0
12.270000696182251,-13.060370056152342,0.6057330200195312,-0.9552864624023437,-58.82442748091603,57.45038167938932,-11.251908396946565,-10.812214697265624,1.3575123413085937,-3.277662072753906,-8.473282442748092,-9.358778625954198,-1.9541984732824427,0.0
12.280000925064087,-11.911153259277343,-1.0845733520507812,-0.9911994873046874,-69.41984732824427,50.717557251908396,-18.198473282442748,-11.14022032470703,1.8219874633789062,-3.6631285400390623,8.961832061068701,-13.664122137404581,-10.13740458015267,0.0
12.290000677108765,-9.299079248046874,-0.13407529296874998,-2.437297290039062,-46.67175572519084,56.79389312977099,-15.221374045801527,-10.534487304687499,3.1962592163085937,-2.9664158569335934,0.8702290076335878,-7.557251908396947,-14.946564885496183,0.0
12.300000667572021,-8.67658681640625,0.4070142822265625,-2.1452046874999997,-38.50381679389313,64.1526717557252,-10.946564885496183,-10.50815108642578,1.3287819213867187,0.3902548706054687,8.381679389312977,-2.33587786259542,-10.961832061068701,0.0
12.310000658035278,-10.579977136230468,1.1420341918945311,0.16759411621093748,-34.42748091603053,70.03053435114504,-9.297709923664122,-10.376469995117187,-0.15562310791015624,2.4660277099609376,25.022900763358777,-4.122137404580153,-5.557251908396947,0.0
12.320000648498535,-10.206481677246094,-0.5746083984375,0.5746083984375,-45.05343511450382,59.20610687022901,-6.977099236641221,-7.7763669921875,-0.3112462158203125,0.8714894042968749,44.80916030534351,-21.099236641221374,-8.67175572519084,0.0
12.330000638961792,-12.023680737304687,-0.09816226806640624,2.0733786376953125,-50.83969465648855,56.48854961832061,-9.251908396946565,-10.625466967773438,0.7062894897460937,3.0933085449218747,34.58015267175573,-15.618320610687023,-10.763358778625955,0.0
12.340000629425049,-9.162609753417968,-1.8315642700195311,0.6153098266601562,-57.9236641221374,48.82442748091603,-8.610687022900763,-8.810662109374999,2.602497204589844,3.066972326660156,29.83206106870229,-12.122137404580153,-15.557251908396946,0.0
12.350000619888306,-9.892841259765625,-1.7238251953125,1.4820108276367188,-60.70229007633588,42.58015267175573,-11.129770992366412,-8.492233288574218,1.70467158203125,2.70065947265625,25.297709923664122,-18.0,-15.221374045801527,0.0
12.360000371932983,-9.03332286376953,-4.575319372558593,-0.7972691528320313,-36.091603053435115,50.54961832061068,-13.786259541984732,-10.172962854003906,-1.1372457885742187,4.304774584960938,40.56488549618321,-28.641221374045802,-14.412213740458014,0.0
12.370000839233398,-9.433154541015625,-3.756502404785156,0.7445967163085937,-30.80916030534351,45.969465648854964,-21.954198473282442,-11.008539233398437,0.6464344482421874,4.000710974121094,56.656488549618324,-45.98473282442748,-19.862595419847327,0.0
12.380000591278076,-9.926360083007811,-1.158793603515625,1.66636435546875,-35.02290076335878,35.66412213740458,-26.47328244274809,-9.813832604980469,0.9409212524414062,4.5968671875,46.42748091603053,-49.89312977099237,-25.862595419847327,0.0
12.390000820159912,-8.616731774902343,-1.7573440185546874,0.44053310546874996,-22.061068702290076,35.770992366412216,-23.755725190839694,-9.279925634765624,1.3431471313476562,3.9839515624999997,56.48854961832061,-62.82442748091603,-27.46564885496183,0.0
12.40000057220459,-7.649474304199218,-2.530671154785156,-1.3287819213867187,-2.198473282442748,37.954198473282446,-23.709923664122137,-11.427524523925781,0.1388636962890625,5.590460876464843,53.74045801526717,-73.6793893129771,-30.83969465648855,0.0
12.410001039505005,-9.356540087890625,2.231395947265625,2.729389892578125,8.900763358778626,45.43511450381679,-27.221374045801525,-14.006079711914062,-2.616862414550781,10.654197387695312,53.61832061068702,-63.11450381679389,-26.3206106870229,0.0
12.420000314712524,-9.325415466308593,2.5258827514648434,2.2266075439453124,3.312977099236641,38.0763358778626,-23.46564885496183,-6.852205151367187,1.484405029296875,3.9360675292968748,54.29007633587786,-90.51908396946565,-36.06106870229008,0.0
12.43000054359436,-11.030087048339842,5.7317187744140625,3.4715924072265625,-8.580152671755725,34.0,-21.129770992366414,-12.263100903320312,-2.0877438476562498,8.43956085205078,54.80916030534351,-95.0381679389313,-39.49618320610687,0.0
12.440000534057617,-8.621520178222656,0.8810662109374999,0.14604630126953125,-19.358778625954198,16.946564885496183,-12.702290076335878,-9.5384994140625,0.469263525390625,2.6527754394531247,68.73282442748092,-135.54198473282443,-44.916030534351144,0.0
12.450000524520874,-11.439495532226562,2.940079638671875,2.4301146850585935,-4.442748091603053,23.572519083969464,-8.763358778625955,-14.551957690429687,-0.8690952026367187,7.486668591308593,69.22137404580153,-133.9236641221374,-47.31297709923664,0.0
12.46000051498413,-10.381258398437499,1.66636435546875,3.5482068603515624,-3.4198473282442747,23.221374045801525,-8.67175572519084,-11.403582507324218,3.2537200561523436,3.447650390625,84.68702290076335,-164.45801526717557,-39.51145038167939,0.0
12.470000505447388,-12.708422412109375,2.8610709838867185,5.202600207519531,-16.27480916030534,15.648854961832061,-10.061068702290076,0.07900865478515624,9.016563452148437,-7.0078282592773435,40.10687022900763,-174.5648854961832,-42.732824427480914,0.0
12.480000495910645,-11.853692419433592,5.499481213378906,4.671087438964843,-41.43511450381679,2.2748091603053435,-9.236641221374045,-0.86191259765625,8.310273962402343,-0.15083470458984374,0.6564885496183206,-128.13740458015266,-22.50381679389313,0.0
12.49000072479248,-11.006145031738281,3.0358477050781247,3.564966271972656,-66.0,-6.015267175572519,-4.0,7.431601953125,8.74601866455078,-7.029376074218749,-69.22137404580153,-112.44274809160305,-18.33587786259542,0.0
12.500000238418579,-10.230423693847655,5.3199160888671875,1.838746875,-75.00763358778626,-4.320610687022901,3.5572519083969465,3.086125939941406,6.311115576171875,-0.6368576416015624,-119.66412213740458,-34.67175572519084,-5.190839694656488,0.0
12.510000705718994,-6.888118176269531,1.5610194824218748,-0.19871873779296872,-72.97709923664122,-1.7099236641221374,13.49618320610687,-3.6487633300781246,-1.2713210815429687,-0.239420166015625,-136.61068702290078,-13.297709923664122,18.702290076335878,0.0
12.520000696182251,-6.883329772949218,1.0941501586914062,-0.7757213378906249,-50.30534351145038,13.511450381679388,11.297709923664122,-7.510610607910156,-2.3415292236328122,0.47884033203125,-119.2824427480916,0.48854961832061067,14.51908396946565,0.0
12.530000925064087,-6.713341455078124,0.5147533569335937,-0.20829554443359374,-43.86259541984733,14.458015267175572,7.633587786259542,-8.82263311767578,-1.2282254516601563,0.373495458984375,-76.83969465648855,-8.290076335877863,7.480916030534351,0.0
12.540000915527344,-7.673416320800781,-1.407790576171875,-1.8842367065429686,-18.396946564885496,24.396946564885496,7.236641221374046,-9.746794958496093,1.0678139404296874,0.6967126831054687,-47.14503816793893,-10.427480916030534,-5.1603053435114505,0.0
12.550000667572021,-10.000580334472655,0.1005564697265625,0.04548983154296875,-4.748091603053435,32.213740458015266,-1.099236641221374,-11.324573852539062,-1.4724340209960938,3.134009973144531,-7.7251908396946565,-14.396946564885496,-13.083969465648854,0.0
12.560000658035278,-10.43871923828125,0.39743747558593745,0.36152445068359373,-1.099236641221374,29.87786259541985,-4.763358778625954,-12.026074938964843,-0.5889736083984375,3.1411925781249996,23.129770992366414,-33.81679389312977,-22.229007633587788,0.0
12.570000648498535,-13.486537951660155,2.935291235351562,2.8802245971679685,-6.961832061068702,29.587786259541986,-6.488549618320611,-10.455478649902343,0.5746083984375,3.2345664428710936,24.061068702290076,-32.54961832061068,-27.603053435114504,0.0
12.580000638961792,-11.422736120605467,1.3575123413085937,2.272097375488281,-16.595419847328245,16.900763358778626,-1.9389312977099236,-10.915165368652342,1.5586252807617187,3.3255461059570313,22.38167938931298,-37.70992366412214,-25.64885496183206,0.0
12.590000629425049,-10.709264025878905,0.10295067138671875,1.9584569580078124,-8.244274809160306,18.778625954198475,-2.0610687022900764,-6.842628344726562,4.582501977539062,-0.023942016601562498,-3.7404580152671754,-36.85496183206107,-24.9618320610687,0.0
12.600000381469727,-8.825027319335938,-1.465251416015625,1.5322890624999999,-2.2290076335877864,20.9618320610687,-4.137404580152672,-7.551312036132812,1.7597382202148437,2.418143676757812,-14.229007633587786,-21.14503816793893,-16.458015267175572,0.0
12.610000371932983,-8.32463917236328,-1.4915876342773438,0.8858546142578124,-1.3740458015267176,20.061068702290076,-10.01526717557252,-8.532934716796875,0.06943184814453125,1.8602946899414061,0.3816793893129771,-27.358778625954198,-9.16030534351145,0.0
12.620000839233398,-10.333374365234375,1.5011644409179687,1.7310078002929687,-1.4198473282442747,17.0381679389313,-14.992366412213741,-4.9823336547851556,2.6312276245117188,0.469263525390625,-8.83969465648855,-16.33587786259542,-15.068702290076336,0.0
12.630000829696655,-9.363722692871093,1.2808978881835937,1.1061211669921875,-0.366412213740458,22.213740458015266,-15.83206106870229,-4.091690637207031,2.6192566162109374,1.5179238525390624,-30.564885496183205,11.267175572519085,-15.526717557251908,0.0
12.640000581741333,-8.468291271972657,1.6519991455078125,2.2553379638671873,-10.442748091603054,19.81679389312977,-17.14503816793893,-5.7508723876953125,-1.139639990234375,3.892971899414062,-25.51145038167939,26.015267175572518,-8.458015267175572,0.0
12.650001049041748,-8.78432589111328,3.1866824096679687,1.7645266235351562,-14.793893129770993,15.893129770992367,-18.38167938931298,-6.394912634277343,-2.0542250244140625,4.228160131835938,-3.1297709923664123,20.83969465648855,-3.5267175572519083,0.0
12.660000801086426,-7.364564306640625,2.4971523315429685,0.13407529296874998,-13.740458015267176,13.374045801526718,-12.412213740458014,-7.8553756469726554,-2.480392919921875,5.118803149414062,9.312977099236642,23.34351145038168,-4.137404580152672,0.0
12.670000553131104,-7.316680273437499,2.04943662109375,1.5418658691406248,-1.3740458015267176,20.16793893129771,-5.022900763358779,-5.197811804199218,-0.9002198242187499,2.5761609863281247,15.404580152671755,16.916030534351144,-6.8396946564885495,0.0
12.68000078201294,-10.28549033203125,2.568978381347656,4.338293408203125,-1.6030534351145038,18.213740458015266,-2.381679389312977,-4.299986181640625,0.15322890625,1.7956512451171873,16.80916030534351,16.53435114503817,-7.587786259541985,0.0
12.690000534057617,-10.924742175292968,1.5227122558593749,4.472368701171875,2.732824427480916,9.541984732824428,3.480916030534351,-2.636016027832031,1.867477294921875,-1.0438719238281249,17.053435114503817,5.175572519083969,-6.061068702290076,0.0
12.700000524520874,-10.817003100585938,0.48123453369140623,3.6439749267578123,10.961832061068701,3.801526717557252,3.2977099236641223,-3.957615344238281,3.0789433349609374,-0.2705447875976562,-20.778625954198475,37.51145038167939,-8.122137404580153,0.0
12.71000051498413,-10.378864196777343,-1.2689268798828124,3.912125512695312,8.610687022900763,-1.984732824427481,-0.7480916030534351,-2.7054478759765623,3.361459130859375,-1.7884686401367187,-53.587786259541986,56.13740458015267,-5.557251908396947,0.0
12.720000267028809,-9.935936889648437,-2.3391350219726563,3.375824340820312,10.625954198473282,-7.862595419847328,-6.442748091603053,-7.292738256835937,-0.47165772705078124,3.0597897216796874,-64.65648854961832,75.90839694656489,1.7709923664122138,0.0
12.730000495910645,-9.208099584960937,-2.7916391357421872,2.8993782104492185,20.946564885496183,-10.702290076335878,-11.526717557251908,-6.268019946289062,1.66636435546875,2.916137622070312,-28.16793893129771,51.32824427480916,8.610687022900763,0.0
12.740000247955322,-8.128314636230469,-1.3742717529296875,1.915361328125,27.450381679389313,-12.335877862595419,-15.206106870229007,-7.50821640625,2.0350714111328125,3.4644098022460934,-57.587786259541986,74.18320610687023,4.1679389312977095,0.0
12.750000476837158,-7.082048510742187,-1.944091748046875,1.7453730102539062,31.557251908396946,-13.068702290076336,-16.427480916030536,-6.222530114746093,1.47482822265625,4.498704919433593,-25.69465648854962,50.62595419847328,15.923664122137405,0.0
12.760000944137573,-6.301538769531249,-0.3064578125,1.43652099609375,39.74045801526717,-12.900763358778626,-24.106870229007633,-6.679822631835937,1.7525556152343749,3.447650390625,-42.045801526717554,66.04580152671755,13.32824427480916,0.0
12.77000093460083,-6.155492468261718,0.5770026000976562,0.8714894042968749,42.16793893129771,-11.84732824427481,-23.0381679389313,-7.625532287597656,-1.6711527587890624,5.116408947753906,-12.458015267175572,47.603053435114504,22.30534351145038,0.0
12.780000925064087,-5.774814404296874,2.5378537597656248,-0.04548983154296875,38.396946564885496,-14.51908396946565,-25.83206106870229,-5.6407391113281244,2.81558115234375,1.005564697265625,-20.045801526717558,50.229007633587784,20.3206106870229,0.0
12.790000677108765,-7.563283044433593,3.9336733276367184,1.4700398193359374,34.87022900763359,-8.80916030534351,-19.938931297709924,-8.695740429687499,-2.636016027832031,4.460397692871093,-27.083969465648856,58.13740458015267,19.893129770992367,0.0
12.800000667572021,-7.857769848632812,2.806004345703125,2.1691467041015624,37.099236641221374,-8.076335877862595,-14.366412213740459,-9.258377819824219,-2.39420166015625,6.026205578613281,33.31297709923664,31.00763358778626,29.49618320610687,0.0
12.810000658035278,-9.897629663085937,4.292803576660156,4.486733911132812,38.19847328244275,-8.458015267175572,-10.290076335877863,-6.629544396972656,1.714248388671875,0.8595183959960937,18.061068702290076,32.87022900763359,20.366412213740457,0.0
12.820000410079956,-12.442666027832031,5.142745166015625,6.160280871582031,17.755725190839694,-16.0,-7.175572519083969,-7.266402038574219,-0.2920926025390625,1.3263877197265623,-20.213740458015266,52.68702290076336,13.816793893129772,0.0
12.830000638961792,-12.883199133300781,4.393360046386719,7.3286512817382805,-2.3053435114503817,-28.213740458015266,-7.129770992366412,-8.856151940917968,-4.716577270507813,4.541800549316406,10.702290076335878,38.916030534351144,18.12213740458015,0.0
12.840000629425049,-11.188104357910156,0.7661445312499999,6.715735656738281,-12.396946564885496,-45.343511450381676,-7.66412213740458,-9.730035546875,-1.1563994018554686,3.9743747558593747,43.57251908396947,22.427480916030536,14.610687022900763,0.0
12.850000619888306,-13.146561315917968,2.094926452636719,8.942343200683593,-15.877862595419847,-52.274809160305345,-11.679389312977099,-7.280767248535156,1.5610194824218748,0.9696516723632812,11.17557251908397,35.11450381679389,2.763358778625954,0.0
12.860000610351562,-9.677363110351562,-2.003946789550781,8.595183959960938,-29.893129770992367,-77.57251908396947,-17.801526717557252,-6.823474731445312,3.574543078613281,0.9648632690429687,-26.931297709923665,50.85496183206107,-4.320610687022901,0.0
12.870000839233398,-14.202404248046873,0.8188169677734375,9.30147344970703,-48.51908396946565,-87.17557251908397,-27.541984732824428,-2.27927998046875,5.154716174316406,-2.310404602050781,-58.88549618320611,62.67175572519084,-3.053435114503817,0.0
12.880000591278076,-11.59990704345703,-1.4963760375976562,9.600748657226562,-70.18320610687023,-118.2442748091603,-32.656488549618324,-6.423643054199219,-0.8858546142578124,-0.3064578125,-61.29770992366412,87.02290076335878,8.564885496183207,0.0
12.890000820159912,-16.99643758544922,1.7836802368164062,15.715539697265624,-62.01526717557252,-136.94656488549617,-31.984732824427482,-6.782773303222656,0.4525041137695312,-5.9974751586914055,-5.022900763358779,86.91603053435115,14.091603053435115,0.0
12.90000033378601,-15.703568688964843,-0.15083470458984374,11.06360587158203,-54.595419847328245,-175.46564885496184,-31.862595419847327,-14.714763403320312,3.4069489624023435,1.6424223388671875,-7.938931297709924,106.1526717557252,-4.961832061068702,0.0
12.910000801086426,-11.231199987792968,-4.055777612304687,5.928043310546875,8.061068702290076,-201.55725190839695,-18.427480916030536,-23.848642736816405,7.206546997070312,17.24543455810547,-64.53435114503817,105.25190839694656,-28.16793893129771,0.0
12.920000314712524,-14.750676428222656,1.637633935546875,7.934384301757812,55.63358778625954,-198.42748091603053,-28.33587786259542,-39.22540289916992,-15.926229443359373,37.35672850341797,-203.31297709923663,98.03053435114504,-79.83206106870229,0.0
12.93000078201294,-8.949525805664061,-0.8379705810546875,-2.070984436035156,106.97709923664122,-206.36641221374046,-22.717557251908396,-38.754942272949215,-33.72951298828125,22.809559216308593,-61.98473282442748,-30.244274809160306,-57.404580152671755,0.0
12.940000534057617,-10.556035119628906,0.062249243164062495,-4.771643908691406,141.87786259541986,-152.59541984732823,-7.297709923664122,-15.368380456542967,3.9432501342773434,7.730877160644531,150.65648854961833,-121.87786259541984,8.992366412213741,0.0
12.950000286102295,-8.054094384765625,-1.3359645263671873,-9.533711010742186,147.87786259541986,-125.37404580152672,-6.305343511450381,-6.947973217773437,9.440337145996093,-4.970362646484375,195.75572519083968,-140.42748091603053,66.25954198473282,0.0
12.960000276565552,-16.225504650878904,6.136338854980468,-2.5570073730468748,148.83969465648855,-83.37404580152672,12.259541984732824,-0.9361328491210937,8.628702783203124,-24.059332482910154,158.12213740458014,-101.46564885496183,59.00763358778626,0.0
12.970000505447388,-16.529568261718747,5.190629199218749,-3.754108203125,135.58778625954199,-88.87022900763358,41.98473282442748,-0.055066638183593745,5.334281298828125,-12.064382165527343,8.274809160305344,-22.137404580152673,6.961832061068702,0.0
12.980000495910645,-23.175872070312497,4.874594580078124,4.113238452148437,111.22137404580153,-70.03053435114504,68.1526717557252,0.40462008056640625,-4.649539624023437,-7.6231380859375,-48.18320610687023,2.931297709923664,-15.694656488549619,0.0
12.990000247955322,-22.007501660156247,5.324704492187499,8.240842114257813,75.38931297709924,-69.90839694656489,67.3587786259542,-5.597643481445312,-9.572018237304688,-5.430049365234375,-35.32824427480916,18.427480916030536,-20.18320610687023,0.0
13.000000476837158,-20.982783349609374,3.9719805541992184,7.79552060546875,7.190839694656488,-97.32824427480917,55.725190839694655,-15.078682055664062,-5.391742138671875,-2.655169641113281,14.305343511450381,28.732824427480917,-8.045801526717558,0.0
13.010000705718994,-17.72906329345703,0.4165910888671875,2.942473840332031,21.114503816793892,-89.22137404580153,68.30534351145039,-16.438588598632812,-1.1013327636718748,-4.390965844726562,35.465648854961835,34.87022900763359,4.0,0.0
13.02000093460083,-13.141772912597656,-0.7541735229492187,0.016759411621093748,37.55725190839695,-71.7557251908397,72.85496183206106,-12.287042919921875,5.023035083007812,-3.5984850952148437,19.572519083969464,52.25954198473283,3.099236641221374,0.0
13.030000686645508,-10.05564697265625,-0.1867477294921875,0.35673604736328124,24.9618320610687,-59.66412213740458,72.03053435114504,-11.722011328125,2.166752502441406,2.887407202148437,-3.0839694656488548,82.85496183206106,9.099236641221374,0.0
13.040000677108765,-5.722141967773437,-3.3399113159179685,-1.4101847778320311,24.33587786259542,-39.87786259541985,75.8473282442748,-9.83777462158203,0.5626373901367188,1.637633935546875,12.641221374045802,76.77862595419847,18.53435114503817,0.0
13.050000429153442,-7.769184387207031,-2.942473840332031,1.7262193969726563,0.8091603053435115,-28.549618320610687,63.63358778625954,-10.002974536132811,0.7900865478515624,1.9632453613281249,5.572519083969466,81.8473282442748,25.603053435114504,0.0
13.0600004196167,-4.563348364257812,-3.6535517333984373,0.5339069702148437,-2.122137404580153,-26.16793893129771,60.76335877862596,-9.713276135253906,0.5889736083984375,0.9840168823242187,21.450381679389313,69.80152671755725,30.595419847328245,0.0
13.070000648498535,-3.957615344238281,-3.5386300537109374,0.5913678100585937,-20.442748091603054,-24.106870229007633,49.61832061068702,-10.223241088867187,1.0678139404296874,1.8746598999023436,10.916030534351146,77.90839694656489,32.778625954198475,0.0
13.080000638961792,-4.505887524414062,-2.24097275390625,0.7254431030273437,-19.96946564885496,-14.80916030534351,45.541984732824424,-9.265560424804686,-1.5346832641601562,2.5617957763671875,27.099236641221374,67.93893129770993,32.19847328244275,0.0
13.09000039100647,-2.952050646972656,-4.242525341796875,-0.7134720947265625,-15.83206106870229,-6.290076335877862,38.62595419847328,-10.211270080566406,-1.4700398193359374,2.935291235351562,37.51145038167939,61.57251908396947,28.931297709923665,0.0
13.100000381469727,-2.9735984619140625,-4.065354418945312,-0.373495458984375,-18.65648854961832,0.8702290076335878,29.31297709923664,-8.796296899414061,1.6017209106445311,2.0973206542968748,22.519083969465647,57.603053435114504,17.72519083969466,0.0
13.110000610351562,-1.5131354492187499,-3.3686417358398435,-1.879448303222656,-19.81679389312977,11.908396946564885,21.16030534351145,-9.047688073730468,0.055066638183593745,4.44363828125,8.549618320610687,63.099236641221374,18.35114503816794,0.0
13.12000036239624,-2.1356278808593747,-2.834734765625,-0.48123453369140623,-42.0763358778626,12.534351145038167,10.748091603053435,-7.721300354003906,-3.047818713378906,4.53940634765625,24.0,54.30534351145038,17.72519083969466,0.0
13.130000352859497,-2.748543505859375,-2.6312276245117188,0.00239420166015625,-53.9236641221374,21.236641221374047,2.4885496183206106,-7.807491613769531,-1.5346832641601562,3.5146880371093747,45.98473282442748,31.34351145038168,14.229007633587786,0.0
13.140000581741333,0.086191259765625,-4.039018200683594,-2.559401574707031,-45.20610687022901,32.12213740458015,-0.366412213740458,-8.990227233886719,-0.5506663818359374,3.787627026367187,33.038167938931295,29.801526717557252,7.908396946564886,0.0
13.15000057220459,2.1930887207031247,-6.871358764648437,-5.137956762695312,-18.48854961832061,58.091603053435115,-1.9541984732824427,-8.542511523437499,-0.08858546142578125,4.881777185058594,24.35114503816794,28.65648854961832,7.511450381679389,0.0
13.160000801086426,0.8786720092773437,-6.086060620117187,-3.6176387084960937,-7.083969465648855,79.25190839694656,-17.389312977099237,-8.635885388183594,-0.4740519287109375,4.759672900390624,16.900763358778626,23.87786259541985,9.053435114503817,0.0
13.170000553131104,0.9121908325195311,-6.8402341430664055,-4.446032482910156,-0.183206106870229,93.00763358778626,-37.55725190839695,-10.342951171874999,-1.8028338500976562,6.112396838378906,15.145038167938932,20.38167938931298,13.786259541984732,0.0
13.18000054359436,-0.41419688720703124,-6.0908490234374995,-4.522646936035156,25.49618320610687,116.85496183206106,-50.94656488549618,-7.793126403808594,0.411802685546875,4.180276098632812,4.198473282442748,12.793893129770993,14.061068702290076,0.0
13.190000295639038,-3.6655227416992187,-2.3319524169921872,-3.3638533325195312,32.76335877862596,131.08396946564886,-63.81679389312977,-6.5601125488281244,2.214636535644531,2.863465185546875,-5.206106870229007,7.282442748091603,13.48091603053435,0.0
13.200000524520874,-2.9975404785156248,-3.1866824096679687,-2.6048914062499997,45.587786259541986,141.22137404580153,-65.02290076335878,-9.052476477050782,1.3335703247070312,3.9791631591796874,-15.557251908396946,6.33587786259542,16.80916030534351,0.0
13.21000051498413,-3.4524387939453125,-4.666299035644531,-0.51714755859375,103.06870229007633,164.9770992366412,-55.05343511450382,-9.473855969238281,0.5913678100585937,5.128379956054687,-21.557251908396946,6.106870229007634,16.977099236641223,0.0
13.220000743865967,-9.868899243164062,-0.12449848632812499,12.236764685058594,180.8854961832061,176.99236641221373,-46.213740458015266,-8.207323291015625,1.2210428466796874,4.924872814941406,-30.625954198473284,5.175572519083969,14.549618320610687,0.0
13.230000257492065,-15.784971545410155,15.44978331298828,16.50323204345703,236.0,160.10687022900763,-20.48854961832061,-8.690952026367187,0.1771709228515625,5.413289953613281,-32.412213740458014,0.42748091603053434,17.374045801526716,0.0
13.24000096321106,-23.961170214843747,31.39995477294922,17.75539951171875,186.9618320610687,136.67175572519085,16.85496183206107,-8.013392956542969,-0.8092401611328125,4.853046765136718,-32.12213740458015,-5.343511450381679,21.984732824427482,0.0
13.250000238418579,-24.028207861328124,28.888437231445312,21.363461413574218,44.97709923664122,61.465648854961835,32.44274809160305,-7.781155395507812,-2.142810485839844,4.764461303710937,-29.81679389312977,-8.80916030534351,24.366412213740457,0.0
13.260000944137573,-16.364368347167968,12.811373083496093,15.026009619140623,-87.52671755725191,-21.61832061068702,35.587786259541986,-9.732429748535155,-5.521029028320312,4.496310717773437,-16.38167938931298,-9.206106870229007,28.366412213740457,0.0
13.270000696182251,-9.363722692871093,0.44053310546874996,2.559401574707031,-101.38931297709924,-22.82442748091603,38.93129770992366,-7.060500695800781,-5.80354482421875,1.9488801513671874,-6.900763358778626,-12.80916030534351,26.946564885496183,0.0
13.280000925064087,-8.013392956542969,-6.41646044921875,-4.2521021484374995,-133.206106870229,-18.946564885496183,29.34351145038168,-7.254431030273437,-5.571307263183593,0.4740519287109375,3.236641221374046,-14.65648854961832,22.748091603053435,0.0
13.290000677108765,-11.458649145507811,-13.254300390625,2.0566192260742184,-37.45038167938932,16.977099236641223,40.36641221374046,-9.943119494628906,-5.662286926269531,0.28490999755859375,7.206106870229007,-9.465648854961833,20.15267175572519,0.0
13.300000667572021,-17.164031701660154,-7.635109094238281,10.943895788574219,50.48854961832061,26.0,41.14503816793893,-11.597512841796874,-3.859453076171875,0.23702596435546874,9.312977099236642,-8.763358778625955,11.34351145038168,0.0
13.310000658035278,-21.131223852539062,-0.4429273071289062,15.026009619140623,21.541984732824428,7.603053435114504,13.236641221374045,-12.559981909179687,-1.7190367919921874,-0.9050082275390624,1.2213740458015268,-4.122137404580153,0.5954198473282443,0.0
13.320000410079956,-17.44894169921875,2.7174188842773437,9.672574707031249,-63.541984732824424,-43.343511450381676,-39.038167938931295,-16.304513305664063,-4.201823913574218,0.28969840087890625,12.229007633587786,5.221374045801527,-4.0458015267175576,0.0
13.330000400543213,-10.977414611816405,-1.5777788940429687,-2.7246014892578123,-102.13740458015268,-46.916030534351144,-60.54961832061068,-17.008408593749998,-2.231395947265625,-0.5195417602539062,25.908396946564885,-1.0687022900763359,-12.122137404580153,0.0
13.340000629425049,-6.382941625976562,-3.9935283691406247,-9.210493786621093,-69.14503816793894,-20.427480916030536,-51.98473282442748,-14.264653491210936,1.7429788085937499,-2.4157494750976563,23.374045801526716,-4.366412213740458,-20.763358778625953,0.0
13.350000619888306,-5.578489868164062,-4.036623999023437,-7.611167077636718,-7.557251908396947,20.137404580152673,-33.93893129770992,-16.625336328124998,3.1555577880859373,-0.7134720947265625,24.47328244274809,-5.862595419847328,-18.50381679389313,0.0
13.360013723373413,-3.0741549316406247,-0.9552864624023437,-7.0844427124023435,45.954198473282446,48.091603053435115,-24.244274809160306,-17.76018791503906,1.6352397338867186,2.8562825805664063,19.251908396946565,-5.038167938931298,-10.458015267175572,0.0
13.37000036239624,-4.8698061767578125,1.7717092285156248,-6.066907006835937,73.87786259541984,73.20610687022901,-18.15267175572519,-18.49520782470703,-0.4429273071289062,4.848258361816406,39.465648854961835,-15.465648854961833,-6.351145038167939,0.0
13.380000591278076,-11.645396875,5.154716174316406,-1.0702081420898437,70.09160305343511,88.10687022900764,-18.015267175572518,-16.249446667480466,0.6440402465820312,2.9975404785156248,49.31297709923664,-42.030534351145036,-10.351145038167939,0.0
13.390000581741333,-14.386757775878905,5.951985327148437,1.3215993164062498,32.38167938931298,80.90076335877863,-17.374045801526716,-13.249511987304686,5.595249279785156,0.9169792358398436,32.213740458015266,-48.01526717557252,-12.82442748091603,0.0
13.400274276733398,-14.37718096923828,5.374982727050781,1.618480322265625,-17.267175572519083,67.54198473282443,-16.99236641221374,-11.556811413574218,7.884106066894531,0.22026655273437498,13.84732824427481,-39.70992366412214,-4.99236641221374,0.0
13.410000801086426,-12.27746611328125,2.549824768066406,0.43574470214843747,-70.56488549618321,47.282442748091604,-20.778625954198475,-11.207257971191405,3.864241479492187,1.6927005737304686,12.931297709923664,-27.083969465648856,3.6946564885496183,0.0
13.420000553131104,-11.7603185546875,-0.1149216796875,-0.2609679809570312,-78.03053435114504,46.10687022900763,-22.99236641221374,-10.941501586914061,3.153163586425781,2.6815058593749996,20.30534351145038,-22.198473282442748,2.6259541984732824,0.0
13.43000054359436,-12.674903588867187,-2.032677209472656,-0.842758984375,-67.92366412213741,46.091603053435115,-23.87786259541985,-10.601524951171875,4.893748193359374,2.051830822753906,17.64885496183206,-24.564885496183205,-4.0,0.0
13.440000534057617,-11.633425866699218,-2.549824768066406,-0.5530605834960938,-45.66412213740458,51.52671755725191,-23.083969465648856,-9.674968908691406,6.5505357421875,0.21068974609375,1.5572519083969465,-28.213740458015266,-6.961832061068702,0.0
13.450000286102295,-10.366893188476562,-1.5490484741210937,-1.0271125122070313,-37.587786259541986,49.98473282442748,-24.65648854961832,-8.99501563720703,6.619967590332031,0.0383072265625,-15.541984732824428,-25.282442748091604,-0.6412213740458015,0.0
13.46000051498413,-11.001356628417968,1.3958195678710936,0.948103857421875,-37.969465648854964,54.83969465648855,-27.267175572519083,-5.396530541992187,3.1866824096679687,0.8714894042968749,-20.519083969465647,-23.14503816793893,11.312977099236642,0.0
13.470000505447388,-10.283096130371094,0.22266075439453123,-0.51714755859375,-55.31297709923664,43.847328244274806,-29.862595419847327,-21.59809317626953,-4.438849877929687,9.34696328125,25.740458015267176,-19.51145038167939,21.480916030534353,0.0
13.480000495910645,-8.82263311767578,-3.4524387939453125,-3.277662072753906,-28.03053435114504,49.3587786259542,-28.0,-11.889605444335936,0.4285620971679687,1.3718775512695311,51.05343511450382,-66.29007633587786,10.564885496183207,0.0
13.490000486373901,-9.720458740234374,0.948103857421875,0.6416460449218749,-16.671755725190838,58.54961832061068,-27.374045801526716,-11.82975040283203,1.886630908203125,2.9281086303710935,18.65648854961832,-71.06870229007633,-17.389312977099237,0.0
13.500000476837158,-7.165845568847656,-0.9696516723632812,-1.20667763671875,-26.48854961832061,48.29007633587786,-25.61832061068702,-13.098677282714842,2.3056161987304686,3.3351229125976563,14.076335877862595,-73.16030534351145,-10.870229007633588,0.0
13.510000705718994,-8.441955053710936,-0.19153613281249998,-0.48123453369140623,-19.206106870229007,48.916030534351144,-25.740458015267176,-11.456254943847656,0.7398083129882812,4.2497079467773435,9.389312977099237,-59.06870229007634,-4.244274809160306,0.0
13.52000093460083,-10.038887561035155,0.47884033203125,1.0582371337890624,-22.778625954198475,46.97709923664122,-30.977099236641223,-5.224148022460938,3.095702746582031,-0.44053310546874996,7.190839694656488,-76.47328244274809,-7.862595419847328,0.0
13.530000686645508,-11.322179650878905,1.867477294921875,0.9552864624023437,-33.43511450381679,39.98473282442748,-33.45038167938932,-7.0078282592773435,2.205059729003906,0.833182177734375,0.21374045801526717,-77.26717557251908,-11.435114503816793,0.0
13.540000677108765,-10.319009155273436,3.1124621582031247,0.852335791015625,-30.259541984732824,38.88549618320611,-27.51145038167939,-8.310273962402343,0.967257470703125,0.0526724365234375,7.6183206106870225,-91.74045801526718,-11.389312977099237,0.0
13.550000667572021,-11.209652172851563,4.1946413085937495,0.7757213378906249,-31.709923664122137,37.3587786259542,-22.16793893129771,-12.840103503417968,-1.6160861206054686,5.358223315429687,7.984732824427481,-80.58015267175573,-10.488549618320612,0.0
13.560000658035278,-9.248801013183593,2.6408044311523438,0.74699091796875,-37.541984732824424,33.908396946564885,-14.82442748091603,-12.054805358886718,-0.9145850341796874,5.511452221679687,11.49618320610687,-76.87022900763358,-9.145038167938932,0.0
13.570000648498535,-10.20887587890625,1.714248388671875,1.1420341918945311,-45.74045801526717,31.419847328244273,-10.106870229007633,-9.332598071289063,-0.6296750366210937,5.386953735351562,9.404580152671755,-67.43511450381679,-10.427480916030534,0.0
13.580000638961792,-9.60793126220703,-0.02154781494140625,0.9097966308593749,-51.52671755725191,28.198473282442748,-9.84732824427481,-7.074865905761718,0.47165772705078124,1.9656395629882812,12.65648854961832,-80.03053435114504,-12.977099236641221,0.0
13.590000629425049,-10.89122335205078,0.411802685546875,1.4963760375976562,-54.3206106870229,27.34351145038168,-15.587786259541986,-8.489839086914062,-0.258573779296875,3.421314172363281,13.511450381679388,-74.12213740458016,-13.16030534351145,0.0
13.600000619888306,-9.100360510253905,-1.350329736328125,-0.1197100830078125,-52.35114503816794,25.34351145038168,-18.65648854961832,-6.545747338867187,1.7238251953125,2.868253588867187,5.038167938931298,-71.66412213740458,-12.15267175572519,0.0
13.610000610351562,-10.754753857421875,-0.1149216796875,0.36631285400390623,-57.14503816793893,24.595419847328245,-17.389312977099237,-9.129090930175781,0.08140285644531249,5.087678527832031,9.603053435114504,-58.85496183206107,-6.900763358778626,0.0
13.620000839233398,-9.6917283203125,-0.3184288208007812,0.35673604736328124,-47.31297709923664,24.12213740458015,-16.68702290076336,-7.584830859375,1.8339584716796873,2.7174188842773437,-0.3969465648854962,-70.47328244274809,-9.297709923664122,0.0
13.630000829696655,-11.494562170410155,0.948103857421875,2.5641899780273434,-45.32824427480916,27.83206106870229,-15.450381679389313,-7.867346655273437,1.924938134765625,3.902548706054687,-4.198473282442748,-52.70229007633588,-10.458015267175572,0.0
13.640000581741333,-9.797073193359374,-0.22266075439453123,0.9840168823242187,-37.69465648854962,23.908396946564885,-14.595419847328245,-10.529698901367187,-1.448492004394531,4.671087438964843,-4.778625954198473,-56.94656488549618,-7.801526717557252,0.0
13.650000810623169,-9.804255798339844,0.16280571289062498,1.0390835205078124,-26.610687022900763,23.587786259541986,-16.137404580152673,-9.373299499511718,1.13006318359375,2.272097375488281,2.7022900763358777,-73.0381679389313,-13.374045801526718,0.0
13.660000562667847,-10.206481677246094,1.9512743530273435,1.5251064575195312,-21.755725190839694,20.885496183206108,-15.358778625954198,-7.747636572265624,2.43250888671875,2.6599580444335937,-4.6106870229007635,-60.70229007633588,-16.68702290076336,0.0
13.670000553131104,-9.392453112792968,1.2785036865234374,1.2617442749023438,-19.022900763358777,20.946564885496183,-11.709923664122137,-8.367734802246094,0.9600748657226562,2.327164013671875,-9.007633587786259,-64.04580152671755,-14.290076335877863,0.0
13.680000305175781,-9.473855969238281,2.4013842651367185,1.429338391113281,-9.664122137404581,22.946564885496183,-10.13740458015267,-5.092466931152344,3.4955344238281247,0.5913678100585937,-21.083969465648856,-57.64885496183206,-17.34351145038168,0.0
13.690000295639038,-9.634267480468749,2.5426421630859375,2.1499930908203124,-12.427480916030534,22.900763358778626,-4.015267175572519,-6.579266162109374,2.032677209472656,3.641580725097656,-20.106870229007633,-32.54961832061068,-9.740458015267176,0.0
13.700000524520874,-9.37808790283203,1.0175357055664063,1.4604630126953124,-20.290076335877863,17.450381679389313,-3.1908396946564888,-6.3901242309570305,1.3575123413085937,1.139639990234375,-27.129770992366414,-40.54961832061068,-8.564885496183207,0.0
13.71000051498413,-10.802637890625,1.5251064575195312,2.281674182128906,-21.96946564885496,15.86259541984733,-4.916030534351145,-5.899312890625,1.7717092285156248,2.3247698120117186,-28.99236641221374,-27.557251908396946,-9.587786259541986,0.0
13.720000505447388,-10.127473022460936,0.5770026000976562,2.221819140625,-20.595419847328245,18.30534351145038,-4.748091603053435,-5.894524487304687,1.7286135986328124,3.4356793823242184,-39.31297709923664,-12.366412213740459,-8.259541984732824,0.0
13.730000257492065,-10.51533369140625,-0.4213794921875,2.501940734863281,-30.412213740458014,11.801526717557252,-7.786259541984733,-3.1579519897460937,1.5753846923828123,0.0383072265625,-47.3587786259542,-14.65648854961832,-9.114503816793894,0.0
13.740000247955322,-11.643002673339844,1.0486603271484374,2.5378537597656248,-24.076335877862597,13.664122137404581,-8.274809160305344,-6.4475850708007805,-0.35673604736328124,2.5617957763671875,-35.32824427480916,-4.259541984732825,-4.9465648854961835,0.0
13.750000476837158,-11.221623181152344,0.45968671875,2.437297290039062,-17.908396946564885,8.610687022900763,-9.312977099236642,-4.637568615722656,0.833182177734375,0.4477157104492187,-38.88549618320611,-9.633587786259541,-7.465648854961832,0.0
13.760000705718994,-9.804255798339844,0.4070142822265625,3.3782185424804685,-8.763358778625955,8.106870229007633,-6.030534351145038,-4.970362646484375,1.4604630126953124,2.7269956909179687,-41.20610687022901,10.229007633587786,-7.175572519083969,0.0
13.770000696182251,-9.107543115234375,0.6847416748046875,4.948814831542968,-8.351145038167939,-0.732824427480916,-8.106870229007633,-3.9695863525390624,1.1444283935546875,0.8834604125976562,-52.6412213740458,9.679389312977099,-3.6793893129770994,0.0
13.780037879943848,-7.292738256835937,1.6735469604492186,4.587290380859375,1.8015267175572518,-6.885496183206107,-9.618320610687023,-3.77326181640625,1.22583125,0.9864110839843749,-57.70992366412214,25.740458015267176,-2.366412213740458,0.0
13.790000438690186,-6.224924316406249,3.366247534179687,3.6056677001953124,7.0534351145038165,-13.358778625954198,-5.8320610687022905,-6.021417175292968,-1.9416975463867185,3.7301661865234372,-44.29007633587786,34.93129770992366,6.259541984732825,0.0
13.800000429153442,-6.56968935546875,4.199429711914062,2.6288334228515624,6.320610687022901,-17.709923664122137,0.13740458015267176,-6.6343328002929685,-4.572925170898437,2.442085693359375,-26.27480916030534,20.595419847328245,5.984732824427481,0.0
13.8100004196167,-8.935160595703124,4.805162731933594,4.120421057128906,-0.9007633587786259,-22.03053435114504,7.770992366412214,-5.561730456542969,-1.235408056640625,2.636016027832031,-12.229007633587786,18.290076335877863,-4.183206106870229,0.0
13.820000648498535,-7.738059765625,1.6831237670898436,3.4428619873046875,4.290076335877862,-27.96946564885496,24.33587786259542,-3.3973721557617185,1.5203180541992187,1.656787548828125,-19.083969465648856,28.106870229007633,-7.312977099236641,0.0
13.830000638961792,-9.191340173339842,-0.97683427734375,4.197035510253906,12.534351145038167,-26.931297709923665,29.19083969465649,-4.565742565917969,-1.5322890624999999,3.6463691284179687,-21.770992366412212,41.55725190839695,-0.12213740458015267,0.0
13.840000629425049,-10.678139404296875,-2.6671406494140624,5.504269616699219,18.412213740458014,-30.091603053435115,20.625954198473284,-6.5409589355468745,-3.8762124877929685,2.887407202148437,-2.9618320610687023,29.251908396946565,4.809160305343512,0.0
13.850000858306885,-9.823409411621093,-3.5314474487304683,3.9791631591796874,31.099236641221374,-37.64885496183206,9.450381679389313,-5.097255334472656,-0.603338818359375,2.4588451049804685,1.3740458015267176,24.53435114503817,-6.061068702290076,0.0
13.860000371932983,-8.269572534179687,-4.484339709472656,3.1842882080078123,47.06870229007634,-37.86259541984733,2.519083969465649,-5.2456958374023435,-0.488417138671875,3.5482068603515624,-5.282442748091603,37.282442748091604,-7.801526717557252,0.0
13.870001077651978,-4.6639048339843745,-3.4572271972656248,0.9457096557617187,53.66412213740458,-38.58015267175573,-6.564885496183206,-7.299920861816406,-2.7078420776367187,4.055777612304687,7.114503816793893,34.01526717557252,-4.2748091603053435,0.0
13.880000352859497,-5.042188696289062,-2.0446482177734375,-0.5147533569335937,44.68702290076336,-44.595419847328245,-17.66412213740458,-5.925649108886718,-4.151545678710937,3.835511059570312,25.954198473282442,29.099236641221374,-7.557251908396947,0.0
13.890000820159912,-5.267243652343749,-2.090138049316406,0.9217676391601562,57.69465648854962,-41.61832061068702,-20.900763358778626,-7.316680273437499,-4.132392065429687,3.0550013183593747,53.61832061068702,13.709923664122137,-12.274809160305344,0.0
13.90000057220459,-8.183381274414062,-0.5793968017578125,3.9145197143554684,73.2824427480916,-35.19083969465649,-24.53435114503817,-3.0550013183593747,-1.62805712890625,3.162740393066406,57.587786259541986,10.82442748091603,-20.82442748091603,0.0
13.910000801086426,-8.722076647949219,-0.34237083740234375,5.087678527832031,73.3587786259542,-39.89312977099237,-19.770992366412212,-3.0741549316406247,-2.6982652709960937,2.2290017456054687,55.32824427480916,15.083969465648854,-21.068702290076335,0.0
13.920000553131104,-12.926294763183593,-0.01915361328125,7.445967163085937,58.62595419847328,-52.97709923664122,-25.206106870229007,-3.1292215698242187,-1.8171990600585937,2.2673089721679687,45.61832061068702,30.27480916030534,-21.34351145038168,0.0
13.930000305175781,-13.893552233886718,0.1197100830078125,9.402029919433593,52.56488549618321,-71.22137404580153,-31.282442748091604,2.0350714111328125,1.1923124267578125,-3.641580725097656,13.923664122137405,47.31297709923664,-26.290076335877863,0.0
13.940000295639038,-17.968483459472655,17.214309936523435,22.146365356445312,17.557251908396946,-78.9618320610687,-45.12977099236641,-0.8451531860351562,2.923320227050781,-3.5027170288085934,7.374045801526718,73.38931297709924,-21.267175572519083,0.0
13.950000524520874,-24.32987727050781,18.248605053710936,22.328324682617186,-108.80916030534351,-176.12213740458014,-34.97709923664122,-8.295908752441406,3.526659045410156,-2.3918074584960936,-18.076335877862597,108.93129770992367,-20.106870229007633,0.0
13.960000276565552,-14.504073657226561,1.0965443603515623,8.70771143798828,-61.87786259541985,-236.77862595419847,24.3206106870229,-17.47527791748047,6.268019946289062,0.9193734375,-34.42748091603053,138.06106870229007,-6.702290076335878,0.0
13.970000505447388,-13.187262744140623,-9.85692823486328,5.693411547851563,-39.52671755725191,-256.9465648854962,12.900763358778626,-24.03539046630859,13.742717529296874,11.142614526367186,-56.74809160305343,150.4885496183206,-30.885496183206108,0.0
13.980000495910645,-16.601394311523435,-6.938396411132812,8.520963708496094,-10.15267175572519,-277.17557251908397,-18.48854961832061,-36.74620708007812,8.142679846191406,39.133226135253906,-160.85496183206106,132.82442748091603,-60.961832061068705,0.0
13.990000486373901,-23.35304299316406,2.8371289672851563,9.545682019042967,53.786259541984734,-273.8625954198473,-8.13740458015267,-35.766978601074214,-13.692439294433592,33.777397021484376,-119.63358778625954,-0.4732824427480916,-34.534351145038165,0.0
14.000000476837158,-17.06586943359375,6.1650692749023435,1.5538368774414062,90.33587786259542,-271.4351145038168,26.641221374045802,-20.039467895507812,-2.408566870117187,14.745888024902342,65.0381679389313,-80.97709923664122,36.50381679389313,0.0
14.010000944137573,-9.581595043945311,-0.689530078125,-5.817910034179687,75.12977099236642,-257.2977099236641,47.14503816793893,-6.8210805297851556,5.238513232421875,-1.8411410766601561,120.4885496183206,-110.42748091603053,96.6412213740458,0.0
14.02000093460083,-11.935095275878906,-0.833182177734375,-4.766855505371093,72.85496183206106,-231.5114503816794,47.61832061068702,-11.81777939453125,-6.507440112304687,-11.628637463378906,104.12213740458016,-93.34351145038168,93.6793893129771,0.0
14.030000686645508,-9.114725720214842,-4.747701892089843,-5.810727429199218,123.02290076335878,-205.0381679389313,62.091603053435115,-5.911283898925781,-7.237671618652343,-16.42901179199219,43.3587786259542,-54.44274809160305,31.221374045801525,0.0
14.040000915527344,-13.096283081054686,-2.50912333984375,-1.3766659545898436,148.65648854961833,-155.86259541984734,58.82442748091603,-3.5984850952148437,-8.82263311767578,-9.545682019042967,-3.5572519083969465,-12.992366412213741,-12.977099236641221,0.0
14.050000429153442,-11.882422839355469,-0.8571241943359375,-1.7405846069335937,148.51908396946564,-130.8854961832061,39.541984732824424,-2.6048914062499997,-9.674968908691406,-8.468291271972657,-3.6946564885496183,11.465648854961833,-28.977099236641223,0.0
14.060000658035278,-15.105018273925781,4.874594580078124,3.5721488769531247,142.99236641221373,-83.12977099236642,31.083969465648856,-10.01733974609375,-11.786654772949218,-2.748543505859375,15.068702290076336,37.099236641221374,-25.83206106870229,0.0
14.070000648498535,-12.421118212890624,1.8148048583984373,2.81558115234375,114.21374045801527,-77.1145038167939,29.786259541984734,-12.562376110839843,-6.382941625976562,-3.4955344238281247,61.64885496183206,30.519083969465647,-18.076335877862597,0.0
14.080000400543213,-11.743559143066406,-1.7597382202148437,4.505887524414062,112.91603053435115,-47.61832061068702,37.282442748091604,-12.16254443359375,1.0438719238281249,-1.5011644409179687,36.916030534351144,47.61832061068702,-18.061068702290076,0.0
14.090000629425049,-5.322310290527343,-5.058948107910156,-1.9680337646484374,112.18320610687023,-30.229007633587788,38.35114503816794,-12.59589493408203,4.161122485351562,1.7501614135742187,22.595419847328245,55.343511450381676,-11.709923664122137,0.0
14.100000619888306,-6.471527087402343,-2.8993782104492185,0.6512228515624999,91.1145038167939,0.7938931297709924,32.6412213740458,-12.433089221191405,2.310404602050781,3.191470812988281,8.412213740458014,66.3969465648855,-3.480916030534351,0.0
14.110000610351562,-4.553771557617187,-2.1835119140624997,-1.5442600708007812,74.77862595419847,3.7709923664122136,31.053435114503817,-11.10191309814453,2.2864625854492187,0.8355763793945312,23.068702290076335,55.80152671755725,0.8396946564885496,0.0
14.12000060081482,-5.2073886108398435,-1.0797849487304687,1.0319009155273438,55.099236641221374,23.358778625954198,32.2442748091603,-9.311050256347656,4.223371728515625,0.7350199096679687,12.82442748091603,58.47328244274809,9.648854961832061,0.0
14.130000829696655,-4.465186096191406,-0.6440402465820312,0.48123453369140623,31.19083969465649,19.328244274809162,26.625954198473284,-11.702857714843748,1.0414777221679687,3.4668040039062498,30.137404580152673,53.3587786259542,19.297709923664122,0.0
14.140000581741333,-7.0269818725585935,0.4070142822265625,2.0733786376953125,9.145038167938932,20.427480916030536,19.96946564885496,-9.670180505371093,2.35589443359375,0.5147533569335937,46.38167938931298,38.717557251908396,19.450381679389313,0.0
14.15000057220459,-6.787561706542968,0.8164227661132812,0.7110778930664062,-15.34351145038168,3.7251908396946565,19.0381679389313,-9.80665,4.522646936035156,-0.36391865234375,21.862595419847327,47.55725190839695,11.603053435114504,0.0
14.160000324249268,-6.351817004394531,-0.1771709228515625,1.5562310791015623,-14.748091603053435,11.801526717557252,28.137404580152673,-8.765172277832031,2.6384102294921874,0.3280056274414062,12.687022900763358,52.0,15.755725190839694,0.0
14.170000791549683,-4.297591979980469,-0.97683427734375,0.011971008300781249,-36.61068702290076,-3.1297709923664123,18.412213740458014,-9.708487731933593,-1.7022773803710936,2.8850130004882812,24.595419847328245,48.99236641221374,21.358778625954198,0.0
14.18000078201294,-2.300827795410156,-2.748543505859375,-1.924938134765625,-37.43511450381679,-0.5038167938931297,18.244274809160306,-7.68059892578125,0.05027823486328125,1.1420341918945311,55.25190839694657,31.267175572519083,22.931297709923665,0.0
14.190000295639038,-0.622492431640625,-2.626439221191406,-2.6096798095703124,-34.68702290076336,8.732824427480915,12.916030534351146,-8.767566479492187,0.9241618408203125,1.9823989746093749,39.17557251908397,38.88549618320611,19.053435114503817,0.0
14.200000524520874,0.22505495605468748,-2.114080065917969,-2.511517541503906,-37.099236641221374,21.19083969465649,9.572519083969466,-8.176198669433592,0.8259995727539062,2.7269956909179687,33.20610687022901,41.69465648854962,16.946564885496183,0.0
14.21000051498413,0.5051765502929687,-2.370259643554687,-2.518700146484375,-41.908396946564885,31.099236641221374,6.015267175572519,-10.194510668945313,-0.679953271484375,5.0014872680664055,31.374045801526716,42.85496183206107,16.47328244274809,0.0
14.220000267028809,-0.9313444458007812,-1.7884686401367187,-0.3280056274414062,-33.9236641221374,58.16793893129771,2.2290076335877864,-8.935160595703124,-0.5386953735351562,4.604049792480469,19.893129770992367,40.70229007633588,14.702290076335878,0.0
14.230000734329224,-0.055066638183593745,-3.3590649291992185,-2.8371289672851563,-28.229007633587788,62.656488549618324,-5.251908396946565,-9.560047229003906,-0.8882488159179687,5.061342309570312,20.946564885496183,34.10687022900763,15.404580152671755,0.0
14.240000486373901,0.5051765502929687,-2.5617957763671875,-4.649539624023437,-21.419847328244273,69.12977099236642,-15.312977099236642,-8.86812294921875,-0.0047884033203125,5.336675500488281,7.3893129770992365,30.106870229007633,18.137404580152673,0.0
14.250000476837158,2.013523596191406,-3.73495458984375,-9.200916979980468,4.900763358778626,91.63358778625954,-16.229007633587788,-8.315062365722655,0.4070142822265625,5.705382556152343,-2.6564885496183206,20.625954198473284,20.732824427480917,0.0
14.260000944137573,-2.578555187988281,-0.5363011718749999,-3.6080619018554687,-0.8244274809160306,117.26717557251908,-25.34351145038168,-8.628702783203124,0.08858546142578125,6.8210805297851556,-8.15267175572519,13.786259541984732,22.625954198473284,0.0
14.270000696182251,1.455674609375,-6.842628344726562,-4.335899206542969,44.85496183206107,150.82442748091603,-23.954198473282442,-9.598354455566406,0.0526724365234375,8.743624462890624,-7.419847328244275,9.801526717557252,26.061068702290076,0.0
14.280000925064087,-4.604049792480469,-4.410119458007812,3.881000891113281,70.87022900763358,174.91603053435114,-39.465648854961835,-7.350199096679687,2.01112939453125,6.706158850097656,-8.106870229007633,0.22900763358778625,24.564885496183205,0.0
14.290000677108765,-12.780248461914061,5.444414575195312,17.09220565185547,153.66412213740458,178.3206106870229,-31.84732824427481,-8.173804467773436,1.7214309936523438,7.285555651855469,-10.793893129770993,-2.4580152671755724,27.572519083969464,0.0
14.300000667572021,-19.187132104492186,25.74006204833984,25.069685583496092,249.6946564885496,171.54198473282443,12.946564885496183,-5.068524914550781,5.224148022460938,2.636016027832031,-24.99236641221374,-12.885496183206106,26.213740458015266,0.0
14.310000658035278,-14.310143322753905,21.868637963867187,22.354660900878905,91.02290076335878,89.63358778625954,4.702290076335878,-7.417236743164062,2.748543505859375,4.886565588378906,-40.0,-6.977099236641221,30.595419847328245,0.0
14.320000648498535,-13.113042492675781,9.80665,11.84890401611328,-88.12213740458016,33.61832061068702,-11.938931297709924,-6.4475850708007805,1.7764976318359373,3.5960908935546874,-35.25190839694657,-13.86259541984733,37.282442748091604,0.0
14.330000400543213,-14.777012646484375,1.2138602416992186,5.068524914550781,-142.41221374045801,-8.83969465648855,4.137404580152672,-14.865598107910156,-4.874594580078124,5.097255334472656,-35.66412213740458,-7.038167938931298,40.213740458015266,0.0
14.340000629425049,-22.756886779785155,4.276044165039062,3.909731311035156,-16.671755725190838,14.15267175572519,73.92366412213741,-13.005303417968749,-4.955997436523437,3.0550013183593747,-40.74809160305343,-19.267175572519083,32.717557251908396,0.0
14.350000619888306,-25.821464904785156,-3.8690298828125,18.100164550781248,29.16030534351145,11.908396946564885,102.1526717557252,-14.74109962158203,-2.5354595581054684,2.398990063476562,-46.99236641221374,-24.442748091603054,10.946564885496183,0.0
14.360000371932983,-20.43451116943359,-9.674968908691406,17.470489514160157,-3.4656488549618323,-49.7557251908397,27.114503816793892,-17.99721387939453,-1.8602946899414061,3.071760729980469,-45.603053435114504,-42.412213740458014,11.16030534351145,0.0
14.370000839233398,-10.189722265624999,-5.494692810058593,-5.549759448242187,-84.94656488549619,-75.19083969465649,-55.37404580152672,-16.469713220214842,-4.6255976074218745,3.1220389648437497,-51.25190839694657,-60.10687022900763,14.717557251908397,0.0
14.380000591278076,-7.824251025390624,1.7238251953125,-8.913612780761719,-82.6412213740458,-50.67175572519084,-58.74809160305343,-17.36514464111328,-4.99909306640625,3.6559459350585937,-19.770992366412212,-66.68702290076335,17.908396946564885,0.0
14.390000820159912,-5.054159704589844,3.9336733276367184,-8.032546569824218,-76.99236641221374,-20.977099236641223,-34.82442748091603,-17.40345186767578,-4.599261389160156,3.4069489624023435,-3.053435114503817,-74.36641221374046,8.65648854961832,0.0
14.40000057220459,-2.0302830078125,1.8219874633789062,-9.993397729492187,-39.37404580152672,17.603053435114504,-2.6717557251908395,-16.393098767089842,-0.1005564697265625,0.7733271362304687,16.519083969465647,-85.81679389312977,-10.442748091603054,0.0
14.410000801086426,0.7158662963867187,-0.5315127685546874,-12.495338464355468,-5.343511450381679,49.282442748091604,9.603053435114504,-15.519215161132811,3.845087866210937,0.26336218261718747,-1.9541984732824427,-76.29007633587786,-22.259541984732824,0.0
14.420000553131104,-5.4013189453125,0.7709329345703124,-7.6997525390625,21.64885496183206,87.2824427480916,10.351145038167939,-14.372392565917968,3.6248213134765623,-1.924938134765625,-6.1679389312977095,-70.76335877862596,-24.091603053435115,0.0
14.43000054359436,-14.54956348876953,2.980781066894531,-2.829946362304687,17.083969465648856,100.76335877862596,2.8702290076335877,-10.503362683105468,2.8514941772460936,-4.161122485351562,1.083969465648855,-76.33587786259542,-23.19083969465649,0.0
14.440000534057617,-20.745757385253906,2.166752502441406,1.867477294921875,-6.2748091603053435,99.54198473282443,-4.396946564885496,-14.963760375976562,3.6846763549804686,-1.3527239379882812,-1.0381679389312977,-58.045801526717554,-23.31297709923664,0.0
14.450000524520874,-18.55266866455078,2.042254016113281,2.3965958618164063,-34.83969465648855,83.66412213740458,-10.305343511450381,-12.73715283203125,6.76122548828125,-1.0749965454101562,-2.0,-43.45038167938932,-23.297709923664122,0.0
14.460000276565552,-15.95495986328125,4.979939453125,2.3965958618164063,-65.25190839694656,69.90839694656489,-18.396946564885496,-7.6470801025390625,10.053252770996092,-2.9759926635742184,-25.633587786259543,-22.33587786259542,-24.259541984732824,0.0
14.470000505447388,-12.476184851074217,2.4205378784179685,1.1085153686523437,-102.53435114503817,52.51908396946565,-25.572519083969464,-9.07163009033203,4.685452648925781,0.7326257080078125,-25.557251908396946,-4.824427480916031,-8.854961832061068,0.0
14.480000257492065,-8.453926062011718,-1.4796166259765624,-2.2601263671875,-99.02290076335878,48.3206106870229,-24.50381679389313,-10.876858142089842,-0.5889736083984375,2.81558115234375,-1.9694656488549618,-7.557251908396947,-3.83206106870229,0.0
14.490000247955322,-8.951920007324219,-4.012681982421875,-2.384624853515625,-70.10687022900764,60.85496183206107,-20.778625954198475,-13.532027783203125,-0.16519991455078123,3.794809631347656,22.595419847328245,-17.51145038167939,-7.083969465648855,0.0
14.500000953674316,-8.360552197265624,-3.1100679565429687,-2.0781670410156248,-40.0763358778626,72.90076335877863,-17.083969465648856,-7.524975817871093,4.994304663085937,-0.29448680419921874,1.5419847328244274,-25.282442748091604,-19.709923664122137,0.0
14.510000944137573,-9.885658654785155,1.5634136840820312,1.4820108276367188,-42.0763358778626,75.1145038167939,-18.748091603053435,-9.334992272949219,3.327940307617187,3.9456443359374997,-2.351145038167939,-12.13740458015267,-13.587786259541986,0.0
14.520000696182251,-9.600748657226562,-0.13168109130859373,0.4525041137695312,-52.13740458015267,72.97709923664122,-21.923664122137403,-8.743624462890624,2.4492682983398435,0.16519991455078123,12.625954198473282,-36.458015267175576,-7.312977099236641,0.0
14.530000686645508,-11.010933435058593,1.5897499023437498,2.3343466186523436,-56.25954198473283,75.87786259541984,-25.96946564885496,-9.97184991455078,1.3766659545898436,3.162740393066406,-5.526717557251908,-26.82442748091603,-12.65648854961832,0.0
14.540000915527344,-6.335057592773437,-1.4030021728515625,-1.1923124267578125,-54.06106870229008,69.77099236641222,-20.82442748091603,-7.5465236328125,3.67749375,-0.05746083984375,0.5038167938931297,-38.12213740458015,-11.98473282442748,0.0
14.550000667572021,-8.329427575683594,1.4030021728515625,0.9696516723632812,-53.541984732824424,70.35114503816794,-20.793893129770993,-10.70686982421875,-0.229843359375,4.266467358398438,-10.061068702290076,-22.83969465648855,-12.076335877862595,0.0
14.560000896453857,-10.407594616699217,-1.0127473022460938,2.114080065917969,-62.83969465648855,64.07633587786259,-21.938931297709924,-7.52737001953125,0.8595183959960937,0.6751648681640625,1.8473282442748091,-39.66412213740458,-14.229007633587786,0.0
14.570000648498535,-10.328585961914062,1.1276689819335937,3.3399113159179685,-58.61068702290076,58.82442748091603,-23.053435114503817,-12.054805358886718,-2.5378537597656248,5.437231970214843,6.595419847328245,-30.82442748091603,-16.900763358778626,0.0
14.580000877380371,-7.390900524902343,-3.248931652832031,0.1197100830078125,-57.55725190839695,47.725190839694655,-21.572519083969464,-7.917624890136718,-0.8690952026367187,2.2026655273437497,13.129770992366412,-48.19847328244275,-19.450381679389313,0.0
14.590000629425049,-12.658144177246093,3.5218706420898434,5.082890124511718,-52.152671755725194,45.587786259541986,-22.3206106870229,-8.801085302734375,-0.51714755859375,3.4620156005859375,20.442748091603054,-51.14503816793893,-22.38167938931298,0.0
14.600000619888306,-10.137049829101562,1.1348515869140625,2.4133552734375,-51.48091603053435,41.66412213740458,-23.786259541984734,-8.865728747558594,-0.74699091796875,6.251260534667968,22.076335877862597,-50.778625954198475,-19.00763358778626,0.0
14.610000610351562,-9.382876306152344,1.3168109130859373,2.612074011230469,-46.152671755725194,36.48854961832061,-15.877862595419847,-8.396465222167969,0.2561795776367187,5.863399865722656,19.96946564885496,-53.86259541984733,-17.83206106870229,0.0
14.62000060081482,-10.05564697265625,1.6017209106445311,2.906560815429687,-40.13740458015267,32.29007633587786,-14.396946564885496,-9.4618849609375,0.28490999755859375,6.5218053222656245,26.15267175572519,-60.35114503816794,-15.648854961832061,0.0
14.630000829696655,-12.291831323242187,3.8379052612304685,5.432443566894531,-44.213740458015266,25.72519083969466,-17.236641221374047,-7.800309008789062,1.5729904907226562,6.057330200195312,11.84732824427481,-54.18320610687023,-14.732824427480915,0.0
14.640000581741333,-9.744400756835937,0.2920926025390625,3.5506010620117183,-45.14503816793893,21.603053435114504,-13.557251908396946,-7.802703210449218,2.6886884643554687,5.255272644042968,11.49618320610687,-53.74045801526717,-14.244274809160306,0.0
14.650000810623169,-11.63821427001953,3.1076737548828124,6.404489440917969,-47.45038167938932,12.51908396946565,-11.312977099236642,-6.72291826171875,4.273649963378906,4.7189714721679685,-14.183206106870228,-45.282442748091604,-14.061068702290076,0.0
14.660000324249268,-8.705317236328124,-0.12449848632812499,1.0821791503906248,-47.099236641221374,2.2748091603053435,-2.1374045801526718,-8.48505068359375,0.7613561279296874,5.9783215454101555,-14.183206106870228,-38.33587786259542,-8.13740458015267,0.0
14.670000791549683,-11.595118640136718,0.062249243164062495,3.8762124877929685,-33.31297709923664,7.648854961832061,-2.2290076335877864,-7.292738256835937,2.664746447753906,3.284844677734375,-20.763358778625953,-53.45038167938932,-10.83969465648855,0.0
14.680000305175781,-11.046846459960937,0.40222587890625,3.9839515624999997,-29.404580152671755,6.809160305343512,-3.236641221374046,-6.335057592773437,4.977545251464844,5.327098693847656,-27.51145038167939,-33.52671755725191,-9.541984732824428,0.0
14.690000534057617,-9.042899670410156,0.5506663818359374,3.0023288818359375,-26.580152671755727,-1.3129770992366412,-0.15267175572519084,-4.527435339355469,2.4013842651367185,2.6240450195312497,-46.274809160305345,-31.87786259541985,-5.893129770992366,0.0
14.700000524520874,-10.687716210937499,0.02154781494140625,1.9129671264648436,-28.30534351145038,-4.534351145038168,-2.6106870229007635,-8.192958081054687,-1.1252747802734375,5.492298608398437,-40.61068702290076,-20.580152671755727,0.3053435114503817,0.0
14.710000276565552,-10.599130749511717,1.216254443359375,2.480392919921875,-20.045801526717558,-4.931297709923665,-3.114503816793893,-9.533711010742186,-0.9002198242187499,5.331887097167969,-32.0763358778626,-29.251908396946565,-1.4809160305343512,0.0
14.720000505447388,-9.868899243164062,-0.0718260498046875,1.898601916503906,-22.82442748091603,-11.923664122137405,-2.7480916030534353,-8.147468249511718,-0.8571241943359375,4.630386010742187,-18.48854961832061,-32.67175572519084,-5.6183206106870225,0.0
14.730000495910645,-9.313444458007812,-0.6679822631835937,0.6631938598632812,-7.786259541984733,-8.351145038167939,0.07633587786259542,-6.325480786132812,1.917755529785156,3.284844677734375,-19.358778625954198,-39.43511450381679,-10.458015267175572,0.0
14.740000486373901,-8.410830432128906,-0.2753331909179687,0.316034619140625,-0.9007633587786259,-3.66412213740458,-2.366412213740458,-4.46279189453125,3.0166940917968748,3.9600095458984375,-33.6793893129771,-20.47328244274809,-11.709923664122137,0.0
14.750000476837158,-8.640673791503906,2.1499930908203124,1.2737152832031249,1.633587786259542,-0.9618320610687023,-2.7786259541984735,-1.2689268798828124,1.5179238525390624,0.2825157958984375,-53.83206106870229,-17.786259541984734,-8.992366412213741,0.0
14.760000705718994,-11.616666455078125,4.407725256347656,2.8610709838867185,-7.541984732824427,4.0,-4.916030534351145,-4.572925170898437,-0.15322890625,2.7054478759765623,-50.67175572519084,-2.2442748091603053,-2.015267175572519,0.0
14.770000696182251,-10.35492218017578,2.5139117431640625,2.176329309082031,6.2748091603053435,9.32824427480916,0.7022900763358778,-4.560954162597656,-0.6943184814453125,1.5729904907226562,-49.52671755725191,-6.015267175572519,-1.099236641221374,0.0
14.780000925064087,-10.122684619140625,2.408566870117187,2.770091320800781,6.641221374045801,9.19083969465649,-0.12213740458015267,-7.790732202148437,0.36152445068359373,4.599261389160156,-37.038167938931295,4.320610687022901,-0.48854961832061067,0.0
