timestamp,Thigh_L_Acc_X,Thigh_L_Acc_Y,Thigh_L_Acc_Z,Thigh_L_Gyr_X,Thigh_L_Gyr_Y,Thigh_L_Gyr_Z,Thigh_R_Acc_X,Thigh_R_Acc_Y,Thigh_R_Acc_Z,Thigh_R_Gyr_X,Thigh_R_Gyr_Y,Thigh_R_Gyr_Z,gpio_output
10.000000476837158,-14.611812731933593,4.601655590820312,2.942473840332031,15.740458015267176,2.122137404580153,-7.267175572519084,-13.898340637207031,-1.1947066284179686,2.3678654418945313,-7.465648854961832,-7.32824427480916,10.763358778625955,0.0
10.010000705718994,-14.642937353515624,6.275202551269531,-1.0845733520507812,3.5114503816793894,3.3587786259541983,-6.427480916030534,-14.379575170898436,-1.4915876342773438,3.189076611328125,-15.98473282442748,-10.870229007633588,7.9541984732824424,1.0
10.020000696182251,-11.056423266601563,0.6607996582031249,-3.469198205566406,7.511450381679389,5.740458015267175,-2.732824427480916,-16.249446667480466,-2.7269956909179687,4.254496350097656,-20.793893129770993,-15.267175572519085,7.022900763358779,1.0
10.030000686645508,-9.981426721191406,1.448492004394531,-3.9839515624999997,21.49618320610687,24.53435114503817,-2.946564885496183,-18.43774698486328,-4.278438366699218,6.734889270019531,-20.259541984732824,-22.412213740458014,8.122137404580153,1.0
10.040000677108765,-7.070077502441406,3.4931402221679684,-5.322310290527343,20.198473282442748,31.572519083969464,-1.3129770992366412,-18.18396160888672,-5.475539196777343,6.64630380859375,-3.2213740458015265,-44.29007633587786,3.83206106870229,1.0
10.050000667572021,-8.29351455078125,3.670311145019531,-2.6288334228515624,16.33587786259542,45.20610687022901,0.13740458015267176,-18.516755639648437,-5.849034655761718,7.127538342285156,23.267175572519083,-64.35114503816794,-0.7480916030534351,1.0
10.060000658035278,-5.9950809570312495,-0.2537853759765625,-3.1364041748046874,17.251908396946565,51.16030534351145,3.5267175572519083,-17.776947326660157,-2.7557261108398436,4.355052819824219,45.06870229007634,-82.3969465648855,-14.50381679389313,1.0
10.070000648498535,-8.566453540039062,0.00718260498046875,0.35673604736328124,20.259541984732824,67.74045801526718,-3.3587786259541983,-13.268665600585937,1.6998831787109374,2.4660277099609376,33.17557251908397,-83.80152671755725,-29.328244274809162,1.0
10.080000877380371,-10.199299072265624,0.5099649536132812,0.8116343627929687,0.061068702290076333,64.85496183206106,-9.664122137404581,-10.864887133789061,2.693476867675781,-0.05027823486328125,30.870229007633586,-82.53435114503817,-37.25190839694657,1.0
10.09000039100647,-12.895170141601561,0.9433154541015625,2.4684219116210935,-10.564885496183207,64.94656488549619,-14.50381679389313,-8.339004382324218,3.5290532470703124,-0.7637503295898437,24.977099236641223,-74.90076335877863,-32.70229007633588,1.0
10.100000858306885,-12.820949890136719,0.16998831787109375,1.6927005737304686,-32.51908396946565,52.97709923664122,-16.3206106870229,-7.350199096679687,3.81156904296875,-0.5410895751953124,28.99236641221374,-61.80152671755725,-26.33587786259542,1.0
10.110000610351562,-12.167332836914062,-0.7302315063476562,0.5746083984375,-39.41984732824427,45.87786259541985,-18.076335877862597,-4.455609289550781,5.453991381835937,-2.731784094238281,32.732824427480914,-61.57251908396947,-24.519083969465647,1.0
10.120000839233398,-11.877634436035155,0.20350714111328125,1.0678139404296874,-44.229007633587784,44.25954198473283,-22.671755725190838,-7.37414111328125,7.8529814453124995,-0.6847416748046875,16.519083969465647,-32.76335877862596,-17.099236641221374,1.0
10.130000591278076,-8.70771143798828,-0.9265560424804687,-1.2210428466796874,-37.465648854961835,37.19083969465649,-18.396946564885496,-9.533711010742186,5.628768103027343,0.6655880615234374,3.49618320610687,-13.389312977099237,-10.213740458015268,1.0
10.140000581741333,-10.292672937011718,1.4006079711914061,0.967257470703125,-25.786259541984734,41.43511450381679,-19.099236641221374,-11.130643518066405,2.825157958984375,1.0295067138671874,-8.305343511450381,-7.145038167938932,-6.595419847328245,1.0
10.15000057220459,-10.943895788574219,1.6543933471679686,1.2330138549804688,-26.549618320610687,37.48091603053435,-18.18320610687023,-9.141061938476563,3.2561142578125,0.469263525390625,-11.526717557251908,-8.061068702290076,-5.541984732824427,1.0
10.160000562667847,-10.151415039062499,1.5634136840820312,0.1197100830078125,-22.717557251908396,34.62595419847328,-15.068702290076336,-9.576806640625,1.7908628417968748,2.7246014892578123,-12.687022900763358,-2.198473282442748,0.2900763358778626,1.0
10.170000553131104,-7.934384301757812,-0.7493851196289062,-0.7493851196289062,-13.267175572519085,35.00763358778626,-13.251908396946565,-9.03332286376953,1.446097802734375,0.6464344482421874,-4.870229007633588,-14.641221374045802,1.0687022900763359,1.0
10.18000054359436,-11.326968054199218,2.3965958618164063,2.712630480957031,-7.236641221374046,44.6412213740458,-20.625954198473284,-5.729324572753906,0.5386953735351562,-0.9217676391601562,19.938931297709924,-42.01526717557252,-0.4732824427480916,1.0
10.190000534057617,-8.528146313476562,0.7038952880859375,0.622492431640625,-7.923664122137405,38.93129770992366,-21.633587786259543,-7.4579381713867186,4.029441394042968,-0.33518823242187495,2.183206106870229,-36.732824427480914,-9.954198473282442,1.0
10.200000524520874,-8.576030346679687,0.5099649536132812,1.0031704956054688,-3.786259541984733,37.19083969465649,-14.381679389312977,-9.524134204101562,1.3407529296874998,3.057395520019531,0.0,-24.53435114503817,-6.687022900763359,1.0
10.21000075340271,-7.81467421875,0.35194764404296874,1.0582371337890624,-3.3893129770992365,38.732824427480914,-17.282442748091604,-6.8402341430664055,2.5665841796874997,-0.6943184814453125,-12.01526717557252,-31.81679389312977,-7.236641221374046,0.0
10.220000505447388,-10.91037696533203,3.028665100097656,2.89219560546875,-16.671755725190838,37.38931297709924,-20.15267175572519,-9.162609753417968,-0.36391865234375,3.603273498535156,-9.404580152671755,-17.34351145038168,-2.7022900763358777,0.0
10.230000734329224,-10.275913525390624,2.437297290039062,2.2290017456054687,-16.458015267175572,35.969465648854964,-16.0,-8.786720092773438,0.08858546142578125,1.6807295654296874,2.763358778625954,-29.34351145038168,-1.3282442748091603,0.0
10.240000247955322,-10.398017810058594,3.4356793823242184,2.389413256835937,-21.51145038167939,32.83969465648855,-14.763358778625955,-7.173028173828125,1.838746875,2.2936451904296873,-5.32824427480916,-22.48854961832061,-7.221374045801527,0.0
10.250000715255737,-9.89523546142578,3.708618371582031,2.4660277099609376,-28.442748091603054,30.458015267175572,-10.045801526717558,-9.414000927734374,-1.4245499877929686,4.010287780761718,6.259541984732825,-20.38167938931298,-3.969465648854962,0.0
10.260000705718994,-10.517727893066406,3.6918589599609373,2.262520568847656,-36.56488549618321,27.282442748091604,-9.404580152671755,-9.241618408203124,-0.7158662963867187,3.239354846191406,15.282442748091603,-28.65648854961832,-6.244274809160306,0.0
10.270000696182251,-9.955090502929687,2.5665841796874997,2.578555187988281,-33.89312977099237,28.33587786259542,-6.091603053435114,-7.615955480957031,-0.6200982299804687,3.2249896362304686,17.16030534351145,-28.53435114503817,-9.16030534351145,0.0
10.280000448226929,-9.643844287109374,1.6615759521484375,2.2002713256835937,-35.38931297709924,26.900763358778626,-3.404580152671756,-8.123526232910155,-0.2561795776367187,2.935291235351562,24.30534351145038,-32.900763358778626,-6.824427480916031,0.0
10.290000438690186,-10.51533369140625,2.4516625,2.530671154785156,-39.06870229007634,24.48854961832061,-4.99236641221374,-8.032546569824218,0.7493851196289062,3.7110125732421873,15.053435114503817,-21.64885496183206,-6.015267175572519,0.0
10.300000667572021,-10.690110412597656,2.463633508300781,3.210624426269531,-43.05343511450382,20.610687022900763,-2.33587786259542,-10.886434948730468,-2.308010400390625,5.686228942871093,24.213740458015266,-16.83969465648855,0.5343511450381679,0.0
10.3100004196167,-9.605537060546874,0.45489831542968745,1.9393033447265624,-40.091603053435115,15.877862595419847,-2.5801526717557253,-8.884882360839843,0.51714755859375,1.1947066284179686,26.977099236641223,-35.89312977099237,-4.320610687022901,0.0
10.320000886917114,-13.673285681152343,3.5146880371093747,4.630386010742187,-36.62595419847328,20.061068702290076,-7.32824427480916,-9.507374792480467,1.407790576171875,5.363011718749999,22.3206106870229,-11.251908396946565,-4.916030534351145,0.0
10.330000400543213,-10.443507641601562,1.0869675537109373,2.693476867675781,-44.458015267175576,5.480916030534351,-2.763358778625954,-12.227187878417968,-1.5849614990234373,5.216965417480468,35.05343511450382,-24.33587786259542,-1.8778625954198473,0.0
10.340000629425049,-9.521740002441407,-0.1388636962890625,1.3646949462890625,-29.221374045801525,1.9236641221374047,-1.6488549618320612,-9.53131680908203,1.1420341918945311,2.8107927490234372,25.83206106870229,-32.396946564885496,-11.083969465648854,0.0
10.350000381469727,-8.169016064453125,-1.3431471313476562,0.488417138671875,-17.49618320610687,2.9923664122137406,-0.07633587786259542,-9.897629663085937,1.0510545288085937,5.616797094726562,30.763358778625953,-24.412213740458014,-11.053435114503817,0.0
10.36000108718872,-8.228871105957031,-0.3687070556640625,0.4070142822265625,-6.473282442748092,9.419847328244275,-5.557251908396947,-8.616731774902343,1.1659762084960936,4.189852905273438,19.572519083969464,-28.198473282442748,-12.732824427480915,0.0
10.37000060081482,-9.143456140136719,1.0989385620117187,1.2330138549804688,-8.610687022900763,13.145038167938932,-9.679389312977099,-8.614337573242187,0.5434837768554687,6.469132885742187,24.763358778625953,-19.480916030534353,-11.86259541984733,0.0
10.380000591278076,-8.693346228027343,1.5155296508789062,0.44053310546874996,-2.2442748091603053,17.297709923664122,-8.045801526717558,-7.498639599609374,1.9009961181640624,5.0014872680664055,20.137404580152673,-30.244274809160306,-11.84732824427481,0.0
10.390000581741333,-9.114725720214842,1.9033903198242186,0.45489831542968745,-0.42748091603053434,23.81679389312977,-8.50381679389313,-5.767631799316406,2.6192566162109374,5.892130285644531,9.114503816793894,-16.396946564885496,-12.900763358778626,0.0
10.40000057220459,-8.087613208007811,2.9448680419921875,0.39743747558593745,-4.320610687022901,25.770992366412212,-8.51908396946565,-7.6231380859375,0.0718260498046875,7.407659936523437,4.290076335877862,-14.442748091603054,-8.259541984732824,0.0
10.410000801086426,-11.133037719726563,5.176263989257812,2.7964275390625,-15.633587786259541,30.53435114503817,-11.206106870229007,-7.9655089233398435,0.7565677246093749,5.961562133789062,-2.9160305343511452,-22.47328244274809,-9.557251908396946,0.0
10.420000553131104,-10.24000050048828,3.6846763549804686,2.1068974609374997,-24.12213740458015,23.114503816793892,-4.076335877862595,-3.4572271972656248,3.6559459350585937,3.593696691894531,-21.6793893129771,-17.404580152671755,-13.114503816793894,0.0
10.43000054359436,-9.117119921875,2.6144682128906247,1.8722656982421875,-24.732824427480917,22.30534351145038,2.0,-6.89530078125,0.7661445312499999,6.196193896484375,-34.396946564885496,0.6106870229007634,-4.778625954198473,0.0
10.440000295639038,-8.760383874511719,1.8315642700195311,2.01112939453125,-25.603053435114504,20.564885496183205,0.8702290076335878,-7.505822204589843,-1.0199299072265624,5.358223315429687,-44.030534351145036,-3.450381679389313,-2.564885496183206,0.0
10.450000286102295,-7.951143713378905,-0.3854664672851562,1.5107412475585937,-18.9618320610687,18.015267175572518,0.5801526717557252,-7.867346655273437,-0.6416460449218749,5.0014872680664055,-38.06106870229008,-5.862595419847328,-4.717557251908397,0.0
10.46000051498413,-8.36294639892578,-0.12210428466796874,1.388636962890625,-7.816793893129771,17.83206106870229,-1.9236641221374047,-5.815515832519531,-0.20829554443359374,4.235342736816406,-39.786259541984734,-7.679389312977099,-6.351145038167939,0.0
10.470000743865967,-8.611943371582031,-0.16280571289062498,1.8052280517578123,-6.137404580152672,15.587786259541986,-4.259541984732825,-6.533776330566406,-0.5434837768554687,4.216189123535156,-34.42748091603053,-5.679389312977099,-7.206106870229007,0.0
10.480000495910645,-8.89924757080078,0.2753331909179687,1.7645266235351562,-5.740458015267175,13.86259541984733,-5.145038167938932,-5.123591552734375,0.16041151123046873,2.4588451049804685,-33.45038167938932,-5.404580152671755,-9.725190839694656,0.0
10.49000072479248,-9.660603698730467,1.2952630981445312,2.5450363647460934,-5.419847328244275,13.389312977099237,-5.7251908396946565,-7.297526660156249,-0.4836287353515625,4.979939453125,-29.954198473282442,9.633587786259541,-6.488549618320611,0.0
10.500000715255737,-8.820238916015624,-0.19871873779296872,2.1212626708984375,-3.068702290076336,7.893129770992366,-4.595419847328245,-6.732495068359374,-0.3399766357421875,3.1699229980468746,-26.68702290076336,-0.7938931297709924,-8.061068702290076,0.0
10.510000705718994,-8.681375219726561,0.33518823242187495,2.4779987182617185,11.98473282442748,8.213740458015268,-7.190839694656488,-6.461950280761719,0.4955997436523437,3.6272155151367187,-20.03053435114504,2.2748091603053435,-7.908396946564886,0.0
10.520000457763672,-8.1594392578125,0.3711012573242187,2.3678654418945313,23.114503816793892,5.557251908396947,-8.854961832061068,-6.335057592773437,0.3495534423828125,3.744531396484375,-21.34351145038168,5.908396946564886,-6.442748091603053,0.0
10.530000686645508,-9.636661682128906,1.668758557128906,2.5330653564453125,22.045801526717558,4.259541984732825,-9.679389312977099,-4.814739538574218,0.3327940307617187,2.2194249389648437,-23.450381679389313,5.679389312977099,-7.099236641221374,0.0
10.540000677108765,-9.543287817382812,0.74699091796875,2.6503812377929687,25.72519083969466,3.6030534351145036,-8.183206106870228,-4.8314989501953125,-0.1484405029296875,3.1603461914062496,-26.931297709923665,21.96946564885496,-4.015267175572519,0.0
10.550000667572021,-9.093177905273437,-0.2442085693359375,2.3870190551757813,26.33587786259542,5.038167938931298,-5.9541984732824424,-7.323862878417969,-1.8626888916015625,4.094084838867187,-20.15267175572519,25.00763358778626,1.984732824427481,0.0
10.560000658035278,-11.664550488281249,2.0278888061523435,2.748543505859375,18.99236641221374,5.374045801526718,-11.206106870229007,-5.044582897949218,-0.6727706665039062,2.6791116577148437,-13.32824427480916,20.83969465648855,-3.053435114503817,0.0
10.570000648498535,-10.13226142578125,2.166752502441406,1.848323681640625,8.244274809160306,-5.541984732824427,-10.13740458015267,-3.394977954101562,2.923320227050781,1.8698714965820311,-24.671755725190838,34.36641221374046,-5.419847328244275,0.0
10.580000877380371,-10.886434948730468,2.6982652709960937,1.695094775390625,2.0610687022900764,-3.801526717557252,-7.7251908396946565,-2.925714428710937,1.0103531005859374,1.0390835205078124,-43.61832061068702,49.02290076335878,5.221374045801527,0.0
10.590000629425049,-9.258377819824219,1.0558429321289062,1.8914193115234375,-6.488549618320611,-4.809160305343512,-9.297709923664122,-6.89530078125,-0.9528922607421875,1.6807295654296874,-35.954198473282446,54.58015267175573,14.595419847328245,0.0
10.600000858306885,-7.529764221191406,0.009576806640625,1.9536685546875,7.66412213740458,0.183206106870229,-12.198473282442748,-8.528146313476562,-2.1452046874999997,3.5338416503906247,-35.52671755725191,61.57251908396947,14.51908396946565,0.0
10.610000371932983,-9.847351428222655,1.656787548828125,3.9432501342773434,13.17557251908397,6.961832061068702,-21.221374045801525,-9.5001921875,-3.7229835815429686,3.8187516479492185,-17.923664122137403,52.152671755725194,11.419847328244275,0.0
10.620001077651978,-9.504980590820312,2.5043349365234375,4.242525341796875,7.480916030534351,0.8091603053435115,-29.099236641221374,-7.082048510742187,-1.4724340209960938,2.767697119140625,-9.83206106870229,46.595419847328245,-1.1297709923664123,0.0
10.630000591278076,-8.597578161621094,1.2856862915039062,4.125209460449218,6.412213740458015,-3.236641221374046,-26.916030534351144,-7.592013464355468,-3.497928625488281,4.6064439941406246,-4.580152671755725,53.86259541984733,-1.6488549618320612,0.0
10.640000581741333,-9.782707983398437,1.2114660400390624,5.386953735351562,2.2442748091603053,-6.870229007633588,-29.435114503816795,-9.9215716796875,-5.935225915527344,5.396530541992187,14.381679389312977,43.099236641221374,-1.7709923664122138,0.0
10.650000810623169,-10.0748005859375,2.262520568847656,6.308721374511719,-5.587786259541985,-19.740458015267176,-32.152671755725194,-8.777143286132812,-3.4620156005859375,4.355052819824219,32.0,28.702290076335878,-9.419847328244275,0.0
10.660000562667847,-10.108319409179687,1.6136919189453125,6.198588098144531,1.6793893129770991,-30.80916030534351,-27.770992366412212,-7.323862878417969,0.34715924072265625,3.77326181640625,32.80916030534351,27.83206106870229,-9.969465648854962,0.0
10.670000553131104,-8.892064965820312,-0.10295067138671875,6.1626750732421876,7.755725190839694,-42.534351145038165,-24.16793893129771,-6.682216833496093,1.5251064575195312,3.3207577026367185,26.68702290076336,37.9236641221374,-6.152671755725191,0.0
10.68000054359436,-8.44674345703125,0.00239420166015625,7.706935144042968,19.099236641221374,-51.603053435114504,-25.129770992366414,-5.116408947753906,1.2378022583007813,2.0063409912109376,18.916030534351144,44.30534351145038,-2.564885496183206,0.0
10.690000534057617,-10.790666882324219,1.8195932617187498,9.193734375,27.236641221374047,-64.44274809160305,-30.30534351145038,-3.469198205566406,2.473210314941406,-0.26815058593749996,10.061068702290076,53.603053435114504,-4.442748091603053,0.0
10.700000524520874,-12.758700646972656,3.7229835815429686,12.349292163085936,25.770992366412212,-87.3587786259542,-33.786259541984734,-2.7269956909179687,1.0797849487304687,-1.4963760375976562,1.083969465648855,77.23664122137404,-2.5801526717557253,0.0
10.710000276565552,-11.97100830078125,2.2768857788085937,13.074735266113281,25.236641221374047,-116.38167938931298,-30.27480916030534,-8.674192614746094,-1.7908628417968748,1.9105729248046874,10.229007633587786,92.3969465648855,-4.916030534351145,0.0
10.720000505447388,-14.274230297851561,4.340687609863281,12.418724011230468,21.84732824427481,-142.33587786259542,-29.81679389312977,-12.160150231933594,1.917755529785156,9.337386474609374,13.007633587786259,86.76335877862596,-16.12213740458015,0.0
10.730000734329224,-15.231910961914062,4.695029455566406,10.019733947753906,10.641221374045802,-176.6259541984733,-17.755725190839694,-19.833566552734375,3.5889082885742187,21.792023510742187,14.366412213740459,66.13740458015268,-17.6793893129771,0.0
10.740000486373901,-14.935029956054686,3.0047230834960934,5.781997009277344,7.022900763358779,-199.66412213740458,3.8473282442748094,-21.499930908203122,-2.7629087158203123,21.1838962890625,6.534351145038168,16.671755725190838,-18.82442748091603,0.0
10.750000715255737,-15.751452722167969,3.6104561035156246,1.6160861206054686,-0.07633587786259542,-204.25954198473283,17.221374045801525,-22.148759558105468,-2.133233679199219,11.796231579589843,47.541984732824424,-25.236641221374047,2.015267175572519,0.0
10.760000705718994,-15.040374829101562,1.0989385620117187,-2.408566870117187,5.923664122137405,-205.89312977099237,29.236641221374047,-15.73708751220703,5.427655163574219,0.6943184814453125,43.541984732824424,-61.541984732824424,20.27480916030534,0.0
10.77000093460083,-14.314931726074217,0.6153098266601562,-4.474762902832031,28.198473282442748,-194.19847328244273,40.80916030534351,-14.812925671386719,5.104437939453125,-3.4955344238281247,9.618320610687023,-56.74809160305343,30.47328244274809,0.0
10.780000686645508,-7.343016491699219,-3.517082238769531,-7.740453967285156,67.40458015267176,-184.70229007633588,52.732824427480914,-8.836998327636719,2.4899697265625,-12.717999218749998,-50.82442748091603,-49.404580152671755,13.32824427480916,0.0
10.790000677108765,-11.133037719726563,2.281674182128906,-2.602497204589844,94.21374045801527,-133.89312977099237,48.6412213740458,-9.507374792480467,-5.973533142089844,-7.505822204589843,-82.8854961832061,2.198473282442748,-0.6412213740458015,0.0
10.80000114440918,-9.986215124511718,-0.18435352783203124,-2.0542250244140625,116.21374045801527,-109.43511450381679,53.43511450381679,-5.698199951171874,-7.378929516601562,-10.711658227539061,-65.06870229007633,5.816793893129771,-11.541984732824428,0.0
10.810000658035278,-15.84003818359375,3.1100679565429687,3.861847277832031,128.01526717557252,-66.83969465648855,46.50381679389313,-9.296685046386719,-6.56968935546875,-3.8043864379882812,-62.30534351145038,51.81679389312977,-15.450381679389313,0.0
10.820000886917114,-14.420276599121093,1.9512743530273435,1.2665326782226562,122.2442748091603,-69.38931297709924,51.11450381679389,-7.826645227050781,-6.066907006835937,-3.0645781249999997,-37.93893129770992,67.05343511450381,-11.526717557251908,0.0
10.830000638961792,-15.191209533691405,1.7238251953125,2.020706201171875,114.30534351145039,-41.083969465648856,59.43511450381679,-10.93671318359375,-4.2880151733398435,0.1149216796875,-17.770992366412212,64.09160305343511,-1.8015267175572518,0.0
10.840001106262207,-14.57589970703125,2.3774422485351563,1.707065783691406,84.54961832061069,-34.10687022900763,60.99236641221374,-13.012486022949219,-1.1133037719726562,0.852335791015625,18.702290076335878,44.534351145038165,7.251908396946565,0.0
10.850000381469727,-9.993397729492187,-0.2154781494140625,-0.08140285644531249,58.58015267175573,-37.541984732824424,66.91603053435115,-13.965378283691406,2.674323254394531,0.7757213378906249,38.6412213740458,27.64885496183206,22.0,0.0
10.860000848770142,-7.216123803710937,-1.898601916503906,-0.5315127685546874,38.2442748091603,-29.87786259541985,68.38167938931298,-10.903194360351561,6.967126831054687,-0.32082302246093747,11.419847328244275,34.97709923664122,28.65648854961832,0.0
10.87000060081482,-6.892906579589844,-0.6655880615234374,0.21068974609375,13.755725190839694,-20.778625954198475,61.81679389312977,-11.511321582031249,4.963180041503906,0.09816226806640624,7.374045801526718,22.946564885496183,32.42748091603053,0.0
10.880000591278076,-4.759672900390624,-0.8355763793945312,0.16280571289062498,-7.206106870229007,-14.763358778625955,53.25190839694657,-9.169792358398437,4.970362646484375,-2.1308394775390624,-9.419847328244275,20.18320610687023,26.580152671755727,0.0
10.890000581741333,-2.923320227050781,-2.887407202148437,-0.0430956298828125,-16.564885496183205,-5.648854961832061,45.725190839694655,-9.72285294189453,1.0965443603515623,1.8267758666992187,-7.282442748091603,23.435114503816795,21.389312977099237,0.0
10.90000057220459,-3.69664736328125,-2.1404162841796874,-0.49320554199218747,-38.19847328244275,-0.13740458015267176,28.625954198473284,-9.09796630859375,0.40462008056640625,2.051830822753906,26.625954198473284,12.274809160305344,20.427480916030536,0.0
10.910000562667847,-4.7117888671875,-1.1085153686523437,-0.612915625,-60.58015267175573,0.6870229007633588,15.374045801526718,-6.275202551269531,3.2249896362304686,0.4860229370117187,11.86259541984733,15.49618320610687,15.297709923664122,0.0
10.920000791549683,-2.7629087158203123,-2.29843359375,-1.7788918334960937,-69.7557251908397,8.061068702290076,9.511450381679388,-6.294356164550781,3.909731311035156,0.7709329345703124,-2.900763358778626,23.96946564885496,18.83969465648855,0.0
10.930000305175781,-0.09816226806640624,-4.3071687866210935,-2.693476867675781,-72.91603053435115,19.64885496183206,1.0229007633587786,-6.746860278320312,2.6240450195312497,1.8914193115234375,-7.877862595419847,26.045801526717558,26.85496183206107,0.0
10.940000534057617,-0.20829554443359374,-3.871424084472656,-2.185906115722656,-77.19083969465649,31.053435114503817,-9.755725190839694,-7.785943798828124,1.4053963745117186,2.607285607910156,-14.396946564885496,27.52671755725191,30.412213740458014,0.0
10.950000286102295,-1.9871873779296874,-3.0909143432617188,-1.6160861206054686,-87.09923664122137,41.83206106870229,-16.061068702290076,-6.849810949707031,0.277727392578125,3.0214824951171875,-23.755725190839694,26.427480916030536,28.213740458015266,0.0
10.96000075340271,1.2521674682617188,-6.133944653320312,-5.590460876464843,-60.29007633587786,58.030534351145036,-8.977099236641221,-6.907271789550781,-0.9050082275390624,4.129997863769531,-32.534351145038165,25.053435114503817,25.099236641221374,0.0
10.970000267028809,2.473210314941406,-6.2392895263671875,-6.074089611816406,-27.236641221374047,89.89312977099236,-15.526717557251908,-6.888118176269531,-2.461239306640625,5.288791467285156,-41.06870229007634,19.862595419847327,19.709923664122137,0.0
10.980000495910645,5.329492895507812,-7.467514978027343,-7.331045483398437,-7.877862595419847,106.90076335877863,-32.396946564885496,-8.312668164062499,-3.909731311035156,6.4356140625,-40.2442748091603,13.969465648854962,15.954198473282442,0.0
10.99000072479248,1.7908628417968748,-5.2456958374023435,-5.193023400878906,17.52671755725191,138.24427480916032,-52.6412213740458,-9.720458740234374,-4.838681555175781,7.963114721679687,-34.50381679389313,1.4045801526717556,17.893129770992367,0.0
11.000000476837158,-3.1699229980468746,-1.1037269653320312,-0.105344873046875,24.27480916030534,156.68702290076337,-65.5114503816794,-9.41639512939453,-3.0741549316406247,8.049305981445311,-26.549618320610687,-12.854961832061068,20.213740458015266,0.0
11.010000705718994,-5.7317187744140625,0.6727706665039062,4.826710546875,35.20610687022901,164.15267175572518,-60.030534351145036,-11.0707884765625,-2.4779987182617185,8.334215979003906,-16.610687022900763,-23.83206106870229,24.977099236641223,0.0
11.020000457763672,-13.589488623046874,5.396530541992187,16.110582971191405,97.98473282442748,173.45038167938932,-23.053435114503817,-8.300697155761718,-0.009576806640625,4.572925170898437,-13.48091603053435,-36.82442748091603,22.15267175572519,0.0
11.030000686645508,-20.350714111328124,16.393098767089842,22.424092749023437,153.63358778625954,163.206106870229,15.206106870229007,-7.127538342285156,1.0079588989257813,2.540247961425781,-20.0,-41.86259541984733,15.48091603053435,0.0
11.040000438690186,-18.595764294433593,21.487959899902343,21.528661328124997,102.41221374045801,103.34351145038168,41.786259541984734,-7.376535314941406,-2.1260510742187497,1.484405029296875,-17.633587786259543,-39.7557251908397,16.137404580152673,0.0
11.050000667572021,-20.52070242919922,19.177555297851562,19.043480004882813,22.16793893129771,39.23664122137404,31.022900763358777,-3.287238879394531,-4.805162731933594,-0.7924807495117187,-9.022900763358779,-34.916030534351144,15.053435114503817,0.0
11.060146808624268,-19.97003604736328,12.485761657714843,12.00213292236328,-89.34351145038168,-26.091603053435115,12.549618320610687,-4.647145422363281,-7.71890615234375,-0.34237083740234375,8.82442748091603,-27.404580152671755,14.076335877862595,0.0
11.070000648498535,-15.875951208496092,-1.4030021728515625,-5.6024318847656245,-109.52671755725191,-36.01526717557252,34.229007633587784,-7.359775903320312,-9.368511096191405,-0.6512228515624999,29.374045801526716,-30.137404580152673,10.290076335877863,0.0
11.080000877380371,-17.362750439453123,-9.038111267089842,-0.9241618408203125,-54.06106870229008,-14.412213740458014,63.725190839694655,-11.688492504882811,-4.886565588378906,0.08140285644531249,30.793893129770993,-20.290076335877863,-3.4198473282442747,0.0
11.090000629425049,-19.124882861328125,-12.054805358886718,18.306065893554685,7.847328244274809,-24.0,54.61068702290076,-14.927847351074218,-1.5227122558593749,0.19393033447265623,22.85496183206107,-11.526717557251908,-19.435114503816795,0.0
11.100000858306885,-15.86398020019531,-7.4579381713867186,17.906234216308594,46.36641221374046,-40.0763358778626,24.763358778625953,-19.18952630615234,-1.3263877197265623,1.7022773803710936,25.786259541984734,-7.221374045801527,-25.083969465648856,0.0
11.110000610351562,-10.472238061523436,4.304774584960938,-3.5601778686523438,36.67175572519084,-55.221374045801525,-7.679389312977099,-20.573374865722656,-1.8411410766601561,4.355052819824219,30.519083969465647,-7.038167938931298,-21.87786259541985,0.0
11.120001077651978,-9.332598071289063,5.418078356933593,-8.465897070312499,-5.572519083969466,-49.969465648854964,-19.770992366412212,-17.83680236816406,-2.3367408203125,5.5641246582031245,35.80152671755725,-11.893129770992367,-17.129770992366414,0.0
11.130000591278076,-7.335833886718749,1.3646949462890625,-6.011840368652344,-22.931297709923665,-36.36641221374046,-13.068702290076336,-14.544775085449217,1.7310078002929687,3.0837317382812497,32.18320610687023,-25.46564885496183,-18.38167938931298,0.0
11.140000581741333,-5.743689782714843,3.2513258544921873,-6.49307490234375,-7.679389312977099,-7.4961832061068705,12.0,-14.750676428222656,3.318363500976562,3.768473413085937,19.96946564885496,-29.19083969465649,-17.389312977099237,0.0
11.15000057220459,-3.725377783203125,0.0909796630859375,-8.02536396484375,1.5419847328244274,17.801526717557252,26.931297709923665,-19.474436303710938,-0.5267243652343749,8.2743609375,23.251908396946565,-29.099236641221374,-11.312977099236642,0.0
11.160000562667847,-6.890512377929687,-2.597708801269531,-5.427655163574219,16.65648854961832,46.01526717557252,22.35114503816794,-17.841590771484373,-2.1715409057617188,7.716511950683593,43.038167938931295,-49.87786259541985,-15.129770992366412,0.0
11.170000553131104,-11.702857714843748,-2.1619640991210938,-2.4660277099609376,19.72519083969466,58.458015267175576,7.099236641221374,-15.495273144531248,2.6815058593749996,3.725377783203125,45.80152671755725,-71.17557251908397,-29.954198473282442,0.0
11.18000054359436,-14.468160632324217,-0.17238251953125,-0.9026140258789062,-1.2671755725190839,61.89312977099237,-9.816793893129772,-10.697293017578124,7.584830859375,1.3024457031249999,23.17557251908397,-68.35114503816794,-28.33587786259542,0.0
11.190000295639038,-16.25423507080078,1.4413093994140624,1.3215993164062498,-31.72519083969466,60.12213740458015,-20.015267175572518,-7.934384301757812,9.86411083984375,-0.9241618408203125,13.129770992366412,-62.25954198473283,-19.251908396946565,0.0
11.200000524520874,-15.67962667236328,2.7078420776367187,1.7094599853515624,-67.19083969465649,52.93129770992366,-31.17557251908397,-8.123526232910155,9.045293872070312,1.139639990234375,-13.48091603053435,-43.63358778625954,-9.251908396946565,0.0
11.21000075340271,-11.743559143066406,-0.7110778930664062,-0.7062894897460937,-81.63358778625954,44.62595419847328,-30.564885496183205,-11.645396875,5.147533569335937,3.4620156005859375,-28.870229007633586,-27.709923664122137,0.32061068702290074,0.0
11.220000505447388,-11.566388220214844,-1.7525556152343749,-1.0989385620117187,-70.76335877862596,48.50381679389313,-30.061068702290076,-11.281478222656249,4.513070129394531,2.085349645996094,-40.80916030534351,-25.587786259541986,4.137404580152672,0.0
11.230000734329224,-9.296685046386719,-2.3343466186523436,-1.467645617675781,-50.93129770992366,50.961832061068705,-25.633587786259543,-10.194510668945313,4.350264416503906,1.7238251953125,-56.97709923664122,-15.709923664122137,6.656488549618321,0.0
11.240000486373901,-7.187393383789062,-0.9504980590820312,-1.6472107421875,-29.755725190839694,58.534351145038165,-23.236641221374047,-8.310273962402343,5.5832782714843745,-0.6703764648437499,-60.29007633587786,-12.549618320610687,9.893129770992367,0.0
11.250000715255737,-8.798691101074219,1.1611878051757811,-0.7589619262695312,-22.30534351145038,61.63358778625954,-24.0,-8.836998327636719,2.6336218261718747,1.2210428466796874,-61.404580152671755,-7.435114503816794,14.595419847328245,0.0
11.260000944137573,-10.242394702148436,1.5466542724609373,-0.5386953735351562,-15.664122137404581,63.31297709923664,-22.977099236641223,-10.793061083984375,0.5027823486328125,2.5641899780273434,-52.16793893129771,-6.122137404580153,16.061068702290076,0.0
11.270000457763672,-8.916006982421875,0.8834604125976562,-0.6679822631835937,-11.068702290076336,56.62595419847328,-19.19083969465649,-10.127473022460936,-0.1388636962890625,3.0741549316406247,-50.534351145038165,-2.4580152671755724,14.030534351145038,0.0
11.280152320861816,-10.302249743652343,1.9752163696289062,0.13407529296874998,-11.908396946564885,56.47328244274809,-17.34351145038168,-10.299855541992187,-2.3678654418945313,4.089296435546875,-39.98473282442748,1.7251908396946565,13.053435114503817,0.0
11.290000438690186,-8.480262280273436,2.5761609863281247,0.28969840087890625,-16.33587786259542,51.786259541984734,-16.16793893129771,-9.495403784179686,-3.337517114257812,2.961627453613281,-19.374045801526716,-9.129770992366412,8.717557251908397,0.0
11.300000667572021,-6.6702458251953125,-0.26815058593749996,-0.8762778076171874,-8.778625954198473,48.13740458015267,-12.427480916030534,-7.196970190429687,-1.0845733520507812,0.411802685546875,-4.702290076335878,-21.14503816793893,1.9694656488549618,0.0
11.310000658035278,-7.692569934082031,1.3623007446289062,0.6679822631835937,2.3206106870229006,53.37404580152672,-12.885496183206106,-1.66636435546875,1.1731588134765625,-1.838746875,4.442748091603053,-29.19083969465649,-3.969465648854962,0.0
11.320000886917114,-11.85608662109375,5.521029028320312,4.115632653808594,-6.977099236641221,57.725190839694655,-19.00763358778626,-4.886565588378906,1.5825672973632812,0.7948749511718749,-13.404580152671755,-15.541984732824428,-7.1603053435114505,0.0
11.330000638961792,-10.134655627441406,5.0757075195312495,3.536235852050781,-26.519083969465647,45.89312977099237,-12.687022900763358,-7.654262707519531,-0.8571241943359375,2.27927998046875,-11.83206106870229,-6.793893129770993,-2.7480916030534353,0.0
11.340000867843628,-10.237606298828124,4.417302062988281,3.1603461914062496,-39.51145038167939,35.31297709923664,-7.32824427480916,-7.754819177246094,-1.5705962890624998,1.7262193969726563,-5.297709923664122,-14.15267175572519,-3.3893129770992365,0.0
11.350000619888306,-9.22485899658203,1.6160861206054686,1.905784521484375,-36.2442748091603,30.916030534351144,-1.0381679389312977,-5.382165332031249,0.34715924072265625,0.833182177734375,-4.763358778625954,-14.961832061068701,-9.236641221374045,0.0
11.360000848770142,-10.747571252441405,1.927332336425781,3.584119885253906,-26.641221374045802,39.786259541984734,-1.3435114503816794,-5.626373901367187,1.1468225952148436,1.8555062866210936,-12.488549618320612,0.04580152671755725,-10.01526717557252,0.0
11.37000036239624,-12.23197628173828,2.3247698120117186,5.2648494506835934,-35.69465648854962,32.0763358778626,-1.7251908396946565,-7.125144140624999,-1.1109095703125,2.664746447753906,-10.0,7.694656488549619,-5.343511450381679,0.0
11.380000591278076,-12.114660400390624,0.8690952026367187,4.383783239746093,-29.374045801526716,27.72519083969466,-2.4885496183206106,-8.346186987304687,-1.8435352783203125,2.4109610717773435,3.267175572519084,0.2595419847328244,-4.442748091603053,0.0
11.390000581741333,-10.1131078125,-1.4891934326171874,2.5905261962890624,-24.47328244274809,14.106870229007633,-0.32061068702290074,-8.635885388183594,-0.48123453369140623,2.858676782226562,7.694656488549619,-1.2061068702290076,-7.877862595419847,0.0
11.40000057220459,-8.755595471191405,-2.9041666137695312,1.8555062866210936,-7.251908396946565,11.221374045801527,-2.7786259541984735,-8.413224633789062,-0.1388636962890625,3.361459130859375,7.9541984732824424,1.2061068702290076,-7.297709923664122,0.0
11.410000562667847,-8.535328918457031,-2.308010400390625,2.3822306518554686,3.8931297709923665,11.572519083969466,-9.587786259541986,-8.616731774902343,-0.4070142822265625,3.459621398925781,11.740458015267176,0.2748091603053435,-8.290076335877863,0.0
11.420000553131104,-9.306261853027344,-0.33758243408203126,2.1308394775390624,11.465648854961833,9.511450381679388,-14.427480916030534,-9.354145886230468,-0.8020575561523438,3.3399113159179685,20.778625954198475,-5.893129770992366,-8.290076335877863,0.0
11.43000054359436,-9.205705383300781,0.5793968017578125,1.93451494140625,24.244274809160306,10.351145038167939,-12.900763358778626,-9.181763366699219,0.033518823242187495,3.6727053466796873,26.458015267175572,-8.870229007633588,-10.045801526717558,0.0
11.440000534057617,-9.514557397460937,1.7884686401367187,1.6711527587890624,23.450381679389313,9.969465648854962,-11.694656488549619,-11.2240173828125,-2.0278888061523435,5.971138940429687,39.9236641221374,-9.49618320610687,-9.19083969465649,0.0
11.450001001358032,-8.99501563720703,0.9959878906249999,0.062249243164062495,25.984732824427482,11.32824427480916,-9.86259541984733,-10.594342346191405,-1.1611878051757811,4.256890551757812,60.412213740458014,-30.778625954198475,-12.67175572519084,0.0
11.46000075340271,-10.352527978515624,3.009511486816406,1.0295067138671874,23.862595419847327,13.694656488549619,-11.694656488549619,-11.382034692382812,-1.13006318359375,6.639121203613281,61.786259541984734,-26.106870229007633,-15.007633587786259,0.0
11.470000743865967,-9.485826977539062,2.4971523315429685,0.43574470214843747,16.82442748091603,14.122137404580153,-6.534351145038168,-10.927136376953124,-1.0965443603515623,4.6351744140625,77.17557251908397,-52.030534351145036,-15.435114503816793,0.0
11.480000495910645,-14.197615844726561,7.967903124999999,3.323151904296875,-6.763358778625954,14.641221374045802,-13.17557251908397,-15.830461376953124,-4.553771557617187,10.376469995117187,83.69465648854961,-43.49618320610687,-15.297709923664122,0.0
11.490000486373901,-11.506533178710937,4.311957189941406,1.4700398193359374,-31.46564885496183,-0.22900763358778625,-4.0458015267175576,-13.570335009765625,-1.93451494140625,7.563283044433593,88.99236641221374,-65.37404580152672,-17.49618320610687,0.0
11.500000476837158,-11.2240173828125,3.086125939941406,1.5849614990234373,-33.06870229007634,-2.519083969465649,3.66412213740458,-18.040309509277343,-2.4109610717773435,11.863269226074218,86.67175572519083,-64.76335877862596,-16.076335877862597,0.0
11.510000705718994,-10.103531005859374,0.86191259765625,1.7334020019531249,-28.99236641221374,-4.198473282442748,4.977099236641221,-15.612589025878906,-1.0366893188476562,8.86812294921875,80.77862595419847,-85.6030534351145,-20.427480916030536,0.0
11.520000696182251,-11.394005700683593,1.9847931762695312,3.143586779785156,-28.061068702290076,-4.351145038167939,-0.2595419847328244,-9.811438403320311,4.132392065429687,4.754884497070313,48.36641221374046,-93.16030534351145,-31.16030534351145,0.0
11.530000925064087,-9.97184991455078,1.6424223388671875,2.398990063476562,-30.412213740458014,-7.465648854961832,-1.5267175572519085,-4.766855505371093,4.426878869628906,3.928884924316406,14.80916030534351,-69.58778625954199,-25.358778625954198,0.0
11.540000677108765,-8.966285217285156,0.7900865478515624,2.540247961425781,-32.10687022900763,-6.519083969465649,-3.0839694656488548,4.043806604003906,6.579266162109374,-1.9321207397460936,-46.19847328244275,-60.0,-26.732824427480917,0.0
11.5500009059906,-8.537723120117187,1.2641384765625,2.540247961425781,-35.48091603053435,-4.0458015267175576,-3.4198473282442747,0.47165772705078124,4.6830584472656245,2.6503812377929687,-75.89312977099236,8.0,-11.801526717557252,0.0
11.5600004196167,-6.811503723144531,0.42377369384765623,1.7980454467773437,-33.12977099236641,3.0229007633587788,-2.2595419847328246,-0.19632453613281248,1.3144167114257812,0.26815058593749996,-119.46564885496183,25.603053435114504,-3.83206106870229,0.0
11.570000886917114,-6.921636999511718,0.00718260498046875,0.8858546142578124,-25.984732824427482,7.297709923664122,-4.290076335877862,-4.244919543457031,0.23223756103515625,2.3295582153320313,-96.9618320610687,49.61832061068702,1.465648854961832,0.0
11.580000877380371,-5.468356591796875,-0.2705447875976562,-0.30406361083984373,-12.259541984732824,9.83206106870229,-7.419847328244275,-6.382941625976562,0.13168109130859373,2.4396914916992185,-82.56488549618321,55.221374045801525,5.6183206106870225,0.0
11.590000629425049,-9.828197814941406,0.5817910034179687,1.1037269653320312,-9.16030534351145,13.145038167938932,-13.587786259541986,-7.970297326660156,0.143652099609375,3.4548329956054684,-68.94656488549619,68.18320610687023,8.625954198473282,0.0
11.600000858306885,-8.21690009765625,-0.8547299926757812,0.6967126831054687,6.061068702290076,12.885496183206106,-9.389312977099237,-7.824251025390624,-1.7788918334960937,2.7054478759765623,-45.9236641221374,63.603053435114504,14.473282442748092,0.0
11.610000610351562,-9.251195214843749,0.16280571289062498,1.1109095703125,19.267175572519083,14.183206106870228,-11.022900763358779,-6.919242797851562,0.18914193115234373,1.1659762084960936,-26.12213740458015,50.656488549618324,8.885496183206106,0.0
11.620000839233398,-7.062894897460937,-1.3024457031249999,0.1292868896484375,35.786259541984734,11.557251908396946,-6.900763358778626,-8.264784130859374,-0.17956512451171874,3.7038299682617186,-15.740458015267176,52.12213740458015,9.557251908396946,0.0
11.630000352859497,-10.024522351074218,-0.09816226806640624,1.7812860351562498,38.229007633587784,13.908396946564885,-8.870229007633588,-8.2743609375,-2.712630480957031,4.046200805664062,-3.0076335877862594,34.01526717557252,10.320610687022901,0.0
11.640000820159912,-11.645396875,2.0781670410156248,3.3159692993164063,32.3206106870229,6.320610687022901,-13.969465648854962,-7.481880187988281,0.1149216796875,4.134786267089844,-6.290076335877862,25.419847328244273,1.6946564885496183,0.0
11.65000057220459,-8.55448253173828,-1.8770541015625,1.3144167114257812,40.717557251908396,2.946564885496183,-8.641221374045802,-8.63827958984375,-0.22744915771484372,5.45877978515625,-11.526717557251908,30.091603053435115,4.076335877862595,0.0
11.660000562667847,-8.757989672851561,-0.09576806640624999,1.9488801513671874,45.49618320610687,11.282442748091603,-16.27480916030534,-6.4475850708007805,-1.5562310791015623,4.168305090332031,-17.954198473282442,22.68702290076336,3.3740458015267176,0.0
11.670000553131104,-9.612719665527344,2.770091320800781,3.047818713378906,36.80916030534351,10.244274809160306,-26.458015267175572,-5.607220288085937,-0.55545478515625,3.2728736694335936,-20.763358778625953,23.46564885496183,0.015267175572519083,0.0
11.68000054359436,-9.713276135253906,4.953603234863281,3.5434184570312497,28.442748091603054,6.8396946564885495,-27.0381679389313,-7.893682873535155,-2.5665841796874997,5.238513232421875,-17.96946564885496,29.328244274809162,5.816793893129771,0.0
11.690000534057617,-8.461108666992187,3.859453076171875,3.4763808105468748,18.564885496183205,1.3435114503816794,-24.900763358778626,-8.774749084472656,-2.750937707519531,4.979939453125,-11.32824427480916,26.99236641221374,5.083969465648855,0.0
11.700000524520874,-7.400477331542969,2.4061726684570313,3.1771056030273437,13.389312977099237,-1.7099236641221374,-24.3206106870229,-7.735665563964844,-1.8914193115234375,4.0222587890625,-8.381679389312977,24.870229007633586,-0.2748091603053435,0.0
11.71000075340271,-6.768408093261718,2.0542250244140625,2.9975404785156248,7.297709923664122,-3.786259541984733,-25.358778625954198,-5.57370146484375,-1.5179238525390624,2.5641899780273434,-10.320610687022901,28.35114503816794,-2.7480916030534353,0.0
11.720000267028809,-7.163451367187499,2.2768857788085937,4.311957189941406,4.67175572519084,-7.786259541984733,-24.65648854961832,-5.432443566894531,-0.7900865478515624,2.5546131713867184,-11.374045801526718,35.81679389312977,-2.3053435114503817,0.0
11.730000972747803,-7.8362220336914055,2.602497204589844,6.186617089843749,7.068702290076335,-12.198473282442748,-23.938931297709924,-3.5697546752929687,0.32082302246093747,0.8714894042968749,-21.83206106870229,39.83206106870229,-1.9389312977099236,0.0
11.740000486373901,-8.504204296874999,1.838746875,7.790732202148437,8.83969465648855,-21.801526717557252,-21.206106870229007,-4.091690637207031,-0.3447650390625,1.678335363769531,-33.16030534351145,57.48091603053435,4.732824427480916,0.0
11.750000715255737,-9.272743029785156,-0.19632453613281248,8.923189587402343,14.946564885496183,-33.17557251908397,-18.80916030534351,-4.8650177734375,-1.4867992309570313,0.23702596435546874,-23.87786259541985,55.29770992366412,11.541984732824428,0.0
11.760000705718994,-13.405135095214844,3.5482068603515624,12.255918298339843,2.4732824427480917,-50.18320610687023,-27.282442748091604,-4.204218115234375,0.737414111328125,1.2306196533203124,-18.82442748091603,60.396946564885496,10.290076335877863,0.0
11.77000093460083,-13.505691564941406,1.1228805786132812,11.633425866699218,-13.648854961832061,-90.07633587786259,-22.045801526717558,-7.3932947265625,1.8938135131835936,1.3934253662109375,-13.022900763358779,63.38931297709924,9.282442748091603,0.0
11.780000925064087,-18.454506396484373,4.5585599609375,14.68363878173828,-19.81679389312977,-118.7175572519084,-23.603053435114504,-11.640608471679688,1.5801730957031248,6.715735656738281,-24.47328244274809,61.11450381679389,4.229007633587786,0.0
11.790000438690186,-17.216704138183594,2.8802245971679685,12.140996618652343,-31.96946564885496,-163.72519083969465,-15.419847328244275,-17.846379174804685,2.142810485839844,15.54555137939453,-34.38167938931298,54.50381679389313,-14.534351145038167,0.0
11.800000667572021,-23.46317626953125,5.674257934570313,8.863334545898438,-47.221374045801525,-188.91603053435114,-8.702290076335878,-27.066449768066406,-8.506598498535157,23.34107198486328,-47.29770992366412,29.6793893129771,-23.251908396946565,0.0
11.810000896453857,-21.473594689941404,3.39018955078125,4.872200378417968,-64.76335877862596,-235.06870229007635,11.740458015267176,-29.312210925292966,-12.531251489257812,21.34909620361328,24.47328244274809,-26.137404580152673,-20.671755725190838,0.0
11.820000886917114,-23.465570471191405,2.789244934082031,1.2401964599609374,-45.80152671755725,-243.05343511450383,28.99236641221374,-20.44887637939453,-1.9704279663085937,6.030993981933594,61.38931297709924,-83.7557251908397,-3.618320610687023,0.0
11.830000638961792,-19.634847814941406,-1.3958195678710936,-2.5570073730468748,-25.603053435114504,-251.75572519083968,43.37404580152672,-12.528857287597656,5.6766521362304685,-3.1411925781249996,38.01526717557252,-84.13740458015268,7.236641221374046,0.0
11.840000867843628,-9.85692823486328,-9.212887988281249,-7.472303381347656,20.83969465648855,-236.99236641221373,50.62595419847328,-7.486668591308593,4.604049792480469,-8.8872765625,-12.13740458015267,-68.62595419847328,14.396946564885496,0.0
11.850000619888306,-7.536946826171874,-5.68862314453125,-4.752490295410156,54.42748091603053,-194.12213740458014,32.534351145038165,-4.168305090332031,-1.22583125,-9.639055883789062,-33.05343511450382,-36.68702290076336,4.0458015267175576,0.0
11.860000610351562,-3.2130186279296873,-6.016628771972656,-5.805939025878906,102.18320610687023,-163.5114503816794,24.16793893129771,-2.492363928222656,-4.580107775878906,-8.702923034667968,-41.541984732824424,-19.541984732824428,-13.465648854961833,0.0
11.87000060081482,-8.959102612304687,-1.4173673828125,0.22505495605468748,128.76335877862596,-91.93893129770993,6.732824427480916,-4.687846850585937,-7.999027746582031,-5.161898779296875,-37.93893129770992,8.82442748091603,-27.6793893129771,0.0
11.880000591278076,-9.665392102050781,-0.9720458740234375,-0.7038952880859375,132.21374045801528,-74.80916030534351,-7.083969465648855,-8.853757739257812,-7.864952453613281,-2.7461493041992187,-10.198473282442748,29.587786259541986,-38.16793893129771,0.0
11.890000581741333,-12.842497705078124,-0.7685387329101562,1.1156979736328125,132.65648854961833,-42.717557251908396,-11.312977099236642,-15.275006591796874,-8.729259252929687,2.2098481323242187,28.610687022900763,31.328244274809162,-31.954198473282442,0.0
11.90000057220459,-9.449913952636718,-1.1109095703125,-1.180341418457031,123.96946564885496,-30.427480916030536,-9.374045801526718,-14.099453576660155,-2.231395947265625,1.5873557006835937,60.458015267175576,22.458015267175572,-31.374045801526716,0.0
11.910000562667847,-10.563217724609375,2.0374656127929685,0.2753331909179687,102.4885496183206,-10.122137404580153,-5.862595419847328,-11.860875024414062,3.5098996337890624,-0.2753331909179687,61.98473282442748,23.572519083969464,-18.65648854961832,0.0
11.920000314712524,-11.927912670898436,5.284003063964843,2.499546533203125,61.43511450381679,-9.648854961832061,-0.549618320610687,-9.835380419921874,4.508281726074219,-0.9313444458007812,44.48854961832061,40.0,3.267175572519084,0.0
11.93000054359436,-12.035651745605469,2.4851813232421875,3.066972326660156,39.267175572519086,-4.244274809160306,17.17557251908397,-9.64623848876953,6.299144567871093,-3.450044592285156,38.19847328244275,42.656488549618324,27.19083969465649,0.0
11.940000534057617,-9.694122521972655,4.6639048339843745,2.3032219970703123,11.786259541984732,-13.98473282442748,20.85496183206107,-12.840103503417968,4.951209033203125,-1.209071838378906,31.236641221374047,49.43511450381679,36.56488549618321,0.0
11.950001001358032,-5.7700260009765625,1.16837041015625,-0.6153098266601562,2.0763358778625953,-23.206106870229007,30.65648854961832,-12.030863342285155,3.430890979003906,0.40222587890625,11.679389312977099,66.50381679389314,36.01526717557252,0.0
11.96000051498413,-4.855440966796874,0.0909796630859375,-1.1252747802734375,-2.7022900763358777,-17.81679389312977,33.43511450381679,-7.917624890136718,4.292803576660156,-2.2385785522460937,16.48854961832061,49.38931297709924,31.984732824427482,0.0
11.970000743865967,-5.614402893066406,0.4070142822265625,-0.9026140258789062,-16.717557251908396,-7.694656488549619,23.49618320610687,-9.916783276367187,0.5003881469726562,2.5641899780273434,4.244274809160306,68.30534351145039,30.717557251908396,0.0
11.980000495910645,-4.027047192382812,-0.143652099609375,-2.3487118286132813,-24.198473282442748,0.13740458015267176,20.045801526717558,-7.666233715820312,0.4429273071289062,1.3144167114257812,29.450381679389313,52.2442748091603,31.740458015267176,0.0
11.990000486373901,-4.556165759277343,0.02154781494140625,-1.9967641845703124,-31.389312977099237,13.770992366412214,12.366412213740459,-6.0884548217773435,2.0925322509765625,1.618480322265625,9.633587786259541,54.6412213740458,29.328244274809162,0.0
12.000000476837158,-1.7573440185546874,-0.7924807495117187,-3.0166940917968748,-24.30534351145038,31.6793893129771,9.786259541984732,-7.625532287597656,-0.9313444458007812,3.038241906738281,3.7404580152671754,54.152671755725194,31.66412213740458,0.0
12.010000467300415,-1.3862427612304686,-0.9217676391601562,-2.7964275390625,-31.267175572519083,42.29007633587786,3.2061068702290076,-8.772354882812499,-3.5984850952148437,5.312733483886719,26.366412213740457,41.80152671755725,34.030534351145036,0.0
12.020000696182251,-2.133233679199219,0.2442085693359375,-1.2880804931640624,-25.404580152671755,59.02290076335878,2.885496183206107,-7.232883215332031,-2.4492682983398435,4.979939453125,19.893129770992367,33.465648854961835,25.17557251908397,0.0
12.030000686645508,-2.422932080078125,-1.5418658691406248,-1.0271125122070313,-17.450381679389313,81.05343511450381,6.809160305343512,-5.327098693847656,-0.8858546142578124,2.9568390502929685,16.015267175572518,21.96946564885496,17.34351145038168,0.0
12.040000677108765,7.505822204589843,-8.145074047851562,-7.544129431152343,0.5648854961832062,92.3206106870229,7.648854961832061,-6.347028601074219,-1.35990654296875,3.9456443359374997,9.32824427480916,17.81679389312977,11.664122137404581,0.0
12.050000667572021,1.388636962890625,-6.4356140625,-2.2864625854492187,-5.938931297709924,118.41221374045801,-19.328244274809162,-8.327033374023436,-2.6048914062499997,6.373364819335937,6.702290076335878,16.290076335877863,9.19083969465649,0.0
12.0600004196167,0.63206923828125,-6.497863305664062,-1.0390835205078124,-22.30534351145038,117.45038167938931,-46.274809160305345,-9.528922607421874,-2.166752502441406,6.471527087402343,5.938931297709924,6.595419847328245,6.625954198473282,0.0
12.070000886917114,-3.21780703125,-5.66946953125,4.242525341796875,5.175572519083969,136.59541984732823,-52.99236641221374,-9.483432775878907,-1.7645266235351562,6.253654736328125,6.595419847328245,-4.580152671755725,8.610687022900763,0.0
12.080000400543213,-5.523423229980469,-2.7437551025390623,8.583212951660157,52.74809160305343,138.41221374045801,-46.01526717557252,-9.169792358398437,0.13168109130859373,5.722141967773437,7.32824427480916,-12.320610687022901,10.366412213740459,0.0
12.090000629425049,-13.038822241210937,10.544064111328124,12.550405102539061,123.61832061068702,143.4351145038168,-13.251908396946565,-8.070853796386718,1.37906015625,3.5673604736328124,2.198473282442748,-19.572519083969464,13.236641221374045,0.0
12.100000858306885,-14.62617794189453,16.019603308105467,12.837709301757812,113.25190839694656,121.06870229007633,19.129770992366414,-6.763619689941406,4.797980126953124,0.8116343627929687,-9.755725190839694,-19.66412213740458,13.145038167938932,0.0
12.110000371932983,-16.53675086669922,15.179238525390623,16.606182714843747,64.93129770992367,80.87022900763358,29.923664122137403,-4.240131140136718,4.838681555175781,-1.1372457885742187,-29.908396946564885,-15.053435114503817,17.96946564885496,0.0
12.120000839233398,-14.54956348876953,7.915230688476562,16.87433330078125,6.931297709923665,24.564885496183205,25.450381679389313,-5.224148022460938,3.0621839233398433,-0.6679822631835937,-44.58015267175573,0.7633587786259542,29.938931297709924,0.0
12.130000591278076,-12.65335577392578,2.583343591308594,11.48498536376953,-17.984732824427482,-21.51145038167939,27.69465648854962,-7.182604980468749,-3.3303345092773435,1.458068811035156,-36.33587786259542,11.526717557251908,42.2442748091603,0.0
12.140000581741333,-8.0062103515625,-1.85790048828125,-1.0295067138671874,22.870229007633586,-15.206106870229007,38.25954198473283,-9.251195214843749,-6.418854650878906,3.009511486816406,-3.3587786259541983,8.916030534351146,42.50381679389313,0.0
12.15000057220459,-8.805873706054687,-0.17238251953125,-3.9408559326171875,24.65648854961832,-4.885496183206107,44.0763358778626,-6.215347509765625,-4.012681982421875,1.9393033447265624,4.519083969465649,1.5572519083969465,26.137404580152673,0.0
12.160000562667847,-15.076287854003905,-0.3064578125,6.600813977050781,17.801526717557252,-0.8702290076335878,47.52671755725191,-10.319009155273436,-1.1133037719726562,1.7214309936523438,1.7099236641221374,12.870229007633588,15.465648854961833,0.0
12.170000553131104,-23.247698120117185,0.16519991455078123,19.902998400878904,38.12213740458015,-12.030534351145038,52.2442748091603,-13.146561315917968,-0.6464344482421874,1.3215993164062498,-7.251908396946565,16.38167938931298,8.030534351145038,0.0
12.18000078201294,-22.65154190673828,4.431667272949219,12.830526696777342,26.763358778625953,-37.7557251908397,38.48854961832061,-18.229451440429685,-3.4261025756835934,3.5506010620117183,-4.931297709923665,20.885496183206108,7.435114503816794,0.0
12.190000295639038,-16.12015977783203,5.418078356933593,-3.095702746582031,-29.099236641221374,-50.717557251908396,9.007633587786259,-18.088193542480468,-4.3430818115234375,2.0470424194335934,16.625954198473284,4.015267175572519,3.145038167938931,0.0
12.200000762939453,-9.672574707031249,-0.36631285400390623,-6.339845996093749,-57.31297709923664,-41.98473282442748,-9.221374045801527,-19.206285717773437,-2.6001030029296874,2.7054478759765623,15.236641221374045,2.030534351145038,-0.42748091603053434,0.0
12.21000075340271,-5.590460876464843,-3.189076611328125,-6.363788012695312,-48.85496183206107,-25.801526717557252,-9.755725190839694,-17.073052038574218,-1.024718310546875,1.5945383056640625,8.488549618320612,-0.6870229007633588,-1.1908396946564885,0.0
12.220000743865967,-2.4971523315429685,-1.8435352783203125,-7.520187414550781,-21.31297709923664,0.12213740458015267,-2.595419847328244,-17.56865178222656,0.016759411621093748,0.8786720092773437,14.885496183206106,-5.709923664122138,-2.549618320610687,0.0
12.230000734329224,-1.5418658691406248,-1.0989385620117187,-8.343792785644531,2.6564885496183206,28.15267175572519,2.8091603053435112,-16.594211706542968,1.5466542724609373,1.2952630981445312,22.671755725190838,-7.847328244274809,-1.3435114503816794,0.0
12.240000486373901,-4.92247861328125,-2.2194249389648437,-5.7508723876953125,23.984732824427482,53.3587786259542,6.412213740458015,-16.15367860107422,1.8626888916015625,2.461239306640625,33.7557251908397,-8.061068702290076,2.900763358778626,0.0
12.250000715255737,-9.210493786621093,-1.0007762939453124,-3.9432501342773434,38.412213740458014,73.20610687022901,3.5267175572519083,-14.030021728515624,3.239354846191406,2.3511060302734372,36.38167938931298,-9.98473282442748,6.198473282442748,0.0
12.260000467300415,-14.037204333496092,1.1348515869140625,-0.6703764648437499,22.900763358778626,77.09923664122137,-5.572519083969466,-12.509703674316405,4.316745593261719,2.3630770385742186,34.12213740458015,-9.267175572519085,6.595419847328245,0.0
12.270000696182251,-17.458518505859374,2.8802245971679685,2.6815058593749996,-10.870229007633588,71.55725190839695,-15.419847328244275,-10.599130749511717,4.759672900390624,2.3918074584960936,23.908396946564885,-7.9541984732824424,6.625954198473282,0.0
12.280000448226929,-15.897499023437499,1.9584569580078124,2.375048046875,-45.06870229007634,59.37404580152672,-23.0381679389313,-9.859322436523437,4.987122058105468,1.9680337646484374,12.80916030534351,-4.809160305343512,6.396946564885496,0.0
12.290000438690186,-12.428300817871094,-0.22505495605468748,1.4053963745117186,-55.02290076335878,53.29770992366412,-27.068702290076335,-8.767566479492187,4.582501977539062,1.6831237670898436,0.22900763358778625,-3.3587786259541983,8.106870229007633,0.0
12.300000429153442,-10.091559997558592,-1.1252747802734375,1.3359645263671873,-51.64885496183206,52.36641221374046,-29.34351145038168,-9.198522778320312,3.201047619628906,2.6910826660156246,-7.786259541984733,0.9312977099236641,12.51908396946565,0.0
12.310000658035278,-9.083601098632812,-0.9433154541015625,0.19632453613281248,-34.51908396946565,53.93893129770992,-28.748091603053435,-8.927977990722656,1.4700398193359374,1.3359645263671873,-4.2748091603053435,-6.519083969465649,14.366412213740459,0.0
12.320000886917114,-9.562441430664062,-0.201112939453125,0.08140285644531249,-28.519083969465647,56.595419847328245,-30.564885496183205,-10.450690246582031,0.9409212524414062,3.265691064453125,-1.0534351145038168,-4.961832061068702,17.46564885496183,0.0
12.330000638961792,-7.694964135742187,0.21787235107421873,-0.17956512451171874,-21.938931297709924,54.0,-28.18320610687023,-9.840168823242188,1.4341267944335936,1.848323681640625,3.6793893129770994,-16.641221374045802,13.816793893129772,0.0
12.340000867843628,-8.559270935058594,1.43652099609375,0.7110778930664062,-22.641221374045802,55.41984732824427,-26.03053435114504,-9.34696328125,4.3239281982421875,0.612915625,-9.954198473282442,-21.755725190839694,9.374045801526718,0.0
12.350000381469727,-6.665457421875,0.9050082275390624,0.02154781494140625,-17.358778625954198,56.87022900763359,-19.46564885496183,-8.846575134277343,6.392518432617187,0.612915625,-35.404580152671755,-19.14503816793893,9.404580152671755,0.0
12.360000848770142,-6.169857678222656,1.9967641845703124,0.2920926025390625,-13.007633587786259,58.74809160305343,-12.961832061068701,-10.527304699707031,0.1197100830078125,3.066972326660156,-44.229007633587784,-10.458015267175572,16.33587786259542,0.0
12.37000060081482,-8.173804467773436,0.7445967163085937,0.6416460449218749,-19.755725190839694,53.31297709923664,-12.67175572519084,-11.360486877441405,-2.9951462768554684,3.2609026611328122,-23.572519083969464,-22.213740458015266,17.099236641221374,0.0
12.380000591278076,-10.512939489746094,1.8555062866210936,2.1715409057617188,-14.183206106870228,53.969465648854964,-11.893129770992367,-9.315838659667968,-2.1739351074218747,3.210624426269531,-8.977099236641221,-34.916030534351144,10.030534351145038,0.0
12.390000581741333,-9.459490759277344,2.166752502441406,1.4030021728515625,-9.49618320610687,50.85496183206107,-7.877862595419847,-6.909665991210937,0.9816226806640624,2.3630770385742186,-14.488549618320612,-38.79389312977099,3.633587786259542,0.0
12.40000057220459,-12.093112585449218,5.085284326171875,4.601655590820312,-25.31297709923664,47.786259541984734,-9.877862595419847,-6.957550024414062,-0.8978256225585937,2.980781066894531,-22.12213740458015,-32.0,3.2519083969465647,0.0
12.410000562667847,-10.663774194335938,3.8857892944335934,2.6479870361328124,-55.083969465648856,25.709923664122137,-7.312977099236641,-9.105148913574219,-2.91134921875,3.35188232421875,-7.480916030534351,-33.83206106870229,5.083969465648855,0.0
12.420000553131104,-10.764330664062498,1.697488977050781,1.4700398193359374,-48.61068702290076,21.84732824427481,-0.6564885496183206,-9.366116894531249,-1.6927005737304686,3.0933085449218747,10.13740458015267,-43.02290076335878,1.6793893129770991,0.0
12.43000054359436,-9.696516723632811,0.28490999755859375,1.1516109985351561,-40.42748091603053,21.49618320610687,2.7938931297709924,-6.284779357910156,2.731784094238281,0.3591302490234375,3.2213740458015265,-50.717557251908396,-8.717557251908397,0.0
12.440000534057617,-9.648632690429688,0.5506663818359374,0.9074024291992187,-38.99236641221374,21.64885496183206,4.0,-7.671022119140624,1.5705962890624998,2.01112939453125,-13.099236641221374,-35.9236641221374,-9.969465648854962,0.0
12.450001001358032,-9.442731347656249,0.143652099609375,0.488417138671875,-37.31297709923664,22.549618320610687,3.450381679389313,-10.122684619140625,-2.5043349365234375,2.5857377929687497,-6.183206106870229,-34.35114503816794,-6.656488549618321,0.0
12.46000051498413,-10.500968481445312,0.062249243164062495,1.0223241088867188,-37.70992366412214,20.641221374045802,-1.4809160305343512,-9.809044201660155,-0.7134720947265625,1.2378022583007813,5.541984732824427,-47.45038167938932,-13.618320610687023,0.0
12.470000743865967,-9.488221179199218,-0.16998831787109375,-0.040701428222656245,-31.84732824427481,20.35114503816794,-4.213740458015267,-7.987056738281249,2.741360900878906,0.8499415893554687,-7.435114503816794,-41.267175572519086,-19.740458015267176,0.0
12.480000495910645,-9.962273107910155,0.354341845703125,0.8954314208984374,-29.908396946564885,22.076335877862597,-3.83206106870229,-9.18655177001953,0.430956298828125,2.032677209472656,-14.916030534351146,-26.641221374045802,-17.16030534351145,0.0
12.49000096321106,-9.651026892089844,-1.927332336425781,0.3327940307617187,-21.633587786259543,21.801526717557252,-6.198473282442748,-11.343727465820312,-1.5442600708007812,1.6328455322265625,1.5419847328244274,-33.12977099236641,-16.68702290076336,0.0
12.500000476837158,-12.00931552734375,1.4221557861328125,2.2266075439453124,-8.778625954198473,28.85496183206107,-14.076335877862595,-8.99501563720703,0.2609679809570312,1.8052280517578123,4.229007633587786,-33.80152671755725,-22.458015267175572,0.0
12.510000705718994,-9.787496386718749,0.5961562133789062,0.9002198242187499,-7.236641221374046,23.34351145038168,-11.694656488549619,-8.645462194824217,0.9744400756835937,1.8555062866210936,3.312977099236641,-27.297709923664122,-24.3206106870229,0.0
12.52000093460083,-11.987767712402343,3.105279553222656,2.1906945190429687,-16.458015267175572,19.236641221374047,-12.229007633587786,-11.834538806152343,-2.0925322509765625,4.426878869628906,15.587786259541986,-24.595419847328245,-20.396946564885496,0.0
12.530000686645508,-9.765948571777344,1.3742717529296875,0.689530078125,-6.717557251908397,20.106870229007633,-10.564885496183207,-7.81467421875,1.7118541870117185,0.4860229370117187,15.557251908396946,-34.152671755725194,-26.80916030534351,0.0
12.540000677108765,-10.046070166015625,2.7629087158203123,1.5011644409179687,-7.66412213740458,19.16030534351145,-7.358778625954199,-9.050082275390624,1.3766659545898436,3.859453076171875,14.854961832061068,-19.206106870229007,-24.595419847328245,0.0
12.550000429153442,-10.321403356933594,2.7748797241210936,1.2785036865234374,-10.351145038167939,18.244274809160306,-4.641221374045801,-10.297461340332031,-2.085349645996094,4.304774584960938,27.49618320610687,-26.80916030534351,-20.259541984732824,0.0
12.560000658035278,-10.86009873046875,2.9448680419921875,1.4030021728515625,-14.83969465648855,16.061068702290076,-6.3816793893129775,-9.03332286376953,0.8164227661132812,2.741360900878906,23.587786259541986,-28.793893129770993,-28.442748091603054,0.0
12.570000648498535,-10.414777221679687,1.9129671264648436,1.4173673828125,-15.053435114503817,14.687022900763358,-2.33587786259542,-9.275137231445312,-0.0143652099609375,4.3263223999023435,27.419847328244273,-26.33587786259542,-24.33587786259542,0.0
12.580000877380371,-11.281478222656249,3.0023288818359375,2.578555187988281,-22.82442748091603,14.580152671755725,-5.755725190839694,-15.121777685546874,-3.5098996337890624,8.647856396484375,47.908396946564885,-25.450381679389313,-19.389312977099237,0.0
12.59000039100647,-10.644620581054687,1.5298948608398437,2.3535002319335936,-28.0,7.221374045801527,-7.923664122137405,-14.015656518554687,-2.2960393920898436,6.6319385986328125,55.847328244274806,-41.786259541984734,-29.954198473282442,0.0
12.600000858306885,-9.758765966796874,0.6536170532226562,1.2593500732421874,-23.17557251908397,1.3129770992366412,-6.198473282442748,-15.820884570312499,-3.3686417358398435,9.777919580078125,65.41984732824427,-46.70229007633588,-32.56488549618321,0.0
12.610000848770142,-9.05965908203125,-0.9600748657226562,1.0558429321289062,-18.412213740458014,-1.099236641221374,-6.412213740458015,-10.575188732910156,-2.269703173828125,3.2345664428710936,77.63358778625954,-86.51908396946565,-39.38931297709924,0.0
12.620000839233398,-10.788272680664061,0.37828386230468747,2.224213342285156,-10.946564885496183,0.13740458015267176,-13.450381679389313,-8.743624462890624,1.7549498168945312,3.0023288818359375,73.92366412213741,-84.91603053435115,-45.86259541984733,0.0
12.630000352859497,-10.043675964355469,0.4860229370117187,2.602497204589844,-10.732824427480915,-4.534351145038168,-13.587786259541986,-9.665392102050781,5.468356591796875,2.9664158569335934,68.76335877862596,-88.3969465648855,-37.69465648854962,0.0
12.640000581741333,-10.031704956054687,1.37906015625,2.863465185546875,-12.259541984732824,-8.534351145038167,-13.419847328244275,0.5530605834960938,8.619125976562499,-3.4452561889648434,20.3206106870229,-90.3969465648855,-41.70992366412214,0.0
12.650000810623169,-9.18655177001953,2.760514514160156,3.057395520019531,-16.778625954198475,-9.038167938931299,-11.755725190839694,6.040570788574218,10.558429321289061,-1.879448303222656,-43.51145038167939,-19.129770992366414,-29.572519083969464,0.0
12.660000324249268,-8.295908752441406,2.4444798950195312,3.1124621582031247,-30.213740458015266,-8.50381679389313,-5.572519083969466,0.9576806640625,3.744531396484375,0.12449848632812499,-85.87786259541984,24.290076335877863,-11.603053435114504,0.0
12.670000791549683,-7.455543969726562,0.1149216796875,1.5586252807617187,-21.541984732824428,-9.893129770992367,-2.4427480916030535,-5.88015927734375,-0.8259995727539062,3.6727053466796873,-84.33587786259542,52.93129770992366,0.8854961832061069,0.0
12.680000305175781,-7.484274389648437,-0.7972691528320313,1.5418658691406248,-2.900763358778626,-3.877862595419847,-5.267175572519084,-2.6503812377929687,1.5011644409179687,-0.2442085693359375,-77.06870229007633,41.83206106870229,-3.572519083969466,0.0
12.690000534057617,-6.955155822753905,0.16280571289062498,1.0127473022460938,8.946564885496183,-4.763358778625954,-11.206106870229007,-5.853823059082031,2.959233251953125,5.42047255859375,-57.74045801526717,69.41984732824427,-0.9618320610687023,0.0
12.700000524520874,-8.231265307617187,0.4860229370117187,1.7860744384765623,13.954198473282442,-5.083969465648855,-14.030534351145038,-8.511386901855468,-0.9074024291992187,6.581660363769531,-57.70992366412214,71.7557251908397,10.732824427480915,0.0
12.710000991821289,-9.890447058105469,-0.08379705810546874,2.0446482177734375,19.419847328244273,-7.312977099236641,-15.923664122137405,-6.500257507324219,-1.3215993164062498,3.450044592285156,-43.93893129770992,58.229007633587784,6.931297709923665,0.0
12.720000505447388,-9.07163009033203,-0.9552864624023437,0.4908113403320312,31.66412213740458,-11.49618320610687,-13.83206106870229,-6.993463049316406,-1.4700398193359374,2.403778466796875,-23.83206106870229,46.62595419847328,4.305343511450381,0.0
12.730000495910645,-8.662221606445312,-0.6847416748046875,1.254561669921875,45.038167938931295,-11.633587786259541,-13.801526717557252,-6.0525417968749995,0.2920926025390625,1.66636435546875,-21.96946564885496,40.458015267175576,2.6106870229007635,0.0
12.74000072479248,-9.203311181640624,0.16041151123046873,2.142810485839844,56.534351145038165,-10.82442748091603,-15.603053435114504,-6.639121203613281,0.41419688720703124,3.287238879394531,-18.35114503816794,42.48854961832061,5.450381679389313,0.0
12.750000476837158,-9.53131680908203,-0.45489831542968745,1.9105729248046874,62.47328244274809,-14.213740458015268,-16.870229007633586,-7.848193041992187,-0.3399766357421875,2.9281086303710935,-18.717557251908396,32.2442748091603,6.931297709923665,0.0
12.760000944137573,-8.810662109374999,0.11252747802734374,3.009511486816406,71.14503816793894,-12.030534351145038,-21.14503816793893,-12.016498132324218,0.16519991455078123,5.887341882324218,-13.404580152671755,34.99236641221374,5.816793893129771,0.0
12.77000093460083,-8.310273962402343,1.2976572998046874,4.254496350097656,66.61068702290076,-16.50381679389313,-27.114503816793892,-5.559336254882812,2.365471240234375,3.1100679565429687,-30.564885496183205,25.893129770992367,-6.8396946564885495,0.0
12.780000448226929,-9.198522778320312,3.852270471191406,7.204152795410156,57.06870229007634,-22.427480916030536,-28.580152671755727,-7.381323718261719,0.6296750366210937,5.911283898925781,-46.3206106870229,38.47328244274809,-6.458015267175573,0.0
12.790000915527344,-7.955932116699218,3.727771984863281,8.51617530517578,45.969465648854964,-41.49618320610687,-25.480916030534353,-8.358157995605469,-1.7908628417968748,5.913678100585937,-51.954198473282446,34.42748091603053,-4.427480916030534,0.0
12.800000667572021,-9.634267480468749,3.488351818847656,10.340556970214843,39.465648854961835,-54.396946564885496,-25.755725190839694,-7.716511950683593,-1.5346832641601562,5.856217260742187,-53.43511450381679,28.900763358778626,-8.351145038167939,0.0
12.810000658035278,-9.165003955078124,3.6104561035156246,10.826579907226561,35.05343511450382,-70.77862595419847,-23.923664122137403,-5.042188696289062,-0.8499415893554687,4.556165759277343,-62.229007633587784,22.931297709923665,-8.625954198473282,0.0
12.820000886917114,-10.704475622558594,5.6311623046875,12.018892333984374,10.580152671755725,-97.25190839694656,-24.137404580152673,-3.5601778686523438,-1.889025109863281,4.584896179199219,-63.16030534351145,25.297709923664122,-2.9160305343511452,0.0
12.830000638961792,-11.96382569580078,5.748478186035156,12.303802331542968,-10.091603053435115,-127.3587786259542,-17.786259541984734,-3.8043864379882812,-2.583343591308594,4.7022120605468745,-67.52671755725191,25.19083969465649,0.33587786259541985,0.0
12.840000867843628,-13.941436267089843,5.363011718749999,11.389217297363281,-26.85496183206107,-154.83969465648855,-8.488549618320612,-5.6311623046875,-5.889736083984375,4.106055847167968,-72.45801526717557,37.98473282442748,2.7786259541984735,0.0
12.850000619888306,-14.97094298095703,7.034164477539062,8.391676818847655,-51.25190839694657,-196.5648854961832,4.412213740458015,-8.128314636230469,-11.652579479980469,-2.281674182128906,-43.93893129770992,36.717557251908396,3.312977099236641,0.0
12.860000848770142,-18.911798913574216,3.775656018066406,7.45075556640625,-68.18320610687023,-213.49618320610688,14.854961832061068,-4.797980126953124,-8.63109698486328,-10.967837805175781,2.564885496183206,40.13740458015267,-6.412213740458015,0.0
12.87000060081482,-17.161637499999998,-0.1771709228515625,0.7948749511718749,-65.96946564885496,-237.72519083969465,29.053435114503817,-10.929530578613281,0.8379705810546875,-5.463568188476562,57.69465648854962,57.6793893129771,-16.061068702290076,0.0
12.880000591278076,-25.610775158691403,1.7310078002929687,1.9393033447265624,-70.16793893129771,-247.29770992366412,24.198473282442748,-26.06088507080078,5.066130712890625,14.07790576171875,53.12977099236641,59.19083969465649,-22.580152671755727,0.0
12.890000581741333,-23.740903662109375,-2.327164013671875,-5.456385583496093,-48.152671755725194,-263.23664122137404,34.54961832061068,-39.22540289916992,-4.240131140136718,29.91076134033203,-7.770992366412214,49.51145038167939,-63.6793893129771,0.0
12.90000057220459,-22.419304345703125,-5.465962390136719,-2.6623522460937497,19.435114503816795,-231.23664122137404,46.67175572519084,-37.0430880859375,-6.797138513183594,12.612654345703124,20.68702290076336,-29.633587786259543,-43.343511450381676,0.0
12.910000562667847,-15.588647009277343,-3.220201232910156,-4.089296435546875,73.46564885496183,-201.8320610687023,55.603053435114504,-14.834473486328124,12.782642663574219,1.1827356201171875,78.47328244274809,-65.83206106870229,20.977099236641223,0.0
12.920000314712524,-0.9648632690429687,-9.543287817382812,-8.968679418945312,130.45801526717557,-165.1908396946565,64.21374045801527,-1.7860744384765623,12.033257543945313,-9.402029919433593,40.10687022900763,-65.40458015267176,75.7557251908397,0.0
12.93000054359436,-5.013458276367187,-1.7453730102539062,-2.612074011230469,146.70229007633588,-84.36641221374046,44.44274809160305,-2.549824768066406,7.335833886718749,-10.512939489746094,8.961832061068701,-30.12213740458015,72.0,0.0
12.940000534057617,-2.5809493896484375,-0.7015010864257812,-3.459621398925781,153.87786259541986,-50.778625954198475,31.84732824427481,2.250549560546875,4.039018200683594,-14.470554833984375,-43.70992366412214,-4.580152671755725,34.50381679389313,0.0
12.950000524520874,-7.632714892578124,3.0621839233398433,0.7829039428710937,126.62595419847328,-0.10687022900763359,17.72519083969466,-1.4724340209960938,-2.5378537597656248,-12.959813586425781,-68.42748091603053,44.458015267175576,2.8702290076335877,0.0
12.960000276565552,-11.29344923095703,4.364629626464843,1.8507178833007811,88.18320610687023,9.312977099236642,7.343511450381679,-9.210493786621093,-9.931148486328125,-6.641515405273437,-44.74809160305343,77.05343511450381,0.030534351145038167,0.0
12.970000743865967,-7.589619262695312,-0.22505495605468748,-1.695094775390625,69.55725190839695,4.9465648854961835,6.351145038167939,-13.45780753173828,-8.942343200683593,-4.989516259765625,2.6259541984732824,74.61068702290076,-1.2213740458015268,0.0
12.980000495910645,-8.322244970703125,0.9959878906249999,-0.2920926025390625,55.404580152671755,28.0,-2.6564885496183206,-18.18875001220703,-6.639121203613281,0.8164227661132812,18.244274809160306,97.5114503816794,4.427480916030534,0.0
12.990000486373901,-12.758700646972656,6.2584431396484375,2.39420166015625,9.709923664122137,28.213740458015266,-13.404580152671755,-14.259865087890624,-3.2225954345703123,1.649604943847656,39.20610687022901,98.53435114503817,15.450381679389313,0.0
13.000000238418579,-12.82573829345703,6.076483813476562,1.9919757812499999,-18.18320610687023,29.87786259541985,-6.106870229007634,-10.89840595703125,2.1164742675781247,-0.1197100830078125,44.30534351145038,81.80152671755725,30.15267175572519,0.0
13.010000705718994,-10.077194787597655,6.823474731445312,1.8076222534179687,-61.404580152671755,21.374045801526716,4.366412213740458,-13.666103076171874,4.872200378417968,2.7341782958984373,36.10687022900763,91.00763358778626,42.656488549618324,0.0
13.020000696182251,-7.730877160644531,5.008669873046875,0.55545478515625,-87.92366412213741,18.03053435114504,19.66412213740458,-12.050016955566406,4.46279189453125,5.0182466796875,19.923664122137403,97.93893129770993,51.221374045801525,0.0
13.030000686645508,-4.50109912109375,-0.17956512451171874,-2.128445275878906,-99.05343511450381,17.84732824427481,33.43511450381679,-8.298302954101562,3.0837317382812497,4.132392065429687,-0.6717557251908397,93.06870229007633,51.786259541984734,0.0
13.040000677108765,-3.1387983764648437,-2.6096798095703124,-1.8411410766601561,-98.91603053435115,32.51908396946565,34.656488549618324,-4.426878869628906,4.771643908691406,-1.455674609375,-10.885496183206106,66.7175572519084,43.45038167938932,0.0
13.050000667572021,-1.5945383056640625,-2.252943762207031,-1.3479355346679687,-105.34351145038168,40.778625954198475,25.34351145038168,-9.157821350097656,-0.32561142578124996,3.347093920898437,-36.62595419847328,85.00763358778626,43.25190839694657,0.0
13.060000658035278,-1.429338391113281,-5.916072302246094,-2.04943662109375,-102.36641221374046,47.31297709923664,24.38167938931298,-6.2392895263671875,-1.93451494140625,3.1771056030273437,-34.732824427480914,81.8473282442748,41.25190839694657,0.0
13.070000410079956,0.5195417602539062,-8.142679846191406,-3.0334535034179684,-59.786259541984734,73.6793893129771,18.80916030534351,-9.210493786621093,-4.8889597900390624,4.716577270507813,-19.984732824427482,62.458015267175576,41.969465648854964,0.0
13.080000877380371,3.5194764404296874,-10.441113439941406,-5.054159704589844,-23.480916030534353,94.21374045801527,4.198473282442748,-7.053318090820312,-2.8754361938476563,3.7995980346679685,-8.610687022900763,45.41984732824427,33.847328244274806,0.0
13.090000629425049,2.4756045166015626,-9.411606726074218,-4.46279189453125,11.786259541984732,121.80152671755725,-15.511450381679388,-5.839457849121094,-4.620809204101562,4.187458703613281,-6.106870229007634,33.93893129770992,30.16793893129771,0.0
13.100000858306885,-1.6304513305664061,-5.49708701171875,-1.656787548828125,21.84732824427481,138.10687022900763,-40.778625954198475,-7.625532287597656,-5.736507177734374,5.549759448242187,14.687022900763358,25.17557251908397,26.061068702290076,0.0
13.110000371932983,-6.459556079101562,-5.537788439941406,2.1930887207031247,54.48854961832061,156.76335877862596,-53.06870229007634,-5.95677373046875,-1.924938134765625,5.1523219726562495,8.961832061068701,14.366412213740459,15.17557251908397,0.0
13.120000839233398,-3.6631285400390623,-5.035006091308594,2.152387292480469,49.908396946564885,157.6946564885496,-72.21374045801527,-5.116408947753906,0.30885201416015623,5.032611889648437,-2.564885496183206,5.480916030534351,0.32061068702290074,0.0
13.130000591278076,-8.1594392578125,-3.0813375366210938,10.266336718749999,64.85496183206106,158.4885496183206,-74.22900763358778,-8.985438830566405,-1.3144167114257812,7.199364392089843,-16.83969465648855,2.946564885496183,-6.6106870229007635,0.0
13.140000581741333,-13.474566943359374,5.743689782714843,15.741875915527343,96.1526717557252,144.793893129771,-56.717557251908396,-11.314997045898437,-1.2114660400390624,6.938396411132812,-25.14503816793893,-9.450381679389313,-14.198473282442748,0.0
13.150000810623169,-11.389217297363281,13.223175769042967,9.200916979980468,85.81679389312977,118.42748091603053,-24.732824427480917,-12.220005273437499,1.0917559570312498,5.643133312988281,-31.19083969465649,-26.763358778625953,-13.282442748091603,0.0
13.160000324249268,-11.420341918945311,12.71081661376953,9.107543115234375,83.6030534351145,104.25954198473282,11.007633587786259,-11.03248125,1.8650830932617186,4.582501977539062,-37.93893129770992,-39.11450381679389,-4.244274809160306,0.0
13.170000314712524,-15.734693310546874,12.562376110839843,16.68279716796875,63.57251908396947,66.22900763358778,25.557251908396946,-9.526528405761718,1.4820108276367188,3.9983167724609374,-37.7557251908397,-47.52671755725191,9.709923664122137,0.0
13.18000054359436,-18.222268835449217,10.103531005859374,17.053898425292967,21.480916030534353,14.67175572519084,31.69465648854962,-8.55448253173828,0.33039982910156246,1.7286135986328124,-32.16793893129771,-51.49618320610687,22.900763358778626,0.0
13.190000534057617,-14.872780712890624,3.6463691284179687,9.129090930175781,6.5038167938931295,-20.12213740458015,51.12977099236641,-6.675034228515624,-1.0917559570312498,0.3327940307617187,-22.793893129770993,-50.06106870229008,28.580152671755727,0.0
13.200000524520874,-15.291766003417967,4.347870214843749,4.752490295410156,35.48091603053435,-24.549618320610687,79.41984732824427,-5.5449710449218745,-2.5474305664062498,0.45489831542968745,-22.27480916030534,-43.05343511450382,25.14503816793893,0.0
13.21000075340271,-15.073893652343749,3.7421371948242186,4.390965844726562,24.15267175572519,-32.76335877862596,83.96946564885496,-4.841075756835937,-4.467580297851562,-1.4891934326171874,-15.923664122137405,-36.42748091603053,18.213740458015266,0.0
13.220000505447388,-14.877569116210937,1.8219874633789062,4.781220715332031,-7.3893129770992365,-34.83969465648855,77.61832061068702,-7.601590270996093,-4.948814831542968,-0.12449848632812499,-2.3969465648854964,-27.236641221374047,12.442748091603054,0.0
13.230000495910645,-15.799336755371092,-7.187393383789062,11.298237634277344,-39.63358778625954,-40.961832061068705,53.099236641221374,-9.354145886230468,-4.675875842285156,1.5729904907226562,6.396946564885496,-28.33587786259542,7.6183206106870225,0.0
13.24000072479248,-14.386757775878905,-10.405200415039062,10.778695874023438,-38.961832061068705,-53.31297709923664,22.259541984732824,-10.66137999267578,-1.0773907470703123,1.6615759521484375,4.1679389312977095,-33.86259541984733,1.0229007633587786,0.0
13.250000715255737,-14.666879370117186,-3.782838623046875,1.9225439331054686,-21.709923664122137,-56.97709923664122,-0.6412213740458015,-13.663708874511718,-1.0199299072265624,4.067748620605468,4.8396946564885495,-38.30534351145038,0.3969465648854962,0.0
13.260000705718994,-13.543998791503906,2.3822306518554686,-3.392583752441406,-22.99236641221374,-43.19083969465649,-14.0,-16.00044969482422,-0.41419688720703124,5.930437512207031,12.916030534351146,-46.0763358778626,0.10687022900763359,0.0
13.270000457763672,-9.993397729492187,0.488417138671875,-7.146691955566406,-40.93129770992366,-38.67175572519084,-19.129770992366414,-17.197550524902343,-0.6368576416015624,7.912836486816405,14.244274809160306,-60.30534351145038,-3.1755725190839694,0.0
13.280000686645508,-5.49708701171875,-1.7453730102539062,-10.409988818359375,-15.725190839694656,-15.603053435114504,-4.961832061068702,-21.222203515624997,-1.5586252807617187,8.173804467773436,26.27480916030534,-78.35114503816794,-3.435114503816794,0.0
13.290000915527344,-3.900154504394531,0.22505495605468748,-7.917624890136718,29.633587786259543,23.87786259541985,5.282442748091603,-20.867861669921872,1.419761584472656,5.501875415039062,12.977099236641221,-93.66412213740458,-8.564885496183207,0.0
13.300000667572021,-6.303932971191406,4.031835595703125,-5.793968017578124,37.70992366412214,43.404580152671755,8.67175572519084,-19.80244193115234,2.437297290039062,2.0278888061523435,15.114503816793894,-106.90076335877863,-8.946564885496183,0.0
13.310000658035278,-9.481038574218749,6.509834313964843,-2.6312276245117188,42.06106870229008,58.916030534351144,11.694656488549619,-20.223821423339842,-0.17956512451171874,1.235408056640625,22.427480916030536,-114.19847328244275,-2.045801526717557,0.0
13.320000886917114,-11.875240234375,5.698199951171874,0.3902548706054687,25.52671755725191,58.67175572519084,11.893129770992367,-16.991649182128906,0.06943184814453125,1.656787548828125,11.816793893129772,-103.54198473282443,-2.015267175572519,0.0
13.330000638961792,-13.436259716796874,3.1603461914062496,2.2026655273437497,-2.50381679389313,51.083969465648856,9.969465648854962,-11.520898388671874,2.8107927490234372,-3.421314172363281,11.84732824427481,-105.41984732824427,-10.091603053435115,0.0
13.340000867843628,-12.327744348144531,2.3056161987304686,2.398990063476562,-20.3206106870229,39.786259541984734,4.076335877862595,-11.508927380371093,1.0678139404296874,-0.6057330200195312,8.83969465648855,-79.86259541984732,-7.801526717557252,0.0
13.350000381469727,-10.979808813476561,0.20829554443359374,1.4867992309570313,-31.328244274809162,26.35114503816794,2.33587786259542,-9.95987890625,1.005564697265625,-2.138022082519531,28.900763358778626,-71.45038167938931,-11.725190839694656,0.0
13.360000848770142,-13.290213415527344,1.4030021728515625,2.185906115722656,-36.534351145038165,23.17557251908397,-3.4656488549618323,-7.6087728759765625,4.046200805664062,-3.366247534179687,22.870229007633586,-55.12977099236641,-19.801526717557252,0.0
13.37000036239624,-12.148179223632813,1.5298948608398437,1.886630908203125,-40.534351145038165,20.198473282442748,-3.2061068702290076,-10.474632263183594,-1.0773907470703123,3.289633081054687,36.85496183206107,-14.183206106870228,-10.183206106870228,0.0
13.380000591278076,-9.734823950195311,-1.8938135131835936,-1.0606313354492187,-51.89312977099237,11.603053435114504,-4.717557251908397,-11.84890401611328,-2.365471240234375,1.8195932617187498,78.67175572519083,-26.717557251908396,-18.519083969465647,0.0
13.390000581741333,-9.296685046386719,-2.8610709838867185,-1.8052280517578123,-31.19083969465649,19.801526717557252,-9.938931297709924,-10.460267053222656,3.6272155151367187,-2.664746447753906,70.83969465648855,-39.19083969465649,-40.229007633587784,0.0
13.400000810623169,-7.211335400390625,-2.3367408203125,-2.6144682128906247,-15.251908396946565,36.54961832061068,-13.32824427480916,-7.4220251464843745,5.7077767578125,-2.051830822753906,45.083969465648856,-26.610687022900763,-40.51908396946565,0.0
13.410000562667847,-9.387664709472656,0.5674257934570313,-0.4644751220703125,-14.702290076335878,47.603053435114504,-16.83969465648855,-6.756437084960937,3.5625720703124997,-2.0877438476562498,43.86259541984733,-19.893129770992367,-23.587786259541986,0.0
13.420000314712524,-9.567229833984374,-0.1771709228515625,-1.8339584716796873,-22.30534351145038,45.038167938931295,-17.61832061068702,-6.445190869140625,3.208230224609375,-1.1180921752929687,45.541984732824424,-21.389312977099237,-13.572519083969466,0.0
13.430000305175781,-7.989450939941406,-0.6967126831054687,-2.370259643554687,-0.7175572519083969,56.12213740458015,-14.610687022900763,-6.363788012695312,5.257666845703125,-1.0989385620117187,20.15267175572519,-16.83969465648855,-11.16030534351145,0.0
13.440000534057617,-11.4538607421875,1.4508862060546874,1.254561669921875,2.946564885496183,68.06106870229007,-16.946564885496183,-9.006986645507812,3.1507693847656246,3.0071172851562498,6.778625954198473,0.8091603053435115,-7.877862595419847,0.0
13.450021266937256,-10.982203015136719,1.9656395629882812,1.7573440185546874,-17.358778625954198,54.50381679389313,-17.709923664122137,-9.725247143554688,1.848323681640625,2.626439221191406,-11.679389312977099,-3.1908396946564888,-8.870229007633588,0.0
13.46000051498413,-11.961431494140625,1.6304513305664061,3.21780703125,-20.946564885496183,51.19083969465649,-16.229007633587788,-10.378864196777343,-0.9720458740234375,5.7891796142578125,-9.954198473282442,6.030534351145038,-6.564885496183206,0.0
13.470000743865967,-10.723629235839843,-0.0909796630859375,3.459621398925781,-21.34351145038168,46.83969465648855,-14.900763358778626,-6.854599353027344,1.0869675537109373,1.5562310791015623,-6.137404580152672,-12.80916030534351,-12.183206106870228,0.0
13.480000495910645,-11.73398233642578,2.384624853515625,5.430049365234375,-30.0,39.587786259541986,-20.549618320610687,-14.025233325195313,-3.337517114257812,7.144297753906249,11.419847328244275,-7.908396946564886,-10.67175572519084,0.0
13.49000072479248,-10.151415039062499,-0.14125789794921875,3.430890979003906,-28.137404580152673,30.931297709923665,-19.358778625954198,-11.86805762939453,-1.5969325073242187,3.8690298828125,32.58015267175573,-37.6793893129771,-16.458015267175572,0.0
13.500000238418579,-9.45470235595703,-0.30406361083984373,1.7238251953125,-26.885496183206108,19.480916030534353,-17.450381679389313,-11.92551846923828,0.7493851196289062,5.566518859863281,24.82442748091603,-34.79389312977099,-27.206106870229007,0.0
13.510000705718994,-8.458714465332031,-1.4963760375976562,1.0127473022460938,-10.045801526717558,22.870229007633586,-12.977099236641221,-6.768408093261718,3.1483751831054687,1.0917559570312498,22.9618320610687,-60.6412213740458,-29.954198473282442,0.0
13.520000696182251,-9.823409411621093,0.8667010009765624,2.231395947265625,-9.755725190839694,26.229007633587788,-17.84732824427481,-10.927136376953124,1.0486603271484374,4.525041137695312,22.610687022900763,-56.0763358778626,-26.396946564885496,0.0
13.530000686645508,-8.678981018066406,0.6153098266601562,0.9576806640625,-6.0458015267175576,27.84732824427481,-17.740458015267176,-11.535263598632811,-0.3495534423828125,5.363011718749999,28.35114503816794,-64.01526717557252,-20.671755725190838,0.0
13.540000438690186,-10.960655200195312,3.9456443359374997,2.3965958618164063,-13.389312977099237,28.870229007633586,-16.610687022900763,-11.899182250976562,-1.3311761230468748,7.888894470214844,27.282442748091604,-61.14503816793893,-17.00763358778626,0.0
13.550000667572021,-11.051634863281249,3.4859576171874997,1.5586252807617187,-32.229007633587784,17.374045801526716,-10.961832061068701,-7.307103466796875,-0.2442085693359375,3.7900212280273435,29.267175572519083,-81.87786259541984,-19.69465648854962,0.0
13.560000658035278,-11.439495532226562,3.806780639648437,1.6136919189453125,-38.88549618320611,20.396946564885496,-8.580152671755725,-7.3478048950195305,0.2609679809570312,3.641580725097656,27.435114503816795,-85.54198473282443,-22.427480916030536,0.0
13.570000648498535,-10.096348400878906,1.9297265380859374,1.4245499877929686,-37.343511450381676,17.52671755725191,-5.0534351145038165,-7.599196069335937,1.1611878051757811,2.1930887207031247,37.20610687022901,-92.33587786259542,-21.16030534351145,0.0
13.580000877380371,-10.714052429199219,3.1364041748046874,2.04943662109375,-36.76335877862596,17.51145038167939,-6.427480916030534,-9.404424121093749,0.36631285400390623,3.840299462890625,39.908396946564885,-79.96946564885496,-18.671755725190838,0.0
13.590000629425049,-8.836998327636719,1.5155296508789062,0.9648632690429687,-35.51145038167939,13.770992366412214,-3.5267175572519083,-8.513781103515624,0.07422025146484375,4.314351391601562,37.86259541984733,-67.54198473282443,-17.81679389312977,0.0
13.600000858306885,-9.361328491210937,2.2864625854492187,1.898601916503906,-28.83969465648855,22.244274809160306,-2.8091603053435112,-3.7612908081054686,2.683900061035156,0.8355763793945312,20.83969465648855,-65.6793893129771,-23.64885496183206,0.0
13.610000610351562,-9.562441430664062,3.23696064453125,1.89620771484375,-34.2442748091603,20.83969465648855,-2.9770992366412212,-3.8139632446289062,2.6815058593749996,2.5426421630859375,14.183206106870228,-30.946564885496183,-18.106870229007633,0.0
13.620000839233398,-9.5384994140625,2.099714855957031,1.35990654296875,-35.55725190839695,17.34351145038168,0.15267175572519084,-4.218583325195312,1.2665326782226562,0.8307879760742187,-1.4198473282442747,-30.198473282442748,-16.213740458015266,0.0
13.630000591278076,-10.694898815917968,2.693476867675781,2.0661960327148434,-32.16793893129771,19.34351145038168,0.5343511450381679,-6.845022546386718,0.9528922607421875,3.900154504394531,-4.458015267175573,-7.4961832061068705,-12.320610687022901,0.0
13.640000581741333,-10.141838232421874,1.0869675537109373,1.6927005737304686,-29.954198473282442,14.534351145038167,3.5114503816793894,-7.232883215332031,0.6943184814453125,3.438073583984375,-10.045801526717558,-6.473282442748092,-11.801526717557252,0.0
13.65000057220459,-10.366893188476562,0.4644751220703125,1.905784521484375,-22.65648854961832,14.50381679389313,4.442748091603053,-7.2903440551757805,0.967257470703125,3.423708374023437,-9.526717557251908,-0.2900763358778626,-12.534351145038167,0.0
13.660000562667847,-10.74517705078125,-0.5961562133789062,1.9847931762695312,-15.297709923664122,13.603053435114504,2.931297709923664,-6.387730029296875,0.7302315063476562,2.0542250244140625,-9.694656488549619,-3.648854961832061,-13.801526717557252,0.0
13.670000553131104,-10.474632263183594,-0.7781155395507812,1.7429788085937499,-6.549618320610687,13.816793893129772,-0.7786259541984732,-6.6702458251953125,1.8195932617187498,2.959233251953125,-9.557251908396946,4.137404580152672,-13.053435114503817,0.0
13.68000054359436,-10.029310754394531,-0.5458779785156249,1.2737152832031249,-1.83206106870229,13.221374045801527,-4.122137404580153,-5.164292980957031,3.038241906738281,1.9680337646484374,-21.114503816793892,9.404580152671755,-13.114503816793894,0.0
13.690001010894775,-9.686939916992188,0.19871873779296872,1.6903063720703124,1.6793893129770991,13.511450381679388,-6.580152671755725,-4.3071687866210935,3.6846763549804686,2.3223756103515623,-39.465648854961835,29.297709923664122,-8.793893129770993,0.0
13.700000524520874,-9.246406811523437,0.9409212524414062,1.6519991455078125,3.786259541984733,13.801526717557252,-7.374045801526718,-6.169857678222656,1.8028338500976562,3.4859576171874997,-51.954198473282446,42.94656488549618,-0.9007633587786259,0.0
13.71000075340271,-10.110713610839843,1.5634136840820312,2.013523596191406,2.7480916030534353,12.076335877862595,-8.076335877862595,-7.618349682617187,-0.6751648681640625,3.2058360229492187,-40.44274809160305,36.0,5.282442748091603,0.0
13.720000743865967,-9.337386474609374,1.7836802368164062,1.5873557006835937,8.946564885496183,11.022900763358779,-8.458015267175572,-6.49307490234375,1.687912170410156,2.205059729003906,-36.595419847328245,36.19847328244275,1.4045801526717556,0.0
13.730000734329224,-8.343792785644531,1.93451494140625,1.484405029296875,10.931297709923664,11.312977099236642,-5.908396946564886,-6.026205578613281,2.1212626708984375,3.9049429077148434,-44.29007633587786,51.86259541984733,3.236641221374046,0.0
13.740000486373901,-8.760383874511719,2.1739351074218747,1.6208745239257811,7.8320610687022905,10.122137404580153,-3.7557251908396947,-9.823409411621093,-1.7381904052734374,5.88015927734375,-28.595419847328245,50.33587786259542,16.931297709923665,0.0
13.750000476837158,-9.107543115234375,2.616862414550781,1.9800047729492187,9.86259541984733,9.694656488549619,-4.259541984732825,-8.099584216308592,-1.3407529296874998,3.5506010620117183,-20.80916030534351,28.80916030534351,7.770992366412214,0.0
13.760000944137573,-9.785102185058593,2.559401574707031,2.0470424194335934,10.274809160305344,7.694656488549619,-2.8091603053435112,-5.6191912963867185,2.4516625,3.3494881225585935,-31.068702290076335,41.81679389312977,3.6030534351145036,0.0
13.770000696182251,-9.598354455566406,1.7214309936523438,2.528276953125,8.900763358778626,8.381679389312977,-0.1984732824427481,-8.420407238769531,-0.93852705078125,5.111620544433594,-30.748091603053435,47.25190839694657,16.9618320610687,0.0
13.780000686645508,-10.491391674804687,1.1468225952148436,2.9185318237304685,4.183206106870229,4.1679389312977095,-5.114503816793893,-9.200916979980468,-3.071760729980469,3.6487633300781246,-18.35114503816794,31.66412213740458,13.877862595419847,0.0
13.790000677108765,-10.223241088867187,1.0749965454101562,3.2800562744140622,4.137404580152672,-0.2748091603053435,-8.717557251908397,-9.150638745117186,0.023942016601562498,4.4005426513671875,-16.549618320610687,31.69465648854962,4.595419847328245,0.0
13.800000429153442,-9.112331518554686,0.584185205078125,3.0933085449218747,6.580152671755725,-3.236641221374046,-7.297709923664122,-6.5218053222656245,0.8930372192382812,3.5218706420898434,-34.10687022900763,34.48854961832061,0.5190839694656488,0.0
13.810000658035278,-8.583212951660157,0.19632453613281248,3.3016040893554686,7.679389312977099,-3.7404580152671754,-8.916030534351146,-7.879317663574218,-1.4724340209960938,5.058948107910156,-43.81679389312977,46.99236641221374,5.00763358778626,0.0
13.820000886917114,-8.398859423828124,-0.4261678955078125,2.8562825805664063,7.877862595419847,-5.526717557251908,-12.961832061068701,-8.738836059570312,-3.4907460205078125,5.032611889648437,-31.251908396946565,37.74045801526717,8.900763358778626,0.0
13.830000638961792,-8.86094034423828,-0.4644751220703125,2.4516625,11.389312977099237,-7.801526717557252,-17.923664122137403,-11.240776794433593,-2.8658593872070313,6.1459156616210935,-10.580152671755725,25.801526717557252,1.0076335877862594,0.0
13.840000867843628,-8.927977990722656,-0.04548983154296875,2.482787121582031,17.96946564885496,-9.022900763358779,-20.9618320610687,-8.640673791503906,0.7517793212890624,4.709394665527343,-13.221374045801527,13.938931297709924,-8.381679389312977,0.0
13.850000619888306,-8.24802471923828,0.296881005859375,2.6144682128906247,24.549618320610687,-8.061068702290076,-20.458015267175572,-6.907271789550781,1.139639990234375,4.024652990722656,-18.732824427480917,16.412213740458014,-7.572519083969466,0.0
13.860000848770142,-8.264784130859374,0.6368576416015624,2.5737667846679684,20.732824427480917,-10.427480916030534,-22.80916030534351,-5.1331683593749995,1.2832920898437499,2.5617957763671875,-27.14503816793893,17.17557251908397,-4.259541984732825,0.0
13.87000060081482,-15.148113903808593,21.660342419433594,13.263877197265625,-16.48854961832061,0.9770992366412213,-38.56488549618321,-6.131550451660156,0.2657563842773437,3.239354846191406,-31.068702290076335,23.709923664122137,2.2290076335877864,0.0
13.880000352859497,-17.075446240234374,15.088258862304686,9.248801013183593,-108.51908396946565,-69.31297709923665,-11.312977099236642,-8.037334973144532,2.308010400390625,1.936909143066406,-31.64885496183206,21.19083969465649,8.977099236641221,0.0
13.890000581741333,-9.715670336914062,-2.729389892578125,5.755660791015624,-60.152671755725194,-92.01526717557252,45.9236641221374,-7.920019091796875,0.7685387329101562,2.308010400390625,-48.70229007633588,19.69465648854962,20.458015267175572,0.0
13.90000033378601,-6.2009822998046875,-8.183381274414062,5.224148022460938,-27.435114503816795,-93.55725190839695,34.85496183206107,-6.114791040039062,0.2154781494140625,1.5682020874023437,-45.25190839694657,29.099236641221374,14.885496183206106,0.0
13.910000324249268,-6.701370446777343,-4.611232397460937,6.665457421875,-16.717557251908396,-106.42748091603053,2.2290076335877864,-6.066907006835937,-1.2401964599609374,2.961627453613281,-29.770992366412212,40.36641221374046,11.16030534351145,0.0
13.920000314712524,-9.107543115234375,-2.1715409057617188,9.030928662109375,14.641221374045802,-114.16793893129771,-11.786259541984732,-5.291185668945312,-2.91134921875,4.283226770019531,-18.015267175572518,42.10687022900763,12.290076335877863,0.0
13.930000305175781,-8.813056311035156,-0.5722141967773438,10.005368737792969,27.862595419847327,-119.57251908396947,-25.893129770992367,-4.498704919433593,-2.940079638671875,5.0014872680664055,-4.824427480916031,42.42748091603053,4.870229007633588,0.0
13.940000534057617,-9.758765966796874,1.0702081420898437,10.75714805908203,29.419847328244273,-130.45801526717557,-42.0763358778626,-0.8547299926757812,1.4125789794921875,3.6008792968749996,-17.282442748091604,49.6793893129771,-9.511450381679388,0.0
13.950000286102295,-9.904812268066406,1.3958195678710936,10.733206042480468,22.30534351145038,-150.9770992366412,-44.900763358778626,-2.061407629394531,-0.8259995727539062,4.7884033203125,-48.62595419847328,77.98473282442748,-11.267175572519085,0.0
13.96000051498413,-10.448296044921875,1.3455413330078123,9.923965881347655,11.312977099236642,-167.72519083969465,-36.62595419847328,-3.749319799804687,-3.6822821533203123,-0.689530078125,-65.1145038167939,86.90076335877863,-10.351145038167939,0.0
13.970000267028809,-11.037269653320312,1.446097802734375,6.794744311523437,-0.366412213740458,-187.4198473282443,-28.18320610687023,-10.426748229980468,-4.632780212402343,-0.7900865478515624,-30.885496183206108,102.83969465648855,-1.4351145038167938,0.0
13.980000495910645,-11.815385192871092,0.5434837768554687,1.85790048828125,-0.7938931297709924,-203.0381679389313,-19.938931297709924,-14.082694165039062,-2.6910826660156246,-1.5322890624999999,-1.3740458015267176,90.33587786259542,9.557251908396946,0.0
13.99000072479248,-13.196839550781249,0.13646949462890623,-2.059013427734375,14.0,-205.54198473282443,-13.755725190839694,-15.550339782714843,-3.4835634155273434,1.0103531005859374,9.358778625954198,78.85496183206106,8.732824427480915,0.0
14.000000476837158,-15.605406420898436,0.105344873046875,-4.661510632324219,36.732824427480914,-200.0916030534351,-6.580152671755725,-18.310854296875,-4.774038110351563,0.8786720092773437,13.19083969465649,68.25954198473282,-3.9236641221374047,0.0
14.010000705718994,-19.54865655517578,0.00718260498046875,-5.6958057495117185,66.06106870229007,-184.9618320610687,0.3511450381679389,-26.932374475097653,-3.6104561035156246,9.34696328125,6.396946564885496,44.51908396946565,-22.396946564885496,0.0
14.02000093460083,-16.747440612792968,-3.347093920898437,-6.2201359130859375,125.89312977099236,-153.45038167938932,15.770992366412214,-35.04392969970703,-1.8626888916015625,20.31480108642578,-3.0229007633587788,-20.16793893129771,-35.9236641221374,0.0
14.030000925064087,-16.52238565673828,1.9225439331054686,-2.2361843505859373,146.0,-118.45801526717557,22.38167938931298,-26.728867333984372,-0.3112462158203125,10.89840595703125,34.82442748091603,-73.52671755725191,2.732824427480916,0.0
14.040000915527344,-14.597447521972656,5.044582897949218,-0.076614453125,129.14503816793894,-101.41984732824427,40.79389312977099,-7.156268762207031,9.03332286376953,-4.7764323120117185,45.29770992366412,-85.90839694656489,29.938931297709924,0.0
14.050000667572021,-16.512808850097656,7.278373046874999,2.1930887207031247,91.89312977099236,-82.25954198473282,54.0,-3.861847277832031,6.426037255859375,-6.797138513183594,21.206106870229007,-72.44274809160305,43.9236641221374,0.0
14.060000658035278,-12.287042919921875,3.258508459472656,1.1731588134765625,62.87022900763359,-80.83969465648855,64.93129770992367,-1.3479355346679687,7.563283044433593,-9.873687646484374,-17.068702290076335,-47.25190839694657,24.50381679389313,0.0
14.070000648498535,-9.260772021484375,1.7525556152343749,0.19632453613281248,46.10687022900763,-58.79389312977099,68.74809160305344,-4.369418029785156,0.6679822631835937,-8.305485559082031,-54.6412213740458,-6.625954198473282,8.51908396946565,0.0
14.080000400543213,-5.528211633300781,-1.3934253662109375,-2.0302830078125,30.213740458015266,-45.20610687022901,63.57251908396947,-7.168239770507812,-5.755660791015624,-7.448361364746093,-28.53435114503817,10.061068702290076,1.3893129770992367,0.0
14.090000629425049,-7.697358337402343,1.3000515014648437,-0.0430956298828125,13.297709923664122,-18.763358778625953,47.587786259541986,-10.845733520507812,-7.52737001953125,-4.484339709472656,-1.3740458015267176,19.053435114503817,-3.4198473282442747,0.0
14.100000858306885,-6.406883642578125,1.4053963745117186,-0.3806780639648437,-4.793893129770993,-21.129770992366414,38.274809160305345,-11.631031665039062,-2.8562825805664063,-3.375824340820312,21.72519083969466,40.48854961832061,-6.3816793893129775,0.0
14.110000848770142,-6.236895324707031,1.4772224243164063,0.5530605834960938,-20.580152671755727,-4.564885496183206,34.961832061068705,-10.386046801757812,0.8882488159179687,-5.147533569335937,20.229007633587788,52.76335877862596,2.6412213740458017,0.0
14.12000060081482,-2.291250988769531,-0.21308394775390624,-1.3431471313476562,-36.152671755725194,-2.4427480916030535,28.549618320610687,-10.292672937011718,1.5155296508789062,-2.147598889160156,6.0458015267175576,79.06870229007633,18.900763358778626,0.0
14.130000591278076,-3.778050219726562,0.49320554199218747,-0.7038952880859375,-48.25954198473283,15.297709923664122,23.0381679389313,-9.763554370117188,1.8938135131835936,-2.6695348510742187,7.786259541984733,78.25954198473282,30.916030534351144,0.0
14.140000581741333,-3.77326181640625,0.055066638183593745,-0.6847416748046875,-62.900763358778626,22.595419847328245,18.244274809160306,-12.069170568847655,1.4149731811523436,0.82360537109375,9.83206106870229,84.04580152671755,39.52671755725191,0.0
14.150000810623169,-3.9264907226562498,-1.0127473022460938,-0.3280056274414062,-68.41221374045801,30.27480916030534,18.702290076335878,-12.933477368164061,-1.0079588989257813,4.575319372558593,11.587786259541986,93.93893129770993,42.70229007633588,0.0
14.160000562667847,-2.1212626708984375,-3.488351818847656,-1.5083470458984374,-61.38931297709924,34.79389312977099,18.9618320610687,-8.233659509277343,-2.262520568847656,5.195417602539062,16.763358778625953,88.85496183206106,39.32824427480916,0.0
14.170000553131104,-2.8467057739257813,-4.276044165039062,-1.2138602416992186,-50.0,48.74809160305343,12.198473282442748,-7.505822204589843,-0.6823474731445313,3.840299462890625,34.916030534351144,59.083969465648856,30.519083969465647,0.0
14.18000054359436,-2.798821740722656,-4.4819455078125,-0.689530078125,-47.267175572519086,58.88549618320611,1.0381679389312977,-9.579200842285156,-2.001552587890625,7.503428002929687,33.847328244274806,54.42748091603053,20.793893129770993,0.0
14.190001010894775,-2.7437551025390623,-5.415684155273437,-1.3862427612304686,-35.954198473282446,68.07633587786259,-4.580152671755725,-10.903194360351561,-3.5865140869140624,8.93755479736328,48.12213740458015,36.80916030534351,12.931297709923664,0.0
14.200000524520874,-2.128445275878906,-6.445190869140625,-2.0159177978515626,-21.572519083969464,84.04580152671755,-12.01526717557252,-9.550470422363281,1.1061211669921875,6.995857250976562,37.19083969465649,16.80916030534351,5.297709923664122,0.0
14.21000075340271,-1.8507178833007811,-5.609614489746093,-1.7956512451171873,-6.183206106870229,98.59541984732824,-19.801526717557252,-7.884106066894531,3.2728736694335936,5.066130712890625,6.458015267175573,8.274809160305344,5.282442748091603,0.0
14.220000505447388,-3.0454245117187497,-3.8187516479492185,0.6272808349609375,-7.099236641221374,107.23664122137404,-26.977099236641223,-10.151415039062499,-0.16280571289062498,7.750030773925781,6.152671755725191,-1.5419847328244274,19.358778625954198,0.0
14.230000734329224,-4.223371728515625,-3.744531396484375,3.6272155151367187,0.7175572519083969,113.3587786259542,-29.603053435114504,-9.457096557617186,1.3958195678710936,5.68862314453125,7.206106870229007,-15.221374045801527,21.786259541984734,0.0
14.240000247955322,-5.793968017578124,-4.297591979980469,8.01818135986328,11.267175572519085,113.1145038167939,-30.366412213740457,-4.920084411621094,3.31357509765625,2.829946362304687,-11.251908396946565,-21.068702290076335,16.641221374045802,0.0
14.250000715255737,-8.420407238769531,-3.0406361083984375,12.248735693359373,37.20610687022901,109.95419847328245,-30.106870229007633,-3.6200329101562496,2.327164013671875,1.5538368774414062,-23.923664122137403,-19.61832061068702,14.061068702290076,0.0
14.260000467300415,-13.136984509277344,6.9910688476562495,14.79856046142578,52.18320610687023,97.90839694656489,-25.893129770992367,-6.076483813476562,-1.0989385620117187,2.8275521606445313,-33.93893129770992,-14.13740458015267,13.526717557251908,0.0
14.270000696182251,-16.27338868408203,11.077971081542968,14.417882397460936,62.87022900763359,95.05343511450381,-5.801526717557252,-5.260061047363281,-3.6631285400390623,2.4899697265625,-36.68702290076336,-11.938931297709924,9.755725190839694,0.0
14.280000686645508,-11.17852755126953,12.097900988769531,10.364498986816406,47.908396946564885,62.152671755725194,1.6946564885496183,-9.107543115234375,-4.908113403320312,4.029441394042968,-26.53435114503817,-13.740458015267176,4.442748091603053,0.0
14.290000915527344,-12.174515441894531,7.668627917480468,10.141838232421874,47.17557251908397,43.70992366412214,5.923664122137405,-10.338162768554687,-5.2648494506835934,3.881000891113281,-13.969465648854962,-26.198473282442748,2.519083969465649,0.0
14.300000667572021,-8.17141026611328,2.1260510742187497,4.235342736816406,91.90839694656489,33.05343511450382,21.587786259541986,-12.627019555664061,-5.372588525390625,5.7700260009765625,-0.8549618320610687,-26.0,6.259541984732825,0.0
14.310000658035278,-8.092401611328125,1.7357962036132812,0.32082302246093747,111.32824427480917,34.595419847328245,32.38167938931298,-11.726799731445311,-3.835511059570312,4.398148449707031,21.84732824427481,-39.89312977099237,10.381679389312977,0.0
14.320001125335693,-8.508992700195313,4.905719201660156,-4.61602080078125,67.17557251908397,30.99236641221374,31.0381679389313,-11.482591162109374,-2.2290017456054687,4.094084838867187,27.083969465648856,-43.587786259541986,12.274809160305344,0.0
14.330000400543213,-14.027627526855468,8.520963708496094,4.331110803222656,11.526717557251908,32.656488549618324,38.045801526717554,-9.090783703613281,1.7812860351562498,2.1835119140624997,14.702290076335878,-44.900763358778626,11.19083969465649,0.0
14.340000867843628,-15.447389111328125,2.5809493896484375,13.426682910156249,-20.33587786259542,19.541984732824428,52.97709923664122,-11.640608471679688,-0.12210428466796874,2.3965958618164063,10.961832061068701,-35.05343511450382,15.938931297709924,0.0
14.350000619888306,-18.126500769042966,-4.505887524414062,23.104046020507813,-5.679389312977099,14.427480916030534,53.17557251908397,-12.540828295898438,-2.9831752685546875,4.987122058105468,23.022900763358777,-35.74045801526717,20.30534351145038,0.0
14.360000610351562,-19.723433276367185,-1.0869675537109373,13.314155432128905,-29.31297709923664,-18.717557251908396,27.51145038167939,-13.409923498535155,-2.442085693359375,6.4092778442382805,34.51908396946565,-42.61068702290076,13.969465648854962,0.0
14.37000060081482,-18.885462695312498,0.5770026000976562,4.472368701171875,-57.343511450381676,-36.48854961832061,10.442748091603054,-13.275848205566405,-1.4939818359375,5.204994409179688,39.11450381679389,-55.89312977099237,6.396946564885496,0.0
14.380000591278076,-12.617442749023438,-7.81467421875,-2.8730419921875,-41.52671755725191,-38.47328244274809,2.7938931297709924,-15.002067602539062,-1.2401964599609374,6.160280871582031,40.18320610687023,-65.70992366412214,2.3053435114503817,0.0
14.390000343322754,-7.46272657470703,-10.450690246582031,-5.595249279785156,18.03053435114504,-9.541984732824428,-8.80916030534351,-14.152126013183594,1.2401964599609374,3.5194764404296874,24.137404580152673,-82.74809160305344,-3.572519083969466,0.0
14.40000057220459,-2.9448680419921875,-6.179434484863281,-6.835445739746094,68.09160305343511,20.53435114503817,-18.045801526717558,-19.56062756347656,-2.375048046875,6.059724401855468,15.694656488549619,-82.01526717557252,-4.473282442748092,0.0
14.410000562667847,-3.447650390625,0.009576806640625,-6.315903979492187,94.91603053435115,50.87022900763359,-23.206106870229007,-18.370709338378905,-2.310404602050781,1.8818425048828125,15.84732824427481,-103.52671755725191,-7.862595419847328,0.0
14.420000553131104,-6.912060192871094,6.928819604492187,-4.546588952636719,80.45801526717557,65.6030534351145,-24.900763358778626,-19.891027392578124,-1.3862427612304686,1.8004396484374998,20.85496183206107,-106.3969465648855,-14.15267175572519,0.0
14.43000054359436,-9.830592016601562,9.437942944335937,-1.407790576171875,60.06106870229008,72.30534351145039,-15.419847328244275,-17.26937657470703,-0.603338818359375,0.8786720092773437,17.755725190839694,-101.87786259541984,-18.48854961832061,0.0
14.440000534057617,-12.301408129882812,9.289502441406249,0.2537853759765625,17.099236641221374,65.45038167938931,-10.15267175572519,-12.150573425292968,1.0678139404296874,-2.674323254394531,-2.1068702290076335,-96.94656488549619,-36.30534351145038,0.0
14.450000286102295,-15.607800622558592,8.719682446289061,2.3678654418945313,-19.374045801526716,58.534351145038165,-5.404580152671755,-12.143390820312499,0.3232172241210937,-2.43250888671875,-4.687022900763359,-82.8854961832061,-40.82442748091603,0.0
14.460000276565552,-14.19282744140625,6.380547424316406,2.288856787109375,-54.900763358778626,38.88549618320611,-1.6793893129770991,-9.131485131835937,2.2936451904296873,-2.6791116577148437,-0.0916030534351145,-67.02290076335878,-36.79389312977099,0.0
14.470000743865967,-13.050793249511718,1.62805712890625,0.93852705078125,-72.38167938931298,25.83206106870229,0.07633587786259542,-8.034940771484374,2.8658593872070313,-1.8555062866210936,11.938931297709924,-44.29007633587786,-28.580152671755727,0.0
14.480000257492065,-13.153743920898437,-0.1149216796875,0.7134720947265625,-73.23664122137404,21.66412213740458,-3.8931297709923665,-8.652644799804687,0.7852981445312499,0.181959326171875,18.549618320610687,-21.52671755725191,-23.404580152671755,0.0
14.490000486373901,-11.44667813720703,-1.6208745239257811,0.3112462158203125,-65.61832061068702,17.404580152671755,-8.076335877862595,-6.4475850708007805,4.469974499511719,-1.838746875,11.557251908396946,-14.106870229007633,-30.9618320610687,0.0
14.500000238418579,-11.29344923095703,-1.1875240234375,0.11731588134765625,-59.93893129770992,20.68702290076336,-9.938931297709924,-7.79552060546875,3.258508459472656,1.5729904907226562,7.541984732824427,7.526717557251908,-25.83206106870229,0.0
14.510000705718994,-8.779537487792968,-1.8626888916015625,-0.8403647827148437,-52.2442748091603,24.717557251908396,-11.389312977099237,-8.176198669433592,3.289633081054687,1.216254443359375,11.877862595419847,9.893129770992367,-19.328244274809162,0.0
14.520000457763672,-9.251195214843749,-0.9074024291992187,-0.5722141967773438,-45.587786259541986,30.38167938931298,-15.48091603053435,-8.154650854492187,3.306392492675781,2.6719290527343746,16.625954198473284,10.396946564885496,-13.068702290076336,0.0
14.530000686645508,-7.453149768066406,-2.77727392578125,-2.085349645996094,-29.709923664122137,37.05343511450382,-13.893129770992367,-7.908048083496094,4.333505004882812,1.3742717529296875,12.106870229007633,5.022900763358779,-11.038167938931299,0.0
14.540000438690186,-6.399701037597656,-3.4332851806640625,-2.0733786376953125,0.015267175572519083,54.93129770992366,-15.114503816793894,-9.564835632324218,2.770091320800781,3.327940307617187,7.236641221374046,7.603053435114504,-7.312977099236641,0.0
14.550000667572021,-6.1459156616210935,-2.482787121582031,-1.3527239379882812,16.35114503816794,59.23664122137404,-20.65648854961832,-9.057264880371093,2.6312276245117188,3.208230224609375,2.16793893129771,6.854961832061068,-5.221374045801527,0.0
14.560000658035278,-9.30147344970703,0.3399766357421875,1.2306196533203124,20.763358778625953,66.27480916030534,-27.801526717557252,-9.047688073730468,2.281674182128906,2.834734765625,3.5419847328244276,0.732824427480916,-3.404580152671756,0.0
14.570000410079956,-10.87925234375,2.2385785522460937,2.0470424194335934,13.709923664122137,61.847328244274806,-28.870229007633586,-13.685256689453125,1.5083470458984374,5.530605834960937,8.717557251908397,-7.709923664122138,-2.0,0.0
14.58000111579895,-12.593500732421875,4.101267443847656,4.422090466308593,5.267175572519084,58.35114503816794,-27.480916030534353,-14.281412902832031,-2.8275521606445313,7.881711865234375,27.206106870229007,-8.931297709923664,0.5954198473282443,0.0
14.590000629425049,-9.677363110351562,0.44532150878906246,1.879448303222656,0.916030534351145,44.458015267175576,-20.65648854961832,-7.989450939941406,2.806004345703125,1.1923124267578125,28.748091603053435,-41.55725190839695,-8.82442748091603,0.0
14.600001096725464,-12.325350146484375,3.864241479492187,3.928884924316406,-0.8549618320610687,39.725190839694655,-20.458015267175572,-11.841721411132811,0.373495458984375,5.837063647460937,27.603053435114504,-39.98473282442748,-8.396946564885496,0.0
14.610001564025879,-9.030928662109375,2.5809493896484375,2.9448680419921875,-1.6641221374045803,35.66412213740458,-18.27480916030534,-9.533711010742186,0.354341845703125,5.238513232421875,19.64885496183206,-47.64885496183206,-7.862595419847328,0.0
14.62000060081482,-9.251195214843749,5.374982727050781,3.725377783203125,-23.52671755725191,25.633587786259543,-17.862595419847327,-11.841721411132811,-1.4101847778320311,7.505822204589843,18.580152671755727,-48.74809160305343,-7.557251908396947,0.0
14.630000591278076,-11.106701501464842,4.76924970703125,3.840299462890625,-39.55725190839695,18.83969465648855,-14.473282442748092,-7.414842541503906,-1.0702081420898437,2.923320227050781,18.458015267175572,-76.70229007633588,-9.236641221374045,0.0
14.640000581741333,-11.456254943847656,4.407725256347656,4.024652990722656,-45.83206106870229,13.450381679389313,-8.916030534351146,-8.75320126953125,0.009576806640625,3.864241479492187,19.893129770992367,-82.76335877862596,-12.641221374045802,0.0
14.65000057220459,-9.631873278808593,2.461239306640625,3.1124621582031247,-52.94656488549618,9.19083969465649,-3.786259541984733,-7.184999182128906,-0.3112462158203125,2.4396914916992185,26.870229007633586,-94.8854961832061,-13.587786259541986,0.0
14.660000324249268,-11.168950744628905,3.938461730957031,3.459621398925781,-59.603053435114504,7.343511450381679,-3.49618320610687,-6.957550024414062,-0.00239420166015625,3.296815686035156,26.03053435114504,-88.76335877862596,-14.625954198473282,0.0
14.670000553131104,-9.658209497070311,2.2098481323242187,1.8195932617187498,-68.93129770992367,-0.4580152671755725,0.9923664122137404,-7.848193041992187,0.8259995727539062,2.2936451904296873,30.259541984732824,-90.73282442748092,-12.427480916030534,0.0
14.68000054359436,-9.004592443847656,1.120486376953125,1.2880804931640624,-57.11450381679389,3.267175572519084,3.7099236641221376,-6.562506750488281,0.8714894042968749,3.4811692138671875,20.213740458015266,-73.32824427480917,-12.854961832061068,0.0
14.690000534057617,-7.048529687499999,0.5482721801757812,0.5291185668945312,-49.45038167938932,7.633587786259542,3.7404580152671754,-4.441244079589843,1.879448303222656,3.5601778686523438,5.038167938931298,-53.31297709923664,-9.083969465648854,0.0
14.700000524520874,-8.468291271972657,0.3232172241210937,0.4429273071289062,-45.786259541984734,15.679389312977099,2.5343511450381677,-3.8953661010742184,1.2617442749023438,2.5737667846679684,0.6259541984732825,-42.18320610687023,-6.2748091603053435,0.0
14.710000276565552,-8.70771143798828,0.9624690673828125,0.7206546997070312,-30.198473282442748,27.419847328244273,-0.07633587786259542,-2.683900061035156,2.4133552734375,1.8602946899414061,-11.312977099236642,-27.358778625954198,-7.4961832061068705,0.0
14.720000743865967,-10.359710583496094,3.189076611328125,1.7477672119140624,-36.2442748091603,29.984732824427482,-1.6946564885496183,-5.528211633300781,0.584185205078125,3.651157531738281,-14.442748091603054,-11.297709923664122,-5.511450381679389,0.0
14.730000734329224,-11.128249316406249,0.8547299926757812,1.465251416015625,-30.12213740458015,33.541984732824424,1.3740458015267176,-8.001421948242188,-0.2537853759765625,4.149151477050781,-9.465648854961833,-12.80916030534351,-3.1603053435114505,0.0
14.740000486373901,-9.380482104492186,-0.5195417602539062,1.0606313354492187,-14.259541984732824,36.83969465648855,2.6412213740458017,-6.4356140625,1.2832920898437499,3.6152445068359373,-7.572519083969466,-12.83969465648855,-5.9541984732824424,0.0
14.750000476837158,-9.504980590820312,-0.5698199951171875,1.0726023437499999,-4.931297709923665,39.49618320610687,-0.7786259541984732,-7.896077075195312,1.1468225952148436,4.608838195800781,-6.396946564885496,-6.0458015267175576,-3.877862595419847,0.0
14.760000944137573,-9.593566052246093,0.1580173095703125,1.1085153686523437,2.564885496183206,40.48854961832061,-4.595419847328245,-5.370194323730469,2.085349645996094,2.365471240234375,-17.0381679389313,-5.557251908396947,-5.145038167938932,0.0
14.770000696182251,-10.421959826660157,1.458068811035156,1.9680337646484374,4.870229007633588,43.17557251908397,-5.312977099236641,-5.310339282226562,1.3958195678710936,2.9759926635742184,-25.557251908396946,9.221374045801527,-2.1374045801526718,0.0
14.780000448226929,-9.519345800781249,1.2737152832031249,2.231395947265625,3.282442748091603,40.213740458015266,-5.038167938931298,-5.499481213378906,1.6448165405273436,1.7812860351562498,-36.13740458015267,11.450381679389313,0.44274809160305345,0.0
14.790000677108765,-10.230423693847655,2.4779987182617185,2.4396914916992185,-0.6106870229007634,37.847328244274806,-4.702290076335878,-3.430890979003906,3.794809631347656,1.2737152832031249,-54.68702290076336,29.938931297709924,0.366412213740458,0.0
