timestamp,Thigh_L_Acc_X,Thigh_L_Acc_Y,Thigh_L_Acc_Z,Thigh_L_Gyr_X,Thigh_L_Gyr_Y,Thigh_L_Gyr_Z,Thigh_R_Acc_X,Thigh_R_Acc_Y,Thigh_R_Acc_Z,Thigh_R_Gyr_X,Thigh_R_Gyr_Y,Thigh_R_Gyr_Z,gpio_output
10.000000238418579,-9.162609753417968,-1.2401964599609374,1.3287819213867187,25.099236641221374,13.786259541984732,2.0610687022900764,-9.471461767578125,1.5777788940429687,1.6112977172851561,13.007633587786259,12.274809160305344,7.343511450381679,0.0
10.010000467300415,-9.60793126220703,1.0342951171875,1.8028338500976562,28.076335877862597,12.67175572519084,-0.732824427480916,-9.974244116210937,1.848323681640625,1.8555062866210936,10.580152671755725,13.221374045801527,7.740458015267175,1.0
10.020000696182251,-11.037269653320312,2.7533319091796873,2.221819140625,15.816793893129772,7.236641221374046,-3.66412213740458,-10.357316381835936,1.9201497314453124,1.9871873779296874,8.458015267175572,13.374045801526718,8.366412213740459,1.0
10.030000686645508,-9.600748657226562,1.5969325073242187,1.687912170410156,17.31297709923664,4.366412213740458,-0.8854961832061069,-10.237606298828124,1.5442600708007812,2.1906945190429687,4.427480916030534,12.091603053435115,9.801526717557252,1.0
10.040000438690186,-10.721235034179687,3.2249896362304686,1.5801730957031248,7.893129770992366,2.6412213740458017,-1.5572519083969465,-10.467449658203124,0.9816226806640624,2.231395947265625,1.9236641221374047,10.82442748091603,10.732824427480915,1.0
10.050005674362183,-9.4618849609375,2.3391350219726563,0.5410895751953124,1.6793893129770991,0.4580152671755725,1.8473282442748091,-9.871293444824218,0.8738836059570312,1.6448165405273436,-1.1755725190839694,9.038167938931299,11.389312977099237,1.0
10.060000658035278,-9.79946739501953,2.6503812377929687,0.3758896606445312,-3.2213740458015265,3.618320610687023,1.6793893129770991,-10.453084448242187,0.4333505004882812,1.3215993164062498,-3.5267175572519083,8.427480916030534,11.648854961832061,1.0
10.070000886917114,-9.366116894531249,2.499546533203125,0.19632453613281248,-9.404580152671755,6.900763358778626,2.381679389312977,-10.228029492187499,0.6392518432617187,1.0606313354492187,-4.427480916030534,6.351145038167939,10.13740458015267,1.0
10.080000638961792,-10.014945544433592,2.789244934082031,0.24181436767578124,-15.664122137404581,9.282442748091603,2.2442748091603053,-10.488997473144531,0.2442085693359375,1.0702081420898437,-5.923664122137405,6.152671755725191,9.84732824427481,1.0
10.090015172958374,-9.583989245605467,1.8004396484374998,0.39264907226562495,-18.549618320610687,10.687022900763358,3.435114503816794,-10.196904870605469,0.2609679809570312,0.6847416748046875,-7.3893129770992365,4.351145038167939,8.702290076335878,1.0
10.100000381469727,-9.986215124511718,1.4006079711914061,0.6679822631835937,-18.47328244274809,13.435114503816793,2.595419847328244,-10.338162768554687,-0.0143652099609375,0.622492431640625,-8.473282442748092,4.076335877862595,8.366412213740459,1.0
10.110007524490356,-9.737218151855469,1.3144167114257812,1.0630255371093749,-18.9618320610687,14.549618320610687,1.5114503816793894,-10.172962854003906,0.07900865478515624,0.6153098266601562,-8.13740458015267,3.8625954198473282,7.526717557251908,1.0
10.12000060081482,-10.065223779296874,1.3024457031249999,1.1755530151367186,-23.114503816793892,10.65648854961832,1.450381679389313,-10.273519323730468,0.29448680419921874,0.679953271484375,-7.0534351145038165,4.656488549618321,8.274809160305344,1.0
10.130000591278076,-9.787496386718749,0.4429273071289062,1.8650830932617186,-21.450381679389313,10.15267175572519,2.2900763358778624,-9.49300958251953,0.8978256225585937,0.4572925170898437,-7.038167938931298,4.793893129770993,8.183206106870228,1.0
10.140000581741333,-10.62307276611328,-0.29927520751953124,1.7429788085937499,-14.83969465648855,8.198473282442748,2.4122137404580153,-9.758765966796874,0.8164227661132812,0.7278373046875,-5.587786259541985,9.022900763358779,8.977099236641221,1.0
10.150000810623169,-9.878476049804688,-0.3950432739257812,1.1875240234375,-7.603053435114504,6.442748091603053,1.1297709923664123,-8.810662109374999,1.2018892333984375,0.5291185668945312,-5.068702290076335,10.549618320610687,8.198473282442748,1.0
10.160000562667847,-10.445901843261717,1.3263877197265623,2.068590234375,-3.969465648854962,10.885496183206106,-2.4885496183206106,-8.678981018066406,0.8762778076171874,0.5793968017578125,-3.2519083969465647,12.625954198473282,8.931297709923664,1.0
10.17015266418457,-8.911218579101561,0.5003881469726562,1.0749965454101562,-1.6030534351145038,9.282442748091603,-0.33587786259541985,-9.13627353515625,0.9552864624023437,0.9648632690429687,-0.061068702290076333,14.625954198473282,9.251908396946565,1.0
10.180001020431519,-9.129090930175781,1.4508862060546874,0.8044517578125,1.1450381679389312,12.885496183206106,-2.4885496183206106,-9.287108239746093,0.7781155395507812,1.0702081420898437,0.6259541984732825,15.801526717557252,9.740458015267176,1.0
10.190000534057617,-8.662221606445312,2.003946789550781,0.7350199096679687,-4.137404580152672,13.083969465648854,-2.9618320610687023,-9.126696728515624,1.177947216796875,1.024718310546875,1.6488549618320612,15.16030534351145,8.610687022900763,1.0
10.200000286102295,-9.011775048828124,2.636016027832031,0.8499415893554687,-7.358778625954199,14.748091603053435,-2.6564885496183206,-9.686939916992188,0.7996633544921875,1.35990654296875,1.3129770992366412,14.732824427480915,10.244274809160306,1.0
10.210128545761108,-10.290278735351562,3.756502404785156,1.68551796875,-17.251908396946565,13.83206106870229,-2.0916030534351147,-9.639055883789062,0.8092401611328125,1.4221557861328125,-0.22900763358778625,12.946564885496183,10.427480916030534,0.0
10.220000743865967,-10.371681591796875,2.559401574707031,1.5849614990234373,-20.458015267175572,10.198473282442748,2.595419847328244,-9.80665,0.7062894897460937,1.6927005737304686,-3.5419847328244276,11.114503816793894,11.725190839694656,0.0
10.230000495910645,-8.951920007324219,1.8124106567382812,1.6208745239257811,-17.34351145038168,7.0534351145038165,6.534351145038168,-9.97903251953125,0.3687070556640625,2.0925322509765625,-7.786259541984733,9.404580152671755,11.053435114503817,0.0
10.24000072479248,-8.05648858642578,1.5442600708007812,2.020706201171875,-13.145038167938932,7.038167938931298,7.8320610687022905,-10.326191760253906,-0.07900865478515624,2.731784094238281,-7.251908396946565,8.50381679389313,10.80916030534351,0.0
10.250000476837158,-8.188169677734374,0.6679822631835937,1.8938135131835936,-10.641221374045802,4.595419847328245,7.9541984732824424,-10.556035119628906,-0.2442085693359375,3.1004911499023438,-5.7251908396946565,4.687022900763359,8.961832061068701,0.0
10.260000705718994,-9.495403784179686,0.7948749511718749,2.636016027832031,-2.885496183206107,8.244274809160306,6.702290076335878,-10.536881506347656,-0.6536170532226562,3.4093431640625,-3.267175572519084,1.1297709923664123,7.648854961832061,0.0
10.270000696182251,-10.716446630859375,1.7238251953125,2.925714428710937,-7.740458015267175,6.229007633587786,5.114503816793893,-10.864887133789061,-1.216254443359375,3.778050219726562,1.7709923664122138,-3.8625954198473282,6.1679389312977095,0.0
10.280000448226929,-10.417171423339843,0.7709329345703124,2.427720483398437,-6.732824427480916,2.1068702290076335,5.114503816793893,-10.443507641601562,-1.180341418457031,4.019864587402344,4.900763358778626,-10.900763358778626,5.129770992366412,0.0
10.290000438690186,-9.821015209960937,0.076614453125,1.879448303222656,-1.6641221374045803,0.3511450381679389,3.9236641221374047,-11.310208642578125,-1.20667763671875,3.402160559082031,12.274809160305344,-19.908396946564885,2.2748091603053435,0.0
10.300000429153442,-9.085995300292968,-0.09337386474609374,1.235408056640625,5.068702290076335,-0.15267175572519084,1.5572519083969465,-11.425130322265625,-0.32082302246093747,3.9504327392578125,16.48854961832061,-27.84732824427481,-1.4045801526717556,0.0
10.310089826583862,-9.057264880371093,0.4908113403320312,0.7924807495117187,9.725190839694656,0.9770992366412213,-0.42748091603053434,-10.68053360595703,0.06943184814453125,4.199429711914062,11.16030534351145,-36.030534351145036,-4.091603053435114,0.0
10.320000648498535,-8.743624462890624,1.5825672973632812,0.7326257080078125,9.938931297709924,4.549618320610687,-1.1145038167938932,-8.79150849609375,1.6927005737304686,2.89219560546875,3.5877862595419847,-42.229007633587784,-5.969465648854962,0.0
10.330000877380371,-8.923189587402343,2.6982652709960937,0.6727706665039062,3.9236641221374047,7.755725190839694,-0.6564885496183206,-9.648632690429688,0.4572925170898437,3.3590649291992185,-6.5038167938931295,-41.38931297709924,-3.954198473282443,0.0
10.34000039100647,-9.083601098632812,2.27927998046875,0.45010991210937495,-4.305343511450381,9.114503816793894,1.3587786259541985,-10.862492932128905,-1.9225439331054686,4.259284753417968,1.3893129770992367,-42.82442748091603,-2.854961832061069,0.0
10.350000858306885,-9.244012609863281,2.4779987182617185,0.14125789794921875,-9.465648854961833,7.8320610687022905,0.9465648854961832,-11.891999645996092,-1.8914193115234375,4.6639048339843745,18.106870229007633,-56.01526717557252,-8.442748091603054,0.0
10.360000848770142,-11.394005700683593,3.009511486816406,1.5131354492187499,-14.595419847328245,12.778625954198473,-1.9083969465648856,-9.859322436523437,1.01514150390625,4.335899206542969,13.053435114503817,-65.96946564885496,-16.595419847328245,0.0
10.37028694152832,-9.737218151855469,2.4349030883789062,1.43652099609375,-19.908396946564885,10.16793893129771,-0.1984732824427481,-10.955866796875,0.3112462158203125,4.302380383300781,4.244274809160306,-65.32824427480917,-17.6793893129771,0.0
10.380000591278076,-9.631873278808593,1.7549498168945312,1.467645617675781,-23.6793893129771,9.679389312977099,-0.0916030534351145,-12.919112158203124,-1.0295067138671874,4.6255976074218745,15.618320610687023,-76.12213740458016,-18.076335877862597,0.0
10.390000581741333,-9.351751684570312,1.3311761230468748,1.2737152832031249,-19.740458015267176,10.564885496183207,-0.7786259541984732,-11.602301245117188,1.0031704956054688,4.932055419921875,11.404580152671755,-82.0,-21.358778625954198,0.0
10.40000033378601,-9.835380419921874,1.5873557006835937,1.0438719238281249,-19.236641221374047,10.305343511450381,0.24427480916030533,-12.289437121582031,0.22505495605468748,4.448426684570312,10.534351145038167,-85.09923664122137,-21.81679389312977,0.0
10.410000562667847,-8.777143286132812,0.8116343627929687,0.7876923461914062,-14.900763358778626,10.687022900763358,0.366412213740458,-10.9175595703125,1.1851298217773436,3.9791631591796874,9.404580152671755,-90.21374045801527,-22.061068702290076,0.0
10.420000314712524,-9.852139831542969,1.656787548828125,0.8978256225585937,-10.82442748091603,12.610687022900763,0.5648854961832062,-11.116278308105468,0.4644751220703125,3.5960908935546874,13.068702290076336,-93.46564885496183,-19.587786259541986,0.0
10.430025339126587,-9.435548742675781,1.9608511596679685,1.0845733520507812,-7.9541984732824424,12.80916030534351,0.24427480916030533,-10.065223779296874,1.4173673828125,3.1028853515624997,9.34351145038168,-94.58015267175573,-18.99236641221374,0.0
10.440000534057617,-9.789890588378906,2.0350714111328125,1.1635820068359375,-6.977099236641221,11.572519083969466,0.4580152671755725,-10.544064111328124,1.6831237670898436,2.8562825805664063,9.923664122137405,-95.37404580152672,-20.35114503816794,0.0
10.450000524520874,-9.82580361328125,1.838746875,1.0558429321289062,-5.923664122137405,10.442748091603054,0.04580152671755725,-9.763554370117188,2.1499930908203124,3.191470812988281,0.24427480916030533,-91.66412213740458,-20.793893129770993,0.0
10.460000276565552,-10.062829577636718,1.7501614135742187,0.9935936889648437,-8.305343511450381,10.458015267175572,-0.3816793893129771,-10.184933862304687,1.438915197753906,2.9496564453125,0.366412213740458,-89.08396946564885,-19.083969465648856,0.0
10.470000743865967,-9.725247143554688,1.6543933471679686,0.7829039428710937,-8.274809160305344,10.442748091603054,-1.8778625954198473,-8.690952026367187,1.3144167114257812,2.375048046875,-5.038167938931298,-89.19083969465649,-19.129770992366414,0.0
10.480000734329224,-10.27830772705078,1.7381904052734374,0.6751648681640625,-10.65648854961832,10.534351145038167,-2.885496183206107,-9.009380847167968,1.2569558715820313,2.3127988037109373,0.12213740458015267,-85.70992366412214,-16.610687022900763,0.0
10.490000486373901,-9.763554370117188,1.5610194824218748,0.5985504150390625,-11.297709923664122,10.946564885496183,-3.3893129770992365,-7.098807922363281,2.319981408691406,0.36152445068359373,-7.114503816793893,-81.45038167938931,-18.53435114503817,0.0
10.500000476837158,-10.036493359375,1.8195932617187498,0.7852981445312499,-12.50381679389313,11.633587786259541,-4.244274809160306,-6.811503723144531,1.5179238525390624,0.9552864624023437,-14.625954198473282,-70.13740458015268,-15.786259541984732,0.0
10.510000705718994,-9.560047229003906,1.6543933471679686,1.0079588989257813,-15.053435114503817,11.938931297709924,-4.595419847328245,-9.169792358398437,0.852335791015625,1.7262193969726563,-6.656488549618321,-61.64885496183206,-11.816793893129772,0.0
10.520000696182251,-9.356540087890625,1.455674609375,0.9457096557617187,-13.083969465648854,11.526717557251908,-5.374045801526718,-5.949591125488281,3.8139632446289062,-1.0726023437499999,-15.053435114503817,-59.587786259541986,-15.236641221374045,0.0
10.530000925064087,-9.299079248046874,1.697488977050781,0.8954314208984374,-10.564885496183207,12.412213740458014,-5.786259541984733,-6.83783994140625,4.2880151733398435,-1.1420341918945311,-30.015267175572518,-41.099236641221374,-11.236641221374045,0.0
10.540000438690186,-9.727641345214844,2.4396914916992185,1.4724340209960938,-12.51908396946565,13.404580152671755,-5.816793893129771,-8.12113203125,2.0302830078125,0.04548983154296875,-38.56488549618321,-25.572519083969464,-6.702290076335878,0.0
10.550000667572021,-9.68454571533203,2.6767174560546874,1.668758557128906,-10.091603053435115,11.282442748091603,-4.030534351145038,-9.22485899658203,0.41419688720703124,0.565031591796875,-34.30534351145038,-18.137404580152673,-5.297709923664122,0.0
10.560000896453857,-10.002974536132811,2.4516625,1.8363526733398436,-6.290076335877862,11.19083969465649,-1.9389312977099236,-8.532934716796875,0.5003881469726562,0.5865794067382812,-29.633587786259543,-16.732824427480917,-7.709923664122138,0.0
10.570001125335693,-9.78031378173828,2.3295582153320313,1.5921441040039062,-3.3587786259541983,10.213740458015268,-1.8778625954198473,-8.59997236328125,-0.105344873046875,1.6041151123046875,-24.244274809160306,-11.526717557251908,-8.80916030534351,0.0
10.580000400543213,-9.246406811523437,2.2385785522460937,1.1947066284179686,-4.091603053435114,10.381679389312977,-2.717557251908397,-7.376535314941406,0.4285620971679687,1.2904746948242187,-23.236641221374047,-10.183206106870228,-11.923664122137405,0.0
10.590000629425049,-8.798691101074219,2.454056701660156,1.199495031738281,-6.6106870229007635,10.244274809160306,-4.320610687022901,-8.456320263671875,-0.19153613281249998,2.454056701660156,-17.389312977099237,-4.809160305343512,-11.709923664122137,0.0
10.600000619888306,-8.74601866455078,2.4899697265625,1.0965443603515623,-10.458015267175572,10.83969465648855,-5.236641221374046,-8.180987072753906,-0.17238251953125,2.7365724975585937,-14.076335877862595,-2.198473282442748,-12.0,0.0
10.610000848770142,-9.3086560546875,2.4684219116210935,1.0845733520507812,-12.16793893129771,12.16793893129771,-4.961832061068702,-7.876923461914062,-0.105344873046875,2.8036101440429686,-11.572519083969466,-1.0229007633587786,-12.702290076335878,0.0
10.62000060081482,-9.2320416015625,2.5234885498046875,1.0079588989257813,-13.725190839694656,11.969465648854962,-3.9389312977099236,-7.991845141601562,-0.4165910888671875,2.961627453613281,-6.091603053435114,-0.0916030534351145,-12.442748091603054,0.0
10.630000591278076,-8.743624462890624,2.109291662597656,0.9121908325195311,-12.977099236641221,11.816793893129772,-2.427480916030534,-8.482656481933594,-0.34715924072265625,3.2130186279296873,-0.6870229007633588,2.885496183206107,-10.82442748091603,0.0
10.640000581741333,-9.56962403564453,2.104503259277344,1.6543933471679686,-8.793893129770993,15.664122137404581,-4.534351145038168,-7.237671618652343,0.33758243408203126,2.779668127441406,1.3129770992366412,3.3740458015267176,-11.404580152671755,0.0
10.65000033378601,-9.885658654785155,2.7365724975585937,1.867477294921875,-11.465648854961833,18.778625954198475,-7.32824427480916,-7.864952453613281,-0.17238251953125,3.2609026611328122,7.465648854961832,5.32824427480916,-9.725190839694656,0.0
10.660000801086426,-10.153809240722655,2.281674182128906,1.618480322265625,-12.213740458015268,17.72519083969466,-6.351145038167939,-7.232883215332031,0.04548983154296875,3.440467785644531,8.977099236641221,6.99236641221374,-8.50381679389313,0.0
10.670000553131104,-10.931924780273437,1.7836802368164062,2.04943662109375,-11.755725190839694,16.18320610687023,-5.816793893129771,-7.584830859375,0.34715924072265625,3.469198205566406,10.870229007633588,6.488549618320611,-7.786259541984733,0.0
10.68000054359436,-10.8409451171875,2.0757728393554684,2.511517541503906,-9.129770992366412,13.648854961832061,-6.015267175572519,-6.928819604492187,0.8762778076171874,3.0980969482421874,6.152671755725191,7.32824427480916,-8.01526717557252,0.0
10.690000534057617,-9.449913952636718,1.6232687255859375,2.6767174560546874,-3.9389312977099236,7.709923664122138,-4.106870229007634,-6.593631372070312,2.042254016113281,2.499546533203125,-1.0229007633587786,9.694656488549619,-7.251908396946565,0.0
10.700000762939453,-9.737218151855469,0.9217676391601562,2.099714855957031,-4.198473282442748,2.732824427480916,-4.106870229007634,-7.560888842773437,1.2928688964843749,3.172317199707031,-8.580152671755725,16.916030534351144,-3.6793893129770994,0.0
10.710000276565552,-9.10993731689453,0.10295067138671875,2.0661960327148434,-1.6488549618320612,-1.7709923664122138,-5.145038167938932,-7.295132458496093,0.9720458740234375,3.019088293457031,-14.793893129770993,21.083969465648856,-1.5877862595419847,0.0
10.720000982284546,-8.449137658691406,0.34715924072265625,2.252943762207031,3.2977099236641223,-4.2748091603053435,-7.312977099236641,-7.067683300781249,0.44053310546874996,3.277662072753906,-21.64885496183206,25.129770992366414,-1.251908396946565,0.0
10.730000495910645,-8.504204296874999,0.8954314208984374,2.2290017456054687,7.129770992366412,-6.305343511450381,-9.099236641221374,-6.421248852539062,-0.4860229370117187,2.473210314941406,-14.076335877862595,21.099236641221374,-1.4809160305343512,0.0
10.740000486373901,-8.02536396484375,1.5682020874023437,2.5043349365234375,11.251908396946565,-9.83206106870229,-10.213740458015268,-5.600037683105469,0.258573779296875,2.252943762207031,-20.48854961832061,26.35114503816794,-4.67175572519084,0.0
10.750000238418579,-8.537723120117187,1.9871873779296874,3.019088293457031,15.969465648854962,-12.732824427480915,-8.259541984732824,-5.327098693847656,0.1771709228515625,1.7214309936523438,-22.18320610687023,27.84732824427481,-4.641221374045801,0.0
10.760000705718994,-8.200140686035155,1.5490484741210937,3.0741549316406247,19.64885496183206,-16.916030534351144,-6.351145038167939,-6.196193896484375,-0.4836287353515625,2.2960393920898436,-16.549618320610687,29.17557251908397,-2.9160305343511452,0.0
10.770000696182251,-6.902483386230468,0.3232172241210937,3.2728736694335936,25.84732824427481,-21.389312977099237,-5.099236641221374,-7.086836914062499,-0.5195417602539062,3.5434184570312497,-14.076335877862595,32.82442748091603,-2.9770992366412212,0.0
10.780000686645508,-6.9527616210937495,-0.3495534423828125,2.8562825805664063,27.404580152671755,-27.236641221374047,-7.129770992366412,-6.64630380859375,-0.12210428466796874,3.7301661865234372,-14.717557251908397,32.12213740458015,-4.458015267175573,0.0
10.790000677108765,-7.108384729003906,0.00718260498046875,3.2704794677734372,25.862595419847327,-33.038167938931295,-10.091603053435115,-4.632780212402343,-0.4955997436523437,4.1563340820312495,-15.221374045801527,30.15267175572519,-5.4961832061068705,0.0
10.800000667572021,-7.113173132324218,0.1149216796875,4.082113830566406,27.6793893129771,-39.37404580152672,-11.34351145038168,-4.685452648925781,0.3112462158203125,4.472368701171875,-20.763358778625953,32.97709923664122,-6.0,0.0
10.810000658035278,-6.4643444824218745,-0.2059013427734375,4.661510632324219,30.0,-44.79389312977099,-10.916030534351146,-2.729389892578125,1.0702081420898437,3.8283284545898435,-37.267175572519086,37.05343511450382,-5.511450381679389,0.0
10.820000410079956,-7.896077075195312,0.01915361328125,4.728548278808593,23.633587786259543,-53.343511450381676,-12.320610687022901,-3.9336733276367184,-1.6232687255859375,4.819527941894531,-42.458015267175576,44.36641221374046,-0.7633587786259542,0.0
10.83000111579895,-8.432378247070313,0.08379705810546874,5.116408947753906,18.977099236641223,-62.3206106870229,-15.938931297709924,-3.421314172363281,-1.2832920898437499,5.398924743652343,-45.282442748091604,45.343511450381676,-0.8702290076335878,0.0
10.840000629425049,-8.106766821289062,-0.8786720092773437,5.49708701171875,20.259541984732824,-76.19847328244275,-18.80916030534351,-1.2282254516601563,1.5370774658203123,4.216189123535156,-72.7175572519084,43.969465648854964,-1.6793893129770991,0.0
10.850000858306885,-9.095572106933593,-1.458068811035156,6.157886669921875,24.9618320610687,-91.48091603053435,-21.83206106870229,-1.9488801513671874,-1.944091748046875,4.039018200683594,-94.8854961832061,51.12977099236641,-3.786259541984733,0.0
10.860000371932983,-11.372457885742186,0.00239420166015625,7.766790185546874,21.51145038167939,-108.01526717557252,-27.49618320610687,-5.552153649902343,-5.9783215454101555,2.0159177978515626,-104.7175572519084,66.29007633587786,-16.65648854961832,0.0
10.87000060081482,-13.340491650390625,-0.6512228515624999,6.773196496582031,22.53435114503817,-129.25190839694656,-24.65648854961832,-7.644685900878906,-6.332663391113281,-10.345345373535155,-64.30534351145039,67.17557251908397,-31.129770992366414,0.0
10.880000829696655,-16.352397338867185,-0.10773907470703124,6.698976245117187,25.587786259541986,-144.90076335877862,-24.82442748091603,-15.234305163574218,0.40222587890625,-9.205705383300781,1.5267175572519085,78.45801526717557,-25.84732824427481,0.0
10.890000581741333,-20.029891088867185,0.6344634399414062,6.1626750732421876,28.977099236641223,-165.72519083969465,-22.442748091603054,-34.15807508544922,3.6559459350585937,7.034164477539062,20.35114503816794,86.7175572519084,-39.23664122137404,0.0
10.90000033378601,-23.427263244628904,2.50912333984375,0.5195417602539062,39.70992366412214,-181.32824427480915,-15.435114503816793,-39.22540289916992,-4.929661218261718,22.768857788085935,-35.02290076335878,58.48854961832061,-70.8854961832061,0.0
10.910000562667847,-22.63238829345703,4.527435339355469,-2.5450363647460934,66.79389312977099,-168.76335877862596,3.3282442748091605,-39.22540289916992,-4.853046765136718,13.778630554199218,8.473282442748092,-13.053435114503817,-29.61832061068702,0.0
10.920000314712524,-22.30677686767578,12.04762275390625,-4.50109912109375,43.908396946564885,-157.0229007633588,21.633587786259543,-14.875174914550781,10.436325036621094,1.8291700683593748,92.50381679389314,-70.01526717557252,43.02290076335878,0.0
10.930000305175781,-18.81603084716797,7.769184387207031,-5.533000036621093,4.625954198473282,-156.06106870229007,47.69465648854962,-8.564059338378906,7.989450939941406,-5.88015927734375,65.46564885496183,-66.99236641221374,67.63358778625954,0.0
10.940000295639038,-23.230938708496094,7.977479931640625,-4.027047192382812,-36.85496183206107,-133.96946564885496,48.99236641221374,-2.990357873535156,4.601655590820312,-11.628637463378906,10.748091603053435,-48.68702290076336,38.30534351145038,0.0
10.950000524520874,-19.15840168457031,2.4396914916992185,-1.7094599853515624,-54.3206106870229,-120.27480916030534,56.58015267175573,2.1619640991210938,1.7693150268554687,-12.998120812988281,-42.01526717557252,-12.244274809160306,5.297709923664122,0.0
10.96000075340271,-13.414711901855467,-1.6400281372070311,-0.9169792358398436,-28.229007633587788,-97.52671755725191,59.14503816793893,0.12210428466796874,-5.906495495605468,-10.481814868164061,-58.091603053435115,24.458015267175572,-4.625954198473282,0.0
10.970000743865967,-10.556035119628906,-1.8722656982421875,-1.0941501586914062,-7.847328244274809,-69.69465648854961,48.0763358778626,-8.89924757080078,-12.418724011230468,-5.743689782714843,-23.84732824427481,48.595419847328245,-4.977099236641221,0.0
10.980000972747803,-8.611943371582031,-2.020706201171875,-1.8698714965820311,6.916030534351145,-46.70229007633588,39.32824427480916,-14.405911389160156,-11.291055029296874,-1.1085153686523437,31.770992366412212,56.091603053435115,-2.3053435114503817,0.0
10.990000247955322,-8.300697155761718,-0.076614453125,-1.5298948608398437,11.34351145038168,-25.358778625954198,33.541984732824424,-13.287819213867186,-6.4092778442382805,0.6440402465820312,57.29770992366412,51.93893129770992,-2.2290076335877864,0.0
11.000000238418579,-9.437942944335937,2.7246014892578123,-0.143652099609375,-18.717557251908396,-15.312977099236642,27.923664122137403,-13.012486022949219,-0.9816226806640624,2.540247961425781,68.29007633587786,50.44274809160305,2.717557251908397,0.0
11.010000705718994,-7.6231380859375,1.2880804931640624,-0.689530078125,-49.70992366412214,-13.908396946564885,31.6793893129771,-11.511321582031249,5.272032055664062,2.3151930053710936,59.49618320610687,50.10687022900763,12.091603053435115,0.0
11.020000457763672,-5.097255334472656,-0.6751648681640625,-0.8403647827148437,-66.19847328244275,-1.6030534351145038,34.229007633587784,-11.314997045898437,5.118803149414062,4.2521021484374995,43.64885496183206,56.93129770992366,27.129770992366414,0.0
11.030000686645508,-2.9376854370117185,-3.5697546752929687,-0.8858546142578124,-84.85496183206106,6.1679389312977095,31.46564885496183,-11.06360587158203,3.306392492675781,4.271255761718749,46.916030534351144,47.43511450381679,35.221374045801525,0.0
11.040000438690186,-1.6927005737304686,-5.293579870605469,-0.1867477294921875,-83.72519083969466,15.572519083969466,22.99236641221374,-7.977479931640625,5.406107348632812,2.7557261108398436,27.541984732824428,40.67175572519084,31.206106870229007,0.0
11.050000667572021,-0.9121908325195311,-6.8402341430664055,-0.41419688720703124,-73.8473282442748,23.19083969465649,13.022900763358779,-7.343016491699219,3.1483751831054687,3.3446997192382812,-0.030534351145038167,49.038167938931295,30.793893129770993,0.0
11.060000658035278,-0.51714755859375,-7.3861121215820305,-0.9959878906249999,-68.53435114503817,30.916030534351144,-2.183206106870229,-9.038111267089842,-2.6048914062499997,4.833893151855468,7.923664122137405,44.412213740458014,34.93129770992366,0.0
11.070000886917114,-1.0941501586914062,-8.21690009765625,-1.8507178833007811,-52.67175572519084,41.19083969465649,-15.236641221374045,-8.997409838867187,-2.1260510742187497,4.266467358398438,19.633587786259543,31.984732824427482,30.16793893129771,0.0
11.080000638961792,-1.6232687255859375,-7.419630944824219,-2.370259643554687,-28.977099236641223,50.152671755725194,-26.366412213740457,-7.1035963256835934,-0.105344873046875,3.1842882080078123,11.038167938931299,25.16030534351145,20.38167938931298,0.0
11.090000629425049,-2.123656872558594,-6.0908490234374995,-2.0566192260742184,-2.5343511450381677,64.01526717557252,-34.778625954198475,-5.724536169433593,0.1149216796875,2.3415292236328122,-4.290076335877862,24.870229007633586,15.923664122137405,0.0
11.100000619888306,-1.956062756347656,-4.414907861328125,-0.9911994873046874,22.9618320610687,73.63358778625954,-39.465648854961835,-6.5960255737304685,-1.35990654296875,2.5139117431640625,-10.916030534351146,24.946564885496183,14.396946564885496,0.0
11.110000848770142,-3.6367923217773437,-1.9321207397460936,0.4740519287109375,39.64885496183206,83.38931297709924,-42.595419847328245,-7.970297326660156,-2.4205378784179685,3.0789433349609374,-8.13740458015267,21.068702290076335,12.16793893129771,0.0
11.12000060081482,-4.742913488769531,-0.46686932373046874,1.6304513305664061,55.66412213740458,94.10687022900764,-40.274809160305345,-9.208099584960937,-2.1787235107421874,4.094084838867187,-7.374045801526718,16.9618320610687,8.564885496183207,0.0
11.130000591278076,-6.629544396972656,1.9871873779296874,2.9472622436523435,67.58778625954199,101.72519083969466,-34.42748091603053,-10.002974536132811,-1.618480322265625,4.649539624023437,-9.618320610687023,11.709923664122137,3.9083969465648853,0.0
11.140000581741333,-8.549694128417968,5.2456958374023435,4.6351744140625,75.20610687022901,102.99236641221374,-24.18320610687023,-11.121066711425781,-1.180341418457031,4.4819455078125,-12.748091603053435,3.480916030534351,0.7633587786259542,0.0
11.15000057220459,-11.02529864501953,7.524975817871093,7.685387329101562,74.04580152671755,95.69465648854961,-8.305343511450381,-11.575965026855467,-1.149216796875,3.9791631591796874,-16.83969465648855,-5.786259541984733,-0.5343511450381679,0.0
11.160000562667847,-14.456189624023436,9.605537060546874,12.090718383789062,68.03053435114504,79.0381679389313,3.1908396946564888,-12.143390820312499,-1.2042834350585936,3.766079211425781,-17.801526717557252,-15.526717557251908,0.015267175572519083,0.0
11.170000553131104,-15.16966171875,5.781997009277344,11.008539233398437,65.23664122137404,50.18320610687023,21.17557251908397,-12.057199560546874,-1.9321207397460936,3.3303345092773435,-16.641221374045802,-22.931297709923665,3.2519083969465647,0.0
11.180000305175781,-16.021997509765622,8.52335791015625,8.233659509277343,60.42748091603053,34.51908396946565,31.389312977099237,-9.935936889648437,-3.3446997192382812,2.3439234252929686,-17.099236641221374,-29.801526717557252,4.748091603053435,0.0
11.190000534057617,-19.390639245605467,11.010933435058593,2.96881005859375,11.022900763358779,20.15267175572519,38.33587786259542,-8.923189587402343,-4.292803576660156,0.6631938598632812,-10.259541984732824,-31.770992366412212,2.0916030534351147,0.0
11.200000762939453,-19.91257520751953,6.7037646484375,0.5578489868164063,-33.06870229007634,10.366412213740459,43.74045801526717,-8.856151940917968,-4.015076184082031,-0.19153613281249998,-5.038167938931298,-30.99236641221374,-0.732824427480916,0.0
11.21000051498413,-19.08178723144531,0.028730419921875,5.05655390625,-53.3587786259542,-8.854961832061068,33.847328244274806,-10.522516296386717,-4.465186096191406,0.4740519287109375,4.259541984732825,-23.297709923664122,-5.343511450381679,0.0
11.220000505447388,-14.367604162597656,-3.19865341796875,7.000645654296875,-42.091603053435115,-18.412213740458014,21.87786259541985,-10.481814868164061,-3.2417490478515623,0.3327940307617187,22.50381679389313,-24.412213740458014,-13.32824427480916,0.0
11.230000495910645,-10.271125122070313,-2.3630770385742186,4.292803576660156,-43.66412213740458,-20.82442748091603,8.900763358778626,-11.326968054199218,0.009576806640625,0.047884033203124995,35.80152671755725,-22.213740458015266,-16.732824427480917,0.0
11.24000072479248,-6.782773303222656,-3.5960908935546874,1.3311761230468748,-39.847328244274806,-15.908396946564885,4.809160305343512,-12.624625354003905,2.5546131713867184,-0.6488286499023437,38.93129770992366,-11.694656488549619,-10.549618320610687,0.0
11.250000476837158,-5.066130712890625,-5.600037683105469,-1.158793603515625,-33.48091603053435,-8.610687022900763,2.030534351145038,-11.295843432617186,3.9456443359374997,-2.5857377929687497,38.79389312977099,-12.595419847328245,-3.5877862595419847,0.0
11.260000705718994,-4.173093493652344,-7.888894470214844,-2.8706477905273435,-15.938931297709924,4.870229007633588,-2.8702290076335877,-11.391611499023437,3.9600095458984375,-1.369483349609375,30.763358778625953,-0.4580152671755725,7.893129770992366,0.0
11.270000696182251,-4.062960217285156,-10.374075793457031,-3.0071172851562498,19.84732824427481,21.19083969465649,-5.541984732824427,-12.129025610351562,2.3319524169921872,-1.3311761230468748,31.557251908396946,1.0076335877862594,14.106870229007633,0.0
11.280000686645508,-4.127603662109375,-9.275137231445312,-1.68551796875,73.14503816793894,42.51908396946565,-12.229007633587786,-10.13226142578125,2.987963671875,-1.0271125122070313,21.709923664122137,2.9770992366412212,13.786259541984732,0.0
11.290000677108765,-8.111555224609374,-2.920926025390625,-0.3902548706054687,110.58015267175573,61.6793893129771,-19.801526717557252,-8.571241943359375,2.748543505859375,-1.4700398193359374,11.038167938931299,6.748091603053435,12.717557251908397,0.0
11.300000667572021,-10.46984385986328,3.086125939941406,0.39743747558593745,121.66412213740458,68.8854961832061,-21.64885496183206,-9.95987890625,0.7948749511718749,-0.8762778076171874,9.694656488549619,13.312977099236642,16.30534351145038,0.0
11.310001134872437,-12.418724011230468,7.134720947265625,1.429338391113281,107.34351145038168,69.48091603053435,-21.69465648854962,-8.085219006347655,-1.6831237670898436,-0.16280571289062498,12.213740458015268,11.908396946564885,16.076335877862597,0.0
11.320000648498535,-11.513715783691406,7.589619262695312,2.176329309082031,77.89312977099236,59.404580152671755,-20.82442748091603,-6.5577183471679685,-0.0526724365234375,0.2920926025390625,9.786259541984732,14.549618320610687,12.091603053435115,0.0
11.330000877380371,-12.370839978027343,8.197746484375,2.4396914916992185,44.229007633587784,54.534351145038165,-22.83969465648855,-8.020575561523437,-0.9050082275390624,0.6248866333007812,6.488549618320611,23.587786259541986,12.748091603053435,0.0
11.340000629425049,-10.594342346191405,7.536946826171874,2.6431986328124997,2.6717557251908395,44.229007633587784,-20.80916030534351,-9.442731347656249,-1.9416975463867185,1.3551181396484375,15.129770992366412,25.709923664122137,11.129770992366412,0.0
11.350000858306885,-9.866505041503906,5.755660791015624,1.9800047729492187,-19.099236641221374,33.221374045801525,-15.129770992366412,-9.009380847167968,-1.01514150390625,2.0877438476562498,20.85496183206107,20.931297709923665,5.526717557251908,0.0
11.360000610351562,-8.94473740234375,4.007893579101562,1.8842367065429686,-32.06106870229008,25.84732824427481,-6.778625954198473,-11.133037719726563,0.6536170532226562,2.013523596191406,20.015267175572518,19.328244274809162,2.1068702290076335,0.0
11.37000060081482,-9.011775048828124,2.6719290527343746,1.9105729248046874,-34.6412213740458,24.671755725190838,2.213740458015267,-9.296685046386719,2.1164742675781247,1.1324573852539062,13.068702290076336,11.038167938931299,-0.7938931297709924,0.0
11.380000352859497,-9.79946739501953,2.8945898071289062,1.9536685546875,-42.091603053435115,17.267175572519083,7.435114503816794,-11.429918725585937,2.4971523315429685,2.3391350219726563,9.786259541984732,12.610687022900763,3.450381679389313,0.0
11.390000581741333,-8.99501563720703,-0.29448680419921874,1.4915876342773438,-39.38931297709924,13.709923664122137,13.526717557251908,-12.23915888671875,1.43652099609375,2.980781066894531,8.442748091603054,10.091603053435115,9.435114503816793,0.0
11.40000057220459,-8.741230261230468,-1.3263877197265623,1.4101847778320311,-25.66412213740458,16.244274809160306,12.992366412213741,-12.138602416992187,1.656787548828125,3.0741549316406247,3.2061068702290076,8.793893129770993,12.396946564885496,0.0
11.410000324249268,-9.852139831542969,-0.7852981445312499,2.003946789550781,-20.045801526717558,15.969465648854962,9.053435114503817,-10.345345373535155,1.9129671264648436,1.3024457031249999,10.305343511450381,-1.8931297709923665,11.603053435114504,0.0
11.420000553131104,-10.17056865234375,-1.0726023437499999,1.3838485595703125,-9.969465648854962,13.572519083969466,5.648854961832061,-9.452308154296874,2.9472622436523435,1.8052280517578123,0.9465648854961832,-1.2213740458015268,11.938931297709924,0.0
11.430000305175781,-10.225635290527343,-0.833182177734375,1.917755529785156,-0.32061068702290074,12.427480916030534,4.595419847328245,-8.755595471191405,2.8131869506835936,0.4740519287109375,-9.938931297709924,0.2595419847328244,12.396946564885496,0.0
11.440000534057617,-9.86411083984375,-0.47165772705078124,1.5634136840820312,9.511450381679388,11.022900763358779,2.3969465648854964,-9.038111267089842,2.020706201171875,0.9145850341796874,-15.16030534351145,3.66412213740458,13.770992366412214,0.0
11.450000524520874,-9.873687646484374,0.16519991455078123,0.86191259765625,15.694656488549619,9.465648854961833,0.8396946564885496,-9.165003955078124,1.4053963745117186,0.7757213378906249,-17.099236641221374,5.236641221374046,14.625954198473282,0.0
11.460000991821289,-9.557653027343749,1.0749965454101562,1.3383587280273437,26.366412213740457,14.458015267175572,-1.083969465648855,-8.769960681152343,1.2689268798828124,0.603338818359375,-19.69465648854962,7.877862595419847,13.664122137404581,0.0
11.470000505447388,-10.82179150390625,3.6200329101562496,1.6065093139648436,21.206106870229007,14.82442748091603,-4.213740458015267,-9.208099584960937,-0.13407529296874998,0.8068459594726562,-19.69465648854962,12.16793893129771,13.099236641221374,0.0
11.480000734329224,-11.786654772949218,5.149927770996094,1.649604943847656,10.473282442748092,14.213740458015268,-4.213740458015267,-10.939107385253905,-1.5610194824218748,1.6017209106445311,-6.67175572519084,12.885496183206106,12.290076335877863,0.0
11.490000486373901,-10.266336718749999,4.754884497070313,0.70868369140625,-1.2061068702290076,10.687022900763358,-0.07633587786259542,-10.27830772705078,-1.0678139404296874,1.3096283081054687,-1.7709923664122138,9.816793893129772,9.221374045801527,0.0
11.500000476837158,-9.782707983398437,3.438073583984375,0.0143652099609375,-13.86259541984733,7.190839694656488,4.320610687022901,-10.326191760253906,-0.7254431030273437,1.0319009155273438,1.9236641221374047,8.106870229007633,7.236641221374046,0.0
11.510000467300415,-9.658209497070311,2.463633508300781,-0.02633621826171875,-19.31297709923664,9.786259541984732,5.374045801526718,-10.560823522949217,-0.7829039428710937,1.2880804931640624,5.7251908396946565,7.343511450381679,6.580152671755725,0.0
11.520000457763672,-10.072406384277343,2.1619640991210938,0.2705447875976562,-25.84732824427481,11.801526717557252,4.427480916030534,-11.010933435058593,-0.16280571289062498,1.47482822265625,9.740458015267176,6.412213740458015,6.152671755725191,0.0
11.530000448226929,-10.129867224121092,1.8171990600585937,0.6200982299804687,-27.740458015267176,13.587786259541986,3.7099236641221376,-10.867281335449219,0.3136404174804687,1.6903063720703124,11.954198473282442,4.412213740458015,7.587786259541985,0.0
11.540000677108765,-10.326191760253906,1.158793603515625,0.6703764648437499,-29.068702290076335,14.213740458015268,2.9923664122137406,-10.493785876464843,1.20667763671875,1.2665326782226562,12.045801526717558,2.0610687022900764,8.427480916030534,0.0
11.550000667572021,-9.79946739501953,0.39983167724609375,0.8643067993164062,-25.34351145038168,15.374045801526718,2.3206106870229006,-9.866505041503906,1.8938135131835936,1.0917559570312498,9.49618320610687,2.6717557251908395,8.916030534351146,0.0
11.560000658035278,-9.579200842285156,0.1292868896484375,1.0031704956054688,-19.603053435114504,16.091603053435115,0.6870229007633588,-9.476250170898437,2.310404602050781,0.842758984375,4.702290076335878,3.4198473282442747,8.961832061068701,0.0
11.570000886917114,-9.835380419921874,-0.12210428466796874,1.1707646118164061,-14.534351145038167,15.007633587786259,0.13740458015267176,-9.490615380859374,2.360682836914062,0.8906430175781249,1.3282442748091603,6.061068702290076,9.908396946564885,0.0
11.580000638961792,-9.962273107910155,-0.1484405029296875,1.3168109130859373,-9.312977099236642,13.98473282442748,-0.22900763358778625,-9.581595043945311,2.0781670410156248,1.0989385620117187,-3.9389312977099236,8.259541984732824,10.335877862595419,0.0
11.590000867843628,-9.682151513671874,0.3591302490234375,1.3934253662109375,-2.763358778625954,12.564885496183207,-0.9923664122137404,-9.291896643066405,1.8124106567382812,1.0773907470703123,-11.053435114503817,9.251908396946565,10.198473282442748,0.0
11.600000619888306,-10.419565624999999,1.6256629272460936,1.6112977172851561,-2.6106870229007635,12.229007633587786,-2.0610687022900764,-9.583989245605467,1.37906015625,0.9648632690429687,-15.083969465648854,10.717557251908397,10.259541984732824,0.0
11.610000848770142,-10.20169327392578,2.7246014892578123,1.917755529785156,-5.435114503816794,10.183206106870228,-2.030534351145038,-9.457096557617186,1.1540052001953125,0.8738836059570312,-17.923664122137403,10.67175572519084,10.13740458015267,0.0
11.62000060081482,-9.449913952636718,2.3965958618164063,1.7262193969726563,-6.809160305343512,8.091603053435115,1.099236641221374,-9.694122521972655,0.7589619262695312,0.8786720092773437,-18.442748091603054,10.473282442748092,10.381679389312977,0.0
11.630000591278076,-8.343792785644531,2.636016027832031,1.1252747802734375,-9.908396946564885,5.1603053435114505,3.4198473282442747,-9.926360083007811,0.4213794921875,1.0941501586914062,-17.404580152671755,9.755725190839694,10.366412213740459,0.0
11.640000581741333,-9.488221179199218,2.858676782226562,1.6017209106445311,-13.801526717557252,7.083969465648855,4.076335877862595,-10.005368737792969,0.09816226806640624,1.5059528442382812,-14.793893129770993,9.251908396946565,10.16793893129771,0.0
11.65000057220459,-10.261548315429687,2.4301146850585935,1.5777788940429687,-17.709923664122137,5.6183206106870225,5.175572519083969,-10.01733974609375,-0.009576806640625,1.62805712890625,-12.80916030534351,7.435114503816794,9.618320610687023,0.0
11.660000324249268,-9.394847314453125,1.6615759521484375,1.1540052001953125,-12.458015267175572,7.190839694656488,6.366412213740458,-10.041281762695311,-0.5889736083984375,1.6927005737304686,-9.251908396946565,6.854961832061068,9.86259541984733,0.0
11.670000314712524,-10.084377392578125,2.7198130859375,1.484405029296875,-19.389312977099237,8.183206106870228,3.5114503816793894,-10.168174450683592,-0.42377369384765623,1.6328455322265625,-4.534351145038168,4.8396946564885495,8.687022900763358,0.0
11.68000054359436,-9.131485131835937,0.9457096557617187,0.8355763793945312,-18.396946564885496,5.9541984732824424,5.419847328244275,-10.089165795898436,-0.5530605834960938,1.7645266235351562,-0.22900763358778625,3.969465648854962,7.969465648854962,0.0
11.690000534057617,-9.325415466308593,0.8978256225585937,1.0773907470703123,-15.206106870229007,9.251908396946565,4.290076335877862,-9.986215124511718,-0.6584054565429687,1.9225439331054686,2.3053435114503817,1.816793893129771,7.099236641221374,0.0
11.700000762939453,-9.399635717773437,0.8930372192382812,1.1827356201171875,-13.908396946564885,9.34351145038168,3.5114503816793894,-9.888052856445311,-0.13407529296874998,2.023100402832031,5.511450381679389,0.8396946564885496,4.702290076335878,0.0
11.710000276565552,-9.311050256347656,0.6464344482421874,0.9576806640625,-11.34351145038168,8.305343511450381,3.7251908396946565,-10.249577307128906,0.2705447875976562,1.7980454467773437,7.4961832061068705,-2.5801526717557253,2.732824427480916,0.0
11.720000743865967,-9.251195214843749,0.8403647827148437,1.1324573852539062,-7.587786259541985,8.091603053435115,3.49618320610687,-9.624690673828125,1.0295067138671874,2.269703173828125,-0.6564885496183206,-2.1068702290076335,2.351145038167939,0.0
11.730000495910645,-9.622296472167967,1.0654197387695312,1.0630255371093749,-6.198473282442748,8.274809160305344,4.412213740458015,-9.756371765136718,0.36631285400390623,2.2266075439453124,-1.6030534351145038,-1.2213740458015268,3.7251908396946565,0.0
11.74000072479248,-9.871293444824218,1.1707646118164061,1.0917559570312498,-5.251908396946565,7.786259541984733,4.549618320610687,-9.861716638183593,-0.031124621582031248,2.583343591308594,0.4580152671755725,-3.9389312977099236,4.122137404580153,0.0
11.750000476837158,-10.062829577636718,0.622492431640625,1.0965443603515623,-1.6641221374045803,8.213740458015268,4.458015267175573,-11.592724438476562,-1.4125789794921875,3.806780639648437,7.908396946564886,-5.297709923664122,5.190839694656488,0.0
11.760000467300415,-9.811438403320311,0.5434837768554687,1.0486603271484374,0.48854961832061067,8.0,2.7022900763358777,-11.480196960449218,-0.35194764404296874,4.000710974121094,11.969465648854962,-11.725190839694656,2.9160305343511452,0.0
11.770000696182251,-9.3086560546875,0.9528922607421875,0.9696516723632812,0.8091603053435115,5.572519083969466,1.6793893129770991,-11.650185278320311,-0.6631938598632812,3.6272155151367187,11.129770992366412,-16.427480916030536,1.1450381679389312,0.0
11.780000448226929,-9.41639512939453,0.4477157104492187,0.6919242797851562,0.8854961832061069,5.938931297709924,1.0076335877862594,-12.868833923339842,-2.6695348510742187,4.857835168457031,19.374045801526716,-20.83969465648855,0.7938931297709924,0.0
11.790000677108765,-9.490615380859374,0.5099649536132812,0.5770026000976562,5.00763358778626,7.877862595419847,-0.9923664122137404,-11.317391247558593,-1.1516109985351561,4.017470385742187,23.908396946564885,-38.6412213740458,-7.877862595419847,0.0
11.8000009059906,-9.306261853027344,1.2641384765625,0.3232172241210937,6.931297709923665,9.48091603053435,-1.8625954198473282,-8.975862023925782,1.0342951171875,3.385401147460937,9.511450381679388,-45.89312977099237,-13.725190839694656,0.0
11.8100004196167,-9.119514123535156,2.5043349365234375,0.44053310546874996,2.015267175572519,11.251908396946565,-1.2061068702290076,-10.402806213378906,0.033518823242187495,3.5817256835937497,3.3282442748091605,-41.083969465648856,-8.625954198473282,0.0
11.820000648498535,-9.749189160156249,2.8754361938476563,0.9552864624023437,-7.816793893129771,11.954198473282442,-0.6412213740458015,-11.875240234375,-2.370259643554687,4.335899206542969,12.916030534351146,-46.47328244274809,-6.961832061068702,0.0
11.830000877380371,-9.447519750976562,1.9416975463867185,0.833182177734375,-9.297709923664122,10.854961832061068,-0.2900763358778626,-11.487379565429686,-0.42377369384765623,3.9504327392578125,16.885496183206108,-60.18320610687023,-15.511450381679388,0.0
11.840000629425049,-9.1554271484375,1.47482822265625,0.7948749511718749,-8.458015267175572,9.709923664122137,1.083969465648855,-10.182539660644531,1.7118541870117185,3.5817256835937497,3.5419847328244276,-61.25190839694657,-18.106870229007633,0.0
11.850000858306885,-9.792284790039062,1.3623007446289062,1.0965443603515623,-12.396946564885496,10.244274809160306,1.1145038167938932,-12.394781994628906,-1.7477672119140624,5.6215854980468745,12.320610687022901,-57.083969465648856,-13.358778625954198,0.0
11.860000610351562,-10.012551342773437,0.488417138671875,1.3646949462890625,-13.038167938931299,9.312977099236642,-0.3053435114503817,-12.995726611328124,-0.9959878906249999,4.637568615722656,26.48854961832061,-74.19847328244275,-22.564885496183205,0.0
11.87000060081482,-10.000580334472655,0.2609679809570312,1.350329736328125,-5.450381679389313,8.793893129770993,-2.045801526717557,-10.735600244140624,1.6352397338867186,4.88417138671875,18.106870229007633,-80.68702290076335,-25.603053435114504,0.0
11.880000591278076,-9.866505041503906,0.48123453369140623,1.1755530151367186,-3.145038167938931,7.709923664122138,-3.633587786259542,-11.259930407714844,0.5267243652343749,4.740519287109374,16.244274809160306,-84.3206106870229,-24.641221374045802,0.0
11.890000581741333,-9.667786303710937,0.430956298828125,1.0223241088867188,-2.122137404580153,7.66412213740458,-6.67175572519084,-10.04846436767578,2.4851813232421875,3.5122938354492184,9.572519083969466,-91.83206106870229,-26.80916030534351,0.0
11.90000057220459,-10.043675964355469,0.8882488159179687,0.74699091796875,1.099236641221374,8.0,-8.549618320610687,-10.673351000976561,1.5442600708007812,3.0526071166992184,11.618320610687023,-94.94656488549619,-24.80916030534351,0.0
11.910000562667847,-9.509768994140625,1.6136919189453125,0.6392518432617187,2.7938931297709924,8.916030534351146,-9.053435114503817,-10.206481677246094,1.3646949462890625,2.7054478759765623,8.473282442748092,-95.69465648854961,-23.46564885496183,0.0
11.920000553131104,-10.340556970214843,2.731784094238281,0.7254431030273437,-0.9923664122137404,9.587786259541986,-8.82442748091603,-9.349357482910156,1.8243816650390623,1.484405029296875,5.893129770992366,-100.4885496183206,-23.801526717557252,0.0
11.93000054359436,-10.28549033203125,4.386177441406249,1.0965443603515623,-7.022900763358779,9.404580152671755,-8.106870229007633,-8.820238916015624,1.419761584472656,2.6288334228515624,-0.9007633587786259,-93.66412213740458,-20.900763358778626,0.0
11.940000534057617,-9.325415466308593,3.749319799804687,0.8188169677734375,-14.458015267175572,6.916030534351145,-4.0458015267175576,-8.84178673095703,1.8219874633789062,1.5969325073242187,-0.07633587786259542,-93.00763358778626,-17.404580152671755,0.0
11.950000286102295,-9.45470235595703,3.749319799804687,0.8547299926757812,-17.389312977099237,6.305343511450381,-2.549618320610687,-6.988674645996094,2.3343466186523436,0.4070142822265625,-13.786259541984732,-86.2442748091603,-17.862595419847327,0.0
11.96000075340271,-11.137826123046874,3.7229835815429686,1.7693150268554687,-27.66412213740458,5.526717557251908,-2.122137404580153,-6.902483386230468,2.5665841796874997,-0.18914193115234373,-18.0,-76.01526717557252,-16.18320610687023,0.0
11.970000505447388,-8.176198669433592,1.7214309936523438,0.6272808349609375,-25.297709923664122,-1.83206106870229,2.2900763358778624,-6.653486413574218,3.366247534179687,-1.0295067138671874,-29.862595419847327,-60.80916030534351,-14.702290076335878,0.0
11.980000734329224,-7.970297326660156,0.2705447875976562,0.5626373901367188,-17.633587786259543,1.0076335877862594,3.236641221374046,-7.8338278320312495,1.7262193969726563,0.39743747558593745,-28.580152671755727,-44.85496183206107,-9.98473282442748,0.0
11.990000247955322,-10.153809240722655,1.3910311645507811,1.4221557861328125,-13.419847328244275,6.244274809160306,-2.7480916030534353,-8.427589843749999,1.1324573852539062,-0.49799394531249996,-22.30534351145038,-38.961832061068705,-10.717557251908397,0.0
12.000000238418579,-10.51533369140625,1.5011644409179687,1.7262193969726563,-8.244274809160306,5.0534351145038165,-4.5038167938931295,-7.702146740722656,1.1061211669921875,0.28012159423828126,-24.625954198473284,-30.580152671755727,-12.320610687022901,0.0
12.010000705718994,-9.464279162597656,0.7900865478515624,1.5705962890624998,-0.4580152671755725,3.7251908396946565,-3.969465648854962,-8.652644799804687,0.09576806640624999,1.1133037719726562,-29.587786259541986,-18.213740458015266,-12.473282442748092,0.0
12.020000696182251,-9.200916979980468,1.3000515014648437,1.3072341064453123,2.900763358778626,4.106870229007634,-5.3893129770992365,-6.667851623535156,0.5817910034179687,-0.5434837768554687,-28.85496183206107,-16.045801526717558,-15.938931297709924,0.0
12.030000925064087,-9.236830004882812,1.9871873779296874,1.3575123413085937,4.9465648854961835,5.251908396946565,-6.793893129770993,-8.851363537597656,-0.7278373046875,1.8531120849609375,-16.12213740458015,-4.824427480916031,-13.908396946564885,0.0
12.040000677108765,-8.999804040527343,2.389413256835937,1.1540052001953125,5.0534351145038165,5.557251908396947,-7.129770992366412,-7.723694555664062,-0.39983167724609375,1.7884686401367187,-12.748091603053435,-1.4198473282442747,-15.511450381679388,0.0
12.050000667572021,-9.248801013183593,2.8467057739257813,0.9026140258789062,4.106870229007634,5.038167938931298,-6.595419847328245,-7.577648254394531,-0.04548983154296875,1.9752163696289062,-8.580152671755725,-0.07633587786259542,-16.03053435114504,0.0
12.0600004196167,-9.361328491210937,3.2034418212890623,1.0726023437499999,0.10687022900763359,5.450381679389313,-5.877862595419847,-7.44357296142578,-0.22505495605468748,2.231395947265625,-4.33587786259542,3.7404580152671754,-16.0,0.0
12.070000886917114,-9.469067565917967,3.447650390625,1.2832920898437499,-4.885496183206107,4.885496183206107,-4.564885496183206,-7.321468676757812,-0.40222587890625,2.3056161987304686,0.5038167938931297,6.305343511450381,-14.83969465648855,0.0
12.080000400543213,-9.469067565917967,3.220201232910156,1.199495031738281,-9.572519083969466,4.3816793893129775,-3.450381679389313,-7.501033801269531,-0.5626373901367188,2.518700146484375,4.900763358778626,8.198473282442748,-13.877862595419847,0.0
12.090000867843628,-9.227253198242186,2.4779987182617185,1.3335703247070312,-12.748091603053435,3.3587786259541983,-2.946564885496183,-6.926425402832031,-0.13168109130859373,2.24097275390625,7.175572519083969,8.534351145038167,-13.709923664122137,0.0
12.100000381469727,-9.191340173339842,1.675941162109375,1.446097802734375,-13.633587786259541,2.9160305343511452,-3.0839694656488548,-7.297526660156249,-0.07900865478515624,2.7437551025390623,11.358778625954198,11.770992366412214,-12.198473282442748,0.0
12.110000848770142,-9.248801013183593,1.0845733520507812,1.697488977050781,-12.198473282442748,1.1908396946564885,-3.450381679389313,-6.9719152343749995,0.36152445068359373,2.7820623291015623,12.290076335877863,14.427480916030534,-12.335877862595419,0.0
12.120000839233398,-8.678981018066406,0.6081272216796875,2.0638018310546875,-7.3893129770992365,-0.8396946564885496,-3.435114503816794,-6.256048937988281,1.0295067138671874,2.3726538452148436,10.229007633587786,15.954198473282442,-11.740458015267176,0.0
12.130000591278076,-8.760383874511719,0.7661445312499999,2.521094348144531,-3.984732824427481,-4.198473282442748,-3.801526717557252,-6.373364819335937,0.7206546997070312,2.8012159423828122,7.908396946564886,19.755725190839694,-9.694656488549619,0.0
12.140000581741333,-8.547299926757812,0.689530078125,3.1962592163085937,0.6717557251908397,-8.061068702290076,-3.8625954198473282,-5.9400143188476555,0.814028564453125,2.5067291381835934,7.694656488549619,21.862595419847327,-8.076335877862595,0.0
12.15000033378601,-7.826645227050781,0.5530605834960938,3.9528269409179684,9.267175572519085,-11.419847328244275,-4.1679389312977095,-5.183446594238281,1.2617442749023438,2.2649147705078123,3.9083969465648853,25.16030534351145,-6.213740458015267,0.0
12.160000562667847,-7.058106494140625,-0.0526724365234375,3.976768957519531,17.61832061068702,-16.213740458015266,-4.061068702290076,-4.4819455078125,1.2282254516601563,2.636016027832031,-7.206106870229007,34.80916030534351,-3.648854961832061,0.0
12.170000553131104,-6.9527616210937495,-0.32561142578124996,3.976768957519531,23.389312977099237,-21.740458015267176,-5.0534351145038165,-5.671863732910156,0.6871358764648438,2.940079638671875,-10.381679389312977,42.25954198473283,0.5190839694656488,0.0
12.18000054359436,-6.706158850097656,0.1197100830078125,4.367023828124999,28.793893129770993,-26.732824427480917,-5.374045801526718,-4.955997436523437,0.7134720947265625,2.77727392578125,-10.366412213740459,44.58015267175573,1.83206106870229,0.0
12.190000534057617,-6.1842228881835934,0.031124621582031248,4.778826513671874,40.94656488549618,-32.030534351145036,-2.381679389312977,-4.2329485351562495,1.8507178833007811,2.6719290527343746,-20.3206106870229,47.343511450381676,2.564885496183206,0.0
12.200000762939453,-7.601590270996093,1.2689268798828124,5.444414575195312,44.778625954198475,-34.10687022900763,-1.1603053435114503,-4.426878869628906,1.0989385620117187,3.8139632446289062,-33.541984732824424,57.11450381679389,6.519083969465649,0.0
12.21000051498413,-7.989450939941406,1.3934253662109375,5.463568188476562,36.33587786259542,-43.93893129770992,-0.3511450381679389,-6.849810949707031,-1.8770541015625,5.178658190917968,-23.374045801526716,55.7557251908397,10.564885496183207,0.0
12.220000743865967,-8.197746484375,0.0430956298828125,5.068524914550781,35.48091603053435,-56.35114503816794,-0.7938931297709924,-5.360617517089843,-0.4572925170898437,4.905719201660156,-27.954198473282442,49.908396946564885,4.076335877862595,0.0
12.230000257492065,-8.94473740234375,0.63206923828125,5.882553479003906,37.49618320610687,-59.847328244274806,-6.442748091603053,-6.433219860839843,-2.473210314941406,6.421248852539062,-36.99236641221374,52.2442748091603,0.5190839694656488,0.0
12.24000072479248,-7.520187414550781,-0.507570751953125,5.755660791015624,35.49618320610687,-71.74045801526718,-11.725190839694656,-6.2584431396484375,-1.9776105712890624,5.377376928710937,-32.656488549618324,43.74045801526717,-6.091603053435114,0.0
12.250000238418579,-8.327033374023436,-0.26336218261718747,5.288791467285156,32.74809160305343,-84.27480916030534,-20.15267175572519,-6.356605407714843,-1.70467158203125,7.857769848632812,-48.44274809160305,46.74809160305343,-7.816793893129771,0.0
12.260000705718994,-9.325415466308593,-0.19393033447265623,5.190629199218749,26.717557251908396,-101.54198473282443,-24.82442748091603,-8.061276989746093,-1.8028338500976562,11.020510241699219,-60.82442748091603,41.32824427480916,-13.465648854961833,0.0
12.270000696182251,-11.56159981689453,0.9576806640625,5.386953735351562,22.9618320610687,-113.1145038167939,-28.213740458015266,-9.828197814941406,-3.6296097167968746,9.909600671386718,-113.23664122137404,40.0,-32.61068702290076,0.0
12.280000686645508,-14.559140295410156,3.1962592163085937,6.581660363769531,14.702290076335878,-128.18320610687022,-25.862595419847327,-8.765172277832031,-8.441955053710936,-5.568913061523437,-105.40458015267176,40.58015267175573,-32.54961832061068,0.0
12.290000677108765,-14.961366174316405,1.9776105712890624,5.370194323730469,12.488549618320612,-153.55725190839695,-16.015267175572518,-12.473790649414061,-0.9217676391601562,-14.489708447265624,-17.206106870229007,45.541984732824424,-36.0763358778626,0.0
12.300000667572021,-20.259734448242185,1.5873557006835937,5.379771130371093,23.31297709923664,-167.5114503816794,-15.038167938931299,-28.603527233886716,7.596801867675781,5.623979699707031,3.8473282442748094,59.786259541984734,-38.0,0.0
12.310000658035278,-20.32198369140625,2.2673089721679687,3.5482068603515624,39.43511450381679,-179.74045801526717,-2.4580152671755724,-39.22540289916992,-5.3007624755859375,29.113492187499997,-29.61832061068702,33.83206106870229,-58.38167938931298,0.0
12.320000410079956,-20.55661545410156,4.182670300292968,1.8770541015625,47.23664122137404,-182.53435114503816,12.83969465648855,-28.83576479492187,-7.704540942382812,11.33175645751953,3.49618320610687,-30.16793893129771,-32.396946564885496,0.0
12.330000877380371,-21.899762585449217,6.268019946289062,-0.45010991210937495,27.19083969465649,-180.9770992366412,28.99236641221374,-11.757924353027343,6.311115576171875,0.42377369384765623,77.54198473282443,-57.89312977099237,15.98473282442748,0.0
12.340000629425049,-18.52154404296875,4.367023828124999,-3.2441432495117186,6.0,-175.81679389312978,38.06106870229008,-6.186617089843749,10.433930834960936,-8.090007409667969,62.0,-65.57251908396947,44.79389312977099,0.0
12.350000858306885,-15.950171459960936,1.5801730957031248,-4.651933825683593,-0.32061068702290074,-160.4732824427481,38.79389312977099,-4.824316345214844,9.49300958251953,-7.867346655273437,-7.786259541984733,-38.47328244274809,29.480916030534353,0.0
12.360000610351562,-17.336414221191404,3.641580725097656,-1.0438719238281249,-18.076335877862597,-121.92366412213741,30.061068702290076,-3.172317199707031,0.21308394775390624,-6.380547424316406,-52.99236641221374,-6.702290076335878,9.267175572519085,0.0
12.37000060081482,-12.528857287597656,-0.7398083129882812,-2.3535002319335936,-23.129770992366414,-111.7557251908397,33.66412213740458,-5.128379956054687,-6.885723974609375,-7.333439685058593,-46.33587786259542,9.893129770992367,-3.66412213740458,0.0
12.380000352859497,-9.119514123535156,-2.4899697265625,-2.0470424194335934,9.099236641221374,-80.06106870229007,29.740458015267176,-9.548076220703125,-8.597578161621094,-4.709394665527343,-24.3206106870229,21.557251908396946,-7.312977099236641,0.0
12.390000581741333,-7.948749511718749,-0.9528922607421875,-2.023100402832031,30.0,-52.54961832061068,20.091603053435115,-13.998897106933592,-9.342174877929686,-2.7533319091796873,13.557251908396946,30.15267175572519,-8.320610687022901,0.0
12.40000033378601,-9.655815295410155,2.5665841796874997,-1.47482822265625,30.885496183206108,-29.954198473282442,11.740458015267176,-13.249511987304686,-5.446808776855469,-1.714248388671875,37.282442748091604,26.900763358778626,-7.816793893129771,0.0
12.410000562667847,-10.568006127929687,3.986345764160156,-1.20667763671875,11.725190839694656,-19.19083969465649,12.16793893129771,-12.370839978027343,-2.8012159423828122,-0.08140285644531249,50.87022900763359,33.267175572519086,1.6946564885496183,0.0
12.420000791549683,-10.36210478515625,3.7924154296875,-0.3280056274414062,-16.50381679389313,-9.450381679389313,19.19083969465649,-11.326968054199218,0.40940848388671874,0.9241618408203125,62.732824427480914,33.954198473282446,11.251908396946565,0.0
12.43000078201294,-8.8872765625,1.7741034301757812,-0.3184288208007812,-45.282442748091604,-7.435114503816794,25.557251908396946,-10.137049829101562,4.417302062988281,0.4908113403320312,52.916030534351144,36.01526717557252,15.206106870229007,0.0
12.440000295639038,-8.578424548339843,0.97683427734375,0.04548983154296875,-59.541984732824424,2.0,27.480916030534353,-8.042123376464843,6.586448767089843,-0.39743747558593745,25.770992366412212,44.2442748091603,18.458015267175572,0.0
12.450000524520874,-5.480327600097656,-1.3048399047851562,-0.6727706665039062,-65.0381679389313,8.65648854961832,27.435114503816795,-8.858546142578124,2.104503259277344,0.928950244140625,11.022900763358779,56.091603053435115,25.389312977099237,0.0
12.460000276565552,-5.011064074707031,-2.5570073730468748,-0.48123453369140623,-70.0,17.49618320610687,21.740458015267176,-8.501810095214843,-0.22026655273437498,0.6943184814453125,21.908396946564885,48.06106870229008,27.374045801526716,0.0
12.470000743865967,-3.8091748413085935,-3.9935283691406247,-1.0941501586914062,-65.06870229007633,24.9618320610687,13.435114503816793,-7.331045483398437,1.6998831787109374,0.8643067993164062,18.366412213740457,44.229007633587784,22.85496183206107,0.0
12.480000495910645,-3.0933085449218747,-3.912125512695312,-1.3934253662109375,-58.25954198473283,36.091603053435115,6.33587786259542,-7.333439685058593,1.0271125122070313,1.484405029296875,0.5801526717557252,52.62595419847328,20.732824427480917,0.0
12.490000247955322,-1.5227122558593749,-4.972756848144531,-2.04943662109375,-47.282442748091604,48.778625954198475,2.33587786259542,-9.598354455566406,-2.492363928222656,2.8467057739257813,7.862595419847328,48.50381679389313,21.64885496183206,0.0
12.500000476837158,-4.946420629882812,-1.924938134765625,-1.8842367065429686,-48.732824427480914,62.93129770992366,-10.198473282442748,-9.217676391601563,-4.328716601562499,3.6439749267578123,26.244274809160306,36.30534351145038,17.221374045801525,0.0
12.510000705718994,-0.9600748657226562,-3.9887399658203124,-2.6982652709960937,-40.61068702290076,68.47328244274809,-10.091603053435115,-6.655880615234374,-0.7924807495117187,1.675941162109375,28.732824427480917,21.480916030534353,7.709923664122138,0.0
12.520000696182251,-0.5147533569335937,-4.465186096191406,-2.085349645996094,-33.83206106870229,83.52671755725191,-16.045801526717558,-7.728482958984374,0.20829554443359374,2.9927520751953125,15.541984732824428,22.47328244274809,4.305343511450381,0.0
12.530000686645508,-1.5322890624999999,-4.766855505371093,1.0989385620117187,-24.732824427480917,96.25954198473282,-24.427480916030536,-8.832209924316405,-0.5482721801757812,4.393360046386719,8.946564885496183,23.083969465648856,2.8396946564885495,0.0
12.540000677108765,-2.291250988769531,-4.338293408203125,4.132392065429687,5.175572519083969,103.29770992366412,-26.564885496183205,-10.022128149414062,-0.181959326171875,5.410895751953125,0.8854961832061069,17.068702290076335,1.2213740458015268,0.0
12.550000667572021,-3.3782185424804685,-2.806004345703125,6.330269189453125,43.083969465648856,111.38931297709924,-24.198473282442748,-10.572794531249999,1.0797849487304687,5.865794067382812,-9.022900763358779,8.290076335877863,-1.1297709923664123,0.0
12.560000658035278,-7.117961535644531,3.287238879394531,10.122684619140625,78.85496183206106,114.07633587786259,-18.80916030534351,-10.601524951171875,1.139639990234375,5.820304235839844,-17.31297709923664,0.07633587786259542,-1.251908396946565,0.0
12.570000886917114,-5.662286926269531,4.431667272949219,9.991003527832031,111.2824427480916,99.81679389312977,-2.0,-9.97184991455078,1.3192051147460937,5.616797094726562,-25.72519083969466,-10.793893129770993,-0.3053435114503817,0.0
12.580000638961792,-8.990227233886719,7.314286071777343,9.9215716796875,124.12213740458016,89.52671755725191,3.1297709923664123,-10.319009155273436,-0.04548983154296875,5.425260961914062,-31.984732824427482,-16.671755725190838,1.465648854961832,0.0
12.590000867843628,-12.164938635253906,10.843339318847656,6.619967590332031,87.6030534351145,69.89312977099236,4.6106870229007635,-9.447519750976562,-0.833182177734375,4.285620971679688,-35.19083969465649,-21.404580152671755,1.083969465648855,0.0
12.600000619888306,-11.690886706542969,10.970232006835937,-2.1787235107421874,28.85496183206107,58.12213740458015,16.977099236641223,-10.084377392578125,-1.848323681640625,3.497928625488281,-37.37404580152672,-26.366412213740457,3.49618320610687,0.0
12.610000610351562,-12.933477368164061,7.108384729003906,-3.0142998901367184,-21.206106870229007,55.404580152671755,24.916030534351144,-9.928754284667969,-2.446874096679687,2.461239306640625,-34.83969465648855,-26.595419847328245,2.381679389312977,0.0
12.620000839233398,-16.08903515625,2.7724855224609373,8.47786807861328,-47.7557251908397,43.38931297709924,25.480916030534353,-9.770736975097655,-2.511517541503906,1.695094775390625,-28.885496183206108,-26.366412213740457,-1.4045801526717556,0.0
12.630000591278076,-17.92778203125,1.1707646118164061,17.39866346435547,-45.64885496183206,21.450381679389313,24.47328244274809,-8.961496813964843,-2.7629087158203123,1.2401964599609374,-21.709923664122137,-23.435114503816795,-3.5114503816793894,0.0
12.640000820159912,-19.72103907470703,3.4715924072265625,16.620547924804686,-44.29007633587786,3.145038167938931,24.717557251908396,-9.87608184814453,-5.2624552490234375,1.2234370483398436,-5.603053435114504,-17.328244274809162,-1.1755725190839694,0.0
12.65000057220459,-17.161637499999998,0.02154781494140625,9.552864624023437,-51.282442748091604,-18.0,23.64885496183206,-11.164162341308593,-6.734889270019531,0.411802685546875,25.984732824427482,-24.076335877862597,-1.8473282442748091,0.0
12.660000562667847,-12.732364428710937,-3.1603461914062496,0.8834604125976562,-46.74809160305343,-29.206106870229007,14.076335877862595,-12.46900224609375,-4.778826513671874,0.22266075439453123,42.595419847328245,-20.244274809160306,-5.221374045801527,0.0
12.670000553131104,-7.941566906738281,-6.488286499023437,-4.668693237304687,-12.13740458015267,-17.83206106870229,6.213740458015267,-11.793837377929687,-2.4492682983398435,-0.48123453369140623,47.099236641221374,-15.709923664122137,-6.213740458015267,0.0
12.680000305175781,-5.391742138671875,-7.264007836914062,-3.938461730957031,26.931297709923665,-1.251908396946565,-2.1068702290076335,-12.536039892578124,-0.040701428222656245,-0.39264907226562495,53.786259541984734,-11.648854961832061,-2.6564885496183206,0.0
12.690000295639038,-3.7158009765625,-4.2329485351562495,-1.1731588134765625,68.99236641221374,15.068702290076336,-3.6793893129770994,-10.467449658203124,3.201047619628906,-0.4261678955078125,44.61068702290076,-4.9465648854961835,0.732824427480916,0.0
12.700000762939453,-4.649539624023437,-0.3591302490234375,-0.42377369384765623,87.90839694656489,30.03053435114504,-0.5190839694656488,-10.407594616699217,2.7078420776367187,-0.3016694091796875,36.94656488549618,5.099236641221374,6.5038167938931295,0.0
12.71000051498413,-7.4411787597656245,1.5729904907226562,0.6943184814453125,82.1526717557252,39.45038167938932,-0.4732824427480916,-9.823409411621093,1.905784521484375,0.28730419921875,34.54961832061068,12.412213740458014,10.992366412213741,0.0
12.720000982284546,-10.47702646484375,2.906560815429687,1.24498486328125,59.05343511450382,39.404580152671755,-4.778625954198473,-9.662997900390625,3.1579519897460937,-0.15322890625,33.74045801526717,14.717557251908397,11.17557251908397,0.0
12.730000495910645,-12.433089221191405,3.0071172851562498,1.4030021728515625,32.656488549618324,37.52671755725191,-10.366412213740459,-12.90235274658203,2.408566870117187,1.8363526733398436,28.16793893129771,20.244274809160306,16.03053435114504,0.0
12.74000072479248,-10.778695874023438,2.1930887207031247,1.0749965454101562,14.534351145038167,33.06870229007634,-12.778625954198473,-9.804255798339844,3.2561142578125,1.2808978881835937,14.778625954198473,23.022900763358777,17.267175572519083,0.0
12.750000476837158,-11.824961999511718,2.8898014038085935,0.8858546142578124,1.3282442748091603,33.038167938931295,-15.954198473282442,-9.141061938476563,1.6304513305664061,1.0773907470703123,-0.732824427480916,25.34351145038168,21.51145038167939,0.0
12.760000705718994,-10.20887587890625,3.1316157714843746,1.209071838378906,-7.541984732824427,30.595419847328245,-15.145038167938932,-10.606313354492187,-0.679953271484375,1.5705962890624998,0.7938931297709924,28.03053435114504,25.00763358778626,0.0
12.770000696182251,-9.33978067626953,1.6831237670898436,0.6344634399414062,-8.748091603053435,31.328244274809162,-13.572519083969466,-9.165003955078124,-0.16519991455078123,0.9816226806640624,1.1755725190839694,24.18320610687023,21.480916030534353,0.0
12.780000686645508,-8.52335791015625,1.1731588134765625,0.852335791015625,-2.5343511450381677,32.732824427480914,-10.961832061068701,-8.022969763183593,-0.201112939453125,0.7015010864257812,-6.549618320610687,24.885496183206108,18.793893129770993,0.0
12.790000677108765,-8.327033374023436,0.6751648681640625,0.7110778930664062,2.0610687022900764,35.587786259541986,-8.534351145038167,-9.9215716796875,-1.1875240234375,1.024718310546875,0.9618320610687023,26.16793893129771,17.709923664122137,0.0
12.8000009059906,-8.836998327636719,0.8643067993164062,0.8714894042968749,5.221374045801527,33.74045801526717,-7.145038167938932,-9.023746057128905,-2.051830822753906,1.13006318359375,9.49618320610687,18.213740458015266,13.541984732824428,0.0
12.810000658035278,-8.176198669433592,0.699106884765625,1.024718310546875,10.13740458015267,31.572519083969464,-5.633587786259542,-8.844180932617187,-0.6871358764648438,0.8786720092773437,13.679389312977099,15.755725190839694,10.290076335877863,0.0
12.820000648498535,-9.107543115234375,1.3838485595703125,1.9201497314453124,14.305343511450381,28.290076335877863,-4.641221374045801,-9.60793126220703,1.0630255371093749,0.7493851196289062,14.885496183206106,14.305343511450381,8.610687022900763,0.0
12.830000877380371,-10.43871923828125,3.2154128295898436,3.361459130859375,8.793893129770993,28.80916030534351,-5.343511450381679,-9.481038574218749,1.4101847778320311,0.7852981445312499,12.01526717557252,12.351145038167939,9.48091603053435,0.0
12.84000039100647,-10.558429321289061,2.2673089721679687,3.0047230834960934,0.8396946564885496,18.549618320610687,-0.4122137404580153,-10.122684619140625,1.4796166259765624,1.180341418457031,13.664122137404581,12.50381679389313,12.717557251908397,0.0
12.850000858306885,-9.773131176757811,0.9145850341796874,2.913743420410156,3.83206106870229,12.595419847328245,3.633587786259542,-9.6917283203125,1.3168109130859373,1.455674609375,12.732824427480915,13.770992366412214,14.488549618320612,0.0
12.860000610351562,-9.758765966796874,1.1563994018554686,2.91134921875,8.900763358778626,12.045801526717558,3.4198473282442747,-9.603142858886718,0.9193734375,1.8555062866210936,14.15267175572519,15.251908396946565,15.236641221374045,0.0
12.87000036239624,-10.409988818359375,2.8706477905273435,2.549824768066406,1.8015267175572518,8.625954198473282,1.3740458015267176,-9.763554370117188,0.354341845703125,1.9416975463867185,14.732824427480915,14.427480916030534,14.80916030534351,0.0
12.880000352859497,-9.976638317871092,2.252943762207031,1.5969325073242187,-2.7480916030534353,3.5267175572519083,2.9160305343511452,-10.457872851562499,-0.2705447875976562,2.1499930908203124,14.641221374045802,13.954198473282442,14.51908396946565,0.0
12.890000581741333,-9.143456140136719,1.5729904907226562,1.4006079711914061,-2.0,3.6030534351145036,3.633587786259542,-10.206481677246094,-0.055066638183593745,1.8938135131835936,12.229007633587786,11.48091603053435,12.82442748091603,0.0
12.90000033378601,-9.550470422363281,1.7405846069335937,1.1061211669921875,-3.5572519083969465,4.732824427480916,2.931297709923664,-10.168174450683592,-0.19871873779296872,1.889025109863281,11.603053435114504,9.465648854961833,11.511450381679388,0.0
12.910000324249268,-9.765948571777344,1.905784521484375,1.0390835205078124,-4.732824427480916,5.938931297709924,3.0839694656488548,-10.036493359375,-0.229843359375,1.5705962890624998,10.290076335877863,5.908396946564886,10.702290076335878,0.0
12.920000553131104,-9.720458740234374,1.7884686401367187,1.0031704956054688,-7.343511450381679,6.854961832061068,3.877862595419847,-10.409988818359375,-0.2825157958984375,1.8914193115234375,10.65648854961832,4.519083969465649,9.511450381679388,0.0
12.930000305175781,-9.162609753417968,1.6208745239257811,0.8164227661132812,-9.587786259541986,8.427480916030534,3.7557251908396947,-10.058041174316406,-0.047884033203124995,1.9680337646484374,9.465648854961833,3.648854961832061,9.19083969465649,0.0
12.940000534057617,-9.617508068847656,1.5610194824218748,0.8020575561523438,-13.145038167938932,9.83206106870229,3.7404580152671754,-10.089165795898436,0.3758896606445312,1.7908628417968748,8.412213740458014,3.145038167938931,9.206106870229007,0.0
12.950000524520874,-9.504980590820312,1.4101847778320311,0.852335791015625,-13.236641221374045,11.221374045801527,3.3587786259541983,-9.76116016845703,0.5793968017578125,1.7310078002929687,5.541984732824427,2.7938931297709924,8.67175572519084,0.0
12.96000075340271,-9.878476049804688,1.5634136840820312,1.0319009155273438,-14.83969465648855,11.86259541984733,3.4198473282442747,-10.120290417480469,1.199495031738281,1.3551181396484375,3.801526717557252,3.801526717557252,8.900763358778626,0.0
12.970000267028809,-9.718064538574218,1.68551796875,1.2665326782226562,-14.687022900763358,12.381679389312977,3.6946564885496183,-9.485826977539062,1.3670891479492187,1.4772224243164063,0.32061068702290074,3.5572519083969465,9.358778625954198,0.0
12.980000734329224,-10.043675964355469,1.458068811035156,1.5801730957031248,-15.740458015267176,11.129770992366412,3.9389312977099236,-9.739612353515625,1.2282254516601563,1.0893617553710937,-2.0763358778625953,4.564885496183206,9.557251908396946,0.0
12.990000486373901,-9.86411083984375,1.1109095703125,1.6927005737304686,-14.229007633587786,12.01526717557252,3.6030534351145036,-9.586383447265625,0.6847416748046875,1.5418658691406248,-3.3740458015267176,5.038167938931298,10.641221374045802,0.0
13.000000476837158,-10.034099157714843,0.9720458740234375,1.5753846923828123,-13.114503816793894,10.946564885496183,2.9770992366412212,-10.417171423339843,0.00239420166015625,1.618480322265625,-1.6946564885496183,5.511450381679389,11.083969465648854,0.0
13.010000467300415,-9.390058911132812,0.8283937744140625,1.62805712890625,-9.83206106870229,11.908396946564885,2.7786259541984735,-9.720458740234374,-0.11252747802734374,1.5562310791015623,-1.1145038167938932,3.66412213740458,10.442748091603054,0.0
13.020000457763672,-9.78031378173828,1.0821791503906248,1.668758557128906,-8.51908396946565,11.587786259541986,1.984732824427481,-9.947907897949218,-0.2561795776367187,1.944091748046875,0.3053435114503817,2.3206106870229006,10.045801526717558,0.0
13.030000448226929,-9.442731347656249,1.1180921752929687,1.6112977172851561,-4.931297709923665,11.435114503816793,1.9083969465648856,-10.230423693847655,-0.2442085693359375,2.051830822753906,3.5419847328244276,0.04580152671755725,9.709923664122137,0.0
13.040000677108765,-9.512163195800781,1.2425906616210938,1.5825672973632812,-2.885496183206107,10.931297709923664,1.282442748091603,-10.596736547851561,-0.7350199096679687,2.568978381347656,7.7251908396946565,-1.6793893129770991,10.061068702290076,0.0
13.050000667572021,-9.406818322753905,1.4867992309570313,1.4700398193359374,-0.24427480916030533,10.488549618320612,1.5114503816793894,-10.55364091796875,-0.08858546142578125,1.5945383056640625,15.83206106870229,-11.709923664122137,6.702290076335878,0.0
13.060000658035278,-9.370905297851563,1.8602946899414061,1.2306196533203124,0.9618320610687023,11.022900763358779,0.6564885496183206,-9.100360510253905,0.679953271484375,2.142810485839844,11.129770992366412,-16.610687022900763,4.3816793893129775,0.0
13.070000410079956,-9.330203869628905,2.1499930908203124,1.2928688964843749,-0.44274809160305345,11.038167938931299,1.3282442748091603,-8.130708837890625,1.0366893188476562,1.714248388671875,5.6183206106870225,-20.610687022900763,2.4122137404580153,0.0
13.080000638961792,-9.593566052246093,2.6240450195312497,1.426944189453125,-3.9236641221374047,11.32824427480916,1.0229007633587786,-9.203311181640624,0.9217676391601562,1.936909143066406,1.3435114503816794,-20.03053435114504,2.9618320610687023,0.0
13.090000867843628,-9.801861596679688,2.7078420776367187,1.3718775512695311,-8.534351145038167,11.114503816793894,1.2671755725190839,-11.149797131347656,-0.055066638183593745,2.2649147705078123,4.351145038167939,-21.52671755725191,3.0381679389312977,0.0
13.100000619888306,-9.509768994140625,2.530671154785156,1.3120225097656248,-11.816793893129772,10.274809160305344,1.7404580152671756,-10.091559997558592,-1.678335363769531,3.5338416503906247,3.7404580152671754,-26.580152671755727,0.549618320610687,0.0
13.110000848770142,-9.533711010742186,2.2601263671875,1.426944189453125,-14.045801526717558,10.534351145038167,2.213740458015267,-11.429918725585937,-3.1028853515624997,5.102043737792968,15.221374045801527,-34.80916030534351,-3.282442748091603,0.0
13.12000036239624,-9.411606726074218,1.867477294921875,1.3287819213867187,-14.381679389312977,10.091603053435115,2.0,-11.75313594970703,-2.1883003173828124,4.7884033203125,22.045801526717558,-50.717557251908396,-11.877862595419847,0.0
13.130000352859497,-8.992621435546875,1.4628572143554686,1.3192051147460937,-13.938931297709924,10.244274809160306,2.2595419847328246,-9.753977563476562,1.426944189453125,3.9887399658203124,12.763358778625955,-60.25954198473283,-18.106870229007633,0.0
13.140000581741333,-9.22485899658203,1.5011644409179687,1.429338391113281,-16.702290076335878,11.618320610687023,1.5572519083969465,-11.662156286621093,-0.1580173095703125,5.049371301269531,10.320610687022901,-57.05343511450382,-12.82442748091603,0.0
13.15000057220459,-8.901641772460938,0.6344634399414062,1.455674609375,-15.694656488549619,12.641221374045802,-0.0,-11.458649145507811,0.4860229370117187,3.5242648437499997,13.511450381679388,-70.25954198473282,-17.129770992366414,0.0
13.160000324249268,-10.618284362792968,2.061407629394531,2.6336218261718747,-15.694656488549619,16.732824427480917,-4.854961832061068,-10.524910498046875,1.8028338500976562,3.873818286132812,4.473282442748092,-72.06106870229007,-16.900763358778626,0.0
13.170000553131104,-8.597578161621094,2.214636535644531,1.697488977050781,-12.961832061068701,12.13740458015267,-1.4045801526717556,-10.876858142089842,-0.00239420166015625,3.957615344238281,4.229007633587786,-72.8854961832061,-14.442748091603054,0.0
13.18000054359436,-10.000580334472655,2.6312276245117188,1.467645617675781,-17.083969465648856,10.992366412213741,-1.9389312977099236,-9.509768994140625,2.2864625854492187,2.4875755249023435,-3.572519083969466,-78.9618320610687,-17.923664122137403,0.0
13.190000534057617,-9.85692823486328,2.882618798828125,1.22583125,-17.14503816793893,9.83206106870229,-0.21374045801526717,-10.807426293945312,0.12210428466796874,3.6750995483398436,-6.549618320610687,-75.06870229007633,-13.099236641221374,0.0
13.200000762939453,-9.842563024902343,2.7461493041992187,1.1563994018554686,-20.458015267175572,8.534351145038167,0.916030534351145,-9.945513696289062,0.7757213378906249,2.4588451049804685,-6.061068702290076,-80.68702290076335,-16.580152671755727,0.0
13.210000276565552,-9.770736975097655,2.5163059448242184,1.3383587280273437,-19.587786259541986,8.564885496183207,0.6106870229007634,-9.270348828125,1.5131354492187499,3.038241906738281,-15.725190839694656,-75.09923664122137,-17.72519083969466,0.0
13.220000743865967,-10.002974536132811,2.1715409057617188,1.3000515014648437,-23.16030534351145,7.679389312977099,0.8244274809160306,-10.031704956054687,0.5339069702148437,2.7150246826171873,-14.351145038167939,-74.33587786259542,-17.6793893129771,0.0
13.230000495910645,-9.437942944335937,1.8076222534179687,1.2378022583007813,-19.61832061068702,7.511450381679389,0.6717557251908397,-8.88009395751953,2.437297290039062,1.5945383056640625,-19.6793893129771,-73.63358778625954,-20.870229007633586,0.0
13.240000486373901,-9.502586389160156,1.7764976318359373,1.2856862915039062,-18.717557251908396,7.267175572519084,0.366412213740458,-7.42441934814453,2.032677209472656,1.889025109863281,-32.396946564885496,-62.6412213740458,-19.6793893129771,0.0
13.250000476837158,-9.603142858886718,2.250549560546875,1.2330138549804688,-19.114503816793892,7.312977099236641,0.549618320610687,-10.053252770996092,0.22744915771484372,2.5953145996093747,-22.641221374045802,-52.62595419847328,-15.954198473282442,0.0
13.260000705718994,-10.019733947753906,1.9704279663085937,1.0630255371093749,-19.358778625954198,4.564885496183206,-0.07633587786259542,-8.971073620605468,0.5985504150390625,0.44532150878906246,-9.969465648854962,-58.16793893129771,-20.045801526717558,0.0
13.270000696182251,-9.655815295410155,1.5777788940429687,1.0797849487304687,-13.038167938931299,4.641221374045801,-0.12213740458015267,-8.137891442871092,1.7214309936523438,-0.33518823242187495,-7.450381679389313,-51.74045801526717,-20.53435114503817,0.0
13.280000925064087,-10.04846436767578,2.0470424194335934,1.0295067138671874,-11.923664122137405,4.091603053435114,-0.030534351145038167,-7.970297326660156,2.398990063476562,-0.39983167724609375,-15.664122137404581,-40.152671755725194,-19.16030534351145,0.0
13.290000677108765,-9.770736975097655,2.1404162841796874,1.005564697265625,-11.19083969465649,4.641221374045801,-0.10687022900763359,-8.755595471191405,1.659181750488281,0.8667010009765624,-15.954198473282442,-28.076335877862597,-14.229007633587786,0.0
13.300000667572021,-10.000580334472655,1.8028338500976562,0.6368576416015624,-12.229007633587786,5.343511450381679,-0.7938931297709924,-8.975862023925782,2.5857377929687497,1.0893617553710937,-18.50381679389313,-17.87786259541985,-10.229007633587786,0.0
13.310000658035278,-10.014945544433592,1.4317325927734375,0.7038952880859375,-8.625954198473282,6.732824427480916,-0.4122137404580153,-9.947907897949218,1.1827356201171875,1.9871873779296874,-16.106870229007633,-10.51908396946565,-5.7251908396946565,0.0
13.320000410079956,-9.801861596679688,1.3215993164062498,0.5099649536132812,-4.2748091603053435,7.694656488549619,-0.7633587786259542,-9.631873278808593,0.8403647827148437,1.4604630126953124,-9.725190839694656,-11.022900763358779,-5.4961832061068705,0.0
13.330000877380371,-9.437942944335937,1.5227122558593749,0.5746083984375,0.44274809160305345,10.198473282442748,-1.4961832061068703,-9.641450085449218,0.19632453613281248,2.39420166015625,-7.251908396946565,-6.977099236641221,-6.015267175572519,0.0
13.340000629425049,-9.873687646484374,2.2768857788085937,0.6775590698242188,-2.8091603053435112,12.83969465648855,-3.435114503816794,-7.79552060546875,1.0869675537109373,0.40940848388671874,-5.8320610687022905,-10.244274809160306,-8.564885496183207,0.0
13.350000858306885,-9.560047229003906,2.0877438476562498,0.7398083129882812,-5.709923664122138,13.145038167938932,-3.7099236641221376,-6.679822631835937,1.618480322265625,0.842758984375,-9.603053435114504,-5.740458015267175,-9.32824427480916,0.0
13.360000848770142,-9.967061511230469,2.446874096679687,1.1085153686523437,-10.061068702290076,15.022900763358779,-5.603053435114504,-8.410830432128906,0.6512228515624999,2.7437551025390623,-10.65648854961832,3.572519083969466,-6.213740458015267,0.0
13.37000060081482,-10.91037696533203,2.913743420410156,1.0438719238281249,-23.419847328244273,11.664122137404581,-6.748091603053435,-7.575254052734374,1.6424223388671875,2.090138049316406,-15.34351145038168,6.351145038167939,-5.603053435114504,0.0
13.380000591278076,-10.809820495605468,1.8818425048828125,1.1324573852539062,-26.27480916030534,7.862595419847328,-4.305343511450381,-8.250418920898436,0.8355763793945312,2.8419173706054686,-16.885496183206108,10.732824427480915,-2.3053435114503817,0.0
13.390000581741333,-9.586383447265625,0.7517793212890624,0.9074024291992187,-23.404580152671755,6.106870229007634,-2.8091603053435112,-8.269572534179687,0.296881005859375,2.808398547363281,-16.137404580152673,11.618320610687023,-1.083969465648855,0.0
13.40000057220459,-10.105925207519531,1.0079588989257813,1.455674609375,-20.03053435114504,8.610687022900763,-4.458015267175573,-7.771578588867187,0.44053310546874996,2.6886884643554687,-13.603053435114504,12.778625954198473,0.12213740458015267,0.0
13.410000562667847,-9.861716638183593,1.4149731811523436,1.8914193115234375,-16.106870229007633,10.625954198473282,-6.366412213740458,-8.001421948242188,0.25139117431640623,3.0621839233398433,-10.244274809160306,13.938931297709924,1.2061068702290076,0.0
13.420000553131104,-8.798691101074219,0.08140285644531249,1.3359645263671873,-10.274809160305344,9.297709923664122,-5.877862595419847,-7.972691528320312,0.30406361083984373,3.1411925781249996,-9.114503816793894,15.083969465648854,2.2442748091603053,0.0
13.43000054359436,-8.916006982421875,0.30406361083984373,1.3551181396484375,-3.2213740458015265,11.679389312977099,-6.916030534351145,-8.085219006347655,0.17956512451171874,3.497928625488281,-7.557251908396947,15.86259541984733,3.0839694656488548,0.0
13.440000295639038,-9.265560424804686,1.0199299072265624,1.3407529296874998,-1.1603053435114503,12.65648854961832,-8.717557251908397,-8.046911779785155,0.5865794067382812,3.612850305175781,-7.755725190839694,16.061068702290076,3.2061068702290076,0.0
13.450000524520874,-9.064447485351561,1.388636962890625,1.369483349609375,1.9389312977099236,11.893129770992367,-8.106870229007633,-8.078036401367187,0.28490999755859375,3.8690298828125,-10.213740458015268,15.877862595419847,3.801526717557252,0.0
13.46000075340271,-9.016563452148437,1.687912170410156,1.4700398193359374,4.824427480916031,11.954198473282442,-7.511450381679389,-8.224082702636718,0.06464344482421874,4.027047192382812,-11.557251908396946,15.648854961832061,4.396946564885496,0.0
13.470000505447388,-9.153032946777342,2.085349645996094,1.5658078857421873,5.404580152671755,12.259541984732824,-7.679389312977099,-8.329427575683594,-0.2346317626953125,4.264073156738281,-12.549618320610687,15.297709923664122,5.465648854961832,0.0
13.480000495910645,-8.913612780761719,2.1021090576171875,1.6807295654296874,4.687022900763359,11.83206106870229,-7.7251908396946565,-8.386888415527343,-0.34715924072265625,4.292803576660156,-12.549618320610687,14.381679389312977,6.290076335877862,0.0
13.490000486373901,-9.567229833984374,2.6240450195312497,1.9129671264648436,1.816793893129771,11.16030534351145,-8.900763358778626,-8.47786807861328,-0.6751648681640625,4.479551306152343,-13.786259541984732,13.16030534351145,6.732824427480916,0.0
13.500000238418579,-9.323021264648437,2.5546131713867184,2.0542250244140625,-0.7633587786259542,9.022900763358779,-8.580152671755725,-8.252813122558594,-0.6727706665039062,4.50109912109375,-15.206106870229007,12.625954198473282,5.9541984732824424,0.0
13.510000705718994,-9.402029919433593,2.578555187988281,2.4492682983398435,-2.8702290076335877,6.320610687022901,-8.793893129770993,-8.228871105957031,-0.7134720947265625,4.316745593261719,-17.633587786259543,11.083969465648854,5.114503816793893,0.0
13.520000457763672,-8.820238916015624,2.2744915771484373,2.8227637573242186,-0.9312977099236641,3.3893129770992365,-8.244274809160306,-8.183381274414062,-0.6679822631835937,4.132392065429687,-18.396946564885496,10.67175572519084,3.8625954198473282,0.0
13.530000448226929,-9.361328491210937,2.2840683837890623,3.1747114013671873,-2.122137404580153,-0.21374045801526717,-8.65648854961832,-8.317456567382813,-1.0319009155273438,4.007893579101562,-19.46564885496183,11.251908396946565,2.7480916030534353,0.0
13.540000677108765,-9.3852705078125,1.8914193115234375,3.5625720703124997,-1.786259541984733,-5.694656488549619,-9.389312977099237,-7.618349682617187,-0.8451531860351562,3.4955344238281247,-19.87786259541985,11.358778625954198,0.21374045801526717,0.0
13.550000667572021,-9.37808790283203,1.3168109130859373,4.048595007324218,-0.13740458015267176,-11.297709923664122,-10.274809160305344,-7.9846625366210935,-1.5849614990234373,3.5242648437499997,-17.69465648854962,12.977099236641221,-2.0916030534351147,0.0
13.560000658035278,-8.643067993164061,0.8834604125976562,4.357447021484375,5.816793893129771,-16.564885496183205,-10.748091603053435,-7.0844427124023435,-1.2330138549804688,3.105279553222656,-14.931297709923664,14.030534351145038,-5.9541984732824424,0.0
13.570000886917114,-8.47786807861328,0.0,4.060566015625,13.801526717557252,-21.61832061068702,-11.358778625954198,-7.091625317382812,-1.8267758666992187,3.517082238769531,-10.916030534351146,15.312977099236642,-8.687022900763358,0.0
13.580000638961792,-7.433996154785156,-0.8834604125976562,3.2130186279296873,20.442748091603054,-26.85496183206107,-12.992366412213741,-6.3973068359375,-1.2785036865234374,3.0454245117187497,-7.404580152671755,13.801526717557252,-11.679389312977099,0.0
13.590000867843628,-7.283161450195312,-0.4908113403320312,3.2561142578125,24.30534351145038,-28.290076335877863,-16.50381679389313,-6.710947253417968,-0.9504980590820312,4.285620971679688,-13.511450381679388,21.69465648854962,-11.541984732824428,0.0
13.600000619888306,-6.275202551269531,-0.17477672119140625,3.4668040039062498,32.36641221374046,-29.282442748091604,-18.595419847328245,-6.133944653320312,-1.7836802368164062,4.304774584960938,-14.83969465648855,20.80916030534351,-13.007633587786259,0.0
13.610000610351562,-6.284779357910156,-0.1197100830078125,2.454056701660156,36.916030534351144,-31.236641221374047,-20.229007633587788,-6.605602380371093,-0.8954314208984374,5.099649536132812,-14.229007633587786,21.49618320610687,-15.526717557251908,0.0
13.62000060081482,-5.9208607055664055,-0.02633621826171875,1.4820108276367188,39.770992366412216,-32.0763358778626,-22.595419847328245,-6.366182214355469,-0.07900865478515624,5.5258174316406246,-35.267175572519086,28.47328244274809,-14.885496183206106,0.0
13.630000352859497,-7.024587670898437,0.5291185668945312,2.4564509033203126,34.47328244274809,-33.43511450381679,-25.14503816793893,-8.882488159179687,-2.6240450195312497,6.6271501953125,-22.50381679389313,25.633587786259543,-10.687022900763358,0.0
13.640000581741333,-6.964732629394531,-0.0047884033203125,3.3638533325195312,39.9236641221374,-37.9236641221374,-26.83969465648855,-6.251260534667968,0.5770026000976562,4.817133740234374,-19.129770992366414,9.312977099236642,-16.595419847328245,0.0
13.65000057220459,-7.304709265136719,0.023942016601562498,3.5051112304687497,45.847328244274806,-39.969465648854964,-28.38167938931298,-3.438073583984375,2.6695348510742187,4.2521021484374995,-34.44274809160305,9.541984732824428,-17.709923664122137,0.0
13.660000562667847,-7.8529814453124995,1.3024457031249999,3.840299462890625,40.961832061068705,-44.717557251908396,-30.641221374045802,-3.9360675292968748,0.7326257080078125,4.745307690429687,-46.56488549618321,18.229007633587788,-14.992366412213741,0.0
13.670000314712524,-9.26316622314453,2.1404162841796874,3.77326181640625,27.129770992366414,-55.41984732824427,-33.98473282442748,-8.705317236328124,-1.70467158203125,7.433996154785156,-46.595419847328245,20.48854961832061,-13.267175572519085,0.0
13.680000305175781,-11.235988391113281,0.9217676391601562,4.223371728515625,18.793893129770993,-68.65648854961832,-33.80152671755725,-10.172962854003906,-1.838746875,8.48505068359375,-76.33587786259542,16.82442748091603,-28.244274809160306,0.0
13.690000295639038,-14.35802735595703,0.6153098266601562,5.506663818359375,25.755725190839694,-79.52671755725191,-30.091603053435115,-5.391742138671875,-3.385401147460937,-4.604049792480469,-89.55725190839695,17.419847328244273,-31.0381679389313,0.0
13.700000762939453,-16.084246752929687,0.7517793212890624,6.009446166992187,35.61832061068702,-93.96946564885496,-25.19083969465649,-7.898471276855468,0.8355763793945312,-13.570335009765625,-45.14503816793893,41.49618320610687,-31.114503816793892,0.0
13.71000051498413,-12.389993591308594,-1.22583125,3.83072265625,47.25190839694657,-117.8473282442748,-20.931297709923665,-18.60294689941406,3.5673604736328124,-2.099714855957031,-20.27480916030534,59.31297709923664,-27.984732824427482,0.0
13.720000743865967,-16.63012473144531,3.6176387084960937,3.342305517578125,47.63358778625954,-120.33587786259542,-24.625954198473284,-31.871612499999998,0.0430956298828125,16.239869860839843,-20.442748091603054,53.93893129770992,-33.969465648854964,0.0
13.730000495910645,-18.732233789062498,6.445190869140625,3.0334535034179684,22.610687022900763,-137.3740458015267,-18.717557251908396,-30.353688647460935,-10.09395419921875,14.31972012939453,-33.12977099236641,29.404580152671755,-42.44274809160305,0.0
13.74000072479248,-18.58379328613281,6.828263134765624,1.7429788085937499,9.84732824427481,-147.17557251908397,3.236641221374046,-18.99320177001953,-5.092466931152344,4.891353991699218,29.61832061068702,-18.610687022900763,-8.091603053435115,0.0
13.750000476837158,-17.67878505859375,5.118803149414062,-0.20350714111328125,-4.091603053435114,-150.793893129771,22.83969465648855,-11.506533178710937,4.1754876953124995,1.0271125122070313,62.0763358778626,-37.282442748091604,18.50381679389313,0.0
13.760000705718994,-17.75539951171875,4.276044165039062,-1.5514426757812498,-18.83969465648855,-149.6793893129771,32.01526717557252,-8.954314208984375,6.433219860839843,-5.930437512207031,43.7557251908397,-41.3587786259542,23.374045801526716,0.0
13.770000696182251,-15.890316418457031,0.8044517578125,-3.1364041748046874,-25.770992366412212,-140.3206106870229,43.49618320610687,-3.9528269409179684,5.379771130371093,-6.394912634277343,11.98473282442748,-25.69465648854962,14.992366412213741,0.0
13.780000686645508,-13.95580147705078,3.294421484375,-1.5825672973632812,-19.053435114503817,-115.57251908396947,41.908396946564885,-4.489128112792969,0.07900865478515624,-6.6510922119140625,-12.595419847328245,2.2748091603053435,11.358778625954198,0.0
13.790000677108765,-11.937489477539062,-1.7597382202148437,-2.2601263671875,-26.931297709923665,-103.45038167938931,38.18320610687023,-8.123526232910155,-3.7900212280273435,-5.487510205078125,-7.938931297709924,18.946564885496183,5.8320610687022905,0.0
13.800000667572021,-9.478644372558593,-4.122815258789062,-1.8363526733398436,9.34351145038168,-78.99236641221374,34.99236641221374,-10.91037696533203,-4.649539624023437,-4.75009609375,1.9541984732824427,26.99236641221374,1.7404580152671756,0.0
13.810000658035278,-8.377311608886718,-2.27927998046875,-1.1156979736328125,31.84732824427481,-53.541984732824424,24.82442748091603,-13.915100048828124,-4.84586416015625,-3.0502129150390624,14.641221374045802,40.18320610687023,1.4351145038167938,0.0
13.820000410079956,-9.124302526855468,0.47165772705078124,-0.2442085693359375,36.961832061068705,-28.778625954198475,17.068702290076335,-12.765883251953124,-6.110002636718749,-0.8810662109374999,30.458015267175572,38.68702290076336,4.625954198473282,0.0
13.830000877380371,-9.3086560546875,2.5713725830078125,-0.076614453125,27.34351145038168,-14.030534351145038,14.396946564885496,-11.81059678955078,-3.3446997192382812,0.2442085693359375,46.93129770992366,36.19847328244275,8.732824427480915,0.0
13.840000629425049,-9.315838659667968,2.887407202148437,0.18435352783203124,4.061068702290076,-9.98473282442748,17.389312977099237,-10.175357055664062,1.7334020019531249,-0.18914193115234373,48.68702290076336,39.98473282442748,10.931297709923664,0.0
13.850000858306885,-7.824251025390624,1.5825672973632812,0.46686932373046874,-14.244274809160306,-3.8473282442748094,24.229007633587788,-8.55448253173828,4.046200805664062,0.30885201416015623,30.213740458015266,46.030534351145036,14.091603053435115,0.0
13.860000610351562,-7.244854223632812,0.5961562133789062,0.3806780639648437,-28.99236641221374,1.1145038167938932,26.15267175572519,-10.529698901367187,0.9911994873046874,2.212242333984375,22.519083969465647,53.93893129770992,22.671755725190838,0.0
13.87000060081482,-6.713341455078124,-0.9648632690429687,0.2059013427734375,-38.94656488549618,4.854961832061068,24.30534351145038,-10.615890161132812,1.4628572143554686,1.8770541015625,34.13740458015267,46.68702290076336,24.442748091603054,0.0
13.880000591278076,-5.932831713867187,-1.618480322265625,-0.0430956298828125,-40.44274809160305,8.702290076335878,20.198473282442748,-7.979874133300781,3.6918589599609373,1.8076222534179687,22.061068702290076,42.93129770992366,22.015267175572518,0.0
13.890000581741333,-4.955997436523437,-1.879448303222656,-0.17477672119140625,-45.083969465648856,13.755725190839694,16.977099236641223,-8.20971749267578,1.1659762084960936,2.0781670410156248,11.435114503816793,47.98473282442748,26.50381679389313,0.0
13.90000057220459,-4.216189123535156,-2.4396914916992185,-0.17956512451171874,-53.11450381679389,20.15267175572519,10.83969465648855,-10.666168395996094,-1.7453730102539062,2.6982652709960937,26.015267175572518,41.20610687022901,30.671755725190838,0.0
13.910000562667847,-3.749319799804687,-3.0837317382812497,-0.5363011718749999,-56.87022900763359,27.84732824427481,2.030534351145038,-10.13226142578125,-1.4245499877929686,2.6001030029296874,37.57251908396947,29.69465648854962,25.14503816793893,0.0
13.920000791549683,-3.0980969482421874,-3.8953661010742184,-1.2401964599609374,-55.37404580152672,37.404580152671755,-4.9465648854961835,-8.298302954101562,-0.21787235107421873,2.133233679199219,27.0381679389313,28.977099236641223,18.3206106870229,0.0
13.93000054359436,-6.234501123046875,-1.3718775512695311,-1.7238251953125,-60.82442748091603,50.2442748091603,-13.969465648854962,-7.481880187988281,-0.469263525390625,1.2641384765625,18.16793893129771,29.221374045801525,17.053435114503817,0.0
13.940000534057617,-3.1411925781249996,-2.7246014892578123,-1.7549498168945312,-63.038167938931295,54.13740458015267,-14.15267175572519,-8.28633194580078,-0.8212111694335937,1.3072341064453123,12.442748091603054,25.389312977099237,17.206106870229007,0.0
13.950000524520874,-2.4660277099609376,-3.6104561035156246,-0.8188169677734375,-45.16030534351145,65.29770992366412,-16.061068702290076,-9.425971936035156,-0.7829039428710937,2.085349645996094,5.862595419847328,23.450381679389313,16.671755725190838,0.0
13.96000075340271,-3.0262708984374997,-3.9360675292968748,-0.04548983154296875,-16.244274809160306,79.23664122137404,-19.19083969465649,-9.325415466308593,-0.7805097412109374,2.6192566162109374,-1.7099236641221374,22.519083969465647,12.854961832061068,0.0
13.970000267028809,-3.83072265625,-3.9264907226562498,0.5147533569335937,10.763358778625955,91.92366412213741,-19.862595419847327,-10.386046801757812,-0.7326257080078125,2.703053674316406,-6.656488549618321,19.374045801526716,10.717557251908397,0.0
13.980000495910645,-5.092466931152344,-3.6343981201171873,1.2617442749023438,41.66412213740458,103.80152671755725,-20.198473282442748,-10.421959826660157,-0.9648632690429687,3.0023288818359375,-11.083969465648854,15.770992366412214,9.465648854961833,0.0
13.990000486373901,-7.812280017089844,-0.4381389038085937,2.9831752685546875,67.57251908396947,110.38167938931298,-20.580152671755727,-10.390835205078124,-1.1252747802734375,2.913743420410156,-11.679389312977099,10.13740458015267,9.572519083969466,0.0
14.000000476837158,-9.026140258789061,-1.6112977172851561,4.192247106933594,85.17557251908397,103.45038167938931,-11.053435114503817,-9.617508068847656,-1.0199299072265624,2.942473840332031,-12.458015267175572,4.5038167938931295,9.84732824427481,0.0
14.010000705718994,-11.626243261718749,1.9656395629882812,8.367734802246094,112.12213740458016,103.48091603053435,-5.557251908396947,-9.45470235595703,-1.5107412475585937,3.0741549316406247,-11.801526717557252,1.5877862595419847,10.763358778625955,0.0
14.020000696182251,-17.18557951660156,7.0102224609374995,13.220781567382812,102.2442748091603,84.94656488549619,0.5801526717557252,-9.502586389160156,-1.6711527587890624,2.85388837890625,-8.213740458015268,0.183206106870229,9.770992366412214,0.0
14.030000686645508,-20.135235961914063,10.036493359375,13.563152404785155,81.34351145038168,58.274809160305345,17.69465648854962,-9.952696301269532,-2.059013427734375,1.7741034301757812,-6.366412213740458,-1.633587786259542,9.755725190839694,0.0
14.040000677108765,-20.788853015136716,10.072406384277343,10.184933862304687,48.274809160305345,29.893129770992367,29.740458015267176,-10.79545528564453,-2.8036101440429686,1.8243816650390623,-5.480916030534351,3.7099236641221376,9.221374045801527,0.0
14.05000114440918,-18.083405139160156,6.418854650878906,4.04141240234375,-3.068702290076336,-0.32061068702290074,31.068702290076335,-12.023680737304687,-2.3151930053710936,0.584185205078125,-0.916030534351145,5.419847328244275,7.221374045801527,0.0
14.060000896453857,-13.63737265625,1.2425906616210938,0.5410895751953124,-20.442748091603054,-6.717557251908397,25.587786259541986,-11.008539233398437,-2.7198130859375,1.0031704956054688,4.1679389312977095,9.49618320610687,7.129770992366412,0.0
14.070000886917114,-9.785102185058593,-3.727771984863281,0.8475473876953125,-18.48854961832061,-10.16793893129771,12.259541984732824,-10.685322009277343,-1.2138602416992186,-0.8954314208984374,10.595419847328245,7.541984732824427,5.1603053435114505,0.0
14.080000638961792,-8.923189587402343,-4.132392065429687,3.6104561035156246,-18.671755725190838,-10.427480916030534,-5.633587786259542,-10.110713610839843,-2.3726538452148436,0.7350199096679687,18.702290076335878,15.267175572519085,6.6106870229007635,0.0
14.090000867843628,-8.425195642089843,-2.118868469238281,4.053383410644531,-16.18320610687023,-9.969465648854962,-9.32824427480916,-11.736376538085937,-2.896984008789062,1.2234370483398436,30.442748091603054,19.66412213740458,9.221374045801527,0.0
14.100000619888306,-7.613561279296874,-0.41419688720703124,2.327164013671875,-8.427480916030534,-2.9160305343511452,-2.7786259541984735,-10.168174450683592,-0.4213794921875,-0.5674257934570313,37.23664122137404,10.458015267175572,5.633587786259542,0.0
14.110000848770142,-7.867346655273437,0.2442085693359375,0.2561795776367187,-17.282442748091604,5.862595419847328,-1.0534351145038168,-11.468225952148437,-0.584185205078125,0.37828386230468747,35.61832061068702,14.13740458015267,6.412213740458015,0.0
14.12000060081482,-7.484274389648437,-1.7597382202148437,-1.2880804931640624,-21.114503816793892,14.763358778625955,-2.6564885496183206,-8.719682446289061,2.059013427734375,-0.928950244140625,32.47328244274809,9.633587786259541,3.7251908396946565,0.0
14.130000829696655,-7.108384729003906,-3.3542765258789062,-2.7150246826171873,-9.022900763358779,24.900763358778626,-7.541984732824427,-10.287884533691406,0.32082302246093747,0.8762778076171874,22.65648854961832,13.83206106870229,7.541984732824427,0.0
14.140000581741333,-6.387730029296875,-5.463568188476562,-2.9568390502929685,27.49618320610687,43.16030534351145,-10.106870229007633,-9.035717065429687,1.3407529296874998,0.48123453369140623,19.022900763358777,10.229007633587786,7.9541984732824424,0.0
14.15000033378601,-7.017405065917968,-3.105279553222656,-1.2306196533203124,65.1145038167939,61.89312977099237,-13.587786259541986,-9.203311181640624,1.4053963745117186,0.8690952026367187,11.511450381679388,10.16793893129771,6.916030534351145,0.0
14.160000562667847,-9.04050546875,2.2577321655273437,0.411802685546875,81.70992366412214,73.86259541984732,-15.236641221374045,-9.497797985839844,1.3263877197265623,1.43652099609375,7.893129770992366,11.282442748091603,8.900763358778626,0.0
14.170000553131104,-10.266336718749999,4.742913488769531,1.5203180541992187,75.5114503816794,72.06106870229007,-14.50381679389313,-9.78031378173828,2.070984436035156,1.3287819213867187,1.083969465648855,11.221374045801527,8.290076335877863,0.0
14.180000305175781,-11.149797131347656,6.653486413574218,3.019088293457031,51.61832061068702,65.48091603053435,-14.198473282442748,-10.436325036621094,2.5163059448242184,1.3670891479492187,-14.977099236641221,15.17557251908397,10.351145038167939,0.0
14.190000534057617,-12.11705460205078,7.036558679199218,3.9839515624999997,12.01526717557252,52.62595419847328,-14.610687022900763,-9.260772021484375,0.9528922607421875,1.70467158203125,-19.00763358778626,14.229007633587786,12.229007633587786,0.0
14.200000286102295,-11.121066711425781,5.781997009277344,3.4644098022460934,-20.778625954198475,36.56488549618321,-11.19083969465649,-11.875240234375,1.2904746948242187,1.9512743530273435,-18.244274809160306,13.007633587786259,15.526717557251908,0.0
14.21000051498413,-11.3389390625,3.6918589599609373,3.2034418212890623,-42.36641221374046,26.68702290076336,-3.8931297709923665,-9.694122521972655,1.6831237670898436,0.3711012573242187,-23.87786259541985,3.6793893129770994,13.86259541984733,0.0
14.220000743865967,-10.884040747070312,2.9472622436523435,2.7437551025390623,-54.54961832061068,16.702290076335878,4.106870229007634,-9.981426721191406,0.8667010009765624,0.28730419921875,-25.862595419847327,2.4885496183206106,14.305343511450381,0.0
14.230000495910645,-9.229647399902344,0.011971008300781249,1.9105729248046874,-47.41984732824427,13.297709923664122,11.618320610687023,-10.101136804199218,-0.7709329345703124,1.5298948608398437,-27.46564885496183,6.442748091603053,15.053435114503817,0.0
14.24000072479248,-9.509768994140625,-0.5865794067382812,2.252943762207031,-34.0,15.389312977099237,11.038167938931299,-9.6151138671875,-0.5746083984375,0.011971008300781249,-20.641221374045802,-1.4351145038167938,11.664122137404581,0.0
14.250000715255737,-9.916783276367187,-0.016759411621093748,2.540247961425781,-26.045801526717558,15.19083969465649,6.564885496183206,-9.763554370117188,-0.689530078125,0.7996633544921875,-19.96946564885496,-0.5954198473282443,10.442748091603054,0.0
14.260000705718994,-9.995791931152343,-0.07900865478515624,2.176329309082031,-20.076335877862597,10.748091603053435,5.190839694656488,-9.485826977539062,-0.6200982299804687,0.36152445068359373,-15.954198473282442,-0.9465648854961832,10.290076335877863,0.0
14.270000457763672,-9.78031378173828,-0.2561795776367187,1.889025109863281,-16.793893129770993,9.358778625954198,3.5114503816793894,-9.816226806640625,-0.7326257080078125,0.3184288208007812,-11.541984732824428,-1.251908396946565,10.0,0.0
14.280000686645508,-9.471461767578125,-0.430956298828125,1.5753846923828123,-12.213740458015268,8.01526717557252,2.8091603053435112,-9.483432775878907,-0.19153613281249998,0.3447650390625,-7.083969465648855,-1.3740458015267176,8.961832061068701,0.0
14.290000438690186,-9.119514123535156,-0.316034619140625,1.0366893188476562,-6.488549618320611,8.213740458015268,2.5801526717557253,-9.430760339355468,0.34715924072265625,0.2442085693359375,-5.221374045801527,-0.0,8.229007633587786,0.0
14.300000667572021,-9.442731347656249,0.28730419921875,0.74699091796875,-0.732824427480916,9.526717557251908,3.5572519083969465,-9.95987890625,0.47644613037109373,0.32561142578124996,-3.969465648854962,2.2595419847328246,7.923664122137405,0.0
14.3100004196167,-9.093177905273437,0.622492431640625,0.32561142578124996,3.83206106870229,9.954198473282442,4.931297709923665,-9.873687646484374,0.86191259765625,0.5003881469726562,-3.145038167938931,4.33587786259542,8.412213740458014,0.0
14.320000410079956,-9.2320416015625,0.12689268798828124,0.26336218261718747,9.34351145038168,11.267175572519085,6.366412213740458,-9.909600671386718,0.699106884765625,0.6655880615234374,-4.412213740458015,5.893129770992366,8.83969465648855,0.0
14.330000877380371,-11.451466540527344,2.2385785522460937,1.3670891479492187,15.419847328244275,19.16030534351145,3.435114503816794,-10.141838232421874,0.5123591552734374,0.9409212524414062,-2.8091603053435112,7.679389312977099,9.969465648854962,0.0
14.34000039100647,-11.346121667480467,3.919308117675781,1.6160861206054686,3.6946564885496183,17.404580152671755,2.015267175572519,-10.16338604736328,0.5865794067382812,1.1324573852539062,-1.7557251908396947,7.786259541984733,10.16793893129771,0.0
14.350000858306885,-10.474632263183594,3.009511486816406,0.5291185668945312,-9.801526717557252,8.610687022900763,6.137404580152672,-10.17056865234375,0.5051765502929687,1.1420341918945311,-0.9007633587786259,5.9541984732824424,11.49618320610687,0.0
14.360000371932983,-9.909600671386718,1.6160861206054686,0.0909796630859375,-15.389312977099237,7.557251908396947,8.732824427480915,-10.414777221679687,0.4572925170898437,1.3551181396484375,0.1984732824427481,5.648854961832061,12.793893129770993,0.0
14.37000060081482,-10.263942517089843,1.4125789794921875,0.45489831542968745,-20.900763358778626,9.648854961832061,6.931297709923665,-10.070012182617187,0.5051765502929687,1.1085153686523437,1.6946564885496183,4.854961832061068,12.51908396946565,0.0
14.380000591278076,-10.165780249023436,0.9935936889648437,0.3495534423828125,-23.19083969465649,10.732824427480915,4.931297709923665,-9.86411083984375,0.39983167724609375,1.1180921752929687,1.4351145038167938,3.4198473282442747,12.961832061068701,0.0
14.390000581741333,-10.127473022460936,0.6200982299804687,0.3854664672851562,-22.83969465648855,11.282442748091603,3.9236641221374047,-9.682151513671874,0.3136404174804687,1.0007762939453124,0.5190839694656488,2.5343511450381677,12.946564885496183,0.0
14.40000057220459,-9.83777462158203,0.5770026000976562,0.18914193115234373,-21.786259541984734,10.854961832061068,3.236641221374046,-10.108319409179687,0.3711012573242187,1.0390835205078124,-0.5190839694656488,2.8091603053435112,11.725190839694656,0.0
14.410000562667847,-9.279925634765624,0.0909796630859375,0.30885201416015623,-17.404580152671755,12.717557251908397,2.8396946564885495,-9.93354268798828,0.277727392578125,1.2713210815429687,-2.50381679389313,3.0076335877862594,10.977099236641221,0.0
14.420000553131104,-8.755595471191405,0.3112462158203125,0.2561795776367187,-14.274809160305344,14.305343511450381,2.50381679389313,-9.658209497070311,0.6512228515624999,1.0007762939453124,-4.824427480916031,2.015267175572519,8.748091603053435,0.0
14.43000054359436,-9.732429748535155,0.9313444458007812,0.6368576416015624,-14.15267175572519,15.083969465648854,1.9083969465648856,-10.376469995117187,-0.047884033203124995,1.7836802368164062,-3.4198473282442747,3.8473282442748094,9.083969465648854,0.0
14.440000295639038,-9.349357482910156,0.6296750366210937,0.6440402465820312,-8.885496183206106,16.396946564885496,3.2519083969465647,-11.96382569580078,-1.1276689819335937,1.9823989746093749,7.00763358778626,0.5648854961832062,8.854961832061068,0.0
14.450000286102295,-9.682151513671874,0.8307879760742187,0.6416460449218749,-2.33587786259542,17.282442748091604,3.7709923664122136,-10.709264025878905,0.4429273071289062,1.917755529785156,12.885496183206106,-7.099236641221374,3.450381679389313,0.0
14.46000075340271,-10.39322940673828,1.3168109130859373,0.8667010009765624,-0.4122137404580153,15.816793893129772,4.900763358778626,-9.847351428222655,1.8243816650390623,1.5346832641601562,7.267175572519084,-9.893129770992367,1.4351145038167938,0.0
14.470000267028809,-10.08677159423828,1.2808978881835937,1.1516109985351561,-0.8091603053435115,15.801526717557252,6.0,-9.540893615722656,1.5131354492187499,2.0733786376953125,2.687022900763359,-7.221374045801527,6.122137404580153,0.0
14.480000734329224,-9.916783276367187,1.2473790649414063,1.4867992309570313,-2.687022900763359,14.977099236641221,4.702290076335878,-10.036493359375,1.2976572998046874,1.180341418457031,-3.145038167938931,-7.969465648854962,8.564885496183207,0.0
14.49000072479248,-10.012551342773437,1.455674609375,1.5562310791015623,-5.816793893129771,12.946564885496183,3.4656488549618323,-10.850521923828124,-0.24899697265624998,2.5665841796874997,-4.305343511450381,-3.954198473282443,11.49618320610687,0.0
14.500000476837158,-10.47702646484375,1.3144167114257812,1.446097802734375,-8.061068702290076,10.045801526717558,2.5343511450381677,-10.656591589355468,-0.33518823242187495,2.5570073730468748,1.7251908396946565,-7.099236641221374,11.114503816793894,0.0
14.510000705718994,-9.662997900390625,0.9624690673828125,1.13006318359375,-4.458015267175573,7.740458015267175,2.595419847328244,-10.026916552734374,0.45010991210937495,2.3439234252929686,3.3282442748091605,-10.274809160305344,8.763358778625955,0.0
14.520000696182251,-9.3852705078125,0.9696516723632812,0.9217676391601562,-2.4580152671755724,6.305343511450381,2.6717557251908395,-9.524134204101562,0.33518823242187495,2.272097375488281,2.427480916030534,-12.458015267175572,7.267175572519084,0.0
14.530000686645508,-9.519345800781249,1.3311761230468748,0.9313444458007812,-2.6106870229007635,5.022900763358779,2.2748091603053435,-10.390835205078124,-1.659181750488281,3.5218706420898434,6.3816793893129775,-12.122137404580153,8.213740458015268,0.0
14.540000677108765,-9.660603698730467,1.180341418457031,0.9241618408203125,-1.6946564885496183,4.931297709923665,2.5343511450381677,-10.59194814453125,-0.5889736083984375,3.4668040039062498,18.778625954198475,-19.893129770992367,3.8473282442748094,0.0
14.550000667572021,-9.622296472167967,1.3718775512695311,0.8068459594726562,3.312977099236641,5.32824427480916,3.099236641221374,-9.165003955078124,-0.19871873779296872,2.91134921875,21.0381679389313,-31.633587786259543,-0.916030534351145,0.0
14.560000658035278,-9.552864624023437,1.3359645263671873,0.5770026000976562,4.534351145038168,6.030534351145038,4.244274809160306,-10.146626635742187,-0.8307879760742187,3.5793314819335937,26.290076335877863,-38.44274809160305,-2.6259541984732824,0.0
14.570001125335693,-9.854534033203125,1.7262193969726563,0.5458779785156249,4.442748091603053,7.877862595419847,4.351145038167939,-9.088389501953124,1.649604943847656,2.389413256835937,20.106870229007633,-47.786259541984734,-5.816793893129771,0.0
14.580000638961792,-9.969455712890625,2.3415292236328122,0.93852705078125,1.6030534351145038,9.511450381679388,5.236641221374046,-9.028534460449219,1.879448303222656,2.8706477905273435,6.625954198473282,-43.69465648854962,-2.2290076335877864,0.0
14.590000629425049,-9.83777462158203,2.0925322509765625,1.0414777221679687,-3.6793893129770994,8.65648854961832,5.694656488549619,-10.299855541992187,-0.86191259765625,3.3016040893554686,7.801526717557252,-46.61068702290076,0.061068702290076333,0.0
14.600000619888306,-9.832986218261718,1.6615759521484375,1.1109095703125,-5.267175572519084,7.419847328244275,3.6793893129770994,-11.65736788330078,0.6512228515624999,3.114856359863281,9.740458015267176,-51.908396946564885,-3.7557251908396947,0.0
14.610000848770142,-9.634267480468749,1.2569558715820313,1.2569558715820313,-4.961832061068702,5.755725190839694,1.9389312977099236,-9.567229833984374,2.6623522460937497,2.518700146484375,-4.091603053435114,-52.56488549618321,-6.259541984732825,0.0
14.62000036239624,-9.548076220703125,1.4796166259765624,1.2330138549804688,-7.66412213740458,4.2748091603053435,1.4045801526717556,-11.197681164550781,-0.22266075439453123,2.8658593872070313,-5.938931297709924,-46.79389312977099,-2.9770992366412212,0.0
14.630000591278076,-10.13226142578125,1.6112977172851561,1.2378022583007813,-11.816793893129772,2.9770992366412212,0.13740458015267176,-11.353304272460937,-1.3120225097656248,3.239354846191406,6.67175572519084,-53.02290076335878,-5.419847328244275,0.0
14.640000343322754,-9.636661682128906,1.3814543579101561,0.7158662963867187,-6.885496183206107,1.465648854961832,0.5648854961832062,-10.963049401855468,0.6727706665039062,2.7174188842773437,12.961832061068701,-60.25954198473283,-10.595419847328245,0.0
14.65000057220459,-9.117119921875,1.5155296508789062,0.22266075439453123,-4.0,3.0381679389312977,2.351145038167939,-8.183381274414062,2.35589443359375,2.068590234375,1.786259541984733,-59.52671755725191,-11.099236641221374,0.0
14.660000324249268,-9.514557397460937,3.303998291015625,1.4724340209960938,-6.412213740458015,7.770992366412214,0.2748091603053435,-9.236830004882812,0.6009446166992187,2.1308394775390624,-6.67175572519084,-53.38931297709924,-8.83969465648855,0.0
14.670000553131104,-8.322244970703125,1.936909143066406,0.6967126831054687,-6.351145038167939,4.534351145038168,2.4732824427480917,-10.433930834960936,-0.16041151123046873,2.1452046874999997,1.282442748091603,-54.44274809160305,-10.15267175572519,0.0
14.68000054359436,-10.081983190917969,1.70467158203125,0.833182177734375,-7.251908396946565,5.099236641221374,1.2671755725190839,-11.06360587158203,0.1771709228515625,2.959233251953125,5.419847328244275,-55.80152671755725,-13.34351145038168,0.0
14.690000534057617,-9.765948571777344,1.2425906616210938,0.5339069702148437,0.5038167938931297,4.198473282442748,2.6106870229007635,-9.222464794921875,1.8219874633789062,1.3718775512695311,-2.33587786259542,-57.83206106870229,-16.50381679389313,0.0
14.700000762939453,-10.390835205078124,1.7932570434570312,0.5961562133789062,-1.0534351145038168,6.106870229007634,0.8854961832061069,-8.24802471923828,2.032677209472656,-0.00239420166015625,-11.98473282442748,-54.19847328244275,-17.938931297709924,0.0
14.71000051498413,-10.534487304687499,2.8107927490234372,0.93852705078125,-7.221374045801527,4.778625954198473,-0.9770992366412213,-9.617508068847656,-0.031124621582031248,2.114080065917969,-8.763358778625955,-44.42748091603053,-14.610687022900763,0.0
14.720000743865967,-9.181763366699219,0.5315127685546874,-0.047884033203124995,-4.015267175572519,1.7404580152671756,0.9312977099236641,-10.819397302246093,-1.407790576171875,2.607285607910156,5.00763358778626,-47.282442748091604,-15.221374045801527,0.0
14.730000495910645,-10.941501586914061,1.9536685546875,0.47884033203125,-0.12213740458015267,6.641221374045801,-3.1755725190839694,-8.578424548339843,1.1372457885742187,1.0630255371093749,14.442748091603054,-54.06106870229008,-18.885496183206108,0.0
14.74000072479248,-10.194510668945313,2.1452046874999997,0.5099649536132812,-0.732824427480916,5.190839694656488,-5.00763358778626,-7.580042456054687,3.5529952636718747,1.1923124267578125,6.259541984732825,-42.56488549618321,-18.793893129770993,0.0
14.750000238418579,-9.830592016601562,2.35589443359375,0.30885201416015623,-2.1526717557251906,4.977099236641221,-4.717557251908397,-7.132326745605468,2.4157494750976563,0.7254431030273437,-10.290076335877863,-33.770992366412216,-15.435114503816793,0.0
14.760000705718994,-10.137049829101562,2.5163059448242184,0.5722141967773438,-8.16793893129771,5.175572519083969,-4.809160305343512,-8.657433203124999,1.3527239379882812,0.9337386474609375,-13.022900763358779,-25.267175572519083,-13.206106870229007,0.0
14.770000696182251,-10.014945544433592,2.2768857788085937,0.3950432739257812,-9.541984732824428,4.1679389312977095,-3.801526717557252,-7.843404638671874,1.7214309936523438,0.3687070556640625,-21.068702290076335,-19.66412213740458,-14.16793893129771,0.0
14.780000686645508,-9.730035546875,1.8531120849609375,0.5626373901367188,-8.534351145038167,6.122137404580153,-3.053435114503817,-9.457096557617186,-0.12210428466796874,1.7621324218749999,-16.16793893129771,-13.374045801526718,-12.488549618320612,0.0
14.790000677108765,-9.354145886230468,1.4700398193359374,0.3806780639648437,-6.564885496183206,6.916030534351145,-2.763358778625954,-9.018957653808593,0.06943184814453125,1.446097802734375,-10.854961832061068,-11.083969465648854,-13.374045801526718,0.0
