timestamp,Thigh_L_Acc_X,Thigh_L_Acc_Y,Thigh_L_Acc_Z,Thigh_L_Gyr_X,Thigh_L_Gyr_Y,Thigh_L_Gyr_Z,Thigh_R_Acc_X,Thigh_R_Acc_Y,Thigh_R_Acc_Z,Thigh_R_Gyr_X,Thigh_R_Gyr_Y,Thigh_R_Gyr_Z,gpio_output
10.000000238418579,-7.7787611938476555,0.20350714111328125,1.7238251953125,-24.396946564885496,40.274809160305345,5.114503816793893,-9.904812268066406,0.00718260498046875,1.9416975463867185,10.213740458015268,14.80916030534351,8.992366412213741,0.0
10.010000467300415,-9.366116894531249,0.201112939453125,2.925714428710937,-19.068702290076335,45.099236641221374,3.3740458015267176,-9.330203869628905,0.565031591796875,2.0159177978515626,8.854961832061068,14.335877862595419,9.511450381679388,1.0
10.020000696182251,-8.79150849609375,0.29927520751953124,2.3535002319335936,-10.610687022900763,43.3587786259542,2.8396946564885495,-9.543287817382812,0.8762778076171874,2.2936451904296873,7.572519083969466,14.473282442748092,10.183206106870228,1.0
10.030000925064087,-10.345345373535155,1.5275006591796874,3.4955344238281247,-6.488549618320611,41.49618320610687,0.3511450381679389,-9.5001921875,1.1947066284179686,2.50912333984375,4.534351145038168,14.702290076335878,11.648854961832061,1.0
10.040000677108765,-9.591171850585937,1.6208745239257811,3.181894006347656,-6.748091603053435,35.00763358778626,0.8702290076335878,-9.555258825683593,1.3311761230468748,2.1883003173828124,1.984732824427481,14.80916030534351,12.992366412213741,1.0
10.0500009059906,-10.532093103027343,1.3215993164062498,3.821145849609375,-6.717557251908397,34.38167938931298,0.48854961832061067,-9.397241516113281,1.5011644409179687,2.01112939453125,-4.442748091603053,15.664122137404581,14.67175572519084,1.0
10.060000658035278,-9.670180505371093,0.565031591796875,2.882618798828125,-6.0458015267175576,27.52671755725191,1.9083969465648856,-9.80665,0.9361328491210937,2.942473840332031,-7.603053435114504,18.564885496183205,17.00763358778626,1.0
10.070000648498535,-9.062053283691405,0.8379705810546875,2.7078420776367187,-6.366412213740458,24.015267175572518,0.10687022900763359,-10.611101757812499,-0.24181436767578124,2.360682836914062,-11.511450381679388,16.35114503816794,17.17557251908397,1.0
10.080000877380371,-10.228029492187499,2.291250988769531,3.0597897216796874,-10.687022900763358,21.587786259541986,-0.7786259541984732,-10.369287390136718,-0.679953271484375,1.905784521484375,-12.458015267175572,13.679389312977099,16.30534351145038,1.0
10.090000629425049,-8.858546142578124,1.438915197753906,2.5258827514648434,-9.206106870229007,16.916030534351144,2.122137404580153,-9.97184991455078,-0.6751648681640625,1.6352397338867186,-14.458015267175572,12.977099236641221,15.16030534351145,1.0
10.100000619888306,-9.102754711914063,1.9105729248046874,2.6312276245117188,-6.809160305343512,16.229007633587788,2.9923664122137406,-10.455478649902343,-1.209071838378906,1.8124106567382812,-12.320610687022901,13.068702290076336,14.549618320610687,1.0
10.110000610351562,-9.442731347656249,2.530671154785156,2.4564509033203126,-5.786259541984733,15.755725190839694,2.9923664122137406,-9.923965881347655,-1.2976572998046874,1.7286135986328124,-11.236641221374045,12.213740458015268,12.641221374045802,1.0
10.12000060081482,-9.86411083984375,2.8850130004882812,2.152387292480469,-9.877862595419847,14.13740458015267,4.2748091603053435,-10.182539660644531,-1.6424223388671875,2.1547814941406247,-5.648854961832061,12.061068702290076,11.297709923664122,1.0
10.130000591278076,-9.337386474609374,2.1021090576171875,1.2210428466796874,-12.442748091603054,13.679389312977099,6.076335877862595,-9.758765966796874,-1.4101847778320311,2.0254946044921875,-2.6412213740458017,9.908396946564885,9.206106870229007,1.0
10.140000820159912,-9.471461767578125,2.061407629394531,1.3048399047851562,-16.625954198473284,15.145038167938932,6.732824427480916,-9.964667309570311,-0.9361328491210937,2.2026655273437497,1.7404580152671756,8.977099236641221,7.816793893129771,1.0
10.15000033378601,-9.476250170898437,2.2074539306640624,1.3742717529296875,-19.69465648854962,16.48854961832061,6.641221374045801,-9.694122521972655,-0.47165772705078124,2.0542250244140625,2.564885496183206,6.824427480916031,6.656488549618321,1.0
10.160000562667847,-10.041281762695311,1.8124106567382812,1.2904746948242187,-22.916030534351144,17.34351145038168,6.580152671755725,-9.969455712890625,0.105344873046875,2.2266075439453124,2.549618320610687,5.816793893129771,7.267175572519084,1.0
10.170000553131104,-9.519345800781249,1.4030021728515625,1.35990654296875,-21.068702290076335,19.236641221374047,6.67175572519084,-9.651026892089844,0.4572925170898437,2.310404602050781,-0.3969465648854962,3.83206106870229,7.4961832061068705,1.0
10.18000078201294,-9.548076220703125,1.1013327636718748,1.7501614135742187,-21.068702290076335,20.106870229007633,5.938931297709924,-9.993397729492187,0.7134720947265625,2.398990063476562,-3.1908396946564888,3.1297709923664123,9.129770992366412,1.0
10.190000772476196,-9.351751684570312,1.216254443359375,1.4796166259765624,-17.984732824427482,20.870229007633586,5.923664122137405,-9.643844287109374,0.9576806640625,2.2840683837890623,-7.099236641221374,1.5877862595419847,10.061068702290076,1.0
10.200000286102295,-10.029310754394531,1.8435352783203125,1.7477672119140624,-19.52671755725191,21.49618320610687,4.885496183206107,-10.187328063964843,0.6009446166992187,2.839523168945312,-7.419847328244275,2.6106870229007635,12.076335877862595,1.0
10.210000276565552,-9.794678991699218,1.5586252807617187,1.8219874633789062,-20.061068702290076,20.610687022900763,5.297709923664122,-10.445901843261717,-0.7206546997070312,3.3494881225585935,-3.633587786259542,-0.5038167938931297,13.908396946564885,0.0
10.220000267028809,-10.156203442382813,1.209071838378906,1.9680337646484374,-21.282442748091604,18.671755725190838,4.442748091603053,-12.27746611328125,-1.0271125122070313,4.618415002441406,6.656488549618321,-3.9083969465648853,13.770992366412214,0.0
10.230000734329224,-9.648632690429688,0.3112462158203125,1.9656395629882812,-17.267175572519083,17.923664122137403,3.6793893129770994,-11.58075343017578,-0.6296750366210937,3.787627026367187,10.961832061068701,-17.923664122137403,9.618320610687023,0.0
10.240000247955322,-9.521740002441407,0.4285620971679687,1.9416975463867185,-12.870229007633588,17.72519083969466,1.6793893129770991,-9.619902270507811,0.507570751953125,3.383006945800781,9.83206106870229,-24.702290076335878,7.00763358778626,0.0
10.250000476837158,-9.014169250488282,1.0438719238281249,1.7381904052734374,-7.9541984732824424,18.35114503816794,1.6488549618320612,-7.675810522460937,3.4907460205078125,2.4492682983398435,-8.854961832061068,-27.17557251908397,4.961832061068702,0.0
10.260000705718994,-9.45470235595703,2.0638018310546875,2.04943662109375,-9.816793893129772,19.267175572519083,0.6717557251908397,-8.291120349121094,3.0980969482421874,3.3542765258789062,-25.908396946564885,-15.770992366412214,15.648854961832061,0.0
10.27000093460083,-8.99501563720703,1.9943699829101562,1.695094775390625,-10.076335877862595,17.0381679389313,1.7557251908396947,-10.237606298828124,0.5817910034179687,3.4093431640625,-29.053435114503817,-18.99236641221374,18.885496183206108,0.0
10.280000448226929,-9.088389501953124,2.3415292236328122,1.6903063720703124,-10.244274809160306,16.18320610687023,0.7175572519083969,-11.63821427001953,-1.1707646118164061,4.76924970703125,-31.206106870229007,-20.38167938931298,16.198473282442748,0.0
10.290000915527344,-9.244012609863281,2.2601263671875,1.5897499023437498,-11.17557251908397,13.312977099236642,0.366412213740458,-12.533645690917968,-2.3056161987304686,6.155492468261718,-20.671755725190838,-26.977099236641223,9.587786259541986,0.0
10.300000429153442,-8.968679418945312,1.8459294799804686,1.7357962036132812,-8.473282442748092,12.427480916030534,0.6870229007633588,-12.421118212890624,-2.418143676757812,5.8083332275390624,-9.206106870229007,-43.63358778625954,0.4580152671755725,0.0
10.3100004196167,-9.380482104492186,2.1619640991210938,1.6017209106445311,-6.427480916030534,11.725190839694656,0.5343511450381679,-10.998962426757812,-0.23702596435546874,3.9983167724609374,0.13740458015267176,-61.63358778625954,-7.267175572519084,0.0
10.320000648498535,-10.134655627441406,2.9281086303710935,1.93451494140625,-7.267175572519084,12.030534351145038,1.0381679389312977,-10.62307276611328,1.1061211669921875,4.039018200683594,-3.7709923664122136,-59.55725190839695,-4.3816793893129775,0.0
10.330000638961792,-9.854534033203125,2.8203695556640622,1.659181750488281,-8.793893129770993,11.34351145038168,2.33587786259542,-12.442666027832031,-1.35990654296875,4.163516687011718,6.0,-64.62595419847328,-1.2366412213740459,0.0
10.34000039100647,-9.524134204101562,3.1483751831054687,1.0773907470703123,-9.251908396946565,12.427480916030534,2.946564885496183,-9.710881933593749,0.143652099609375,3.1651345947265623,2.1374045801526718,-76.99236641221374,-9.236641221374045,0.0
10.350000858306885,-9.507374792480467,3.9743747558593747,0.6416460449218749,-14.854961832061068,14.106870229007633,3.282442748091603,-9.411606726074218,-0.5913678100585937,4.438849877929687,0.24427480916030533,-71.54198473282443,-4.442748091603053,0.0
10.360000610351562,-9.241618408203124,3.861847277832031,0.5099649536132812,-22.198473282442748,15.129770992366412,4.396946564885496,-8.954314208984375,-0.7996633544921875,2.3415292236328122,1.7099236641221374,-79.70992366412214,-6.824427480916031,0.0
10.37000036239624,-9.433154541015625,3.7229835815429686,0.699106884765625,-28.83969465648855,17.755725190839694,4.641221374045801,-7.893682873535155,0.74699091796875,3.1172505615234374,-6.366412213740458,-72.44274809160305,-7.908396946564886,0.0
10.380000591278076,-9.361328491210937,2.6479870361328124,0.3758896606445312,-32.534351145038165,19.251908396946565,6.305343511450381,-9.478644372558593,-0.13407529296874998,2.8730419921875,-3.7557251908396947,-70.04580152671755,-7.297709923664122,0.0
10.390000581741333,-8.724470849609375,2.4851813232421875,0.8403647827148437,-37.083969465648856,19.083969465648856,5.404580152671755,-8.185775476074218,3.1555577880859373,0.9217676391601562,-13.404580152671755,-71.17557251908397,-12.83969465648855,0.0
10.40000033378601,-9.145850341796875,2.6982652709960937,1.0630255371093749,-41.05343511450382,18.641221374045802,5.480916030534351,-7.678204724121093,3.3494881225585935,1.9991583862304687,-26.30534351145038,-54.44274809160305,-7.190839694656488,0.0
10.410000324249268,-9.68454571533203,0.9983820922851562,1.2617442749023438,-42.12213740458015,19.00763358778626,6.366412213740458,-9.995791931152343,0.7110778930664062,3.019088293457031,-22.793893129770993,-46.229007633587784,-0.6412213740458015,0.0
10.420000791549683,-9.93354268798828,0.49799394531249996,1.7022773803710936,-37.17557251908397,19.480916030534353,3.6946564885496183,-8.360552197265624,1.419761584472656,-0.3447650390625,-21.87786259541985,-52.778625954198475,-3.435114503816794,0.0
10.43000054359436,-9.485826977539062,0.4836287353515625,1.5705962890624998,-29.81679389312977,18.18320610687023,2.3053435114503817,-7.1778165771484375,3.7612908081054686,-0.29927520751953124,-32.961832061068705,-38.091603053435115,-4.198473282442748,0.0
10.440000772476196,-8.231265307617187,-0.4285620971679687,1.1875240234375,-16.290076335877863,18.3206106870229,2.6412213740458017,-6.411672045898437,2.2960393920898436,-0.6153098266601562,-53.267175572519086,-26.244274809160306,-2.8702290076335877,0.0
10.450000524520874,-8.801085302734375,1.235408056640625,1.9033903198242186,-10.854961832061068,20.748091603053435,-1.9694656488549618,-8.84178673095703,-1.0103531005859374,1.4341267944335936,-53.98473282442748,-13.664122137404581,-1.0687022900763359,0.0
10.46000051498413,-9.849745629882811,2.4492682983398435,1.8363526733398436,-15.297709923664122,17.267175572519083,-3.3587786259541983,-9.196128576660156,-1.5179238525390624,1.4149731811523436,-42.412213740458014,-15.251908396946565,-2.9770992366412212,0.0
10.470000505447388,-8.410830432128906,0.6943184814453125,1.0486603271484374,-8.106870229007633,14.595419847328245,0.07633587786259542,-8.298302954101562,-0.9313444458007812,2.3535002319335936,-39.00763358778626,-8.977099236641221,-4.076335877862595,0.0
10.480000495910645,-10.060435375976562,3.3590649291992185,2.272097375488281,-8.473282442748092,19.893129770992367,-4.6106870229007635,-7.4603323730468745,-1.0175357055664063,1.7717092285156248,-35.20610687022901,-8.076335877862595,-5.893129770992366,0.0
10.490000486373901,-9.176974963378905,2.9855694702148434,1.3479355346679687,-12.687022900763358,14.473282442748092,-1.9694656488549618,-8.552088330078124,-1.7788918334960937,2.528276953125,-22.625954198473284,-5.404580152671755,-5.587786259541985,0.0
10.500000476837158,-9.579200842285156,3.0047230834960934,1.7381904052734374,-14.305343511450381,14.01526717557252,-0.7786259541984732,-7.809885815429687,-1.199495031738281,2.844311572265625,-18.732824427480917,-4.732824427480916,-7.083969465648855,0.0
10.510000944137573,-9.629479077148437,2.887407202148437,1.9728221679687499,-16.885496183206108,13.923664122137405,-0.183206106870229,-8.008604553222655,-1.4245499877929686,3.1699229980468746,-9.312977099236642,-2.8091603053435112,-8.213740458015268,0.0
10.520000696182251,-9.749189160156249,2.3630770385742186,1.8650830932617186,-21.69465648854962,13.053435114503817,-0.21374045801526717,-7.850587243652344,-1.458068811035156,3.366247534179687,-4.961832061068702,-0.9312977099236641,-9.709923664122137,0.0
10.530000925064087,-9.794678991699218,2.166752502441406,1.9800047729492187,-21.954198473282442,12.198473282442748,-0.12213740458015267,-7.900865478515625,-1.4317325927734375,3.5410242553710933,4.244274809160306,-0.7175572519083969,-10.931297709923664,0.0
10.540000438690186,-9.746794958496093,1.7597382202148437,1.7022773803710936,-23.328244274809162,11.022900763358779,-1.1145038167938932,-7.874529260253905,-1.1037269653320312,3.995922570800781,10.870229007633588,-1.1450381679389312,-11.297709923664122,0.0
10.550000667572021,-9.368511096191405,1.24498486328125,1.6424223388671875,-21.801526717557252,10.244274809160306,-1.5725190839694656,-7.577648254394531,0.07422025146484375,4.065354418945312,16.076335877862597,-1.2061068702290076,-11.633587786259541,0.0
10.5600004196167,-9.49300958251953,0.8451531860351562,1.9321207397460936,-19.49618320610687,9.282442748091603,-2.122137404580153,-7.556100439453124,0.59376201171875,4.034229797363281,15.969465648854962,0.015267175572519083,-9.49618320610687,0.0
10.570000648498535,-9.13627353515625,0.24660277099609373,2.0446482177734375,-15.099236641221374,8.274809160305344,-3.404580152671756,-7.390900524902343,1.0342951171875,3.9169139160156248,14.778625954198473,0.48854961832061067,-7.419847328244275,0.0
10.580000638961792,-9.512163195800781,0.316034619140625,2.4444798950195312,-9.465648854961833,7.343511450381679,-4.0458015267175576,-7.273584643554687,1.3168109130859373,3.9240965209960934,9.618320610687023,2.900763358778626,-4.656488549618321,0.0
10.590000629425049,-9.095572106933593,0.37828386230468747,2.4660277099609376,-2.595419847328244,4.244274809160306,-5.358778625954199,-7.541735229492187,0.9313444458007812,4.256890551757812,7.190839694656488,4.6106870229007635,-1.633587786259542,0.0
10.600000381469727,-9.150638745117186,0.5363011718749999,2.5426421630859375,3.954198473282443,1.4198473282442747,-6.809160305343512,-7.50821640625,0.7158662963867187,4.1754876953124995,3.0076335877862594,6.015267175572519,0.030534351145038167,0.0
10.610000610351562,-9.2320416015625,0.833182177734375,2.81558115234375,10.83969465648855,-1.6488549618320612,-7.66412213740458,-7.4603323730468745,0.2705447875976562,4.11802685546875,0.7786259541984732,7.038167938931298,1.282442748091603,0.0
10.62000060081482,-9.119514123535156,1.254561669921875,3.0238766967773434,14.900763358778626,-5.32824427480916,-8.992366412213741,-6.983886242675781,0.07422025146484375,3.7421371948242186,-1.3129770992366412,7.404580152671755,1.1450381679389312,0.0
10.630000591278076,-8.95670841064453,1.426944189453125,3.0262708984374997,19.282442748091604,-9.236641221374045,-10.061068702290076,-7.50821640625,-0.59376201171875,4.2688615600585935,-1.1450381679389312,9.114503816793894,1.3740458015267176,0.0
10.640000820159912,-9.373299499511718,2.166752502441406,3.6200329101562496,20.946564885496183,-12.534351145038167,-11.068702290076336,-7.5465236328125,-0.842758984375,4.338293408203125,-2.1374045801526718,9.389312977099237,0.24427480916030533,0.0
10.65000057220459,-8.731653454589843,1.8363526733398436,4.158728283691406,24.564885496183205,-18.82442748091603,-11.129770992366412,-7.8170684204101555,-1.0845733520507812,4.7022120605468745,-2.4885496183206106,9.099236641221374,-1.4351145038167938,0.0
10.660000562667847,-8.978256225585938,2.051830822753906,4.568136767578125,25.603053435114504,-22.610687022900763,-14.778625954198473,-7.975085729980468,-0.8667010009765624,4.642357019042969,-4.2748091603053435,9.007633587786259,-4.259541984732825,0.0
10.670000553131104,-8.200140686035155,2.559401574707031,4.568136767578125,17.297709923664122,-32.33587786259542,-16.82442748091603,-8.497021691894531,-1.0414777221679687,4.680664245605469,-4.687022900763359,9.221374045801527,-7.145038167938932,0.0
10.68000054359436,-8.28633194580078,1.1827356201171875,4.467580297851562,21.053435114503817,-39.099236641221374,-15.938931297709924,-10.019733947753906,-1.0726023437499999,5.5545478515625,-1.5877862595419847,9.954198473282442,-8.320610687022901,0.0
10.690000534057617,-7.702146740722656,0.3136404174804687,4.611232397460937,28.610687022900763,-41.06870229007634,-16.396946564885496,-8.40843623046875,-0.07422025146484375,4.826710546875,-5.358778625954199,6.916030534351145,-14.15267175572519,0.0
10.700000286102295,-7.812280017089844,0.3806780639648437,4.180276098632812,36.33587786259542,-42.717557251908396,-18.412213740458014,-8.839392529296875,0.5722141967773438,5.7149593627929685,-5.083969465648855,5.572519083969466,-15.816793893129772,0.0
10.71000051498413,-7.60398447265625,1.618480322265625,3.7301661865234372,41.11450381679389,-44.656488549618324,-21.954198473282442,-7.682993127441406,1.2042834350585936,5.444414575195312,-15.938931297709924,2.8244274809160306,-17.450381679389313,0.0
10.720000505447388,-8.985438830566405,2.5450363647460934,2.5378537597656248,40.30534351145038,-44.19847328244275,-25.19083969465649,-6.782773303222656,1.4772224243164063,5.025429284667968,-29.328244274809162,6.916030534351145,-13.786259541984732,0.0
10.730000495910645,-8.365340600585936,3.754108203125,2.1595698974609374,41.93893129770992,-42.42748091603053,-24.366412213740457,-5.370194323730469,-0.011971008300781249,3.23696064453125,-29.450381679389313,4.778625954198473,-9.34351145038168,0.0
10.740000486373901,-8.56166513671875,4.264073156738281,1.0510545288085937,33.083969465648856,-40.42748091603053,-23.129770992366414,-7.005434057617187,-0.70868369140625,4.139574670410156,-19.297709923664122,8.50381679389313,-5.038167938931298,0.0
10.750000476837158,-7.711723547363281,3.6439749267578123,1.4341267944335936,31.908396946564885,-36.48854961832061,-18.12213740458015,-6.212953308105468,-0.33758243408203126,3.347093920898437,-16.610687022900763,6.2748091603053435,-5.114503816793893,0.0
10.760000705718994,-7.951143713378905,4.149151477050781,2.24097275390625,30.717557251908396,-32.68702290076336,-15.251908396946565,-3.5314474487304683,0.373495458984375,1.22583125,-25.923664122137403,4.702290076335878,-9.297709923664122,0.0
10.77000093460083,-7.9104422851562495,4.197035510253906,1.6711527587890624,24.30534351145038,-29.221374045801525,-12.16793893129771,-3.6272155151367187,1.0630255371093749,1.675941162109375,-41.66412213740458,17.450381679389313,-8.80916030534351,0.0
10.780000686645508,-8.532934716796875,3.9695863525390624,2.300827795410156,14.793893129770993,-27.19083969465649,-9.679389312977099,-2.607285607910156,0.9528922607421875,1.5586252807617187,-62.47328244274809,30.900763358778626,-6.427480916030534,0.0
10.790000915527344,-8.789114294433594,3.373430139160156,3.976768957519531,7.267175572519084,-30.549618320610687,-8.549618320610687,-1.9680337646484374,0.4477157104492187,1.4508862060546874,-67.0381679389313,36.961832061068705,-1.8778625954198473,0.0
10.800000667572021,-9.188945971679686,2.4779987182617185,5.068524914550781,1.3282442748091603,-37.954198473282446,-10.961832061068701,-5.91846650390625,0.7541735229492187,3.7205893798828122,-67.3587786259542,42.534351145038165,2.885496183206107,0.0
10.810000658035278,-9.651026892089844,0.9121908325195311,6.5218053222656245,-3.9389312977099236,-51.16030534351145,-16.33587786259542,-11.360486877441405,-2.0350714111328125,7.149086157226562,-49.38931297709924,39.587786259541986,5.129770992366412,0.0
10.820000410079956,-8.851363537597656,-0.6847416748046875,7.678204724121093,3.480916030534351,-71.3587786259542,-21.419847328244273,-12.73715283203125,-3.564966271972656,4.019864587402344,-47.099236641221374,35.465648854961835,-11.969465648854962,0.0
10.830000400543213,-11.288660827636718,-0.6464344482421874,8.221688500976562,14.80916030534351,-90.01526717557252,-27.267175572519083,-16.776171032714842,-10.103531005859374,1.3335703247070312,-26.53435114503817,43.099236641221374,-23.19083969465649,0.0
10.840000629425049,-13.5224509765625,-0.4908113403320312,8.032546569824218,30.732824427480917,-110.8854961832061,-30.015267175572518,-18.083405139160156,-10.845733520507812,-4.656722229003906,13.908396946564885,38.16793893129771,-40.778625954198475,0.0
10.850000619888306,-18.988413366699216,3.1220389648437497,8.322244970703125,34.717557251908396,-127.37404580152672,-35.465648854961835,-21.018696374511716,-3.411737365722656,-1.9225439331054686,19.419847328244273,53.64885496183206,-67.49618320610686,0.0
10.860000371932983,-21.918916198730468,3.469198205566406,6.375759020996093,25.267175572519083,-153.54198473282443,-26.442748091603054,-24.736891552734374,0.41898529052734373,12.990938208007812,15.32824427480916,46.916030534351144,-67.77099236641222,0.0
10.87000060081482,-23.752874670410154,3.5410242553710933,4.386177441406249,21.022900763358777,-169.98473282442748,-9.465648854961833,-21.80878292236328,2.7269956909179687,18.471265808105468,28.717557251908396,6.305343511450381,-36.62595419847328,0.0
10.880000591278076,-22.96997072753906,2.990357873535156,3.5314474487304683,12.0,-184.50381679389312,6.366412213740458,-13.831302990722655,7.041347082519531,7.702146740722656,59.19083969465649,-26.045801526717558,8.473282442748092,0.0
10.890000343322754,-19.457676892089843,0.43574470214843747,1.209071838378906,9.099236641221374,-189.78625954198472,20.229007633587788,-11.209652172851563,9.028534460449219,0.852335791015625,67.6030534351145,-41.221374045801525,32.25954198473283,0.0
10.900000810623169,-14.539986682128905,-1.1540052001953125,-2.4301146850585935,20.916030534351144,-180.0763358778626,28.427480916030536,-7.110778930664062,4.745307690429687,-6.191405493164062,38.06106870229008,-33.954198473282446,28.641221374045802,0.0
10.910000801086426,-11.762712756347655,-1.3934253662109375,-3.603273498535156,32.79389312977099,-156.45801526717557,32.51908396946565,-6.251260534667968,-1.0773907470703123,-8.456320263671875,16.061068702290076,-13.19083969465649,20.213740458015266,0.0
10.920000791549683,-8.190563879394531,-0.9433154541015625,-4.302380383300781,44.458015267175576,-132.0763358778626,32.916030534351144,-6.059724401855468,-5.691017346191406,-8.300697155761718,-0.32061068702290074,9.068702290076336,11.877862595419847,0.0
10.93000054359436,-8.097190014648437,0.9026140258789062,-2.6048914062499997,49.29770992366412,-98.80916030534351,27.633587786259543,-11.386823095703125,-9.60793126220703,-4.912901806640625,14.106870229007633,28.641221374045802,8.870229007633588,0.0
10.940000772476196,-7.675810522460937,1.2114660400390624,-2.308010400390625,49.55725190839695,-72.30534351145039,21.862595419847327,-12.473790649414061,-9.260772021484375,-4.553771557617187,35.19083969465649,31.6793893129771,-1.618320610687023,0.0
10.950000286102295,-10.041281762695311,3.81156904296875,0.15322890625,41.57251908396947,-42.6412213740458,13.557251908396946,-12.164938635253906,-7.165845568847656,-3.833116857910156,46.25954198473283,36.10687022900763,-12.80916030534351,0.0
10.960000276565552,-11.801019982910155,5.058948107910156,0.6679822631835937,9.84732824427481,-38.48854961832061,10.778625954198473,-10.927136376953124,-1.0534487304687499,-1.9800047729492187,47.05343511450382,40.916030534351144,-21.46564885496183,0.0
10.970000267028809,-9.969455712890625,3.323151904296875,0.21787235107421873,-9.282442748091603,-33.31297709923664,20.65648854961832,-8.55448253173828,3.497928625488281,-0.63206923828125,22.442748091603054,50.99236641221374,-21.52671755725191,0.0
10.980000495910645,-7.256825231933593,0.8355763793945312,-1.0295067138671874,-21.709923664122137,-26.85496183206107,29.022900763358777,-10.089165795898436,2.8993782104492185,2.1835119140624997,13.83206106870229,60.29007633587786,-6.580152671755725,0.0
10.990000486373901,-7.0102224609374995,-1.1013327636718748,-0.6488286499023437,-35.02290076335878,-18.137404580152673,30.03053435114504,-10.536881506347656,3.766079211425781,2.27927998046875,20.3206106870229,52.50381679389313,2.1068702290076335,0.0
11.000000476837158,-5.6958057495117185,-2.9855694702148434,-0.6392518432617187,-36.48854961832061,-10.625954198473282,28.793893129770993,-7.252036828613281,6.110002636718749,1.120486376953125,-3.3740458015267176,51.9236641221374,3.2061068702290076,0.0
11.010000944137573,-5.645527514648437,-2.786850732421875,-0.0383072265625,-39.70992366412214,-1.3893129770992367,24.916030534351144,-9.272743029785156,3.1555577880859373,2.750937707519531,-17.61832061068702,58.97709923664122,14.458015267175572,0.0
11.020000696182251,-5.087678527832031,-3.380612744140625,-0.430956298828125,-47.83206106870229,3.4198473282442747,19.83206106870229,-10.474632263183594,-1.0414777221679687,3.1651345947265623,-4.900763358778626,46.961832061068705,20.68702290076336,0.0
11.030000925064087,-3.4548329956054684,-3.782838623046875,-1.0079588989257813,-44.51908396946565,13.297709923664122,14.778625954198473,-11.645396875,-1.8698714965820311,3.9528269409179684,2.7480916030534353,38.88549618320611,20.15267175572519,0.0
11.040000438690186,-2.93050283203125,-3.3686417358398435,-1.2210428466796874,-47.05343511450382,25.49618320610687,7.083969465648855,-8.67658681640625,-0.23702596435546874,1.3742717529296875,4.412213740458015,26.564885496183205,14.290076335877863,0.0
11.050000667572021,-2.7916391357421872,-2.3319524169921872,-1.20667763671875,-59.45038167938932,35.57251908396947,-0.7480916030534351,-8.437166650390624,-1.1420341918945311,1.39821376953125,0.07633587786259542,23.450381679389313,13.099236641221374,0.0
11.060000658035278,-2.2457611572265623,-1.6424223388671875,-1.209071838378906,-66.79389312977099,47.86259541984733,-7.221374045801527,-9.165003955078124,-2.24097275390625,1.936909143066406,2.0610687022900764,21.938931297709924,13.770992366412214,0.0
11.070000410079956,-3.299209887695312,-0.28969840087890625,-0.9552864624023437,-91.86259541984732,54.778625954198475,-17.297709923664122,-8.858546142578124,-1.9608511596679685,2.2074539306640624,3.068702290076336,18.564885496183205,9.145038167938932,0.0
11.080000638961792,-2.6503812377929687,-3.0071172851562498,-1.7836802368164062,-79.49618320610686,65.78625954198473,-15.86259541984733,-8.532934716796875,-1.7453730102539062,2.511517541503906,0.8244274809160306,18.015267175572518,4.8396946564885495,0.0
11.090000629425049,-1.9321207397460936,-3.5984850952148437,-1.8650830932617186,-52.152671755725194,81.74045801526718,-19.572519083969464,-9.188945971679686,-2.518700146484375,2.85388837890625,2.4122137404580153,18.259541984732824,-0.13740458015267176,0.0
11.100000619888306,-3.821145849609375,-3.5913024902343746,-0.928950244140625,-22.931297709923665,95.32824427480917,-24.27480916030534,-9.660603698730467,-2.683900061035156,3.687070556640625,4.0,17.83206106870229,-2.4885496183206106,0.0
11.110000610351562,-6.023811376953125,-2.422932080078125,0.201112939453125,15.587786259541986,108.3969465648855,-24.076335877862597,-9.777919580078125,-2.0278888061523435,3.883395092773437,2.9770992366412212,15.770992366412214,-3.0381679389312977,0.0
11.12000036239624,-8.336610180664062,-0.8044517578125,1.5658078857421873,45.19083969465649,117.54198473282443,-20.213740458015266,-10.805032092285156,-1.4006079711914061,4.218583325195312,2.3053435114503817,13.297709923664122,-1.0534351145038168,0.0
11.130000591278076,-12.567164514160156,2.403778466796875,4.979939453125,65.17557251908397,121.52671755725191,-13.877862595419847,-10.529698901367187,-0.59376201171875,3.883395092773437,-3.4656488549618323,9.557251908396946,0.8091603053435115,0.0
11.140000820159912,-16.340426330566405,5.983109948730468,8.633491186523438,67.61832061068702,115.22137404580153,-4.030534351145038,-10.357316381835936,-0.6464344482421874,4.235342736816406,-8.717557251908397,4.061068702290076,4.259541984732825,0.0
11.15000057220459,-16.606182714843747,5.4779333984375,10.766724865722656,55.786259541984734,87.64885496183206,14.534351145038167,-10.443507641601562,-1.2234370483398436,4.185064501953125,-12.625954198473282,-1.633587786259542,6.244274809160306,0.0
11.160000562667847,-18.315642700195312,8.932766394042968,15.715539697265624,42.29007633587786,66.01526717557252,23.251908396946565,-10.970232006835937,-3.2130186279296873,4.747701892089843,-12.351145038167939,-5.633587786259542,6.824427480916031,0.0
11.170000314712524,-18.104952954101563,8.817844714355468,17.33880842285156,1.7251908396946565,19.297709923664122,27.893129770992367,-10.603919152832031,-3.9360675292968748,3.6248213134765623,-6.748091603053435,-11.618320610687023,2.2900763358778624,0.0
11.18000078201294,-15.184026928710937,4.407725256347656,14.348450549316405,-4.458015267175573,-12.82442748091603,36.10687022900763,-11.161768139648437,-6.212953308105468,3.5529952636718747,11.404580152671755,-13.48091603053435,2.854961832061069,0.0
11.190000534057617,-12.799402075195312,2.0925322509765625,9.536105212402344,21.328244274809162,-27.87786259541985,42.36641221374046,-11.437101330566406,-6.677428430175781,2.6096798095703124,45.98473282442748,-22.99236641221374,-1.618320610687023,0.0
11.200000524520874,-11.149797131347656,1.2306196533203124,3.785232824707031,35.083969465648856,-29.0381679389313,44.213740458015266,-9.392453112792968,-2.250549560546875,-0.38786066894531246,53.43511450381679,-26.83969465648855,-13.374045801526718,0.0
11.21000051498413,-9.011775048828124,-2.5546131713867184,-0.15562310791015624,20.213740458015266,-38.091603053435115,32.19847328244275,-7.50821640625,-0.24899697265624998,0.09576806640624999,52.412213740458014,-14.396946564885496,-14.091603053435115,0.0
11.220000505447388,-5.310339282226562,-7.252036828613281,-1.2761094848632812,-8.732824427480915,-36.67175572519084,12.931297709923664,-7.876923461914062,0.1867477294921875,0.6440402465820312,52.70229007633588,-6.99236641221374,-11.17557251908397,0.0
11.230000495910645,-4.335899206542969,-8.935160595703124,0.0526724365234375,-12.80916030534351,-22.366412213740457,-5.32824427480916,-7.5153990112304685,2.308010400390625,-0.41898529052734373,47.6793893129771,-6.580152671755725,-13.374045801526718,0.0
11.240000486373901,-4.76924970703125,-6.2584431396484375,0.8092401611328125,7.114503816793893,-6.2748091603053435,-10.213740458015268,-9.143456140136719,2.0733786376953125,0.8283937744140625,37.02290076335878,4.290076335877862,-7.984732824427481,0.0
11.250000476837158,-5.851428857421874,-1.8938135131835936,0.1197100830078125,31.954198473282442,12.595419847328245,-8.778625954198473,-11.281478222656249,2.0877438476562498,1.5849614990234373,33.221374045801525,5.526717557251908,-0.5954198473282443,0.0
11.260000467300415,-6.452373474121093,-1.0630255371093749,-1.3144167114257812,52.44274809160305,31.282442748091604,-7.0534351145038165,-10.953472595214842,2.1619640991210938,0.9361328491210937,18.916030534351144,3.312977099236641,2.2900763358778624,0.0
11.27000093460083,-8.0062103515625,-0.2609679809570312,-1.6136919189453125,64.99236641221374,46.80916030534351,-10.473282442748092,-10.275913525390624,1.4245499877929686,0.5363011718749999,7.679389312977099,2.6717557251908395,8.366412213740459,0.0
11.280000686645508,-9.272743029785156,0.3064578125,-1.9033903198242186,68.21374045801527,57.48091603053435,-15.572519083969466,-9.962273107910155,0.18914193115234373,0.7445967163085937,0.8702290076335878,3.6793893129770994,13.206106870229007,0.0
11.290000915527344,-11.470620153808593,2.7341782958984373,-0.42377369384765623,62.99236641221374,69.95419847328245,-19.954198473282442,-9.17458076171875,-0.8978256225585937,0.6057330200195312,-4.885496183206107,4.99236641221374,15.679389312977099,0.0
11.300000429153442,-13.239935180664062,6.344634399414062,1.7357962036132812,48.229007633587784,72.07633587786259,-18.519083969465647,-8.825027319335938,-1.70467158203125,0.0143652099609375,-7.282442748091603,7.312977099236641,14.625954198473282,0.0
11.310000658035278,-13.227964172363281,7.208941198730468,3.574543078613281,32.213740458015266,65.83206106870229,-8.610687022900763,-9.267954626464844,-2.4756045166015626,-0.086191259765625,-7.068702290076335,9.954198473282442,13.17557251908397,0.0
11.320000648498535,-13.642161059570311,6.995857250976562,6.191405493164062,12.335877862595419,56.6412213740458,-3.0076335877862594,-9.648632690429688,-2.916137622070312,-0.201112939453125,-4.183206106870229,12.595419847328245,10.259541984732824,0.0
11.330000638961792,-11.767501159667969,4.896142395019531,5.559336254882812,-7.648854961832061,39.86259541984733,0.16793893129770993,-10.105925207519531,-2.817975354003906,0.105344873046875,2.7938931297709924,14.01526717557252,6.534351145038168,0.0
11.34000039100647,-8.585607153320312,2.712630480957031,4.42448466796875,-19.84732824427481,30.50381679389313,2.50381679389313,-10.141838232421874,-2.4061726684570313,0.43574470214843747,9.770992366412214,14.83969465648855,5.221374045801527,0.0
11.350000619888306,-7.867346655273437,1.0845733520507812,3.0166940917968748,-24.99236641221374,29.740458015267176,3.1755725190839694,-10.376469995117187,-1.70467158203125,0.7876923461914062,17.709923664122137,15.389312977099237,4.183206106870229,0.0
11.360000371932983,-8.36294639892578,0.39264907226562495,2.50912333984375,-34.58015267175573,24.442748091603054,2.5801526717557253,-10.436325036621094,-0.5267243652343749,1.1156979736328125,24.763358778625953,15.068702290076336,4.702290076335878,0.0
11.37000060081482,-7.570465649414062,-1.6400281372070311,2.2266075439453124,-26.80916030534351,25.52671755725191,4.763358778625954,-10.333374365234375,0.6919242797851562,1.3934253662109375,27.236641221374047,15.358778625954198,6.641221374045801,0.0
11.380000591278076,-7.295132458496093,-2.6958710693359373,2.1068974609374997,-9.221374045801527,30.748091603053435,3.9389312977099236,-10.160991845703125,1.5562310791015623,1.455674609375,25.358778625954198,15.022900763358779,8.687022900763358,0.0
11.390000343322754,-7.625532287597656,-2.5234885498046875,1.7501614135742187,7.526717557251908,32.88549618320611,0.6870229007633588,-9.78031378173828,2.3223756103515623,1.139639990234375,20.0,14.870229007633588,12.366412213740459,0.0
11.400000810623169,-9.009380847167968,-1.37906015625,2.6001030029296874,21.46564885496183,36.961832061068705,-2.1374045801526718,-9.789890588378906,1.9488801513671874,1.47482822265625,15.16030534351145,15.694656488549619,15.709923664122137,0.0
11.410000562667847,-9.871293444824218,-0.22026655273437498,3.086125939941406,36.3206106870229,39.00763358778626,-4.213740458015267,-9.469067565917967,1.5203180541992187,1.2425906616210938,7.6183206106870225,16.198473282442748,17.69465648854962,0.0
11.420000553131104,-9.916783276367187,2.042254016113281,3.0310593017578125,35.37404580152672,34.091603053435115,-6.183206106870229,-9.4618849609375,0.9935936889648437,1.1923124267578125,3.099236641221374,16.259541984732824,18.48854961832061,0.0
11.43000054359436,-9.236830004882812,2.7581203125,2.645592834472656,31.17557251908397,27.34351145038168,-3.83206106870229,-9.727641345214844,0.143652099609375,1.5466542724609373,-0.030534351145038167,16.38167938931298,19.81679389312977,0.0
11.440000772476196,-9.991003527832031,3.3686417358398435,3.0142998901367184,22.977099236641223,28.137404580152673,-1.8931297709923665,-9.593566052246093,-0.17956512451171874,1.3958195678710936,-6.106870229007634,16.229007633587788,18.99236641221374,0.0
11.450000524520874,-9.512163195800781,4.402936853027343,2.4516625,11.435114503816793,20.595419847328245,0.6259541984732825,-8.968679418945312,-0.833182177734375,1.139639990234375,-8.534351145038167,14.748091603053435,17.00763358778626,0.0
11.46000051498413,-9.904812268066406,5.1140147460937495,3.153163586425781,-0.07633587786259542,18.366412213740457,1.9083969465648856,-10.24000050048828,-2.2864625854492187,1.8531120849609375,-6.183206106870229,13.221374045801527,15.664122137404581,0.0
11.470000505447388,-9.210493786621093,3.5194764404296874,2.8898014038085935,-6.931297709923665,15.236641221374045,5.450381679389313,-10.682927807617187,-2.3582886352539063,2.3367408203125,-1.8625954198473282,10.381679389312977,12.977099236641221,0.0
11.480000495910645,-8.973467822265624,2.7653029174804686,2.31758720703125,-10.244274809160306,15.053435114503817,7.4961832061068705,-9.943119494628906,-1.6136919189453125,2.1164742675781247,-0.24427480916030533,6.717557251908397,10.396946564885496,0.0
11.490000486373901,-9.337386474609374,2.760514514160156,2.205059729003906,-14.992366412213741,14.82442748091603,7.786259541984733,-9.809044201660155,-1.1109095703125,2.1356278808593747,3.4656488549618323,4.076335877862595,8.687022900763358,0.0
11.500000238418579,-9.737218151855469,2.408566870117187,2.0973206542968748,-19.893129770992367,14.610687022900763,8.51908396946565,-10.417171423339843,-1.0797849487304687,2.7653029174804686,7.9541984732824424,2.1374045801526718,9.145038167938932,0.0
11.510000944137573,-9.445125549316407,1.407790576171875,1.924938134765625,-21.81679389312977,14.305343511450381,8.961832061068701,-9.665392102050781,-0.0718260498046875,2.530671154785156,8.106870229007633,-1.618320610687023,7.908396946564886,0.0
11.520000457763672,-9.560047229003906,0.9983820922851562,2.1619640991210938,-22.3206106870229,14.473282442748092,8.595419847328245,-9.512163195800781,0.48123453369140623,2.2577321655273437,7.709923664122138,-3.114503816793893,8.412213740458014,0.0
11.530000686645508,-9.658209497070311,0.7972691528320313,2.6144682128906247,-20.412213740458014,14.83969465648855,7.221374045801527,-9.6151138671875,0.7589619262695312,2.252943762207031,5.862595419847328,-3.2977099236641223,9.389312977099237,0.0
11.540000677108765,-9.65342109375,0.48123453369140623,1.9512743530273435,-15.694656488549619,14.702290076335878,5.969465648854962,-10.098742602539062,0.19632453613281248,2.8323405639648436,6.137404580152672,-3.1297709923664123,11.633587786259541,0.0
11.5500009059906,-9.440337145996093,0.469263525390625,2.166752502441406,-10.213740458015268,14.748091603053435,4.977099236641221,-10.577582934570312,-0.8044517578125,3.27526787109375,14.549618320610687,-7.297709923664122,11.679389312977099,0.0
11.5600004196167,-9.787496386718749,0.8643067993164062,2.152387292480469,-4.854961832061068,15.17557251908397,3.282442748091603,-10.685322009277343,-0.9169792358398436,3.5146880371093747,20.671755725190838,-12.229007633587786,11.572519083969466,0.0
11.570000648498535,-9.45470235595703,1.3287819213867187,2.013523596191406,1.3282442748091603,15.450381679389313,3.480916030534351,-10.259154113769531,0.22026655273437498,1.8626888916015625,22.198473282442748,-23.099236641221374,6.564885496183206,0.0
11.580000638961792,-9.303867651367186,2.3726538452148436,2.118868469238281,2.8396946564885495,16.244274809160306,2.732824427480916,-8.444349255371094,3.124433166503906,0.4165910888671875,3.068702290076336,-20.38167938931298,2.2442748091603053,0.0
11.59000039100647,-9.765948571777344,3.4907460205078125,1.898601916503906,-3.877862595419847,16.015267175572518,2.854961832061069,-8.315062365722655,3.0789433349609374,0.21787235107421873,-14.65648854961832,-10.442748091603054,10.091603053435115,0.0
11.600000619888306,-9.964667309570311,3.1124621582031247,1.8698714965820311,-11.86259541984733,15.83206106870229,4.396946564885496,-11.10191309814453,-0.8188169677734375,2.269703173828125,-14.305343511450381,-1.0381679389312977,19.282442748091604,0.0
11.610000610351562,-10.002974536132811,2.2673089721679687,1.7860744384765623,-16.229007633587788,15.34351145038168,4.305343511450381,-10.309432348632813,-1.2138602416992186,2.3630770385742186,-9.48091603053435,-6.366412213740458,16.50381679389313,0.0
11.62000060081482,-10.673351000976561,2.4851813232421875,1.8507178833007811,-20.519083969465647,14.564885496183207,3.3740458015267176,-10.204087475585936,-1.005564697265625,3.1172505615234374,-6.106870229007634,-7.6183206106870225,13.618320610687023,0.0
11.630000591278076,-10.204087475585936,2.4516625,1.5777788940429687,-26.671755725190838,12.65648854961832,3.4656488549618323,-9.586383447265625,-0.679953271484375,2.7269956909179687,-9.068702290076336,-12.045801526717558,10.916030534351146,0.0
11.640000820159912,-9.488221179199218,1.189918225097656,1.1755530151367186,-22.35114503816794,15.404580152671755,3.877862595419847,-11.532869396972655,-1.6807295654296874,3.902548706054687,-0.5801526717557252,-13.770992366412214,12.076335877862595,0.0
11.65000057220459,-8.671798413085938,0.5267243652343749,0.5889736083984375,-22.900763358778626,13.572519083969466,3.068702290076336,-11.367669482421874,-2.5474305664062498,3.9504327392578125,12.076335877862595,-26.717557251908396,6.67175572519084,0.0
11.660000801086426,-8.549694128417968,-0.40940848388671874,0.82360537109375,-11.786259541984732,18.061068702290076,1.4351145038167938,-11.717222924804688,-0.8092401611328125,4.168305090332031,17.404580152671755,-37.81679389312977,1.4961832061068703,0.0
11.670000553131104,-9.548076220703125,1.2761094848632812,1.6400281372070311,-11.755725190839694,21.480916030534353,-3.8473282442748094,-9.816226806640625,2.825157958984375,2.664746447753906,4.305343511450381,-43.41984732824427,-5.801526717557252,0.0
11.68000078201294,-9.14824454345703,1.4987702392578124,1.7693150268554687,-13.725190839694656,20.717557251908396,-3.3282442748091605,-9.878476049804688,3.1316157714843746,3.5314474487304683,-10.366412213740459,-36.25954198473283,3.1755725190839694,0.0
11.690000295639038,-9.588777648925781,1.2018892333984375,1.9608511596679685,-14.534351145038167,19.633587786259543,-3.0076335877862594,-12.588712329101561,-0.15322890625,3.775656018066406,-7.526717557251908,-37.23664122137404,8.748091603053435,0.0
11.700000524520874,-10.460267053222656,1.5418658691406248,1.9129671264648436,-12.01526717557252,17.984732824427482,-4.641221374045801,-11.61906065673828,-0.5363011718749999,3.27526787109375,-2.50381679389313,-45.66412213740458,3.236641221374046,0.0
11.71000051498413,-10.007762939453125,2.0159177978515626,1.608903515625,-7.374045801526718,15.801526717557252,-4.152671755725191,-8.686163623046875,2.4444798950195312,2.3535002319335936,-10.748091603053435,-52.06106870229008,-0.5190839694656488,0.0
11.720000743865967,-9.579200842285156,2.1308394775390624,1.350329736328125,-5.679389312977099,14.274809160305344,-2.4732824427480917,-9.030928662109375,0.51714755859375,3.39018955078125,-20.519083969465647,-46.19847328244275,4.183206106870229,0.0
11.730000495910645,-9.543287817382812,2.310404602050781,1.2473790649414063,-4.351145038167939,15.17557251908397,-1.9389312977099236,-11.396399902343749,-1.8531120849609375,4.809951135253906,-7.877862595419847,-46.10687022900763,6.458015267175573,0.0
11.740000486373901,-8.949525805664061,2.7653029174804686,0.7254431030273437,-6.396946564885496,11.84732824427481,-2.3969465648854964,-10.989385620117186,-0.7254431030273437,4.039018200683594,4.977099236641221,-59.81679389312977,0.7480916030534351,0.0
11.750000238418579,-8.525752111816406,2.3032219970703123,0.7733271362304687,-1.450381679389313,13.893129770992367,-0.6870229007633588,-7.4770917846679685,2.492363928222656,2.7198130859375,-6.412213740458015,-62.83969465648855,-2.8396946564885495,0.0
11.760000705718994,-9.373299499511718,2.9855694702148434,1.1109095703125,-7.145038167938932,16.244274809160306,-1.4351145038167938,-8.832209924316405,0.6440402465820312,2.568978381347656,-11.893129770992367,-55.61832061068702,1.450381679389313,0.0
11.77000093460083,-9.45470235595703,2.7198130859375,1.1324573852539062,-9.48091603053435,15.435114503816793,-1.1755725190839694,-10.805032092285156,-0.38786066894531246,2.741360900878906,-3.6946564885496183,-58.030534351145036,1.984732824427481,0.0
11.780000686645508,-9.526528405761718,2.511517541503906,1.3910311645507811,-10.351145038167939,15.038167938931299,-1.9541984732824427,-8.33182177734375,2.925714428710937,0.8188169677734375,-11.511450381679388,-60.97709923664122,-3.984732824427481,0.0
11.790000677108765,-9.418789331054686,2.5737667846679684,1.369483349609375,-10.992366412213741,14.259541984732824,-0.8091603053435115,-7.323862878417969,1.927332336425781,1.5203180541992187,-25.84732824427481,-46.10687022900763,0.12213740458015267,0.0
11.800000429153442,-9.619902270507811,2.370259643554687,1.5634136840820312,-12.335877862595419,14.51908396946565,-0.6106870229007634,-9.222464794921875,0.4860229370117187,1.5035586425781249,-21.862595419847327,-40.94656488549618,3.282442748091603,0.0
11.810000658035278,-8.547299926757812,1.1324573852539062,0.93852705078125,-4.519083969465649,14.946564885496183,0.16793893129770993,-9.133879333496093,-0.02154781494140625,1.199495031738281,-15.86259541984733,-39.63358778625954,1.984732824427481,0.0
11.820000648498535,-9.3086560546875,2.9664158569335934,1.5035586425781249,-1.8625954198473282,18.48854961832061,-2.717557251908397,-7.419630944824219,1.5251064575195312,0.584185205078125,-19.893129770992367,-37.3587786259542,-1.3587786259541985,0.0
11.830000638961792,-9.236830004882812,2.760514514160156,1.1109095703125,-6.122137404580153,16.625954198473284,-1.5877862595419847,-9.349357482910156,0.6153098266601562,2.454056701660156,-29.17557251908397,-20.53435114503817,0.3511450381679389,0.0
11.840000629425049,-9.56962403564453,3.1028853515624997,1.4532804077148436,-11.877862595419847,15.312977099236642,-1.6793893129770991,-8.05648858642578,0.3064578125,1.2114660400390624,-37.20610687022901,-15.84732824427481,-1.5419847328244274,0.0
11.850000619888306,-9.315838659667968,2.5713725830078125,1.254561669921875,-13.694656488549619,13.068702290076336,-0.6259541984732825,-9.6917283203125,-0.8667010009765624,2.0063409912109376,-25.022900763358777,-14.748091603053435,-0.22900763358778625,0.0
11.860000610351562,-8.463502868652343,1.8124106567382812,0.9552864624023437,-7.404580152671755,14.229007633587786,0.732824427480916,-9.176974963378905,-0.34715924072265625,2.5139117431640625,-20.65648854961832,-13.541984732824428,-1.9541984732824427,0.0
11.87000060081482,-9.612719665527344,3.727771984863281,1.5801730957031248,-10.15267175572519,16.80916030534351,-2.8091603053435112,-7.989450939941406,0.354341845703125,1.8339584716796873,-19.954198473282442,-12.946564885496183,-3.8931297709923665,0.0
11.880000591278076,-9.466673364257812,3.347093920898437,0.9433154541015625,-15.572519083969466,13.755725190839694,-0.42748091603053434,-9.107543115234375,-0.33758243408203126,2.89219560546875,-13.786259541984732,-9.587786259541986,-3.1755725190839694,0.0
11.890000343322754,-9.023746057128905,2.3343466186523436,1.3335703247070312,-15.816793893129772,13.923664122137405,1.3282442748091603,-9.119514123535156,-0.6105214233398437,3.227383837890625,-10.305343511450381,-8.793893129770993,-3.648854961832061,0.0
11.900000810623169,-10.194510668945313,2.770091320800781,1.6112977172851561,-18.748091603053435,14.259541984732824,-0.21374045801526717,-8.48505068359375,-0.1580173095703125,2.839523168945312,-5.068702290076335,-10.564885496183207,-5.145038167938932,0.0
11.910000562667847,-9.495403784179686,2.272097375488281,1.7022773803710936,-16.885496183206108,13.49618320610687,0.6717557251908397,-8.736441857910156,-0.15322890625,3.318363500976562,-1.5877862595419847,-8.50381679389313,-5.374045801526718,0.0
11.920019149780273,-9.821015209960937,2.003946789550781,1.649604943847656,-17.6793893129771,12.641221374045802,0.15267175572519084,-8.667010009765624,0.7302315063476562,3.27526787109375,0.4580152671755725,-7.099236641221374,-6.427480916030534,0.0
11.93000054359436,-9.727641345214844,1.8195932617187498,1.5179238525390624,-17.51145038167939,12.366412213740459,0.33587786259541985,-8.046911779785155,0.277727392578125,3.0741549316406247,1.786259541984733,-7.511450381679389,-6.9465648854961835,0.0
11.940000534057617,-9.414000927734374,1.4724340209960938,1.5682020874023437,-16.595419847328245,11.969465648854962,-0.32061068702290074,-7.867346655273437,0.8499415893554687,3.227383837890625,-1.816793893129771,-3.145038167938931,-6.198473282442748,0.0
11.950000524520874,-9.710881933593749,1.3934253662109375,1.62805712890625,-15.450381679389313,11.679389312977099,-0.8854961832061069,-7.6614453125,1.0319009155273438,3.2034418212890623,-2.900763358778626,-1.8931297709923665,-5.709923664122138,0.0
11.960000276565552,-9.380482104492186,1.1755530151367186,1.5155296508789062,-12.854961832061068,9.98473282442748,-1.984732824427481,-7.8362220336914055,0.9265560424804687,3.191470812988281,-3.2977099236641223,-0.9618320610687023,-4.564885496183206,0.0
11.970000267028809,-9.150638745117186,1.235408056640625,1.5945383056640625,-10.259541984732824,10.15267175572519,-3.2519083969465647,-7.896077075195312,0.8403647827148437,3.5577836669921874,-5.0534351145038165,0.24427480916030533,-2.6106870229007635,0.0
11.980000495910645,-9.267954626464844,1.5394716674804687,1.5777788940429687,-7.541984732824427,9.083969465648854,-3.49618320610687,-7.572859851074218,1.0438719238281249,3.450044592285156,-7.893129770992366,1.1297709923664123,-1.2366412213740459,0.0
11.990000247955322,-9.466673364257812,1.7908628417968748,1.8722656982421875,-5.938931297709924,8.305343511450381,-4.1679389312977095,-7.979874133300781,0.59376201171875,3.5506010620117183,-8.16793893129771,1.5572519083969465,1.1908396946564885,0.0
12.000000476837158,-9.315838659667968,2.2481553588867187,2.01112939453125,-4.641221374045801,6.67175572519084,-3.5267175572519083,-7.771578588867187,0.34237083740234375,3.459621398925781,-10.396946564885496,2.198473282442748,2.0763358778625953,0.0
12.010001182556152,-9.315838659667968,2.1499930908203124,2.645592834472656,-2.4732824427480917,3.7557251908396947,-3.572519083969466,-8.17141026611328,-0.09576806640624999,3.7517140014648436,-11.511450381679388,3.0076335877862594,3.145038167938931,0.0
12.020000696182251,-9.53131680908203,2.1452046874999997,2.731784094238281,-2.5343511450381677,1.450381679389313,-2.763358778625954,-8.090007409667969,-0.19153613281249998,4.13718046875,-15.16030534351145,2.732824427480916,2.122137404580153,0.0
12.030000925064087,-9.394847314453125,2.3247698120117186,3.1962592163085937,-0.8702290076335878,-2.564885496183206,-2.3969465648854964,-8.283937744140625,-0.430956298828125,4.50109912109375,-19.64885496183206,2.427480916030534,1.251908396946565,0.0
12.040000677108765,-9.375693701171874,2.205059729003906,3.6056677001953124,1.4351145038167938,-7.083969465648855,-2.549618320610687,-8.25520732421875,-0.852335791015625,4.364629626464843,-22.35114503816794,2.8091603053435112,-0.4122137404580153,0.0
12.050000667572021,-9.04050546875,1.7717092285156248,3.21780703125,4.916030534351145,-11.007633587786259,-2.687022900763359,-8.2360537109375,-1.3072341064453123,3.9169139160156248,-22.80916030534351,2.0,-2.4122137404580153,0.0
12.060000658035278,-8.643067993164061,1.2689268798828124,3.086125939941406,7.114503816793893,-13.938931297709924,-3.801526717557252,-8.281543542480469,-1.5514426757812498,3.706224169921875,-20.0,2.2595419847328246,-4.961832061068702,0.0
12.070000648498535,-8.283937744140625,1.3814543579101561,3.3446997192382812,10.641221374045802,-16.38167938931298,-5.419847328244275,-8.288726147460936,-1.7429788085937499,3.347093920898437,-15.19083969465649,2.6412213740458017,-8.381679389312977,0.0
12.080000400543213,-8.43956085205078,1.7022773803710936,3.69664736328125,14.67175572519084,-19.206106870229007,-6.549618320610687,-8.377311608886718,-1.905784521484375,3.1747114013671873,-7.8320610687022905,2.854961832061069,-10.580152671755725,0.0
12.090000629425049,-7.9295958984374995,1.5203180541992187,3.5098996337890624,18.83969465648855,-21.297709923664122,-6.656488549618321,-8.410830432128906,-2.310404602050781,3.105279553222656,2.2748091603053435,2.900763358778626,-13.038167938931299,0.0
12.100056886672974,-7.773972790527344,1.5610194824218748,3.289633081054687,21.52671755725191,-23.450381679389313,-7.282442748091603,-8.073247998046874,-2.080561242675781,3.248931652832031,12.198473282442748,3.450381679389313,-15.404580152671755,0.0
12.110000610351562,-8.250418920898436,2.1021090576171875,3.67749375,23.64885496183206,-26.48854961832061,-8.51908396946565,-7.829039428710937,-1.5586252807617187,3.9815573608398434,19.603053435114504,2.7938931297709924,-16.80916030534351,0.0
12.12000060081482,-8.453926062011718,1.9919757812499999,3.9935283691406247,27.587786259541986,-28.03053435114504,-7.175572519083969,-7.431601953125,-1.0295067138671874,4.292803576660156,20.12213740458015,1.3435114503816794,-17.114503816793892,0.0
12.130000591278076,-8.71489404296875,1.7741034301757812,3.323151904296875,29.541984732824428,-30.900763358778626,-7.267175572519084,-7.067683300781249,-0.9217676391601562,4.649539624023437,19.709923664122137,1.6946564885496183,-15.969465648854962,0.0
12.140000820159912,-8.836998327636719,1.7932570434570312,3.361459130859375,28.48854961832061,-34.25954198473283,-8.763358778625955,-5.815515832519531,0.33758243408203126,3.4620156005859375,16.015267175572518,0.8244274809160306,-16.916030534351144,0.0
12.15000057220459,-9.81862100830078,3.6296097167968746,4.438849877929687,25.068702290076335,-37.00763358778626,-11.969465648854962,-5.892130285644531,0.36391865234375,3.7205893798828122,8.50381679389313,6.778625954198473,-15.32824427480916,0.0
12.160000562667847,-8.626308581542968,2.3223756103515623,3.651157531738281,25.34351145038168,-43.969465648854964,-8.931297709923664,-6.0716954101562495,1.1252747802734375,3.670311145019531,1.1908396946564885,9.648854961832061,-14.091603053435115,0.0
12.170000314712524,-7.378929516601562,0.11013327636718749,2.2194249389648437,29.435114503816795,-46.412213740458014,-6.824427480916031,-6.797138513183594,1.5059528442382812,3.9145197143554684,-3.7709923664122136,9.954198473282442,-13.053435114503817,0.0
12.18000078201294,-8.05648858642578,0.5746083984375,1.7094599853515624,25.480916030534353,-44.030534351145036,-12.16793893129771,-6.663063220214843,1.3742717529296875,4.484339709472656,-10.916030534351146,11.465648854961833,-12.82442748091603,0.0
12.190000534057617,-7.615955480957031,0.26336218261718747,2.2553379638671873,28.763358778625953,-45.55725190839695,-13.022900763358779,-6.6893994384765625,1.8291700683593748,4.7955859252929685,-18.244274809160306,9.541984732824428,-12.274809160305344,0.0
12.200000286102295,-7.558494641113281,1.1372457885742187,3.383006945800781,35.29770992366412,-43.282442748091604,-15.725190839694656,-4.44363828125,3.5003228271484375,3.7517140014648436,-45.23664122137404,9.221374045801527,-11.022900763358779,0.0
12.21000051498413,-8.300697155761718,1.426944189453125,2.93050283203125,28.045801526717558,-45.19083969465649,-18.80916030534351,-6.380547424316406,2.123656872558594,4.745307690429687,-52.68702290076336,20.68702290076336,-0.4580152671755725,0.0
12.220000267028809,-7.728482958984374,0.7493851196289062,2.4205378784179685,21.236641221374047,-50.83969465648855,-22.48854961832061,-7.675810522460937,0.4381389038085937,4.125209460449218,-46.33587786259542,12.061068702290076,2.717557251908397,0.0
12.230000495910645,-7.905653881835937,0.6631938598632812,3.2609026611328122,20.366412213740457,-55.908396946564885,-27.328244274809162,-6.947973217773437,2.1739351074218747,4.276044165039062,-52.88549618320611,7.068702290076335,-3.7099236641221376,0.0
12.240000247955322,-7.599196069335937,1.8650830932617186,4.446032482910156,23.099236641221374,-62.12213740458015,-30.83969465648855,-7.606378674316406,2.2936451904296873,3.892971899414062,-73.29770992366412,9.297709923664122,-10.610687022900763,0.0
12.250000238418579,-8.827421520996094,3.361459130859375,5.027823486328125,22.732824427480917,-68.9618320610687,-31.14503816793893,-12.581529724121093,-5.947196923828125,3.859453076171875,-86.21374045801527,31.358778625954198,-13.893129770992367,0.0
12.260000467300415,-12.72997022705078,4.790797521972656,5.829881042480468,10.580152671755725,-79.81679389312977,-28.717557251908396,-15.69878028564453,-14.496891052246093,-0.565031591796875,-38.229007633587784,25.908396946564885,-13.709923664122137,0.0
12.27000093460083,-14.896722729492186,4.996698864746094,6.457161877441406,1.8625954198473282,-102.21374045801527,-22.671755725190838,-9.303867651367186,-9.689334118652344,-11.137826123046874,18.610687022900763,14.305343511450381,-25.358778625954198,0.0
12.280000686645508,-16.90545792236328,4.666299035644531,6.279990954589843,-3.8931297709923665,-121.00763358778626,-18.015267175572518,-12.816161486816405,0.16998831787109375,-5.80354482421875,48.656488549618324,37.221374045801525,-31.572519083969464,0.0
12.290000915527344,-17.70990968017578,2.346317626953125,4.582501977539062,-7.9541984732824424,-140.5648854961832,-11.038167938931299,-24.334665673828123,8.394071020507813,12.605471740722656,26.717557251908396,55.89312977099237,-48.10687022900763,0.0
12.300000429153442,-18.20790362548828,0.8810662109374999,3.9552211425781247,3.8625954198473282,-150.94656488549617,-1.6488549618320612,-29.649793359375,4.661510632324219,21.77047569580078,-25.374045801526716,33.099236641221374,-40.229007633587784,0.0
12.3100004196167,-17.176002709960937,0.11013327636718749,2.1547814941406247,22.946564885496183,-153.7709923664122,13.389312977099237,-22.00031905517578,0.11013327636718749,9.536105212402344,37.587786259541986,-15.648854961832061,3.83206106870229,0.0
12.320000648498535,-16.778565234374998,1.1731588134765625,0.40222587890625,37.37404580152672,-148.54961832061068,24.778625954198475,-10.70686982421875,5.6383449096679685,-1.0462661254882812,68.80916030534351,-41.725190839694655,32.961832061068705,0.0
12.330000638961792,-15.401899279785155,3.23696064453125,-0.23223756103515625,34.61068702290076,-140.0916030534351,32.0,-8.015787158203125,3.342305517578125,-6.792350109863281,54.33587786259542,-39.41984732824427,39.98473282442748,0.0
12.340000629425049,-12.887987536621093,2.3367408203125,-2.195482922363281,27.603053435114504,-129.54198473282443,40.091603053435115,-3.071760729980469,-0.15562310791015624,-12.413935607910156,18.68702290076336,-31.572519083969464,25.587786259541986,0.0
12.350000619888306,-11.286266625976562,1.898601916503906,-2.7174188842773437,24.259541984732824,-108.27480916030534,44.0763358778626,-6.196193896484375,-7.199364392089843,-7.467514978027343,-5.00763358778626,15.251908396946565,18.442748091603054,0.0
12.360000610351562,-11.480196960449218,1.4796166259765624,-1.4101847778320311,15.908396946564885,-86.65648854961832,40.70229007633588,-11.305420239257812,-10.541669909667968,-5.157110375976562,21.480916030534353,22.198473282442748,13.282442748091603,0.0
12.37000060081482,-9.141061938476563,-0.5339069702148437,-2.042254016113281,17.862595419847327,-72.09160305343511,35.05343511450382,-10.989385620117186,-8.28633194580078,-3.816357446289062,39.29770992366412,25.755725190839694,-2.0763358778625953,0.0
12.380000591278076,-11.03248125,0.15322890625,-0.4860229370117187,27.0381679389313,-42.01526717557252,35.11450381679389,-11.01332763671875,-3.2154128295898436,-3.1699229980468746,44.48854961832061,31.84732824427481,-8.687022900763358,0.0
12.390000581741333,-10.979808813476561,2.2481553588867187,-0.0047884033203125,26.83969465648855,-21.6793893129771,29.61832061068702,-10.311826550292968,1.0127473022460938,-2.3918074584960936,32.18320610687023,46.412213740458014,-10.442748091603054,0.0
12.400000810623169,-12.07874737548828,3.9312791259765625,0.26815058593749996,-2.2595419847328246,-19.17557251908397,27.34351145038168,-11.17852755126953,2.1691467041015624,0.3399766357421875,16.610687022900763,60.54961832061068,-2.3206106870229006,0.0
12.410000562667847,-10.802637890625,1.7669208251953124,-0.22744915771484372,-17.267175572519083,-15.664122137404581,35.45038167938932,-10.939107385253905,2.001552587890625,0.9121908325195311,18.595419847328245,57.37404580152672,7.190839694656488,0.0
12.420000553131104,-8.180987072753906,-0.6392518432617187,-0.63206923828125,-29.083969465648856,-7.923664122137405,38.79389312977099,-8.322244970703125,5.2073886108398435,0.354341845703125,1.7099236641221374,54.74809160305343,6.473282442748092,0.0
12.43000054359436,-6.730100866699218,-1.8243816650390623,-0.4429273071289062,-36.458015267175576,-0.4580152671755725,37.05343511450382,-8.927977990722656,2.978386865234375,2.0925322509765625,-20.045801526717558,65.52671755725191,15.86259541984733,0.0
12.440001010894775,-6.229712719726562,-2.849099975585937,0.033518823242187495,-45.55725190839695,5.343511450381679,32.29007633587786,-11.068394274902342,-1.16837041015625,2.829946362304687,-8.290076335877863,60.30534351145038,23.755725190839694,0.0
12.450000524520874,-5.774814404296874,-3.153163586425781,0.4381389038085937,-51.55725190839695,11.068702290076336,23.69465648854962,-10.261548315429687,0.8164227661132812,1.426944189453125,-8.229007633587786,47.66412213740458,19.755725190839694,0.0
12.46000051498413,-4.802768530273437,-3.1747114013671873,0.16759411621093748,-55.038167938931295,17.450381679389313,16.870229007633586,-8.444349255371094,1.9536685546875,1.6448165405273436,-21.435114503816795,51.465648854961835,19.16030534351145,0.0
12.470000505447388,-4.04141240234375,-3.5386300537109374,-0.14125789794921875,-60.01526717557252,24.53435114503817,11.312977099236642,-9.564835632324218,-2.1787235107421874,2.5713725830078125,-9.98473282442748,47.954198473282446,24.33587786259542,0.0
12.480000495910645,-3.9624037475585934,-3.5529952636718747,-0.00239420166015625,-67.12977099236642,33.00763358778626,3.236641221374046,-11.389217297363281,-3.227383837890625,4.110844250488281,11.022900763358779,36.732824427480914,22.595419847328245,0.0
12.49000072479248,-4.127603662109375,-3.1172505615234374,0.3016694091796875,-72.87022900763358,41.31297709923664,-5.66412213740458,-8.88009395751953,-0.8020575561523438,2.8275521606445313,11.038167938931299,26.9618320610687,13.86259541984733,0.0
12.500000715255737,-5.248090039062499,-1.93451494140625,0.354341845703125,-85.7557251908397,46.83969465648855,-13.358778625954198,-8.080430603027343,-1.0726023437499999,2.4396914916992185,7.740458015267175,24.3206106870229,10.82442748091603,0.0
12.510000944137573,-3.9815573608398434,-2.3726538452148436,-0.8762778076171874,-86.85496183206106,52.30534351145038,-16.259541984732824,-8.89924757080078,-1.9823989746093749,3.0166940917968748,7.7251908396946565,21.450381679389313,10.076335877862595,0.0
12.520000696182251,-1.426944189453125,-4.46279189453125,-2.978386865234375,-66.79389312977099,60.62595419847328,-16.641221374045802,-10.158597644042969,-2.109291662597656,4.367023828124999,11.435114503816793,18.885496183206108,9.068702290076336,0.0
12.530000686645508,-1.4820108276367188,-4.989516259765625,-2.5641899780273434,-33.89312977099237,77.09923664122137,-21.358778625954198,-9.476250170898437,-1.4006079711914061,4.067748620605468,10.51908396946565,14.15267175572519,5.893129770992366,0.0
12.540000677108765,-3.4428619873046875,-3.294421484375,-0.9959878906249999,4.748091603053435,92.53435114503817,-26.03053435114504,-9.7683427734375,-1.7549498168945312,3.840299462890625,9.603053435114504,12.213740458015268,4.488549618320611,0.0
12.5500009059906,-5.231330627441406,-2.5665841796874997,0.12449848632812499,49.725190839694655,107.31297709923665,-22.198473282442748,-10.577582934570312,-2.961627453613281,4.469974499511719,15.450381679389313,9.099236641221374,5.847328244274809,0.0
12.5600004196167,-8.681375219726561,0.15083470458984374,2.4301146850585935,85.31297709923665,118.7175572519084,-15.511450381679388,-9.880870251464843,-2.262520568847656,4.055777612304687,20.641221374045802,-1.9083969465648856,3.4656488549618323,0.0
12.570000886917114,-12.368445776367187,3.9336733276367184,6.4356140625,104.10687022900764,118.44274809160305,-5.511450381679389,-9.018957653808593,0.5003881469726562,2.990357873535156,8.229007633587786,-9.923664122137405,-1.7251908396946565,0.0
12.580000638961792,-16.299724902343748,7.4028715332031245,12.217611071777343,100.62595419847328,97.78625954198473,8.122137404580153,-11.382034692382812,0.5722141967773438,3.603273498535156,1.1908396946564885,-9.770992366412214,1.0076335877862594,0.0
12.59000039100647,-19.105729248046874,7.8362220336914055,19.11291185302734,116.51908396946565,75.16030534351145,25.587786259541986,-11.717222924804688,-1.6256629272460936,4.594472985839843,0.12213740458015267,-12.290076335877863,5.8320610687022905,0.0
12.600000619888306,-21.006725366210937,11.121066711425781,20.166360583496093,97.57251908396947,33.603053435114504,32.87022900763359,-10.907982763671875,-1.5634136840820312,4.134786267089844,1.083969465648855,-17.251908396946565,2.9923664122137406,0.0
12.610000610351562,-18.013973291015624,9.452308154296874,9.516951599121093,51.969465648854964,-11.022900763358779,38.97709923664122,-10.371681591796875,-3.8043864379882812,4.216189123535156,5.435114503816794,-17.69465648854962,3.3893129770992365,0.0
12.62000036239624,-12.203245861816406,6.009446166992187,-1.927332336425781,4.061068702290076,-18.47328244274809,35.93893129770992,-10.429142431640624,-6.342240197753906,4.151545678710937,25.16030534351145,-28.82442748091603,-0.4732824427480916,0.0
12.630000829696655,-10.639832177734375,-0.143652099609375,-3.5817256835937497,-45.00763358778626,-18.16793893129771,16.763358778625953,-10.445901843261717,-4.1946413085937495,2.9089550170898435,46.19847328244275,-40.47328244274809,-8.0,0.0
12.640000820159912,-8.200140686035155,-7.299920861816406,0.8858546142578124,-37.25190839694657,-14.534351145038167,3.1755725190839694,-8.049305981445311,-0.5434837768554687,1.4532804077148436,38.58015267175573,-41.541984732824424,-13.32824427480916,0.0
12.65000057220459,-6.64630380859375,-5.825092639160156,3.4668040039062498,-0.2900763358778626,4.473282442748092,-0.5343511450381679,-7.9655089233398435,0.612915625,1.6998831787109374,30.9618320610687,-34.030534351145036,-10.80916030534351,0.0
12.660001039505005,-8.547299926757812,1.0462661254882812,4.276044165039062,6.198473282442748,17.893129770992367,-4.015267175572519,-9.878476049804688,-0.5817910034179687,1.9656395629882812,36.06106870229008,-30.30534351145038,-6.885496183206107,0.0
12.670000314712524,-7.426813549804687,1.6065093139648436,2.1835119140624997,9.221374045801527,21.19083969465649,0.42748091603053434,-9.74200655517578,-0.2346317626953125,0.8475473876953125,41.786259541984734,-34.87022900763359,-5.66412213740458,0.0
12.68000078201294,-7.1395093505859375,-0.143652099609375,0.5051765502929687,6.900763358778626,28.33587786259542,-2.687022900763359,-8.039729174804688,2.5737667846679684,-1.3335703247070312,29.938931297709924,-30.763358778625953,-6.305343511450381,0.0
12.690000295639038,-8.686163623046875,0.055066638183593745,-0.1197100830078125,-3.099236641221374,36.82442748091603,-10.702290076335878,-7.793126403808594,4.42448466796875,-2.176329309082031,7.847328244274809,-15.206106870229007,1.3587786259541985,0.0
12.700000524520874,-7.953537915039062,-0.3687070556640625,-1.2521674682617188,1.5877862595419847,39.49618320610687,-8.748091603053435,-10.845733520507812,-0.1149216796875,-0.076614453125,5.267175572519084,-3.8473282442748094,11.83206106870229,0.0
12.71000051498413,-8.602366564941406,-0.19153613281249998,0.4070142822265625,21.572519083969464,52.152671755725194,-6.320610687022901,-9.756371765136718,-0.1197100830078125,-0.5530605834960938,3.2061068702290076,-5.66412213740458,11.129770992366412,0.0
12.720000743865967,-10.831368310546875,3.2321722412109373,2.8610709838867185,30.748091603053435,57.267175572519086,-5.770992366412214,-9.476250170898437,1.0342951171875,-0.8475473876953125,-1.2671755725190839,-2.8702290076335877,8.900763358778626,0.0
12.730000257492065,-10.414777221679687,4.458003491210937,4.141968872070312,30.427480916030536,51.29770992366412,-1.618320610687023,-10.002974536132811,1.149216796875,0.0526724365234375,-4.656488549618321,3.145038167938931,11.038167938931299,0.0
12.740000247955322,-10.666168395996094,4.580107775878906,4.261678955078125,16.366412213740457,41.25190839694657,-1.7404580152671756,-10.002974536132811,0.7637503295898437,0.239420166015625,-8.213740458015268,6.458015267175573,11.84732824427481,0.0
12.750000476837158,-10.271125122070313,4.285620971679688,3.1364041748046874,-3.0229007633587788,29.16030534351145,-3.450381679389313,-10.283096130371094,0.565031591796875,0.5363011718749999,-9.770992366412214,9.938931297709924,11.587786259541986,0.0
12.760069131851196,-8.348581188964843,1.905784521484375,2.4660277099609376,-14.885496183206106,20.47328244274809,-0.7175572519083969,-10.409988818359375,0.5315127685546874,0.9600748657226562,-8.396946564885496,11.19083969465649,11.908396946564885,0.0
12.77000093460083,-8.985438830566405,1.1923124267578125,3.0334535034179684,-12.625954198473282,21.16030534351145,-1.0229007633587786,-10.16338604736328,0.6488286499023437,1.1947066284179686,-6.473282442748092,12.51908396946565,12.793893129770993,0.0
12.780000448226929,-8.88009395751953,0.8954314208984374,3.1794998046874996,-7.175572519083969,19.633587786259543,0.32061068702290074,-9.816226806640625,1.1061211669921875,1.1468225952148436,-3.068702290076336,12.549618320610687,13.297709923664122,0.0
12.790000915527344,-8.920795385742187,0.852335791015625,2.8467057739257813,5.969465648854962,22.15267175572519,1.7099236641221374,-10.098742602539062,0.7781155395507812,1.714248388671875,-0.2595419847328244,13.450381679389313,15.618320610687023,0.0
12.800000667572021,-7.505822204589843,1.209071838378906,1.7693150268554687,14.458015267175572,20.564885496183205,2.6106870229007635,-10.335768566894531,0.3064578125,1.9776105712890624,2.4122137404580153,13.022900763358779,15.83206106870229,0.0
12.810000896453857,-9.821015209960937,2.039859814453125,1.5849614990234373,12.83969465648855,24.53435114503817,0.7480916030534351,-10.295067138671874,-0.07900865478515624,2.039859814453125,4.702290076335878,11.755725190839694,14.458015267175572,0.0
12.820000410079956,-8.971073620605468,4.053383410644531,2.2457611572265623,7.129770992366412,23.0381679389313,1.0687022900763359,-10.498574279785156,0.05027823486328125,2.1212626708984375,6.916030534351145,9.17557251908397,13.954198473282442,0.0
12.830000638961792,-9.205705383300781,3.782838623046875,1.235408056640625,-4.916030534351145,18.27480916030534,3.6030534351145036,-10.565611926269531,0.46686932373046874,2.252943762207031,7.374045801526718,7.038167938931298,14.51908396946565,0.0
12.840000629425049,-9.165003955078124,3.1196447631835937,1.946485949707031,-4.244274809160306,22.83969465648855,4.778625954198473,-10.105925207519531,0.5339069702148437,2.578555187988281,5.114503816793893,5.419847328244275,16.015267175572518,0.0
12.850000619888306,-9.631873278808593,3.1100679565429687,1.6400281372070311,-11.129770992366412,20.641221374045802,4.625954198473282,-9.773131176757811,0.9074024291992187,2.6408044311523438,0.5801526717557252,3.49618320610687,15.755725190839694,0.0
12.860000848770142,-10.43153663330078,3.105279553222656,2.185906115722656,-14.793893129770993,21.251908396946565,4.854961832061068,-9.82580361328125,0.6296750366210937,3.277662072753906,-2.4732824427480917,3.2061068702290076,17.404580152671755,0.0
12.87000060081482,-9.612719665527344,2.0566192260742184,2.0254946044921875,-20.50381679389313,17.954198473282442,6.076335877862595,-9.459490759277344,0.8906430175781249,3.361459130859375,-8.931297709923664,0.6106870229007634,16.99236641221374,0.0
12.880000352859497,-9.595960253906249,1.637633935546875,2.042254016113281,-20.18320610687023,17.6793893129771,6.961832061068702,-9.282319836425781,1.0175357055664063,3.1483751831054687,-15.618320610687023,-1.8778625954198473,17.34351145038168,0.0
12.890000581741333,-9.354145886230468,1.1444283935546875,1.7286135986328124,-18.3206106870229,16.778625954198475,6.625954198473282,-9.425971936035156,0.9002198242187499,3.1675287963867187,-20.366412213740457,-2.763358778625954,17.251908396946565,0.0
12.90002989768982,-8.13310303955078,0.6607996582031249,1.0534487304687499,-8.549618320610687,20.38167938931298,6.198473282442748,-9.622296472167967,0.8451531860351562,3.1651345947265623,-22.48854961832061,-4.396946564885496,16.977099236641223,0.0
12.910000562667847,-9.813832604980469,2.437297290039062,1.7741034301757812,-12.793893129770993,23.236641221374047,1.465648854961832,-9.710881933593749,0.584185205078125,3.3542765258789062,-25.267175572519083,-7.129770992366412,16.3206106870229,0.0
12.920000791549683,-9.8449572265625,2.770091320800781,1.9297265380859374,-17.541984732824428,21.31297709923664,1.4809160305343512,-9.811438403320311,0.6943184814453125,3.414131567382812,-26.3206106870229,-10.030534351145038,16.091603053435115,0.0
12.93000054359436,-9.696516723632811,2.0733786376953125,1.5083470458984374,-24.47328244274809,16.519083969465647,3.1755725190839694,-10.244788903808594,0.09576806640624999,3.574543078613281,-27.236641221374047,-14.045801526717558,16.091603053435115,0.0
12.940000772476196,-8.74601866455078,1.1013327636718748,1.3910311645507811,-18.427480916030536,16.931297709923665,4.748091603053435,-9.294290844726563,0.3758896606445312,3.8379052612304685,-31.755725190839694,-16.427480916030536,14.931297709923664,0.0
12.950000524520874,-10.034099157714843,2.7844565307617186,1.9033903198242186,-20.885496183206108,16.80916030534351,2.366412213740458,-11.56159981689453,-1.3766659545898436,4.328716601562499,-23.954198473282442,-19.83206106870229,15.893129770992367,0.0
12.96000051498413,-10.041281762695311,1.9608511596679685,1.70467158203125,-23.297709923664122,14.030534351145038,3.0381679389312977,-10.352527978515624,-0.7038952880859375,3.1651345947265623,-22.641221374045802,-30.946564885496183,11.297709923664122,0.0
12.970000743865967,-9.665392102050781,1.4772224243164063,1.6543933471679686,-19.49618320610687,12.183206106870228,4.3816793893129775,-11.365275280761718,-0.5051765502929687,3.8379052612304685,-17.19083969465649,-31.404580152671755,11.145038167938932,0.0
12.980000495910645,-9.983820922851562,1.8219874633789062,1.7645266235351562,-17.297709923664122,12.366412213740459,3.8931297709923665,-10.529698901367187,-4.177881896972656,4.386177441406249,-9.618320610687023,-38.229007633587784,9.755725190839694,0.0
12.990000486373901,-9.679757312011718,1.5873557006835937,1.448492004394531,-14.259541984732824,11.404580152671755,3.480916030534351,-11.362881079101562,-1.6041151123046875,3.239354846191406,11.541984732824428,-56.0,0.33587786259541985,0.0
13.000000238418579,-9.840168823242188,2.233790148925781,1.419761584472656,-12.549618320610687,10.946564885496183,2.0610687022900764,-8.712499841308594,2.5139117431640625,3.076549133300781,-6.1679389312977095,-52.10687022900763,-5.145038167938932,0.0
13.010000944137573,-9.299079248046874,2.003946789550781,1.2832920898437499,-12.0,11.038167938931299,3.66412213740458,-10.345345373535155,-0.5051765502929687,3.787627026367187,-4.534351145038168,-44.2442748091603,3.1755725190839694,0.0
13.020000696182251,-9.631873278808593,1.8914193115234375,1.4221557861328125,-12.885496183206106,11.816793893129772,1.6641221374045803,-11.722011328125,-2.446874096679687,3.7421371948242186,10.473282442748092,-50.732824427480914,-0.6412213740458015,0.0
13.030000925064087,-9.349357482910156,2.3247698120117186,1.2808978881835937,-9.404580152671755,12.213740458015268,1.5114503816793894,-8.927977990722656,1.675941162109375,1.7286135986328124,4.152671755725191,-58.534351145038165,-9.282442748091603,0.0
13.040000438690186,-9.612719665527344,2.8706477905273435,1.2282254516601563,-12.091603053435115,12.259541984732824,2.4122137404580153,-9.651026892089844,0.7637503295898437,3.758896606445312,1.3282442748091603,-45.19083969465649,-2.5343511450381677,0.0
13.0500009059906,-9.598354455566406,2.4253262817382812,1.2042834350585936,-13.603053435114504,12.549618320610687,3.5267175572519083,-11.784260571289062,-1.8746598999023436,3.852270471191406,18.290076335877863,-49.48091603053435,-1.251908396946565,0.0
13.0600004196167,-9.809044201660155,2.501940734863281,1.1013327636718748,-14.198473282442748,12.580152671755725,2.213740458015267,-10.390835205078124,0.9026140258789062,3.3111808959960936,20.35114503816794,-54.76335877862596,-8.320610687022901,0.0
13.070000648498535,-9.746794958496093,2.5067291381835934,0.9313444458007812,-14.793893129770993,12.641221374045802,3.1603053435114505,-8.695740429687499,1.5011644409179687,3.342305517578125,13.786259541984732,-50.06106870229008,-6.290076335877862,0.0
13.080000638961792,-10.204087475585936,1.7860744384765623,1.1037269653320312,-16.48854961832061,13.633587786259541,3.236641221374046,-10.900800158691405,-1.0342951171875,4.271255761718749,22.610687022900763,-47.725190839694655,-1.816793893129771,0.0
13.090000629425049,-10.031704956054687,0.9911994873046874,1.199495031738281,-13.923664122137405,14.0,1.3129770992366412,-8.511386901855468,1.714248388671875,1.659181750488281,19.84732824427481,-57.603053435114504,-8.51908396946565,0.0
13.100000381469727,-9.9981861328125,1.1707646118164061,1.0079588989257813,-10.67175572519084,14.259541984732824,-0.916030534351145,-8.846575134277343,0.852335791015625,3.797203833007812,15.236641221374045,-43.98473282442748,-3.1297709923664123,0.0
13.110000610351562,-9.258377819824219,0.38786066894531246,0.7302315063476562,-5.297709923664122,15.053435114503817,-1.9389312977099236,-10.225635290527343,-1.0797849487304687,3.5577836669921874,22.793893129770993,-46.54961832061068,-1.7557251908396947,0.0
13.12000060081482,-10.467449658203124,1.637633935546875,1.1109095703125,-3.8931297709923665,18.885496183206108,-7.038167938931298,-8.757989672851561,1.5897499023437498,1.9919757812499999,22.625954198473284,-50.54961832061068,-7.816793893129771,0.0
13.130000591278076,-8.56166513671875,1.7405846069335937,0.4165910888671875,-0.8244274809160306,16.610687022900763,-5.7251908396946565,-6.698976245117187,2.4564509033203126,1.6232687255859375,8.748091603053435,-41.038167938931295,-7.923664122137405,0.0
13.140000820159912,-9.792284790039062,2.375048046875,0.8044517578125,-6.442748091603053,17.374045801526716,-6.8396946564885495,-9.897629663085937,0.4525041137695312,3.737348791503906,14.305343511450381,-30.137404580152673,-1.6641221374045803,0.0
13.15000057220459,-9.528922607421874,1.7094599853515624,0.7757213378906249,-5.358778625954199,15.587786259541986,-6.656488549618321,-9.758765966796874,1.0702081420898437,1.6448165405273436,16.213740458015266,-37.12977099236641,-6.0,0.0
13.160000801086426,-9.373299499511718,1.944091748046875,0.7637503295898437,-1.633587786259542,15.725190839694656,-7.022900763358779,-7.067683300781249,3.8187516479492185,0.5506663818359374,3.053435114503817,-33.61832061068702,-8.961832061068701,0.0
13.170000553131104,-9.18655177001953,2.5450363647460934,0.93852705078125,-0.015267175572519083,15.954198473282442,-6.549618320610687,-6.272808349609375,3.430890979003906,0.1149216796875,-11.893129770992367,-20.85496183206107,-4.183206106870229,0.0
13.18000054359436,-9.715670336914062,2.85388837890625,1.1659762084960936,-1.3740458015267176,16.580152671755727,-6.702290076335878,-8.652644799804687,1.3239935180664062,2.0470424194335934,-19.83206106870229,-8.793893129770993,-0.7786259541984732,0.0
13.190000534057617,-9.598354455566406,2.896984008789062,1.2737152832031249,-1.0381679389312977,15.603053435114504,-6.229007633587786,-9.050082275390624,0.8547299926757812,2.8371289672851563,-22.244274809160306,-3.7709923664122136,-1.0534351145038168,0.0
13.200000286102295,-9.746794958496093,2.829946362304687,1.3215993164062498,-2.5343511450381677,13.618320610687023,-5.206106870229007,-8.528146313476562,0.7876923461914062,2.118868469238281,-20.9618320610687,-3.4198473282442747,-2.7938931297709924,0.0
13.21000051498413,-9.442731347656249,2.422932080078125,1.3718775512695311,-1.0687022900763359,13.16030534351145,-4.8396946564885495,-8.86094034423828,0.22505495605468748,3.303998291015625,-17.099236641221374,-1.1450381679389312,-3.8473282442748094,0.0
13.220000505447388,-9.636661682128906,2.4061726684570313,1.4413093994140624,-1.8625954198473282,12.687022900763358,-5.267175572519084,-8.374917407226562,0.354341845703125,2.789244934082031,-15.801526717557252,-0.7786259541984732,-6.152671755725191,0.0
13.230000257492065,-9.442731347656249,2.3032219970703123,1.5777788940429687,-0.7633587786259542,12.885496183206106,-6.213740458015267,-8.724470849609375,0.3280056274414062,3.2249896362304686,-10.885496183206106,-0.3053435114503817,-6.656488549618321,0.0
13.240000247955322,-9.528922607421874,2.2864625854492187,1.2593500732421874,-1.2213740458015268,12.534351145038167,-6.229007633587786,-8.195352282714843,0.8906430175781249,3.095702746582031,-11.145038167938932,0.22900763358778625,-7.816793893129771,0.0
13.250000476837158,-9.392453112792968,2.612074011230469,1.3311761230468748,-1.3435114503816794,12.381679389312977,-6.198473282442748,-8.963891015625,0.33039982910156246,3.6008792968749996,-6.488549618320611,1.3282442748091603,-6.885496183206107,0.0
13.260000944137573,-9.473855969238281,2.7964275390625,1.2928688964843749,-3.2061068702290076,12.412213740458014,-6.519083969465649,-8.020575561523437,1.20667763671875,3.19865341796875,-8.702290076335878,1.3282442748091603,-8.16793893129771,0.0
13.27000117301941,-9.471461767578125,2.73896669921875,1.0989385620117187,-5.221374045801527,12.01526717557252,-6.137404580152672,-9.038111267089842,0.603338818359375,4.058171813964844,-4.6106870229007635,2.5343511450381677,-6.488549618320611,0.0
13.280000686645508,-9.205705383300781,2.3247698120117186,0.8690952026367187,-6.961832061068702,10.900763358778626,-5.603053435114504,-8.058882788085937,1.2497732666015624,3.459621398925781,-6.824427480916031,1.2366412213740459,-6.885496183206107,0.0
13.290001153945923,-9.5001921875,2.3439234252929686,1.3623007446289062,-8.748091603053435,11.450381679389313,-4.412213740458015,-8.810662109374999,0.82360537109375,4.256890551757812,-4.198473282442748,2.2900763358778624,-4.763358778625954,0.0
13.300000667572021,-9.198522778320312,2.2649147705078123,1.0797849487304687,-9.877862595419847,11.374045801526718,-3.9236641221374047,-8.29351455078125,1.1563994018554686,3.801992236328125,-7.221374045801527,2.16793893129771,-5.251908396946565,0.0
13.310000658035278,-9.612719665527344,2.2481553588867187,1.3144167114257812,-9.770992366412214,12.259541984732824,-3.068702290076336,-8.195352282714843,1.0821791503906248,3.833116857910156,-7.3893129770992365,2.2442748091603053,-4.122137404580153,0.0
13.320000648498535,-9.64623848876953,2.2266075439453124,1.24498486328125,-12.305343511450381,10.885496183206106,-4.229007633587786,-8.233659509277343,0.9888052856445312,3.8474820678710935,-11.022900763358779,2.931297709923664,-3.5572519083969465,0.0
13.330000638961792,-9.057264880371093,1.89620771484375,1.37906015625,-9.633587786259541,11.770992366412214,-4.564885496183206,-8.109161022949218,0.842758984375,3.6942531616210936,-13.114503816793894,3.3893129770992365,-2.9923664122137406,0.0
13.340000629425049,-9.411606726074218,1.7118541870117185,1.7166425903320313,-9.022900763358779,11.679389312977099,-6.244274809160306,-8.010998754882811,0.70868369140625,3.4165257690429685,-15.938931297709924,4.122137404580153,-2.9770992366412212,0.0
13.350000619888306,-9.172186560058593,1.6065093139648436,1.1851298217773436,-7.633587786259542,11.755725190839694,-6.229007633587786,-8.33182177734375,0.277727392578125,3.5194764404296874,-16.549618320610687,4.977099236641221,-2.0916030534351147,0.0
13.360000371932983,-9.229647399902344,1.656787548828125,1.2425906616210938,-7.251908396946565,11.236641221374045,-6.580152671755725,-8.20971749267578,0.14604630126953125,3.2800562744140622,-17.557251908396946,5.938931297709924,-2.717557251908397,0.0
13.37000036239624,-8.827421520996094,1.649604943847656,1.3910311645507811,-5.801526717557252,10.580152671755725,-6.916030534351145,-8.360552197265624,-0.08379705810546874,3.404554760742187,-16.748091603053435,7.32824427480916,-2.763358778625954,0.0
13.380000591278076,-9.18655177001953,1.924938134765625,1.5514426757812498,-5.343511450381679,9.633587786259541,-7.557251908396947,-7.967903124999999,-0.07422025146484375,3.071760729980469,-17.129770992366414,7.816793893129771,-3.5267175572519083,0.0
13.390000581741333,-8.884882360839843,2.4875755249023435,1.848323681640625,-3.9389312977099236,9.251908396946565,-7.679389312977099,-8.092401611328125,-0.5746083984375,3.306392492675781,-15.755725190839694,9.954198473282442,-3.480916030534351,0.0
13.400000810623169,-9.150638745117186,2.185906115722656,1.7453730102539062,-3.282442748091603,9.145038167938932,-7.190839694656488,-7.955932116699218,-0.8307879760742187,3.2537200561523436,-13.511450381679388,10.992366412213741,-4.549618320610687,0.0
13.410000562667847,-9.375693701171874,1.9488801513671874,2.2481553588867187,-2.7938931297709924,8.0,-7.984732824427481,-7.350199096679687,-0.8164227661132812,3.0334535034179684,-13.83206106870229,13.618320610687023,-5.404580152671755,0.0
13.420000791549683,-9.440337145996093,2.27927998046875,2.6336218261718747,-1.5877862595419847,6.305343511450381,-7.816793893129771,-7.46272657470703,-1.1659762084960936,3.342305517578125,-11.98473282442748,15.603053435114504,-6.259541984732825,0.0
13.430000305175781,-9.13627353515625,2.1835119140624997,2.8658593872070313,-0.33587786259541985,3.66412213740458,-8.213740458015268,-7.56567724609375,-1.1133037719726562,3.0454245117187497,-7.221374045801527,15.435114503816793,-8.122137404580153,0.0
13.440001010894775,-9.414000927734374,2.1308394775390624,2.8227637573242186,1.6488549618320612,1.1908396946564885,-9.068702290076336,-9.282319836425781,-2.2194249389648437,4.264073156738281,4.33587786259542,14.51908396946565,-7.694656488549619,0.0
13.450000524520874,-9.200916979980468,2.003946789550781,3.3351229125976563,4.183206106870229,-2.1374045801526718,-10.076335877862595,-8.317456567382813,-0.9744400756835937,4.472368701171875,4.595419847328245,17.34351145038168,-11.84732824427481,0.0
13.460000276565552,-9.184157568359375,1.8698714965820311,3.308786694335937,6.229007633587786,-6.076335877862595,-11.022900763358779,-8.889670764160156,-1.3455413330078123,5.0014872680664055,10.67175572519084,17.114503816793892,-12.030534351145038,0.0
13.470000505447388,-8.896853369140624,1.6208745239257811,4.086902233886718,11.129770992366412,-12.274809160305344,-11.648854961832061,-7.915230688476562,-0.4572925170898437,3.816357446289062,12.778625954198473,12.580152671755725,-14.564885496183207,0.0
13.480000495910645,-8.99501563720703,1.1875240234375,4.036623999023437,18.16793893129771,-16.99236641221374,-12.625954198473282,-7.905653881835937,-0.40462008056640625,3.995922570800781,12.076335877862595,13.114503816793894,-14.67175572519084,0.0
13.49000072479248,-8.55448253173828,1.2713210815429687,4.225765930175781,24.198473282442748,-24.106870229007633,-13.48091603053435,-7.730877160644531,-0.29927520751953124,3.864241479492187,11.877862595419847,13.236641221374045,-15.374045801526718,0.0
13.500000476837158,-8.20971749267578,0.6631938598632812,4.276044165039062,29.81679389312977,-30.68702290076336,-14.793893129770993,-7.072471704101562,0.46686932373046874,3.4069489624023435,8.641221374045802,13.740458015267176,-17.19083969465649,0.0
13.510000944137573,-7.5537062377929685,1.2713210815429687,4.297591979980469,32.412213740458014,-35.51145038167939,-17.603053435114504,-6.160280871582031,0.9169792358398436,3.7900212280273435,-1.6030534351145038,20.549618320610687,-17.61832061068702,0.0
13.520000457763672,-7.170633972167968,2.4157494750976563,4.786009118652344,22.595419847328245,-44.916030534351144,-19.17557251908397,-7.42441934814453,0.7900865478515624,4.125209460449218,-2.549618320610687,22.396946564885496,-14.931297709923664,0.0
13.530000925064087,-6.605602380371093,0.9217676391601562,3.8043864379882812,27.00763358778626,-51.7557251908397,-16.85496183206107,-7.1778165771484375,0.27293898925781246,4.565742565917969,-2.0916030534351147,22.27480916030534,-13.877862595419847,0.0
13.540000915527344,-5.911283898925781,0.3232172241210937,3.303998291015625,39.3587786259542,-53.14503816793893,-15.236641221374045,-6.469132885742187,0.8667010009765624,4.050989208984375,-3.9389312977099236,16.85496183206107,-15.98473282442748,0.0
13.5500009059906,-6.789955908203124,1.0678139404296874,2.664746447753906,45.80152671755725,-53.48091603053435,-16.045801526717558,-4.570530969238281,2.319981408691406,3.2345664428710936,-16.82442748091603,19.328244274809162,-16.732824427480917,0.0
13.5600004196167,-8.585607153320312,2.1811177124023438,2.806004345703125,44.12213740458015,-50.3206106870229,-17.297709923664122,-4.3454760131835934,1.5658078857421873,3.2130186279296873,-30.47328244274809,26.137404580152673,-13.358778625954198,0.0
13.570000648498535,-8.971073620605468,2.798821740722656,3.1938650146484373,40.58015267175573,-51.16030534351145,-19.129770992366414,-6.1818286865234375,0.14125789794921875,4.826710546875,-41.98473282442748,33.98473282442748,-7.114503816793893,0.0
13.580000877380371,-7.4603323730468745,0.7876923461914062,3.105279553222656,41.83206106870229,-52.83969465648855,-16.442748091603054,-5.305550878906249,0.5817910034179687,3.708618371582031,-38.0763358778626,26.16793893129771,-7.4961832061068705,0.0
13.590000629425049,-8.63827958984375,1.446097802734375,3.6056677001953124,38.58015267175573,-52.79389312977099,-21.72519083969466,-3.7158009765625,1.8339584716796873,3.8953661010742184,-56.656488549618324,28.33587786259542,-10.732824427480915,0.0
13.600000619888306,-8.741230261230468,1.3646949462890625,3.785232824707031,38.82442748091603,-58.3206106870229,-20.564885496183205,-4.374206433105469,1.2665326782226562,4.786009118652344,-57.25190839694657,23.786259541984734,-3.5419847328244276,0.0
13.610000610351562,-8.889670764160156,0.7015010864257812,3.83072265625,36.42748091603053,-64.10687022900764,-22.061068702290076,-6.675034228515624,1.5729904907226562,7.105990527343749,-53.465648854961835,14.396946564885496,1.7251908396946565,0.0
13.620001077651978,-9.734823950195311,-0.4477157104492187,3.5793314819335937,30.748091603053435,-70.01526717557252,-24.106870229007633,-8.20971749267578,-0.36152445068359373,7.369352709960937,-76.35114503816794,13.679389312977099,-4.534351145038168,0.0
13.630000591278076,-12.176909643554687,-1.0630255371093749,3.6343981201171873,28.83969465648855,-76.22900763358778,-23.419847328244273,-13.864821813964843,-12.105083593749999,2.5258827514648434,-65.20610687022901,20.106870229007633,-13.389312977099237,0.0
13.640000820159912,-14.43464180908203,-1.0582371337890624,3.555389465332031,31.328244274809162,-87.38931297709924,-26.213740458015266,-15.358803649902343,-15.813701965332031,-9.294290844726563,10.83969465648855,10.961832061068701,-23.572519083969464,0.0
13.65000057220459,-15.847220788574218,-0.7445967163085937,2.952050646972656,34.88549618320611,-100.93129770992367,-34.0,-21.574151159667966,-5.365405920410156,-6.852205151367187,50.961832061068705,18.641221374045802,-55.29770992366412,0.0
13.660000801086426,-16.7402580078125,0.1484405029296875,1.7956512451171873,40.87022900763359,-111.77099236641222,-37.02290076335878,-30.55480158691406,10.754753857421875,15.789759948730469,6.259541984732825,37.541984732824424,-79.1145038167939,0.0
13.670000553131104,-19.15361328125,2.7748797241210936,2.1116858642578125,48.99236641221374,-114.16793893129771,-32.19847328244275,-32.19004132080078,2.6288334228515624,24.473529370117188,-27.31297709923664,10.51908396946565,-51.969465648854964,0.0
13.68001914024353,-20.38423293457031,5.046977099609375,1.5634136840820312,50.70229007633588,-120.93129770992367,-20.03053435114504,-17.870321191406248,1.5610194824218748,3.5194764404296874,31.72519083969466,-50.94656488549618,-0.1984732824427481,0.0
13.690052509307861,-20.55661545410156,5.722141967773437,1.68551796875,33.603053435114504,-123.74045801526718,-6.488549618320611,-9.399635717773437,8.336610180664062,-1.2593500732421874,45.55725190839695,-63.3587786259542,25.69465648854962,0.0
13.700000286102295,-17.549498168945313,3.0142998901367184,0.08379705810546874,11.618320610687023,-127.17557251908397,3.786259541984733,-5.42047255859375,3.2034418212890623,-8.468291271972657,25.435114503816795,-51.02290076335878,28.931297709923665,0.0
13.710000276565552,-15.174450122070311,2.114080065917969,-1.2832920898437499,2.122137404580153,-117.05343511450381,9.297709923664122,-2.2864625854492187,-3.047818713378906,-11.535263598632811,-4.183206106870229,-23.786259541984734,16.076335877862597,0.0
13.720000505447388,-15.600618017578125,2.530671154785156,-2.3918074584960936,-8.641221374045802,-104.82442748091603,7.7251908396946565,-3.0047230834960934,-6.500257507324219,-9.447519750976562,-23.893129770992367,9.541984732824428,4.33587786259542,0.0
13.730000257492065,-12.325350146484375,1.8818425048828125,-1.68551796875,-4.244274809160306,-87.16030534351145,18.03053435114504,-7.922413293457031,-11.113884106445312,-6.938396411132812,-4.564885496183206,30.18320610687023,-1.4809160305343512,0.0
13.740000247955322,-11.257536206054686,1.2138602416992186,-1.6639701538085936,-6.030534351145038,-72.4885496183206,19.557251908396946,-13.053187451171874,-9.495403784179686,-4.438849877929687,40.87022900763359,41.48091603053435,-10.885496183206106,0.0
13.750000238418579,-9.2320416015625,-0.7278373046875,-2.3367408203125,-1.0229007633587786,-54.38167938931298,22.80916030534351,-11.5304751953125,-3.9408559326171875,-3.756502404785156,69.6030534351145,49.69465648854962,-18.763358778625953,0.0
13.760000705718994,-7.936778503417968,-0.5674257934570313,-2.0757728393554684,2.4885496183206106,-32.85496183206107,22.30534351145038,-10.254365710449218,-0.23223756103515625,-2.9640216552734375,71.25190839694656,57.83206106870229,-21.083969465648856,0.0
13.770000457763672,-9.701305126953125,1.4053963745117186,-0.18435352783203124,-19.46564885496183,-22.0,18.18320610687023,-9.809044201660155,5.291185668945312,-1.5945383056640625,48.3206106870229,69.5114503816794,-14.610687022900763,0.0
13.780000686645508,-8.963891015625,0.16280571289062498,0.5626373901367188,-24.3206106870229,-17.221374045801525,24.106870229007633,-11.532869396972655,4.410119458007812,1.637633935546875,32.30534351145038,77.8473282442748,2.4427480916030535,0.0
13.790000677108765,-7.764395983886718,-1.8507178833007811,0.3112462158203125,-30.198473282442748,-16.641221374045802,27.114503816793892,-10.766724865722656,5.904101293945312,1.5370774658203123,25.236641221374047,67.89312977099236,13.572519083969466,0.0
13.800000667572021,-6.828263134765624,-3.6846763549804686,0.7781155395507812,-16.27480916030534,-7.0534351145038165,26.717557251908396,-11.003750830078124,3.3710359375,3.9983167724609374,10.778625954198473,70.99236641221374,22.610687022900763,0.0
13.810000658035278,-6.311115576171875,-3.0334535034179684,1.47482822265625,-12.885496183206106,-0.21374045801526717,20.16793893129771,-10.335768566894531,-0.033518823242187495,3.4620156005859375,19.51145038167939,60.0763358778626,27.87786259541985,0.0
13.820000648498535,-6.701370446777343,-2.0542250244140625,1.8770541015625,-17.893129770992367,-0.7175572519083969,12.80916030534351,-6.9719152343749995,0.8547299926757812,0.9241618408203125,13.740458015267176,45.89312977099237,22.213740458015266,0.0
13.830000638961792,-4.893748193359374,-2.281674182128906,0.7206546997070312,-17.282442748091604,-2.763358778625954,11.511450381679388,-7.771578588867187,1.695094775390625,0.5291185668945312,2.0916030534351147,48.50381679389313,21.6793893129771,0.0
13.840000629425049,-4.7022120605468745,-2.4061726684570313,0.7015010864257812,-19.358778625954198,1.9541984732824427,8.83969465648855,-9.04050546875,-0.2753331909179687,1.6998831787109374,2.2900763358778624,51.74045801526717,24.732824427480917,0.0
13.850000381469727,-5.1331683593749995,-1.8243816650390623,0.7445967163085937,-21.96946564885496,7.786259541984733,3.404580152671756,-10.390835205078124,-3.3016040893554686,3.517082238769531,18.870229007633586,46.58015267175573,25.404580152671755,0.0
13.860000610351562,-4.903325,-1.879448303222656,0.33518823242187495,-19.954198473282442,10.641221374045802,-0.9312977099236641,-9.179369165039063,-2.2481553588867187,2.868253588867187,29.938931297709924,32.25954198473283,15.770992366412214,0.0
13.87000060081482,-5.552153649902343,-1.180341418457031,0.5123591552734374,-18.48854961832061,18.763358778625953,-8.045801526717558,-8.015787158203125,-0.8738836059570312,2.001552587890625,25.068702290076335,30.045801526717558,6.916030534351145,0.0
13.880000591278076,-4.967968444824218,-1.1755530151367186,0.4381389038085937,-19.786259541984734,22.045801526717558,-12.732824427480915,-8.307879760742187,-1.6807295654296874,2.1499930908203124,25.328244274809162,30.702290076335878,5.9541984732824424,0.0
13.890000581741333,-5.389347937011719,-0.612915625,0.9337386474609375,-26.946564885496183,25.49618320610687,-18.900763358778626,-9.066841687011719,-1.89620771484375,2.4061726684570313,28.106870229007633,27.81679389312977,4.961832061068702,0.0
13.900000810623169,-4.465186096191406,-0.5219359619140624,0.076614453125,-25.31297709923664,29.51145038167939,-20.717557251908396,-10.46984385986328,-1.7429788085937499,2.6096798095703124,31.374045801526716,24.595419847328245,2.900763358778626,0.0
13.910000324249268,-6.900089184570312,1.0702081420898437,0.8499415893554687,-30.076335877862597,36.16793893129771,-20.458015267175572,-10.388441003417968,-0.9097966308593749,2.3487118286132813,30.931297709923665,22.12213740458015,-0.1984732824427481,0.0
13.920000553131104,-5.734112976074218,-0.35673604736328124,-0.46686932373046874,-18.35114503816794,40.534351145038165,-11.83206106870229,-10.972626208496093,-0.3687070556640625,2.2768857788085937,29.893129770992367,20.18320610687023,-0.42748091603053434,0.0
13.93000054359436,-5.0206408813476555,-0.0718260498046875,-0.6512228515624999,-1.984732824427481,50.67175572519084,-6.977099236641221,-11.104307299804686,-0.5003881469726562,2.6599580444335937,28.18320610687023,17.206106870229007,0.6259541984732825,0.0
13.940000772476196,-5.743689782714843,0.1580173095703125,-0.5219359619140624,6.305343511450381,60.0763358778626,-5.343511450381679,-11.21683477783203,0.00718260498046875,3.0406361083984375,27.17557251908397,14.305343511450381,3.435114503816794,0.0
13.950000524520874,-5.892130285644531,-0.105344873046875,0.4165910888671875,16.290076335877863,69.5114503816794,-3.9083969465648853,-11.135431921386719,0.6081272216796875,3.2034418212890623,21.46564885496183,9.969465648854962,6.1679389312977095,0.0
13.96000051498413,-7.943961108398437,0.9002198242187499,2.7198130859375,25.236641221374047,77.86259541984732,-2.7938931297709924,-10.922347973632812,1.5466542724609373,3.7301661865234372,13.511450381679388,6.595419847328245,7.694656488549619,0.0
13.970000505447388,-9.955090502929687,1.9009961181640624,5.255272644042968,34.97709923664122,80.65648854961832,1.4045801526717556,-10.36210478515625,2.8131869506835936,3.883395092773437,3.0229007633587788,4.412213740458015,11.419847328244275,0.0
13.980000495910645,-11.73398233642578,1.6112977172851561,7.46272657470703,45.57251908396947,77.66412213740458,9.740458015267176,-9.627084875488281,2.6001030029296874,3.4572271972656248,-9.969465648854962,1.8473282442748091,17.0381679389313,0.0
13.990000247955322,-13.505691564941406,2.6408044311523438,9.775525378417969,61.099236641221374,72.41221374045801,15.893129770992367,-9.349357482910156,0.3711012573242187,3.095702746582031,-20.229007633587788,1.618320610687023,19.709923664122137,0.0
14.000000476837158,-13.299790222167967,1.1348515869140625,9.406818322753905,70.54961832061069,62.045801526717554,23.450381679389313,-10.213664282226562,-2.281674182128906,3.1555577880859373,-20.641221374045802,-0.22900763358778625,19.786259541984734,0.0
14.010000944137573,-12.361263171386717,2.370259643554687,8.386888415527343,81.92366412213741,56.12213740458015,27.419847328244273,-10.383652600097655,-4.314351391601562,2.6599580444335937,-13.664122137404581,-2.045801526717557,17.938931297709924,0.0
14.020000457763672,-12.069170568847655,2.8562825805664063,7.857769848632812,74.0,39.770992366412216,27.81679389312977,-10.599130749511717,-5.181052392578125,2.3822306518554686,3.3587786259541983,-1.8625954198473282,15.572519083969466,0.0
14.030000686645508,-12.81376728515625,2.1715409057617188,8.444349255371094,67.98473282442748,23.801526717557252,24.18320610687023,-10.666168395996094,-5.798756420898437,1.350329736328125,19.786259541984734,-2.2900763358778624,11.557251908396946,0.0
14.040000677108765,-14.30774912109375,0.5434837768554687,6.955155822753905,58.36641221374046,10.0,20.793893129770993,-11.188104357910156,-6.1626750732421876,0.9457096557617187,36.396946564885496,-1.251908396946565,5.358778625954199,0.0
14.0500009059906,-14.092270971679687,-1.2234370483398436,3.744531396484375,41.038167938931295,-0.2748091603053435,10.916030534351146,-10.165780249023436,-5.248090039062499,0.06464344482421874,47.16030534351145,-1.1297709923664123,-2.7786259541984735,0.0
14.060000658035278,-11.039663854980468,-5.161898779296875,2.5043349365234375,40.48854961832061,-5.66412213740458,0.1984732824427481,-9.299079248046874,-3.6631285400390623,0.7134720947265625,53.29770992366412,2.2595419847328246,-9.679389312977099,0.0
14.070000648498535,-10.862492932128905,-3.9049429077148434,5.609614489746093,35.80152671755725,-9.84732824427481,-19.267175572519083,-8.329427575683594,-1.5801730957031248,0.8283937744140625,52.045801526717554,3.9389312977099236,-14.595419847328245,0.0
14.080000877380371,-10.014945544433592,-0.19632453613281248,5.61200869140625,43.25190839694657,-14.961832061068701,-24.549618320610687,-8.738836059570312,-0.74699091796875,1.388636962890625,49.81679389312977,6.9465648854961835,-12.80916030534351,0.0
14.090000629425049,-8.719682446289061,1.9871873779296874,3.5146880371093747,44.61068702290076,-15.465648854961833,-18.885496183206108,-9.658209497070311,-0.047884033203124995,1.5011644409179687,48.68702290076336,6.320610687022901,-10.381679389312977,0.0
14.100000619888306,-7.40526573486328,2.760514514160156,1.5179238525390624,42.83969465648855,-12.82442748091603,-13.17557251908397,-10.17056865234375,0.2609679809570312,1.1109095703125,48.778625954198475,4.656488549618321,-7.175572519083969,0.0
14.110000371932983,-7.345410693359375,2.588131994628906,-0.36391865234375,38.87022900763359,-7.3893129770992365,-10.030534351145038,-9.49300958251953,0.48123453369140623,0.7589619262695312,51.69465648854962,1.0534351145038168,-2.4885496183206106,0.0
14.12000036239624,-7.055712292480468,2.5354595581054684,-1.6304513305664061,39.38931297709924,-0.12213740458015267,-4.137404580152672,-9.574412438964844,0.9696516723632812,0.3112462158203125,51.541984732824424,-1.9236641221374047,1.6030534351145038,0.0
14.130000352859497,-6.672640026855468,1.9129671264648436,-1.5442600708007812,44.87022900763359,10.534351145038167,3.8931297709923665,-9.433154541015625,1.120486376953125,0.25139117431640623,49.86259541984733,-2.0610687022900764,4.595419847328245,0.0
14.140000343322754,-6.782773303222656,3.7110125732421873,0.6392518432617187,51.51145038167939,21.984732824427482,7.099236641221374,-9.1554271484375,1.3838485595703125,-0.031124621582031248,43.43511450381679,-1.5419847328244274,5.526717557251908,0.0
14.15000057220459,-9.011775048828124,5.1690813842773435,2.7365724975585937,46.213740458015266,27.00763358778626,8.534351145038167,-9.41639512939453,1.2378022583007813,0.016759411621093748,34.0,0.549618320610687,5.541984732824427,0.0
14.160000801086426,-9.605537060546874,6.153098266601562,3.5913024902343746,29.251908396946565,25.251908396946565,10.65648854961832,-9.81862100830078,0.8571241943359375,-0.430956298828125,25.801526717557252,0.5343511450381679,6.106870229007634,0.0
14.170000791549683,-8.188169677734374,4.089296435546875,3.0262708984374997,8.320610687022901,18.290076335877863,12.351145038167939,-10.158597644042969,1.2042834350585936,-0.6584054565429687,19.328244274809162,-0.1984732824427481,5.709923664122138,0.0
14.18000078201294,-8.276755139160155,2.6144682128906247,2.877830395507812,-2.9160305343511452,18.30534351145038,11.145038167938932,-10.022128149414062,1.608903515625,-0.40222587890625,13.083969465648854,-0.030534351145038167,5.6183206106870225,0.0
14.190000534057617,-10.228029492187499,2.6767174560546874,3.5865140869140624,-20.106870229007633,16.33587786259542,6.9465648854961835,-9.789890588378906,2.1547814941406247,-0.12689268798828124,6.885496183206107,1.2061068702290076,4.015267175572519,0.0
14.200000286102295,-10.098742602539062,2.118868469238281,3.7205893798828122,-30.9618320610687,11.893129770992367,8.366412213740459,-9.775525378417969,2.2385785522460937,0.19871873779296872,2.519083969465649,0.5038167938931297,5.816793893129771,0.0
14.210000276565552,-10.002974536132811,1.0031704956054688,3.517082238769531,-27.389312977099237,13.725190839694656,9.877862595419847,-9.469067565917967,2.1212626708984375,0.411802685546875,-3.053435114503817,1.4045801526717556,6.534351145038168,0.0
14.220000505447388,-9.260772021484375,1.1468225952148436,2.9568390502929685,-31.64885496183206,10.183206106870228,7.786259541984733,-9.698910925292969,2.2744915771484373,0.469263525390625,-7.893129770992366,1.816793893129771,7.038167938931298,0.0
14.230000257492065,-9.334992272949219,0.852335791015625,2.2936451904296873,-29.755725190839694,10.106870229007633,6.961832061068702,-9.68454571533203,2.2098481323242187,0.8092401611328125,-13.48091603053435,2.4122137404580153,8.80916030534351,0.0
14.240000486373901,-9.07163009033203,0.8858546142578124,1.3838485595703125,-26.47328244274809,11.236641221374045,5.893129770992366,-9.773131176757811,1.9991583862304687,0.7158662963867187,-19.46564885496183,2.045801526717557,10.335877862595419,0.0
14.250000476837158,-8.566453540039062,1.4006079711914061,1.01514150390625,-25.358778625954198,13.49618320610687,4.824427480916031,-10.156203442382813,1.3096283081054687,0.852335791015625,-22.595419847328245,1.633587786259542,11.709923664122137,0.0
14.260000467300415,-7.094019519042968,0.15083470458984374,0.13407529296874998,-17.053435114503817,16.610687022900763,7.175572519083969,-9.775525378417969,1.235408056640625,0.5602431884765625,-26.595419847328245,1.2213740458015268,12.50381679389313,0.0
14.27000093460083,-8.611943371582031,0.8810662109374999,0.6967126831054687,-10.229007633587786,27.480916030534353,5.267175572519084,-9.847351428222655,0.612915625,0.7445967163085937,-28.396946564885496,1.1297709923664123,13.908396946564885,0.0
14.280000686645508,-9.33978067626953,2.7246014892578123,0.4333505004882812,-8.366412213740459,31.84732824427481,4.717557251908397,-10.20887587890625,0.17238251953125,1.16837041015625,-28.106870229007633,0.9618320610687023,14.702290076335878,0.0
14.290000677108765,-9.804255798339844,3.507505432128906,1.5394716674804687,-18.396946564885496,33.29770992366412,4.580152671755725,-10.232817895507813,0.09816226806640624,1.1324573852539062,-28.50381679389313,-0.9007633587786259,14.549618320610687,0.0
14.300000667572021,-10.189722265624999,3.134009973144531,1.8459294799804686,-25.114503816793892,32.94656488549618,7.206106870229007,-10.165780249023436,-0.15083470458984374,1.3862427612304686,-28.213740458015266,-2.5343511450381677,15.435114503816793,0.0
14.310000658035278,-9.672574707031249,3.42849677734375,2.3582886352539063,-31.374045801526716,29.908396946564885,8.961832061068701,-10.089165795898436,-0.13168109130859373,1.5634136840820312,-29.221374045801525,-4.183206106870229,14.67175572519084,0.0
14.320000410079956,-11.077971081542968,3.7924154296875,2.683900061035156,-42.732824427480914,27.96946564885496,6.458015267175573,-10.156203442382813,-0.34715924072265625,1.9656395629882812,-27.938931297709924,-4.778625954198473,14.16793893129771,0.0
14.330000638961792,-9.74200655517578,1.9009961181640624,1.7693150268554687,-46.94656488549618,21.053435114503817,10.15267175572519,-9.832986218261718,0.047884033203124995,1.9488801513671874,-28.50381679389313,-7.648854961832061,12.50381679389313,0.0
14.34000039100647,-10.723629235839843,1.9847931762695312,2.403778466796875,-45.954198473282446,23.557251908396946,7.648854961832061,-10.216058483886718,-0.4860229370117187,2.568978381347656,-26.33587786259542,-8.213740458015268,12.610687022900763,0.0
14.350000381469727,-10.007762939453125,1.0366893188476562,1.8195932617187498,-48.99236641221374,17.450381679389313,7.450381679389313,-9.854534033203125,-0.6536170532226562,2.612074011230469,-24.12213740458015,-11.465648854961833,10.580152671755725,0.0
14.360000610351562,-10.228029492187499,1.0821791503906248,1.8746598999023436,-46.42748091603053,17.374045801526716,6.015267175572519,-9.97184991455078,-0.7781155395507812,2.142810485839844,-20.595419847328245,-18.427480916030536,8.274809160305344,0.0
14.37000036239624,-9.634267480468749,0.7637503295898437,1.1252747802734375,-45.81679389312977,14.946564885496183,6.305343511450381,-8.86812294921875,0.4836287353515625,2.0374656127929685,-20.38167938931298,-23.206106870229007,5.022900763358779,0.0
14.380000591278076,-9.13627353515625,0.4261678955078125,0.9528922607421875,-41.57251908396947,15.206106870229007,7.374045801526718,-9.603142858886718,-0.38786066894531246,3.6463691284179687,-17.755725190839694,-21.938931297709924,8.549618320610687,0.0
14.390000820159912,-9.198522778320312,0.5315127685546874,0.833182177734375,-36.70229007633588,16.625954198473284,6.732824427480916,-10.036493359375,-1.218648645019531,3.641580725097656,-12.091603053435115,-29.938931297709924,8.290076335877863,0.0
14.400000810623169,-9.794678991699218,0.9002198242187499,1.1133037719726562,-32.030534351145036,17.251908396946565,5.541984732824427,-11.846509814453125,-0.97683427734375,4.568136767578125,0.2595419847328244,-35.00763358778626,7.694656488549619,0.0
14.410000562667847,-9.193734375,1.1228805786132812,0.86191259765625,-25.954198473282442,18.076335877862597,5.801526717557252,-9.593566052246093,2.080561242675781,2.616862414550781,-10.351145038167939,-47.41984732824427,-0.015267175572519083,0.0
14.420000791549683,-9.1554271484375,1.697488977050781,1.2306196533203124,-23.068702290076335,18.83969465648855,6.030534351145038,-8.425195642089843,3.1028853515624997,2.080561242675781,-30.015267175572518,-40.82442748091603,3.145038167938931,0.0
14.43000054359436,-9.624690673828125,1.455674609375,1.3766659545898436,-22.045801526717558,19.633587786259543,6.015267175572519,-11.204863769531249,-0.8690952026367187,3.7900212280273435,-21.282442748091604,-35.083969465648856,13.34351145038168,0.0
14.440000534057617,-10.769119067382812,2.454056701660156,2.1499930908203124,-19.923664122137403,21.129770992366414,2.885496183206107,-12.045228552246092,-1.7621324218749999,4.046200805664062,-9.526717557251908,-45.083969465648856,9.404580152671755,0.0
14.450000286102295,-9.792284790039062,2.73896669921875,1.838746875,-20.412213740458014,18.198473282442748,3.9236641221374047,-10.244788903808594,1.3551181396484375,2.9568390502929685,-15.725190839694656,-53.37404580152672,0.33587786259541985,0.0
14.46000051498413,-10.330980163574218,3.517082238769531,1.9105729248046874,-31.83206106870229,15.16030534351145,4.152671755725191,-10.556035119628906,0.3758896606445312,3.7421371948242186,-30.229007633587788,-44.045801526717554,3.8931297709923665,0.0
14.470000505447388,-8.990227233886719,0.8595183959960937,0.9744400756835937,-32.3206106870229,12.580152671755725,8.106870229007633,-12.998120812988281,-3.1938650146484373,4.8889597900390624,-13.801526717557252,-46.213740458015266,7.175572519083969,0.0
14.480000495910645,-9.686939916992188,1.1324573852539062,1.0007762939453124,-29.297709923664122,14.67175572519084,4.0,-13.376404675292967,-1.927332336425781,4.520252734375,0.6412213740458015,-64.2442748091603,-5.068702290076335,0.0
14.490000486373901,-10.177751257324218,2.0757728393554684,0.9002198242187499,-29.17557251908397,15.312977099236642,1.5419847328244274,-10.283096130371094,0.82360537109375,4.53940634765625,-10.916030534351146,-67.87786259541984,-10.870229007633588,0.0
14.500000476837158,-9.713276135253906,1.4915876342773438,0.833182177734375,-29.69465648854962,16.641221374045802,2.0,-12.650961572265624,-2.04943662109375,6.009446166992187,-0.9465648854961832,-69.72519083969466,-5.8320610687022905,0.0
14.510000467300415,-9.282319836425781,0.8379705810546875,0.8906430175781249,-29.267175572519083,18.198473282442748,-0.0916030534351145,-10.577582934570312,0.5267243652343749,3.5625720703124997,3.633587786259542,-89.81679389312977,-14.244274809160306,0.0
14.520000696182251,-10.108319409179687,1.5251064575195312,0.9935936889648437,-29.786259541984734,19.87786259541985,-2.6717557251908395,-11.79862578125,1.5227122558593749,5.5641246582031245,3.3893129770992365,-86.97709923664122,-11.816793893129772,0.0
14.530000925064087,-9.504980590820312,0.814028564453125,0.9576806640625,-26.763358778625953,19.480916030534353,-2.0763358778625953,-9.564835632324218,2.6312276245117188,3.27526787109375,-1.3893129770992367,-98.13740458015268,-13.374045801526718,0.0
14.540000677108765,-9.481038574218749,0.7398083129882812,0.8595183959960937,-23.34351145038168,20.15267175572519,-3.984732824427481,-9.746794958496093,2.583343591308594,2.8131869506835936,-0.6259541984732825,-99.70992366412214,-10.961832061068701,0.0
14.5500009059906,-9.442731347656249,1.6041151123046875,0.9169792358398436,-19.053435114503817,21.69465648854962,-5.343511450381679,-9.150638745117186,1.5586252807617187,4.261678955078125,-10.381679389312977,-93.14503816793894,-6.870229007633588,0.0
14.560000658035278,-9.411606726074218,2.3295582153320313,1.2904746948242187,-22.259541984732824,18.290076335877863,-5.267175572519084,-9.641450085449218,0.507570751953125,3.3159692993164063,-9.358778625954198,-97.70992366412214,-7.190839694656488,0.0
14.570000886917114,-9.974244116210937,2.6791116577148437,1.3311761230468748,-21.17557251908397,19.31297709923664,-5.7251908396946565,-9.124302526855468,0.9409212524414062,4.110844250488281,-10.106870229007633,-91.49618320610686,-4.656488549618321,0.0
14.580000400543213,-9.452308154296874,2.683900061035156,1.1923124267578125,-24.091603053435115,17.61832061068702,-4.122137404580153,-7.522581616210937,2.4684219116210935,1.2976572998046874,-14.50381679389313,-93.48091603053435,-6.641221374045801,0.0
14.590000629425049,-9.507374792480467,2.612074011230469,1.2641384765625,-24.610687022900763,17.450381679389313,-3.0839694656488548,-9.26316622314453,0.7158662963867187,3.6535517333984373,-16.290076335877863,-77.14503816793894,-5.587786259541985,0.0
14.600000381469727,-9.332598071289063,2.1021090576171875,1.3096283081054687,-24.748091603053435,16.580152671755727,-2.427480916030534,-8.750807067871094,1.3670891479492187,1.7405846069335937,-17.19083969465649,-80.03053435114504,-7.786259541984733,0.0
14.610000610351562,-9.466673364257812,2.1021090576171875,1.4149731811523436,-22.47328244274809,16.85496183206107,-2.900763358778626,-6.76122548828125,2.6431986328124997,1.1731588134765625,-28.564885496183205,-67.54198473282443,-7.038167938931298,0.0
14.62000060081482,-9.270348828125,1.0510545288085937,1.158793603515625,-17.541984732824428,16.717557251908396,-0.916030534351145,-8.832209924316405,1.5562310791015623,2.0374656127929685,-22.442748091603054,-56.29007633587786,0.015267175572519083,0.0
14.630000591278076,-9.732429748535155,1.0127473022460938,1.4963760375976562,-6.67175572519084,20.519083969465647,-2.687022900763359,-6.847416748046874,2.616862414550781,0.1580173095703125,-32.0763358778626,-50.778625954198475,-2.900763358778626,0.0
14.640000820159912,-9.289502441406249,2.858676782226562,1.448492004394531,-5.877862595419847,20.366412213740457,-4.870229007633588,-4.908113403320312,4.082113830566406,-0.74699091796875,-46.61068702290076,-35.221374045801525,-2.366412213740458,0.0
14.65000033378601,-9.794678991699218,3.1938650146484373,1.3527239379882812,-14.030534351145038,16.641221374045802,-4.290076335877862,-8.315062365722655,0.4955997436523437,2.5809493896484375,-57.343511450381676,-13.129770992366412,0.44274809160305345,0.0
14.660000801086426,-9.476250170898437,2.4157494750976563,1.6232687255859375,-13.007633587786259,17.328244274809162,-4.290076335877862,-9.277531433105468,-1.3311761230468748,2.389413256835937,-46.10687022900763,-12.595419847328245,0.061068702290076333,0.0
14.670000791549683,-9.8449572265625,2.4492682983398435,1.4221557861328125,-15.908396946564885,14.977099236641221,-5.251908396946565,-7.678204724121093,-0.3112462158203125,1.3000515014648437,-40.916030534351144,-10.229007633587786,-4.519083969465649,0.0
14.68000054359436,-9.543287817382812,1.8435352783203125,1.5442600708007812,-11.389312977099237,15.664122137404581,-4.931297709923665,-7.788338000488281,-0.584185205078125,2.2601263671875,-33.02290076335878,-6.030534351145038,-5.175572519083969,0.0
14.690000534057617,-9.13627353515625,1.8028338500976562,1.4508862060546874,-8.534351145038167,15.801526717557252,-5.893129770992366,-8.113949426269532,-0.9074024291992187,2.916137622070312,-28.396946564885496,-2.2290076335877864,-6.732824427480916,0.0
14.700000286102295,-10.091559997558592,2.4492682983398435,1.6711527587890624,-10.870229007633588,16.18320610687023,-7.435114503816794,-6.60799658203125,0.15083470458984374,2.0781670410156248,-26.732824427480917,-0.2748091603053435,-9.251908396946565,0.0
14.710009813308716,-9.13627353515625,2.205059729003906,1.3431471313476562,-7.7251908396946565,16.3206106870229,-6.198473282442748,-8.20971749267578,-0.9600748657226562,3.7995980346679685,-16.83969465648855,3.1603053435114505,-7.236641221374046,0.0
14.720000505447388,-8.769960681152343,2.6862942626953124,1.254561669921875,-10.366412213740459,15.541984732824428,-6.305343511450381,-7.364564306640625,-0.24660277099609373,3.347093920898437,-15.664122137404581,5.374045801526718,-8.259541984732824,0.0
14.730000257492065,-9.612719665527344,3.0980969482421874,1.4101847778320311,-16.427480916030536,14.106870229007633,-6.106870229007634,-6.833051538085937,0.08140285644531249,3.1555577880859373,-11.49618320610687,6.473282442748092,-8.061068702290076,0.0
14.74000072479248,-9.804255798339844,2.549824768066406,1.695094775390625,-19.114503816793892,13.557251908396946,-4.961832061068702,-7.165845568847656,-0.32082302246093747,3.488351818847656,-7.068702290076335,8.549618320610687,-6.458015267175573,0.0
14.750000476837158,-9.591171850585937,1.7022773803710936,1.678335363769531,-19.435114503816795,12.870229007633588,-4.396946564885496,-7.273584643554687,-0.59376201171875,3.9647979492187497,-1.450381679389313,10.381679389312977,-5.3893129770992365,0.0
14.760000467300415,-10.141838232421874,1.4700398193359374,1.6639701538085936,-19.282442748091604,11.435114503816793,-5.221374045801527,-6.533776330566406,0.1484405029296875,3.239354846191406,1.4198473282442747,10.549618320610687,-5.0534351145038165,0.0
14.77000093460083,-9.68454571533203,1.024718310546875,2.185906115722656,-14.320610687022901,11.083969465648854,-5.633587786259542,-6.8402341430664055,0.11013327636718749,3.835511059570312,3.572519083969466,14.198473282442748,-2.9923664122137406,0.0
14.780000686645508,-9.488221179199218,0.9576806640625,2.3678654418945313,-10.045801526717558,9.740458015267176,-6.580152671755725,-5.140350964355468,1.0486603271484374,2.607285607910156,-3.969465648854962,18.80916030534351,-3.3282442748091605,0.0
14.790000915527344,-9.567229833984374,0.8212111694335937,2.375048046875,-5.679389312977099,6.8396946564885495,-7.633587786259542,-6.4092778442382805,0.30406361083984373,3.227383837890625,1.786259541984733,20.763358778625953,0.42748091603053434,0.0
14.800000667572021,-9.306261853027344,0.7829039428710937,2.6791116577148437,-0.1984732824427481,3.83206106870229,-9.206106870229007,-7.829039428710937,-0.5482721801757812,4.314351391601562,10.183206106870228,21.46564885496183,3.2519083969465647,0.0
