timestamp,Thigh_L_Acc_X,Thigh_L_Acc_Y,Thigh_L_Acc_Z,Thigh_L_Gyr_X,Thigh_L_Gyr_Y,Thigh_L_Gyr_Z,Thigh_R_Acc_X,Thigh_R_Acc_Y,Thigh_R_Acc_Z,Thigh_R_Gyr_X,Thigh_R_Gyr_Y,Thigh_R_Gyr_Z,gpio_output
10.000000476837158,-10.87925234375,3.3686417358398435,3.265691064453125,-5.022900763358779,37.55725190839695,-4.870229007633588,-9.318232861328125,1.3551181396484375,1.0845733520507812,-16.427480916030536,-6.580152671755725,7.343511450381679,0.0
10.010000705718994,-11.434707128906249,2.91134921875,3.782838623046875,-16.458015267175572,38.54961832061068,-1.7709923664122138,-10.129867224121092,0.8714894042968749,0.9265560424804687,-18.80916030534351,-7.9541984732824424,11.541984732824428,1.0
10.020000696182251,-10.529698901367187,2.250549560546875,3.1459809814453124,-29.14503816793893,30.458015267175572,2.4427480916030535,-11.183315954589844,1.0271125122070313,1.16837041015625,-16.916030534351144,-10.916030534351146,9.923664122137405,1.0
10.030000686645508,-10.896011755371093,1.13006318359375,2.920926025390625,-30.885496183206108,30.12213740458015,6.0458015267175576,-10.726023437499999,0.8212111694335937,0.8930372192382812,-18.427480916030536,-14.854961832061068,9.221374045801527,1.0
10.040000438690186,-7.773972790527344,0.12210428466796874,0.9241618408203125,-26.53435114503817,25.87786259541985,8.01526717557252,-10.654197387695312,0.5339069702148437,1.697488977050781,-16.412213740458014,-14.366412213740459,8.366412213740459,1.0
10.0500009059906,-8.741230261230468,0.09816226806640624,1.618480322265625,-22.106870229007633,30.580152671755727,3.6793893129770994,-11.40837091064453,-1.2952630981445312,3.21780703125,-7.603053435114504,-16.48854961832061,10.687022900763358,1.0
10.060000658035278,-7.316680273437499,-0.7445967163085937,0.3016694091796875,-12.748091603053435,32.732824427480914,2.0,-11.616666455078125,0.7230489013671875,2.5857377929687497,-4.687022900763359,-26.213740458015266,5.694656488549619,1.0
10.070000648498535,-8.576030346679687,0.1149216796875,0.6967126831054687,-8.763358778625955,38.67175572519084,-1.4961832061068703,-9.30147344970703,1.2210428466796874,1.4772224243164063,-17.19083969465649,-33.32824427480916,2.9160305343511452,1.0
10.080000400543213,-7.970297326660156,-0.42377369384765623,-0.05985504150390625,-7.740458015267175,39.98473282442748,-2.7022900763358777,-9.598354455566406,1.8411410766601561,1.4867992309570313,-22.35114503816794,-33.29770992366412,6.061068702290076,1.0
10.090000867843628,-9.380482104492186,0.5339069702148437,0.7302315063476562,-6.916030534351145,44.76335877862596,-4.427480916030534,-11.133037719726563,0.3112462158203125,2.7748797241210936,-26.80916030534351,-32.152671755725194,12.229007633587786,1.0
10.100053787231445,-9.423577734375,0.8379705810546875,0.5147533569335937,-8.458015267175572,43.63358778625954,-3.6030534351145036,-11.087547888183593,0.04548983154296875,2.9376854370117185,-22.732824427480917,-37.099236641221374,13.725190839694656,1.0
10.110000610351562,-9.502586389160156,0.9504980590820312,0.6057330200195312,-6.244274809160306,44.35114503816794,-1.618320610687023,-12.603077539062499,-0.16998831787109375,3.727771984863281,-11.801526717557252,-44.42748091603053,14.625954198473282,1.0
10.12000060081482,-9.004592443847656,-0.39264907226562495,-0.047884033203124995,0.366412213740458,44.396946564885496,-0.3969465648854962,-12.612654345703124,-1.678335363769531,4.299986181640625,5.206106870229007,-58.30534351145038,14.106870229007633,1.0
10.130000591278076,-10.254365710449218,0.6057330200195312,1.3742717529296875,3.282442748091603,49.267175572519086,-4.687022900763359,-10.625466967773438,0.41419688720703124,2.5522189697265625,9.145038167938932,-74.44274809160305,5.7251908396946565,1.0
10.140000581741333,-11.207257971191405,2.482787121582031,1.905784521484375,-4.198473282442748,46.0,-7.267175572519084,-8.990227233886719,2.3535002319335936,3.095702746582031,-6.351145038167939,-71.20610687022901,3.5419847328244276,1.0
10.150000810623169,-10.237606298828124,0.8906430175781249,1.8291700683593748,-12.595419847328245,39.43511450381679,-2.931297709923664,-10.824185705566405,0.29927520751953124,3.1076737548828124,-3.0229007633587788,-70.2442748091603,10.82442748091603,1.0
10.160000562667847,-8.55448253173828,-0.016759411621093748,1.2210428466796874,-8.961832061068701,39.48091603053435,-3.5419847328244276,-9.600748657226562,1.66636435546875,1.9967641845703124,-13.740458015267176,-75.23664122137404,6.778625954198473,1.0
10.170000553131104,-10.347739575195313,1.9919757812499999,2.166752502441406,-16.946564885496183,38.87022900763359,-5.603053435114504,-9.514557397460937,0.97683427734375,2.9831752685546875,-16.442748091603054,-68.3206106870229,9.022900763358779,1.0
10.18000078201294,-9.112331518554686,0.8858546142578124,0.7350199096679687,-16.778625954198475,34.47328244274809,-2.4580152671755724,-11.61906065673828,-0.3902548706054687,3.6942531616210936,-7.3893129770992365,-71.46564885496183,12.641221374045802,1.0
10.190000534057617,-9.18655177001953,1.6112977172851561,0.7709329345703124,-13.908396946564885,33.038167938931295,-1.1908396946564885,-9.95987890625,0.718260498046875,2.422932080078125,-16.564885496183205,-75.92366412213741,5.221374045801527,1.0
10.200000524520874,-10.091559997558592,2.5474305664062498,1.6208745239257811,-20.931297709923665,30.732824427480917,-0.04580152671755725,-9.988609326171874,-0.51714755859375,3.6343981201171873,-11.48091603053435,-69.29770992366412,8.106870229007633,1.0
10.21000075340271,-10.481814868164061,2.5474305664062498,1.2713210815429687,-25.770992366412212,24.442748091603054,2.7022900763358777,-11.429918725585937,-1.139639990234375,2.9185318237304685,0.2748091603053435,-76.13740458015268,7.694656488549619,0.0
10.22000765800476,-8.9255837890625,0.9935936889648437,0.5195417602539062,-26.68702290076336,16.442748091603054,5.786259541984733,-8.655039001464843,0.7661445312499999,1.2665326782226562,-9.312977099236642,-79.77099236641222,-0.7938931297709924,0.0
10.23001480102539,-10.012551342773437,1.37906015625,1.4628572143554686,-28.80916030534351,14.473282442748092,6.763358778625954,-10.421959826660157,-0.3854664672851562,2.9089550170898435,1.5725190839694656,-73.08396946564885,5.358778625954199,0.0
10.240000486373901,-10.414777221679687,0.2753331909179687,1.3455413330078123,-25.908396946564885,14.0,4.854961832061068,-10.024522351074218,0.22505495605468748,0.928950244140625,4.213740458015267,-80.07633587786259,0.5038167938931297,0.0
10.250000715255737,-9.74200655517578,0.0718260498046875,1.388636962890625,-16.076335877862597,14.061068702290076,3.4656488549618323,-9.4618849609375,1.2665326782226562,2.2002713256835937,-1.4961832061068703,-73.55725190839695,-2.381679389312977,0.0
10.260000467300415,-9.567229833984374,0.086191259765625,0.9864110839843749,-11.908396946564885,13.557251908396946,2.1068702290076335,-11.219228979492186,-0.46686932373046874,3.3782185424804685,11.908396946564885,-72.19847328244275,1.618320610687023,0.0
10.270000696182251,-9.694122521972655,0.6440402465820312,0.5793968017578125,-9.83206106870229,12.687022900763358,-0.5343511450381679,-8.12113203125,1.5418658691406248,0.7493851196289062,-0.2900763358778626,-75.26717557251908,-6.824427480916031,0.0
10.280000686645508,-9.682151513671874,1.1156979736328125,0.507570751953125,-9.587786259541986,12.106870229007633,0.42748091603053434,-9.835380419921874,0.4165910888671875,3.651157531738281,6.977099236641221,-62.10687022900763,-2.2442748091603053,0.0
10.290000438690186,-9.636661682128906,1.16837041015625,0.5195417602539062,-8.793893129770993,12.687022900763358,0.6106870229007634,-10.369287390136718,0.3687070556640625,2.29843359375,12.381679389312977,-65.43511450381679,-3.3893129770992365,0.0
10.300000667572021,-10.421959826660157,2.094926452636719,0.7900865478515624,-10.977099236641221,12.900763358778626,-0.4732824427480916,-7.577648254394531,3.1651345947265623,0.5482721801757812,-2.8091603053435112,-60.213740458015266,-9.648854961832061,0.0
10.310000896453857,-9.962273107910155,2.0183119995117185,0.3687070556640625,-13.267175572519085,13.603053435114504,1.2366412213740459,-8.8872765625,1.649604943847656,2.789244934082031,1.1908396946564885,-45.12977099236641,-0.44274809160305345,0.0
10.320000410079956,-10.474632263183594,1.936909143066406,0.2657563842773437,-16.15267175572519,13.83206106870229,0.183206106870229,-9.26316622314453,0.7445967163085937,0.8690952026367187,2.8091603053435112,-48.29007633587786,-1.1145038167938932,0.0
10.330000638961792,-10.146626635742187,1.8531120849609375,0.19632453613281248,-15.755725190839694,14.610687022900763,0.12213740458015267,-7.419630944824219,3.545812658691406,0.3950432739257812,-11.83206106870229,-40.61068702290076,-5.938931297709924,0.0
10.340000867843628,-9.715670336914062,1.5538368774414062,0.09576806640624999,-18.091603053435115,15.84732824427481,1.0534351145038168,-7.465120776367187,3.3494881225585935,1.6400281372070311,-27.251908396946565,-23.557251908396946,-1.9694656488549618,0.0
10.350000619888306,-9.689334118652344,1.2234370483398436,0.38786066894531246,-21.480916030534353,17.068702290076335,0.0916030534351145,-8.350975390624999,1.3838485595703125,1.8818425048828125,-39.725190839694655,-12.13740458015267,-0.4122137404580153,0.0
10.360000848770142,-9.832986218261718,0.928950244140625,0.36631285400390623,-22.83969465648855,17.068702290076335,-1.4351145038167938,-9.244012609863281,0.09576806640624999,1.915361328125,-33.954198473282446,-11.541984732824428,-0.12213740458015267,0.0
10.37000060081482,-9.56962403564453,0.17956512451171874,0.1580173095703125,-18.045801526717558,17.450381679389313,-2.381679389312977,-9.406818322753905,0.05027823486328125,2.645592834472656,-31.61832061068702,-8.80916030534351,-3.0839694656488548,0.0
10.380000591278076,-8.044517578125,-1.3359645263671873,-0.6631938598632812,-8.687022900763358,19.709923664122137,-2.9160305343511452,-8.949525805664061,0.062249243164062495,2.9831752685546875,-27.450381679389313,-8.488549618320612,-6.2748091603053435,0.0
10.390000581741333,-9.050082275390624,-0.28969840087890625,0.12210428466796874,-6.396946564885496,20.83969465648855,-7.297709923664122,-9.6917283203125,-0.40222587890625,3.411737365722656,-16.80916030534351,-12.51908396946565,-7.694656488549619,0.0
10.40000033378601,-8.80347950439453,0.49320554199218747,-0.32561142578124996,1.4351145038167938,22.625954198473284,-9.755725190839694,-9.141061938476563,-1.1061211669921875,3.265691064453125,-9.48091603053435,-15.389312977099237,-9.923664122137405,0.0
10.410000324249268,-8.726865051269531,0.9433154541015625,0.05027823486328125,0.9923664122137404,24.48854961832061,-11.099236641221374,-9.445125549316407,-1.1516109985351561,3.670311145019531,3.877862595419847,-19.87786259541985,-11.450381679389313,0.0
10.420000791549683,-9.792284790039062,1.9584569580078124,1.1228805786132812,-3.969465648854962,24.244274809160306,-11.954198473282442,-8.461108666992187,0.6703764648437499,2.8993782104492185,6.412213740458015,-25.053435114503817,-14.488549618320612,0.0
10.430000305175781,-10.151415039062499,2.1787235107421874,1.3527239379882812,-12.885496183206106,19.404580152671755,-9.557251908396946,-5.377376928710937,2.612074011230469,1.7166425903320313,-13.435114503816793,-19.19083969465649,-17.00763358778626,0.0
10.440000295639038,-9.047688073730468,1.1085153686523437,0.5746083984375,-12.961832061068701,18.458015267175572,-7.282442748091603,-5.511452221679687,2.398990063476562,2.6336218261718747,-36.35114503816794,1.3740458015267176,-13.694656488549619,0.0
10.450000762939453,-9.083601098632812,-0.00239420166015625,0.2346317626953125,-10.687022900763358,18.671755725190838,-6.793893129770993,-9.713276135253906,-1.3910311645507811,4.639962817382812,-24.015267175572518,3.618320610687023,-5.511450381679389,0.0
10.46000051498413,-10.002974536132811,0.5817910034179687,0.70868369140625,-4.0,21.96946564885496,-11.038167938931299,-8.406042028808594,-0.8882488159179687,3.7301661865234372,-23.068702290076335,-0.6259541984732825,-10.274809160305344,0.0
10.470000505447388,-8.530540515136718,0.3854664672851562,-0.26336218261718747,-2.7938931297709924,18.82442748091603,-9.526717557251908,-7.783549597167968,-0.5865794067382812,4.017470385742187,-16.412213740458014,-1.4809160305343512,-12.580152671755725,0.0
10.480000495910645,-9.830592016601562,2.0661960327148434,0.7326257080078125,-6.152671755725191,22.03053435114504,-11.297709923664122,-7.745242370605468,-0.6416460449218749,4.2521021484374995,-13.83206106870229,-1.1450381679389312,-14.427480916030534,0.0
10.490000486373901,-10.867281335449219,2.133233679199219,1.0869675537109373,-10.549618320610687,22.27480916030534,-12.0,-7.783549597167968,-0.36631285400390623,4.146757275390625,-10.641221374045802,-0.5801526717557252,-14.900763358778626,0.0
10.500000476837158,-11.863269226074218,2.9664158569335934,1.9776105712890624,-16.549618320610687,20.82442748091603,-11.404580152671755,-8.042123376464843,-0.5363011718749999,4.161122485351562,-8.335877862595419,-0.5648854961832062,-14.351145038167939,0.0
10.510000705718994,-9.85692823486328,0.7565677246093749,0.5219359619140624,-19.755725190839694,13.648854961832061,-6.213740458015267,-9.739612353515625,-0.7206546997070312,4.733336682128906,-6.442748091603053,-0.10687022900763359,-13.48091603053435,0.0
10.520000696182251,-8.971073620605468,-0.016759411621093748,-0.1771709228515625,-13.404580152671755,14.183206106870228,-4.702290076335878,-7.501033801269531,0.9313444458007812,3.6846763549804686,-13.633587786259541,2.427480916030534,-14.580152671755725,0.0
10.530000686645508,-9.107543115234375,0.2920926025390625,0.679953271484375,-12.427480916030534,15.954198473282442,-7.6183206106870225,-7.453149768066406,0.6512228515624999,3.881000891113281,-12.82442748091603,3.572519083969466,-12.045801526717558,0.0
10.540000677108765,-10.27830772705078,0.8403647827148437,0.7709329345703124,-11.801526717557252,15.786259541984732,-9.740458015267176,-7.714117749023437,0.21308394775390624,4.07971962890625,-14.885496183206106,5.480916030534351,-10.473282442748092,0.0
10.550000667572021,-10.271125122070313,0.8762778076171874,1.0127473022460938,-10.15267175572519,16.80916030534351,-10.01526717557252,-7.706935144042968,0.0526724365234375,4.0988732421875,-13.618320610687023,6.534351145038168,-9.129770992366412,0.0
10.560000658035278,-10.292672937011718,0.5410895751953124,0.7589619262695312,-8.977099236641221,15.923664122137405,-9.557251908396946,-7.673416320800781,0.00239420166015625,4.218583325195312,-13.603053435114504,7.190839694656488,-9.358778625954198,0.0
10.570000648498535,-9.995791931152343,0.39743747558593745,0.6967126831054687,-6.641221374045801,16.15267175572519,-10.259541984732824,-7.620743884277343,-0.05027823486328125,4.338293408203125,-12.900763358778626,9.709923664122137,-8.946564885496183,0.0
10.580000877380371,-10.038887561035155,0.4429273071289062,1.1827356201171875,-5.847328244274809,16.48854961832061,-12.183206106870228,-7.517793212890624,-0.1292868896484375,4.0988732421875,-12.534351145038167,11.34351145038168,-8.122137404580153,0.0
10.590000629425049,-9.85692823486328,0.5506663818359374,1.2713210815429687,-0.42748091603053434,16.47328244274809,-12.595419847328245,-7.611167077636718,-0.3687070556640625,4.386177441406249,-10.793893129770993,13.740458015267176,-7.038167938931298,0.0
10.600000619888306,-9.907206469726562,0.8379705810546875,1.2880804931640624,1.2366412213740459,15.572519083969466,-13.893129770992367,-7.687781530761718,-0.74699091796875,4.3454760131835934,-7.847328244274809,14.900763358778626,-6.152671755725191,0.0
10.610000610351562,-9.265560424804686,0.9097966308593749,1.216254443359375,5.740458015267175,16.442748091603054,-14.091603053435115,-7.704540942382812,-1.1444283935546875,4.513070129394531,-3.5114503816793894,16.778625954198475,-6.076335877862595,0.0
10.62000036239624,-9.457096557617186,1.4341267944335936,1.6328455322265625,6.580152671755725,17.00763358778626,-15.022900763358779,-7.948749511718749,-1.4724340209960938,4.632780212402343,2.6259541984732824,17.34351145038168,-6.519083969465649,0.0
10.630000591278076,-9.342174877929686,1.5418658691406248,1.4820108276367188,9.816793893129772,17.938931297709924,-14.50381679389313,-7.716511950683593,-1.5394716674804687,4.57771357421875,9.770992366412214,18.076335877862597,-6.870229007633588,0.0
10.640000581741333,-8.640673791503906,0.814028564453125,1.13006318359375,17.34351145038168,19.19083969465649,-13.48091603053435,-7.6231380859375,-1.6328455322265625,4.805162731933594,16.30534351145038,19.206106870229007,-7.465648854961832,0.0
10.65000057220459,-8.571241943359375,1.5083470458984374,1.4413093994140624,19.14503816793893,19.52671755725191,-15.145038167938932,-7.323862878417969,-1.5322890624999999,4.821922143554687,22.35114503816794,19.52671755725191,-8.580152671755725,0.0
10.660000324249268,-9.938331091308592,2.4564509033203126,2.418143676757812,18.12213740458015,21.908396946564885,-17.14503816793893,-7.4603323730468745,-1.5658078857421873,5.042188696289062,28.290076335877863,19.374045801526716,-8.854961832061068,0.0
10.670000791549683,-9.526528405761718,2.5378537597656248,2.6192566162109374,19.068702290076335,18.80916030534351,-15.541984732824428,-5.963956335449218,-0.24660277099609373,3.6080619018554687,26.15267175572519,17.572519083969464,-11.404580152671755,0.0
10.68000054359436,-9.739612353515625,2.4396914916992185,3.1459809814453124,20.244274809160306,14.946564885496183,-13.83206106870229,-6.308721374511719,-0.3064578125,5.145139367675781,15.145038167938932,29.129770992366414,-10.488549618320612,0.0
10.690000534057617,-10.077194787597655,1.1348515869140625,3.1794998046874996,22.015267175572518,10.870229007633588,-12.564885496183207,-6.64630380859375,-1.0726023437499999,4.5322237426757805,13.114503816793894,30.259541984732824,-7.648854961832061,0.0
10.700000524520874,-9.617508068847656,1.889025109863281,3.612850305175781,27.114503816793892,6.793893129770993,-13.526717557251908,-6.533776330566406,-0.7637503295898437,4.029441394042968,14.67175572519084,29.69465648854962,-6.732824427480916,0.0
10.710000276565552,-12.662932580566405,3.299209887695312,5.6191912963867185,23.786259541984734,3.7404580152671754,-15.679389312977099,-6.0716954101562495,0.33518823242187495,3.5290532470703124,5.343511450381679,33.32824427480916,-8.961832061068701,0.0
10.720000505447388,-10.24000050048828,0.7062894897460937,3.7397429931640622,22.65648854961832,-8.931297709923664,-9.526717557251908,-5.049371301269531,1.5945383056640625,2.3535002319335936,-6.320610687022901,39.969465648854964,-9.450381679389313,0.0
10.730000495910645,-10.09395419921875,0.8475473876953125,3.6080619018554687,27.221374045801525,-13.877862595419847,-9.358778625954198,-6.845022546386718,-0.0718260498046875,2.7940333374023436,-18.213740458015266,56.229007633587784,-4.030534351145038,0.0
10.740020513534546,-10.692504614257812,0.4836287353515625,3.5051112304687497,25.938931297709924,-22.244274809160306,-14.0,-10.934318981933593,-1.3096283081054687,3.1651345947265623,-4.0458015267175576,57.541984732824424,-1.8625954198473282,0.0
10.750000715255737,-10.666168395996094,0.11731588134765625,3.2345664428710936,30.85496183206107,-31.022900763358777,-17.84732824427481,-11.84890401611328,1.1037269653320312,2.518700146484375,-14.396946564885496,58.99236641221374,-13.404580152671755,0.0
10.760000467300415,-10.831368310546875,0.9074024291992187,3.7517140014648436,39.02290076335878,-33.45038167938932,-20.137404580152673,-15.241487768554686,-0.5434837768554687,5.856217260742187,-9.145038167938932,64.44274809160305,-13.17557251908397,0.0
10.770000696182251,-11.65736788330078,1.6448165405273436,3.9528269409179684,34.961832061068705,-44.3206106870229,-22.80916030534351,-18.018761694335936,-0.09816226806640624,6.5218053222656245,11.893129770992367,52.18320610687023,-11.145038167938932,0.0
10.780000686645508,-12.571952917480468,1.7525556152343749,4.1946413085937495,30.83969465648855,-60.0763358778626,-18.748091603053435,-16.79053624267578,2.882618798828125,7.419630944824219,13.923664122137405,46.717557251908396,-6.366412213740458,0.0
10.790000438690186,-14.176068029785155,1.1372457885742187,5.224148022460938,27.419847328244273,-70.22900763358778,-12.229007633587786,-14.425065002441405,3.423708374023437,7.149086157226562,39.603053435114504,26.763358778625953,15.099236641221374,0.0
10.800000667572021,-14.087482568359373,-0.17477672119140625,5.516240625,48.93129770992366,-72.58015267175573,-11.19083969465649,-10.761936462402343,2.8706477905273435,3.383006945800781,26.625954198473284,13.114503816793894,20.244274809160306,0.0
10.810000658035278,-15.808913562011718,1.7956512451171873,7.371746911621093,30.16793893129771,-90.87022900763358,-12.83969465648855,-7.0844427124023435,2.9185318237304685,0.8044517578125,4.748091603053435,15.404580152671755,15.801526717557252,0.0
10.820000886917114,-17.413028674316404,2.0566192260742184,7.982268334960937,23.87786259541985,-113.48091603053435,-7.908396946564886,-7.431601953125,-1.1372457885742187,0.24181436767578124,-4.854961832061068,23.51145038167939,18.137404580152673,0.0
10.830000638961792,-17.25022296142578,1.93451494140625,7.407659936523437,24.519083969465647,-133.0229007633588,-0.5801526717557252,-9.56962403564453,-2.176329309082031,-0.7062894897460937,3.954198473282443,23.770992366412212,10.916030534351146,0.0
10.840000867843628,-17.073052038574218,1.9656395629882812,6.500257507324219,26.061068702290076,-152.18320610687022,7.221374045801527,-8.470685473632813,-1.7884686401367187,-2.2744915771484373,5.694656488549619,26.366412213740457,-3.633587786259542,0.0
10.850000619888306,-14.935029956054686,2.1260510742187497,4.410119458007812,28.442748091603054,-167.23664122137404,19.251908396946565,-8.542511523437499,-2.3870190551757813,-1.0654197387695312,18.0,33.51145038167939,-8.183206106870228,0.0
10.860000848770142,-13.517662573242188,1.0199299072265624,1.13006318359375,29.633587786259543,-176.82442748091603,30.549618320610687,-9.988609326171874,-2.319981408691406,-0.17477672119140625,21.96946564885496,40.94656488549618,-10.778625954198473,0.0
10.87000036239624,-17.28853018798828,3.375824340820312,3.0430303100585934,21.633587786259543,-166.45801526717557,30.946564885496183,-9.318232861328125,-1.4604630126953124,-0.5865794067382812,13.755725190839694,47.55725190839695,-13.099236641221374,0.0
10.880000591278076,-14.049175341796873,3.0334535034179684,-0.0909796630859375,2.4122137404580153,-180.3206106870229,38.94656488549618,-7.297526660156249,-0.3950432739257812,-0.8714894042968749,0.8396946564885496,53.725190839694655,-10.122137404580153,0.0
10.890000820159912,-10.587159741210938,-0.16041151123046873,-2.8467057739257813,-2.030534351145038,-182.18320610687022,47.63358778625954,-11.077971081542968,-0.8690952026367187,1.2713210815429687,14.687022900763358,57.404580152671755,7.343511450381679,0.0
10.90000057220459,-9.315838659667968,-0.8810662109374999,-3.038241906738281,-2.122137404580153,-167.17557251908397,45.52671755725191,-11.240776794433593,-0.02633621826171875,2.0470424194335934,0.10687022900763359,59.93893129770992,8.580152671755725,0.0
10.910000562667847,-8.736441857910156,-3.086125939941406,-3.0597897216796874,-4.259541984732825,-155.38931297709922,41.87786259541985,-12.145785021972655,0.29448680419921874,2.3415292236328122,5.694656488549619,58.091603053435115,12.366412213740459,0.0
10.920000553131104,-6.169857678222656,-5.992686755371094,-4.735730883789063,11.725190839694656,-134.0,39.43511450381679,-11.111489904785156,-0.5722141967773438,2.0877438476562498,0.3969465648854962,54.56488549618321,15.022900763358779,0.0
10.93008303642273,-6.423643054199219,-5.7891796142578125,-3.366247534179687,33.37404580152672,-102.62595419847328,30.549618320610687,-11.961431494140625,-2.4349030883789062,3.404554760742187,21.389312977099237,43.954198473282446,16.68702290076336,0.0
10.940000534057617,-5.4515971801757805,-5.087678527832031,-3.5625720703124997,57.267175572519086,-77.43511450381679,21.450381679389313,-9.548076220703125,-1.3407529296874998,0.11252747802734374,31.557251908396946,26.778625954198475,9.297709923664122,0.0
10.950000762939453,-8.10197841796875,-2.31758720703125,-1.0654197387695312,70.0,-53.38931297709924,14.610687022900763,-8.022969763183593,-0.11252747802734374,-0.3016694091796875,15.312977099236642,30.671755725190838,-0.3816793893129771,0.0
10.96000051498413,-9.153032946777342,0.22505495605468748,0.6607996582031249,65.37404580152672,-44.916030534351144,12.977099236641221,-8.269572534179687,-0.5889736083984375,0.3184288208007812,9.251908396946565,41.17557251908397,1.3435114503816794,0.0
10.970000743865967,-8.288726147460936,0.07900865478515624,0.8212111694335937,61.49618320610687,-37.25190839694657,14.610687022900763,-10.77630167236328,-2.8898014038085935,1.7334020019531249,22.641221374045802,39.12977099236641,9.053435114503817,0.0
10.980000495910645,-10.249577307128906,2.118868469238281,2.1835119140624997,39.786259541984734,-38.213740458015266,12.778625954198473,-9.861716638183593,-1.8028338500976562,0.39743747558593745,30.442748091603054,29.17557251908397,5.419847328244275,0.0
10.99000072479248,-9.095572106933593,2.360682836914062,1.8004396484374998,24.885496183206108,-41.66412213740458,14.992366412213741,-9.95987890625,-0.2561795776367187,1.2880804931640624,24.458015267175572,30.65648854961832,-0.366412213740458,0.0
11.000000476837158,-8.099584216308592,2.0374656127929685,1.39821376953125,4.793893129770993,-42.18320610687023,16.946564885496183,-11.087547888183593,0.7781155395507812,2.384624853515625,15.557251908396946,35.00763358778626,-1.6030534351145038,0.0
11.010000705718994,-7.297526660156249,1.4532804077148436,0.7230489013671875,-10.595419847328245,-41.17557251908397,17.083969465648856,-7.230489013671875,1.4724340209960938,0.2753331909179687,-2.3206106870229006,35.32824427480916,-1.1603053435114503,0.0
11.020000457763672,-5.844246252441406,0.6416460449218749,-0.076614453125,-21.633587786259543,-35.14503816793893,16.045801526717558,-7.742848168945312,1.0342951171875,0.8954314208984374,-19.755725190839694,47.48091603053435,5.679389312977099,0.0
11.030000686645508,-5.6311623046875,-0.5530605834960938,-0.13407529296874998,-27.00763358778626,-23.755725190839694,13.511450381679388,-10.819397302246093,-2.0973206542968748,3.7397429931640622,-1.83206106870229,42.13740458015267,17.34351145038168,0.0
11.040000677108765,-4.170699291992188,-1.5945383056640625,-1.1085153686523437,-24.3206106870229,-13.770992366412214,10.641221374045802,-12.9095353515625,-2.9664158569335934,4.642357019042969,21.083969465648856,33.81679389312977,17.068702290076335,0.0
11.0500009059906,-5.592855078125,-0.9624690673828125,0.09337386474609374,-25.603053435114504,-0.42748091603053434,5.587786259541985,-11.48498536376953,-1.3383587280273437,3.7421371948242186,17.572519083969464,26.213740458015266,6.549618320610687,0.0
11.060000658035278,-5.475539196777343,-0.7876923461914062,0.6392518432617187,-24.99236641221374,11.007633587786259,3.816793893129771,-9.375693701171874,-0.45010991210937495,2.473210314941406,18.290076335877863,18.793893129770993,0.8244274809160306,0.0
11.070000648498535,-6.208164904785156,0.40222587890625,1.7118541870117185,-33.29770992366412,17.221374045801525,2.6259541984732824,-9.05965908203125,0.23223756103515625,2.020706201171875,13.251908396946565,16.900763358778626,1.0381679389312977,0.0
11.08000111579895,-4.237736938476562,-0.9193734375,0.5865794067382812,-31.862595419847327,23.419847328244273,5.801526717557252,-9.469067565917967,-0.7637503295898437,2.77727392578125,10.51908396946565,17.450381679389313,5.145038167938932,0.0
11.090000629425049,-3.763685009765625,-0.8954314208984374,0.8044517578125,-29.46564885496183,33.66412213740458,5.0534351145038165,-10.12507882080078,-0.6560112548828124,2.418143676757812,7.938931297709924,14.961832061068701,6.824427480916031,0.0
11.100000858306885,-4.984727856445312,-0.5339069702148437,1.3024457031249999,-25.64885496183206,44.030534351145036,1.5419847328244274,-9.919177478027343,-0.41419688720703124,1.944091748046875,4.488549618320611,13.709923664122137,5.938931297709924,0.0
11.110000610351562,-5.090072729492187,-0.3064578125,1.5586252807617187,-19.6793893129771,52.213740458015266,-0.3511450381679389,-9.97184991455078,-0.469263525390625,2.8706477905273435,-6.33587786259542,19.46564885496183,6.778625954198473,0.0
11.12000060081482,-6.062118603515625,0.7254431030273437,3.0262708984374997,-18.671755725190838,57.87786259541985,-2.564885496183206,-8.48505068359375,-0.24181436767578124,1.2569558715820313,-16.412213740458014,19.557251908396946,7.022900763358779,0.0
11.130000591278076,-5.963956335449218,1.1156979736328125,3.957615344238281,-13.664122137404581,58.6412213740458,-0.8854961832061069,-8.039729174804688,-0.09576806640624999,1.4030021728515625,-25.709923664122137,27.00763358778626,10.183206106870228,0.0
11.140000343322754,-6.909665991210937,0.8379705810546875,4.867411975097656,-3.099236641221374,63.89312977099237,1.3740458015267176,-11.827356201171874,-3.1316157714843746,3.1771056030273437,-9.572519083969466,27.954198473282442,17.66412213740458,0.0
11.15000057220459,-8.061276989746093,0.15562310791015624,5.358223315429687,7.236641221374046,64.36641221374046,1.8015267175572518,-13.555969799804688,-2.91134921875,3.622427111816406,14.992366412213741,13.969465648854962,15.770992366412214,0.0
11.160000562667847,-9.93354268798828,0.9624690673828125,6.976703637695312,18.30534351145038,61.25190839694657,0.8854961832061069,-11.516109985351562,-0.8595183959960937,2.4564509033203126,10.442748091603054,10.580152671755725,5.1603053435114505,0.0
11.170000791549683,-10.570400329589843,1.5634136840820312,8.02536396484375,32.16793893129771,56.19847328244275,4.1679389312977095,-9.270348828125,-0.1292868896484375,1.4532804077148436,9.145038167938932,8.625954198473282,1.8778625954198473,0.0
11.18000054359436,-11.959037292480469,3.1292215698242187,10.338162768554687,40.42748091603053,48.412213740458014,7.00763358778626,-10.230423693847655,-0.5482721801757812,1.3527239379882812,9.648854961832061,11.511450381679388,5.572519083969466,0.0
11.190000534057617,-13.527239379882811,5.463568188476562,10.307038146972655,44.229007633587784,35.221374045801525,14.091603053435115,-11.228805786132812,-0.93852705078125,1.8770541015625,10.351145038167939,11.893129770992367,8.717557251908397,0.0
11.200000524520874,-13.634978454589843,5.1690813842773435,7.343016491699219,33.86259541984733,27.221374045801525,22.045801526717558,-12.04044014892578,-1.2114660400390624,2.427720483398437,11.236641221374045,11.86259541984733,8.793893129770993,0.0
11.21000075340271,-13.20881055908203,3.526659045410156,3.995922570800781,2.427480916030534,21.633587786259543,20.793893129770993,-10.060435375976562,-0.5722141967773438,1.2330138549804688,-3.4656488549618323,15.389312977099237,3.5114503816793894,0.0
11.220000505447388,-9.835380419921874,-1.886630908203125,1.426944189453125,-25.755725190839694,15.374045801526718,13.755725190839694,-8.66940421142578,0.14125789794921875,1.005564697265625,-13.099236641221374,17.14503816793893,3.66412213740458,0.0
11.230000734329224,-9.3852705078125,-4.874594580078124,3.825934252929687,-39.23664122137404,17.17557251908397,0.4122137404580153,-8.315062365722655,0.29448680419921874,0.584185205078125,-21.053435114503817,22.396946564885496,5.923664122137405,0.0
11.240000486373901,-10.129867224121092,-4.570530969238281,4.908113403320312,-27.81679389312977,21.52671755725191,-8.290076335877863,-10.819397302246093,-1.8171990600585937,2.6527754394531247,-16.85496183206107,27.419847328244273,10.931297709923664,0.0
11.250000476837158,-9.624690673828125,-1.8124106567382812,2.4253262817382812,-5.068702290076335,29.114503816793892,-6.320610687022901,-13.644555261230469,-3.5338416503906247,3.4739866088867184,4.977099236641221,15.114503816793894,9.572519083969466,0.0
11.260000705718994,-10.024522351074218,0.04548983154296875,1.5825672973632812,8.091603053435115,37.52671755725191,-3.633587786259542,-11.882422839355469,-2.1404162841796874,2.0638018310546875,7.343511450381679,1.7099236641221374,-1.2366412213740459,0.0
11.270000457763672,-9.471461767578125,1.0534487304687499,0.1292868896484375,12.51908396946565,40.091603053435115,-3.2519083969465647,-8.279149340820313,1.1348515869140625,0.3758896606445312,-10.045801526717558,-2.8091603053435112,-8.091603053435115,0.0
11.280000448226929,-8.267178332519531,-0.48123453369140623,-0.7829039428710937,5.404580152671755,42.83969465648855,-6.534351145038168,-8.961496813964843,0.9504980590820312,0.47884033203125,-13.419847328244275,-0.2748091603053435,2.122137404580153,0.0
11.290000677108765,-7.094019519042968,-1.6041151123046875,-0.7230489013671875,4.625954198473282,49.038167938931295,-13.450381679389313,-9.79946739501953,0.4740519287109375,0.9840168823242187,-14.320610687022901,-0.549618320610687,9.969465648854962,0.0
11.300000429153442,-7.788338000488281,-1.158793603515625,0.10773907470703124,10.335877862595419,53.63358778625954,-16.412213740458014,-11.018116040039061,0.2561795776367187,1.455674609375,-13.98473282442748,-2.030534351145038,10.870229007633588,0.0
11.3100004196167,-8.576030346679687,0.6248866333007812,1.4532804077148436,20.458015267175572,61.954198473282446,-15.633587786259541,-10.457872851562499,-0.02154781494140625,1.5155296508789062,-15.251908396946565,-5.633587786259542,8.610687022900763,0.0
11.320000410079956,-9.239224206542968,1.7932570434570312,1.9800047729492187,21.31297709923664,62.458015267175576,-13.603053435114504,-8.667010009765624,0.6703764648437499,0.3591302490234375,-14.65648854961832,-10.82442748091603,4.519083969465649,0.0
11.330000638961792,-9.557653027343749,0.0526724365234375,1.7860744384765623,12.396946564885496,56.36641221374046,-10.748091603053435,-7.773972790527344,1.9800047729492187,-0.4213794921875,-24.18320610687023,-13.34351145038168,1.83206106870229,0.0
11.340000629425049,-9.469067565917967,1.209071838378906,2.2290017456054687,11.679389312977099,59.541984732824424,-11.450381679389313,-8.152256652832031,2.3630770385742186,-0.5003881469726562,-31.0381679389313,-13.053435114503817,4.412213740458015,0.0
11.350000619888306,-11.391611499023437,2.070984436035156,3.2130186279296873,-4.473282442748092,55.282442748091604,-15.251908396946565,-9.483432775878907,1.8698714965820311,0.5027823486328125,-33.81679389312977,-7.9541984732824424,12.15267175572519,0.0
11.360000848770142,-10.038887561035155,1.5107412475585937,2.4013842651367185,-8.717557251908397,46.50381679389313,-9.007633587786259,-10.654197387695312,1.0366893188476562,0.7110778930664062,-27.251908396946565,-8.030534351145038,16.458015267175572,0.0
11.37000060081482,-9.9215716796875,2.379836450195312,2.5354595581054684,-8.580152671755725,46.80916030534351,-6.33587786259542,-10.77630167236328,-0.12449848632812499,0.7613561279296874,-25.14503816793893,-11.129770992366412,15.221374045801527,0.0
11.380000591278076,-9.830592016601562,2.1260510742187497,1.9776105712890624,-11.435114503816793,42.2442748091603,-4.183206106870229,-10.333374365234375,0.2825157958984375,1.1516109985351561,-22.27480916030534,-13.389312977099237,13.572519083969466,0.0
11.390000581741333,-10.558429321289061,2.31758720703125,2.327164013671875,-13.526717557251908,41.603053435114504,-3.66412213740458,-10.062829577636718,-0.34715924072265625,1.5634136840820312,-18.3206106870229,-16.50381679389313,14.595419847328245,0.0
11.40000057220459,-10.632649572753905,2.8371289672851563,1.7764976318359373,-20.47328244274809,34.38167938931298,-2.6106870229007635,-9.892841259765625,-0.718260498046875,0.7972691528320313,-11.374045801526718,-26.748091603053435,11.145038167938932,0.0
11.410000562667847,-10.09395419921875,1.2641384765625,1.139639990234375,-24.366412213740457,27.282442748091604,1.4351145038167938,-9.76116016845703,-0.3758896606445312,0.9792284790039062,-12.50381679389313,-29.52671755725191,9.48091603053435,0.0
11.420000553131104,-7.5153990112304685,-0.28012159423828126,0.1005564697265625,-18.12213740458015,26.519083969465647,5.770992366412214,-10.843339318847656,-0.33518823242187495,1.668758557128906,-7.526717557251908,-34.36641221374046,9.19083969465649,0.0
11.43000054359436,-8.894459167480468,-0.7445967163085937,1.0390835205078124,-11.725190839694656,33.43511450381679,2.045801526717557,-11.049240661621093,-1.5849614990234373,2.0542250244140625,7.816793893129771,-42.61068702290076,8.412213740458014,0.0
11.440000534057617,-8.228871105957031,0.016759411621093748,0.8738836059570312,-4.977099236641221,33.93893129770992,0.061068702290076333,-10.230423693847655,0.8714894042968749,0.8906430175781249,9.16030534351145,-51.603053435114504,1.282442748091603,0.0
11.450000762939453,-9.576806640625,0.9696516723632812,1.1827356201171875,1.0687022900763359,38.0763358778626,-1.1603053435114503,-9.337386474609374,1.8746598999023436,1.618480322265625,-2.2442748091603053,-46.76335877862596,-0.5343511450381679,0.0
11.46000051498413,-8.44674345703125,1.1444283935546875,1.2234370483398436,2.6717557251908395,38.534351145038165,-0.3053435114503817,-9.3852705078125,1.467645617675781,2.3774422485351563,-8.244274809160306,-37.06870229007634,4.473282442748092,0.0
11.470000982284546,-9.6917283203125,1.2856862915039062,0.9864110839843749,0.3816793893129771,37.55725190839695,-0.3816793893129771,-9.785102185058593,0.5578489868164063,1.6472107421875,-3.4656488549618323,-42.091603053435115,7.068702290076335,0.0
11.480000257492065,-10.263942517089843,1.39821376953125,1.0630255371093749,-0.8854961832061069,36.274809160305345,-0.5648854961832062,-12.291831323242187,-0.70868369140625,2.4061726684570313,10.595419847328245,-54.213740458015266,8.488549618320612,0.0
11.49000072479248,-9.732429748535155,1.7693150268554687,1.0893617553710937,-1.6488549618320612,34.82442748091603,-0.4580152671755725,-9.95987890625,1.659181750488281,1.4245499877929686,-1.1908396946564885,-57.06870229007634,0.732824427480916,0.0
11.500000476837158,-9.775525378417969,2.636016027832031,0.814028564453125,-10.793893129770993,28.290076335877863,2.6717557251908395,-9.107543115234375,2.152387292480469,2.925714428710937,-9.816793893129772,-47.7557251908397,2.8091603053435112,0.0
11.510000705718994,-9.591171850585937,1.3742717529296875,0.689530078125,-15.038167938931299,27.236641221374047,4.778625954198473,-11.781866369628906,-1.2569558715820313,4.082113830566406,8.15267175572519,-49.02290076335878,11.86259541984733,0.0
11.520000696182251,-10.230423693847655,1.4006079711914061,0.3016694091796875,-16.717557251908396,24.412213740458014,3.816793893129771,-13.254300390625,-2.5761609863281247,3.768473413085937,29.480916030534353,-64.91603053435115,7.862595419847328,0.0
11.530000448226929,-9.97903251953125,1.9393033447265624,0.6368576416015624,-17.053435114503817,23.908396946564885,3.6793893129770994,-10.749965454101561,0.02154781494140625,2.93050283203125,19.328244274809162,-74.44274809160305,-5.8320610687022905,0.0
11.540000438690186,-9.849745629882811,0.3854664672851562,0.6105214233398437,-18.931297709923665,24.717557251908396,6.809160305343512,-11.473014355468749,0.9002198242187499,3.948038537597656,25.862595419847327,-76.53435114503817,-5.6183206106870225,0.0
11.550000667572021,-8.339004382324218,0.5817910034179687,0.05746083984375,-15.740458015267176,26.68702290076336,5.66412213740458,-9.945513696289062,0.8762778076171874,2.1906945190429687,16.80916030534351,-78.97709923664122,-5.7251908396946565,0.0
11.560000658035278,-10.51533369140625,0.5219359619140624,0.49320554199218747,-22.30534351145038,23.52671755725191,4.33587786259542,-9.030928662109375,1.5658078857421873,1.6065093139648436,17.34351145038168,-81.6793893129771,-4.656488549618321,0.0
11.570000648498535,-9.854534033203125,1.388636962890625,0.4333505004882812,-20.870229007633586,26.53435114503817,2.427480916030534,-7.879317663574218,2.4013842651367185,1.3646949462890625,0.2595419847328244,-75.26717557251908,-2.2900763358778624,0.0
11.580000877380371,-10.28549033203125,0.06943184814453125,0.30885201416015623,-21.267175572519083,25.557251908396946,3.7709923664122136,-7.513004809570312,1.9680337646484374,0.8020575561523438,-2.7786259541984735,-69.26717557251908,3.0839694656488548,0.0
11.590000629425049,-10.268730920410155,0.3184288208007812,1.0223241088867188,-18.83969465648855,28.33587786259542,-0.061068702290076333,-8.214505895996094,1.7405846069335937,0.9576806640625,-15.129770992366412,-62.82442748091603,3.9236641221374047,0.0
11.600001096725464,-8.214505895996094,-0.031124621582031248,-0.4908113403320312,-14.16793893129771,22.18320610687023,1.3435114503816794,-5.896918688964844,4.316745593261719,-0.6416460449218749,-38.900763358778626,-55.29770992366412,0.7175572519083969,0.0
11.610000610351562,-9.366116894531249,-0.5027823486328125,-0.13168109130859373,-10.335877862595419,22.748091603053435,1.3129770992366412,-8.846575134277343,1.3120225097656248,2.6791116577148437,-39.69465648854962,-33.29770992366412,11.374045801526718,0.0
11.62000060081482,-9.469067565917967,-0.8738836059570312,0.19632453613281248,-5.022900763358779,22.412213740458014,-0.3511450381679389,-8.95670841064453,-0.1149216796875,0.4572925170898437,-35.80152671755725,-36.25954198473283,8.732824427480915,0.0
11.630000591278076,-10.395623608398436,0.033518823242187495,0.39983167724609375,-0.9465648854961832,17.557251908396946,-1.5267175572519085,-9.763554370117188,-0.3232172241210937,1.7764976318359373,-27.64885496183206,-33.98473282442748,5.709923664122138,0.0
11.640000581741333,-10.97502041015625,-0.30885201416015623,1.0510545288085937,5.6183206106870225,18.778625954198475,-1.6793893129770991,-9.457096557617186,-1.2282254516601563,2.090138049316406,-18.38167938931298,-33.29770992366412,3.816793893129771,0.0
11.65000057220459,-9.813832604980469,0.7326257080078125,0.8954314208984374,11.557251908396946,16.870229007633586,-2.50381679389313,-9.78031378173828,-2.2649147705078123,2.6312276245117188,-2.763358778625954,-36.25954198473283,2.045801526717557,0.0
11.660000324249268,-11.449072338867186,1.6136919189453125,1.448492004394531,9.34351145038168,15.725190839694656,-6.290076335877862,-11.789048974609374,-1.0199299072265624,3.4668040039062498,5.206106870229007,-34.152671755725194,-3.1755725190839694,0.0
11.670000553131104,-9.878476049804688,0.033518823242187495,-0.08379705810546874,8.335877862595419,6.122137404580153,-2.6717557251908395,-10.848127722167968,-1.4101847778320311,3.246537451171875,17.6793893129771,-40.54961832061068,-4.137404580152672,0.0
11.68000054359436,-9.497797985839844,-0.17238251953125,-0.14125789794921875,17.31297709923664,6.809160305343512,-2.7480916030534353,-12.406753002929687,-4.000710974121094,4.829104748535156,23.81679389312977,-37.083969465648856,-3.801526717557252,0.0
11.690000534057617,-8.614337573242187,0.49320554199218747,-0.8667010009765624,21.16030534351145,8.65648854961832,-6.5038167938931295,-8.185775476074218,2.023100402832031,0.41419688720703124,13.48091603053435,-43.725190839694655,-14.961832061068701,0.0
11.700000524520874,-9.928754284667969,1.946485949707031,-0.5051765502929687,16.580152671755727,10.305343511450381,-7.740458015267175,-7.584830859375,3.1411925781249996,0.21787235107421873,3.2519083969465647,-27.938931297709924,-10.061068702290076,0.0
11.71000075340271,-9.916783276367187,2.319981408691406,-0.3447650390625,13.633587786259541,11.740458015267176,-7.175572519083969,-10.127473022460936,0.086191259765625,1.1827356201171875,8.396946564885496,-20.610687022900763,-4.8396946564885495,0.0
11.720000505447388,-9.689334118652344,2.43250888671875,-0.16998831787109375,9.19083969465649,12.549618320610687,-6.870229007633588,-10.32379755859375,0.5482721801757812,0.9864110839843749,9.86259541984733,-20.793893129770993,-10.045801526717558,0.0
11.730000495910645,-9.617508068847656,2.806004345703125,-0.4070142822265625,4.885496183206107,13.587786259541986,-5.877862595419847,-8.185775476074218,0.8283937744140625,0.7015010864257812,0.6412213740458015,-17.938931297709924,-15.877862595419847,0.0
11.740000486373901,-9.931148486328125,2.932897033691406,-0.30885201416015623,-2.5801526717557253,14.946564885496183,-5.129770992366412,-7.319074475097656,1.6543933471679686,0.6200982299804687,-11.374045801526718,-9.17557251908397,-18.519083969465647,0.0
11.750000715255737,-10.024522351074218,2.712630480957031,0.1005564697265625,-10.717557251908397,16.015267175572518,-5.00763358778626,-10.544064111328124,0.354341845703125,4.034229797363281,2.1068702290076335,-3.648854961832061,-14.870229007633588,0.0
11.760000705718994,-9.777919580078125,2.722207287597656,0.1005564697265625,-16.900763358778626,16.47328244274809,-4.824427480916031,-8.542511523437499,0.9600748657226562,2.1452046874999997,-9.694656488549619,-7.32824427480916,-20.33587786259542,0.0
11.77000093460083,-10.13226142578125,2.408566870117187,-0.23223756103515625,-22.137404580152673,16.778625954198475,-3.7251908396946565,-9.160215551757812,0.8499415893554687,3.6846763549804686,-9.526717557251908,-5.083969465648855,-20.076335877862597,0.0
11.78007435798645,-9.682151513671874,1.678335363769531,-0.08140285644531249,-26.15267175572519,16.198473282442748,-4.122137404580153,-9.277531433105468,0.8307879760742187,3.5817256835937497,-11.86259541984733,-4.351145038167939,-20.564885496183205,0.0
11.790000677108765,-9.497797985839844,1.3287819213867187,-0.00718260498046875,-28.18320610687023,16.564885496183205,-4.396946564885496,-10.141838232421874,-0.3232172241210937,4.774038110351563,-7.129770992366412,-5.526717557251908,-18.870229007633586,0.0
11.800000667572021,-9.787496386718749,1.0606313354492187,0.229843359375,-27.709923664122137,16.900763358778626,-4.473282442748092,-10.723629235839843,0.09576806640624999,4.3071687866210935,3.66412213740458,-12.122137404580153,-19.267175572519083,0.0
11.810000658035278,-9.674968908691406,0.7326257080078125,0.41419688720703124,-25.022900763358777,16.27480916030534,-4.625954198473282,-8.214505895996094,1.8746598999023436,2.6695348510742187,-4.717557251908397,-17.709923664122137,-23.587786259541986,0.0
11.820000886917114,-9.90241806640625,0.3064578125,0.5363011718749999,-24.045801526717558,15.770992366412214,-4.198473282442748,-10.05564697265625,0.8092401611328125,4.723759875488281,-1.099236641221374,-13.404580152671755,-19.358778625954198,0.0
11.830000400543213,-10.09395419921875,0.20829554443359374,0.5889736083984375,-20.519083969465647,14.67175572519084,-4.854961832061068,-11.087547888183593,-0.5027823486328125,5.475539196777343,14.183206106870228,-21.633587786259543,-16.68702290076336,0.0
11.840000867843628,-10.637437976074217,-0.040701428222656245,0.6871358764648438,-17.053435114503817,13.236641221374045,-6.137404580152672,-9.74200655517578,0.6105214233398437,3.754108203125,20.442748091603054,-33.25190839694657,-18.198473282442748,0.0
11.850000381469727,-9.983820922851562,0.05746083984375,1.1324573852539062,-10.442748091603054,13.404580152671755,-6.656488549618321,-6.5505357421875,3.9312791259765625,2.4205378784179685,2.4427480916030535,-33.70992366412214,-22.610687022900763,0.0
11.860000848770142,-10.68053360595703,1.0534487304687499,1.0606313354492187,-10.15267175572519,12.82442748091603,-7.099236641221374,-5.686228942871093,3.172317199707031,3.1004911499023438,-24.396946564885496,-20.076335877862597,-19.557251908396946,0.0
11.870069742202759,-10.232817895507813,1.0773907470703123,1.1516109985351561,-9.206106870229007,11.557251908396946,-7.816793893129771,-9.665392102050781,0.7589619262695312,5.6383449096679685,-23.49618320610687,-11.664122137404581,-11.32824427480916,0.0
11.880000591278076,-10.450690246582031,1.4101847778320311,1.1109095703125,-11.251908396946565,8.946564885496183,-8.366412213740459,-9.935936889648437,-0.5027823486328125,4.8123453369140625,-14.778625954198473,-19.572519083969464,-9.877862595419847,0.0
11.890000581741333,-9.730035546875,1.2401964599609374,0.507570751953125,-10.091603053435115,7.297709923664122,-7.374045801526718,-8.954314208984375,-0.1388636962890625,3.995922570800781,-11.068702290076336,-27.34351145038168,-12.564885496183207,0.0
11.900000810623169,-9.588777648925781,1.0390835205078124,0.28012159423828126,-10.15267175572519,7.343511450381679,-6.702290076335878,-8.40125362548828,1.2114660400390624,4.666299035644531,-19.17557251908397,-24.33587786259542,-15.526717557251908,0.0
11.910114765167236,-9.085995300292968,1.6065093139648436,0.48123453369140623,-14.580152671755725,7.068702290076335,-6.961832061068702,-7.912836486816405,2.741360900878906,4.565742565917969,-43.51145038167939,-8.198473282442748,-17.16030534351145,0.0
11.920001029968262,-10.560823522949217,2.6216508178710938,1.2952630981445312,-24.076335877862597,6.1679389312977095,-7.022900763358779,-8.190563879394531,0.8906430175781249,3.5577836669921874,-40.42748091603053,-9.694656488549619,-8.030534351145038,0.0
11.930001020431519,-10.153809240722655,1.369483349609375,0.7924807495117187,-20.85496183206107,6.106870229007634,-5.603053435114504,-8.358157995605469,0.0047884033203125,3.134009973144531,-45.969465648854964,-4.061068702290076,-7.0534351145038165,0.0
11.940000772476196,-9.085995300292968,-0.09816226806640624,-0.076614453125,-14.458015267175572,7.358778625954199,-3.572519083969466,-8.779537487792968,-1.1180921752929687,3.718195178222656,-40.33587786259542,-4.519083969465649,-4.977099236641221,0.0
11.950001001358032,-10.122684619140625,0.97683427734375,0.5243301635742187,-13.099236641221374,10.473282442748092,-7.419847328244275,-9.821015209960937,-2.5665841796874997,5.432443566894531,-30.977099236641223,-3.8931297709923665,-4.427480916030534,0.0
11.960001230239868,-10.54645831298828,1.1156979736328125,0.6631938598632812,-13.053435114503817,10.549618320610687,-9.282442748091603,-9.816226806640625,-2.461239306640625,5.305550878906249,-16.290076335877863,-9.19083969465649,-6.396946564885496,0.0
11.970347166061401,-9.931148486328125,0.28969840087890625,0.11252747802734374,-9.603053435114504,8.854961832061068,-8.030534351145038,-9.744400756835937,-2.2649147705078123,5.2816088623046875,-5.633587786259542,-16.290076335877863,-7.66412213740458,0.0
11.980000495910645,-9.509768994140625,0.011971008300781249,0.181959326171875,-6.702290076335878,11.053435114503817,-9.068702290076336,-9.251195214843749,-1.879448303222656,4.402936853027343,9.679389312977099,-25.709923664122137,-8.259541984732824,0.0
11.995378971099854,-11.094730493164063,2.001552587890625,1.465251416015625,-22.48854961832061,8.580152671755725,-11.358778625954198,-4.311957189941406,1.6472107421875,2.27927998046875,-24.12213740458015,-8.16793893129771,-15.053435114503817,0.0
12.000000476837158,-9.789890588378906,1.4820108276367188,1.0510545288085937,-21.129770992366414,6.641221374045801,-8.290076335877863,-6.4834980957031245,0.02154781494140625,4.333505004882812,-28.80916030534351,1.9389312977099236,-11.511450381679388,0.0
12.010000705718994,-9.018957653808593,1.5825672973632812,0.5099649536132812,-20.931297709923665,5.465648854961832,-7.526717557251908,-7.513004809570312,-1.0726023437499999,4.50109912109375,-25.419847328244273,3.2061068702290076,-6.99236641221374,0.0
12.020000696182251,-10.034099157714843,0.1197100830078125,0.7541735229492187,-19.31297709923664,6.793893129770993,-8.763358778625955,-7.81467421875,-2.50912333984375,4.580107775878906,-16.549618320610687,3.4656488549618323,-4.824427480916031,0.0
12.030000686645508,-9.962273107910155,0.5506663818359374,1.01514150390625,-11.786259541984732,9.664122137404581,-10.351145038167939,-7.529764221191406,-2.5617957763671875,5.05655390625,-7.541984732824427,4.748091603053435,-5.801526717557252,0.0
12.040000677108765,-10.041281762695311,0.8403647827148437,1.2330138549804688,-4.198473282442748,12.83969465648855,-12.244274809160306,-7.256825231933593,-2.281674182128906,5.425260961914062,3.969465648854962,4.305343511450381,-6.549618320610687,0.0
12.050140380859375,-10.304643945312499,1.4101847778320311,1.4030021728515625,-6.8396946564885495,9.526717557251908,-12.320610687022901,-6.883329772949218,-1.5801730957031248,4.896142395019531,9.740458015267176,4.458015267175573,-7.00763358778626,0.0
12.060000658035278,-10.263942517089843,0.8547299926757812,1.254561669921875,-4.244274809160306,8.01526717557252,-10.320610687022901,-6.268019946289062,-0.8714894042968749,3.9719805541992184,12.625954198473282,5.770992366412214,-5.603053435114504,0.0
12.070053339004517,-9.516951599121093,0.23702596435546874,1.1923124267578125,1.786259541984733,8.15267175572519,-10.213740458015268,-6.469132885742187,-0.7541735229492187,3.7205893798828122,16.442748091603054,7.786259541984733,-3.8625954198473282,0.0
12.080601692199707,-9.591171850585937,-0.239420166015625,1.419761584472656,6.5038167938931295,7.541984732824427,-11.679389312977099,-6.189011291503906,-0.30885201416015623,3.555389465332031,16.763358778625953,9.419847328244275,-3.114503816793893,0.0
12.090000629425049,-10.237606298828124,0.3064578125,2.185906115722656,7.786259541984733,5.282442748091603,-13.816793893129772,-6.526593725585937,-0.6727706665039062,3.641580725097656,19.053435114503817,11.786259541984732,-1.450381679389313,0.0
12.100181341171265,-10.429142431640624,0.40462008056640625,2.607285607910156,14.549618320610687,2.9160305343511452,-14.992366412213741,-6.325480786132812,-0.36631285400390623,3.5122938354492184,20.290076335877863,14.0,-0.07633587786259542,0.0
12.110268592834473,-10.599130749511717,0.44053310546874996,3.0837317382812497,15.923664122137405,-1.9083969465648856,-15.557251908396946,-6.057330200195312,0.13168109130859373,2.920926025390625,19.61832061068702,16.625954198473284,0.32061068702290074,0.0
12.120321035385132,-10.309432348632813,0.411802685546875,3.0358477050781247,21.908396946564885,-6.198473282442748,-15.541984732824428,-5.942408520507812,0.105344873046875,2.5953145996093747,18.35114503816794,21.633587786259543,0.9007633587786259,0.0
12.130152225494385,-10.002974536132811,0.5386953735351562,2.9951462768554684,27.14503816793893,-9.954198473282442,-15.19083969465649,-5.7891796142578125,0.3687070556640625,1.89620771484375,17.34351145038168,25.954198473282442,0.8854961832061069,0.0
12.140000581741333,-9.89523546142578,0.9552864624023437,3.0071172851562498,30.564885496183205,-13.740458015267176,-14.702290076335878,-4.182670300292968,2.35589443359375,0.033518823242187495,8.763358778625955,31.66412213740458,-2.183206106870229,0.0
12.15000057220459,-10.005368737792969,1.8746598999023436,3.0310593017578125,29.96946564885496,-18.229007633587788,-14.061068702290076,-3.5098996337890624,2.4756045166015626,-0.0909796630859375,-14.351145038167939,57.19083969465649,-3.312977099236641,0.0
12.160000324249268,-9.701305126953125,1.8243816650390623,2.7820623291015623,28.80916030534351,-22.35114503816794,-12.702290076335878,-7.673416320800781,0.1867477294921875,0.8283937744140625,-7.587786259541985,71.34351145038168,4.549618320610687,0.0
12.170000553131104,-10.134655627441406,1.4939818359375,2.291250988769531,29.46564885496183,-28.061068702290076,-13.068702290076336,-10.998962426757812,0.7326257080078125,-0.21068974609375,-4.412213740458015,75.89312977099236,3.1603053435114505,0.0
12.18000054359436,-10.79545528564453,1.9393033447265624,2.1356278808593747,31.572519083969464,-32.0763358778626,-13.419847328244275,-12.157756030273436,3.2561142578125,-1.0079588989257813,-34.97709923664122,93.37404580152672,-10.13740458015267,0.0
12.190001010894775,-11.183315954589844,2.3774422485351563,2.588131994628906,35.00763358778626,-32.79389312977099,-13.32824427480916,-18.715474377441407,1.0534487304687499,6.335057592773437,-36.35114503816794,108.3206106870229,-3.114503816793893,0.0
12.200000286102295,-11.61906065673828,2.6288334228515624,3.1507693847656246,31.908396946564885,-36.93129770992366,-14.213740458015268,-21.21980931396484,-1.1659762084960936,8.971073620605468,-35.43511450381679,103.34351145038168,-1.0229007633587786,0.0
12.21000075340271,-12.196063256835936,2.868253588867187,3.897760302734375,28.732824427480917,-42.61068702290076,-11.725190839694656,-20.88222687988281,-2.0661960327148434,12.763489050292968,-15.312977099236642,74.06106870229007,2.4580152671755724,0.0
12.220000505447388,-14.784195251464842,4.604049792480469,5.837063647460937,14.916030534351146,-50.38167938931298,-8.687022900763358,-15.995661291503906,-2.252943762207031,11.310208642578125,1.8473282442748091,45.587786259541986,13.725190839694656,0.0
12.230000734329224,-15.674838269042969,2.8850130004882812,7.022193469238281,0.2748091603053435,-67.90839694656489,0.04580152671755725,-13.17050333251953,-4.2688615600585935,8.240842114257813,53.81679389312977,12.091603053435115,31.374045801526716,0.0
12.240000486373901,-16.508020446777344,1.908178723144531,8.0062103515625,-2.549618320610687,-87.26717557251908,2.5801526717557253,-8.360552197265624,-2.540247961425781,-0.3495534423828125,31.709923664122137,3.633587786259542,13.17557251908397,0.0
12.250000715255737,-17.702727075195313,2.2266075439453124,8.992621435546875,-8.687022900763358,-112.04580152671755,3.9083969465648853,-3.478775012207031,1.7429788085937499,-3.0789433349609374,-0.0916030534351145,13.526717557251908,-7.221374045801527,0.0
12.260000467300415,-17.89426320800781,2.1021090576171875,9.069235888671875,-10.916030534351146,-132.3206106870229,6.152671755725191,-4.199429711914062,2.001552587890625,-1.388636962890625,15.648854961832061,21.923664122137403,-0.4732824427480916,0.0
12.270000696182251,-14.772224243164061,0.48123453369140623,6.785167504882812,-12.229007633587786,-159.6946564885496,11.068702290076336,-6.794744311523437,0.16998831787109375,-0.06943184814453125,27.862595419847327,26.0,-2.5343511450381677,0.0
12.280000448226929,-17.444153295898438,6.035782385253906,8.839392529296875,-17.068702290076335,-166.9770992366412,7.801526717557252,-7.122749938964843,-0.26815058593749996,0.8858546142578124,13.877862595419847,35.770992366412216,-11.98473282442748,0.0
12.290000438690186,-13.503297363281249,1.0007762939453124,4.733336682128906,-26.458015267175572,-202.42748091603053,22.076335877862597,-5.746083984375,1.235408056640625,-0.2705447875976562,-2.122137404580153,51.31297709923664,-14.625954198473282,0.0
12.300000667572021,-12.988544006347656,-0.29448680419921874,2.8371289672851563,-16.625954198473284,-207.5114503816794,29.81679389312977,-8.032546569824218,-1.0773907470703123,1.879448303222656,-4.305343511450381,66.47328244274809,-4.763358778625954,0.0
12.310000658035278,-10.40041201171875,-2.166752502441406,-0.4740519287109375,-8.83969465648855,-217.16030534351145,31.31297709923664,-11.085153686523437,-0.46686932373046874,2.4349030883789062,12.870229007633588,59.63358778625954,0.4580152671755725,0.0
12.320000886917114,-4.029441394042968,-6.974309436035155,-5.137956762695312,20.763358778625953,-212.42748091603053,31.267175572519083,-10.36210478515625,1.7549498168945312,1.5131354492187499,-8.854961832061068,61.49618320610687,-4.33587786259542,0.0
12.330000638961792,-2.987963671875,-7.445967163085937,-6.011840368652344,57.969465648854964,-177.64885496183206,20.27480916030534,-11.812990991210937,0.612915625,3.6367923217773437,-0.9465648854961832,54.961832061068705,3.1297709923664123,0.0
12.340000867843628,-3.3207577026367185,-6.548141540527343,-6.8976949829101555,80.51908396946565,-148.51908396946564,6.595419847328245,-11.192892761230468,0.6584054565429687,2.9951462768554684,-8.427480916030534,50.36641221374046,5.801526717557252,0.0
12.350000619888306,-6.260837341308593,-4.07971962890625,-5.4779333984375,96.68702290076335,-111.69465648854961,-0.2748091603053435,-12.945448376464842,-1.419761584472656,4.584896179199219,2.381679389312977,39.66412213740458,13.709923664122137,0.0
12.360000610351562,-7.951143713378905,-2.767697119140625,-3.9504327392578125,98.35114503816794,-88.07633587786259,-2.946564885496183,-10.71884083251953,0.5123591552734374,1.1013327636718748,-1.0534351145038168,26.244274809160306,9.557251908396946,0.0
12.37000060081482,-11.145008728027342,0.5386953735351562,-1.668758557128906,93.83206106870229,-69.12977099236642,-2.8396946564885495,-11.389217297363281,-1.8124106567382812,2.1356278808593747,-17.786259541984734,29.00763358778626,6.519083969465649,0.0
12.380000591278076,-12.179303845214843,2.9664158569335934,-0.8978256225585937,79.1145038167939,-63.57251908396947,2.0916030534351147,-12.86404552001953,-4.527435339355469,3.8139632446289062,14.427480916030534,14.488549618320612,12.229007633587786,0.0
12.390000581741333,-12.550405102539061,4.309562988281249,0.24181436767578124,58.030534351145036,-58.19847328244275,9.419847328244275,-10.941501586914061,-1.8650830932617186,0.28730419921875,15.679389312977099,5.587786259541985,4.641221374045801,0.0
12.40000033378601,-11.67652149658203,4.273649963378906,0.584185205078125,40.091603053435115,-59.00763358778626,18.641221374045802,-9.212887988281249,-0.6847416748046875,-0.1005564697265625,4.213740458015267,9.297709923664122,-1.2366412213740459,0.0
12.410000801086426,-8.95670841064453,2.422932080078125,-0.16041151123046873,28.65648854961832,-56.01526717557252,26.53435114503817,-9.545682019042967,-1.8171990600585937,0.2920926025390625,1.6641221374045803,14.50381679389313,0.16793893129770993,0.0
12.420000553131104,-7.917624890136718,1.5418658691406248,0.22026655273437498,19.374045801526716,-47.847328244274806,27.64885496183206,-9.756371765136718,-1.8195932617187498,0.7709329345703124,5.297709923664122,18.12213740458015,1.3587786259541985,0.0
12.430000305175781,-7.9463553100585935,1.3072341064453123,0.7972691528320313,7.938931297709924,-43.23664122137404,25.52671755725191,-9.995791931152343,-1.7238251953125,1.2785036865234374,10.992366412213741,20.641221374045802,3.3435114503816794,0.0
12.440000772476196,-6.430825659179687,0.7254431030273437,0.3280056274414062,-0.6412213740458015,-37.9236641221374,24.732824427480917,-10.050858569335936,-1.8100164550781248,1.9608511596679685,16.748091603053435,22.549618320610687,4.656488549618321,0.0
12.450000762939453,-6.988674645996094,1.3072341064453123,0.699106884765625,-10.229007633587786,-28.702290076335878,21.893129770992367,-9.45470235595703,-1.1707646118164061,1.838746875,17.251908396946565,24.549618320610687,3.648854961832061,0.0
12.46000051498413,-5.736507177734374,1.3623007446289062,0.15562310791015624,-20.916030534351144,-23.053435114503817,20.0,-8.695740429687499,0.16998831787109375,0.6919242797851562,13.48091603053435,26.47328244274809,1.6793893129770991,0.0
12.470000743865967,-5.2433016357421875,1.2665326782226562,0.17477672119140625,-32.99236641221374,-14.931297709923664,18.519083969465647,-7.036558679199218,0.2609679809570312,0.5243301635742187,0.5190839694656488,28.99236641221374,0.33587786259541985,0.0
12.480000495910645,-5.853823059082031,1.0582371337890624,0.603338818359375,-45.29770992366412,-4.244274809160306,16.85496183206107,-7.338228088378906,-0.02633621826171875,0.8403647827148437,-4.99236641221374,35.87786259541985,3.3587786259541983,0.0
12.49000072479248,-4.163516687011718,-0.23223756103515625,-0.01915361328125,-46.36641221374046,8.80916030534351,17.236641221374047,-8.367734802246094,-1.3215993164062498,2.0566192260742184,-9.954198473282442,45.847328244274806,9.007633587786259,0.0
12.500000476837158,-6.636727001953124,1.3814543579101561,1.8531120849609375,-60.13740458015267,18.977099236641223,11.893129770992367,-11.75313594970703,-4.7884033203125,4.390965844726562,24.83969465648855,36.67175572519084,17.17557251908397,0.0
12.510000705718994,-6.440402465820312,-0.296881005859375,1.695094775390625,-75.45038167938931,15.893129770992367,10.244274809160306,-10.383652600097655,-2.1068974609374997,2.291250988769531,39.93893129770992,19.267175572519083,9.114503816793894,0.0
12.520000696182251,-4.187458703613281,-3.342305517578125,0.5817910034179687,-66.6412213740458,23.358778625954198,12.992366412213741,-9.210493786621093,-0.13407529296874998,1.8842367065429686,33.908396946564885,17.068702290076335,0.5801526717557252,0.0
12.530000448226929,-2.7054478759765623,-4.225765930175781,0.21068974609375,-55.770992366412216,35.81679389312977,9.114503816793894,-8.305485559082031,0.6871358764648438,1.3120225097656248,32.54961832061068,14.213740458015268,-0.366412213740458,0.0
12.540000677108765,-3.593696691894531,-4.139574670410156,0.42377369384765623,-45.25190839694657,50.534351145038165,0.6870229007633588,-10.117896215820313,0.8858546142578124,2.492363928222656,21.022900763358777,20.290076335877863,4.076335877862595,0.0
12.550000429153442,-4.220977526855468,-3.821145849609375,0.6655880615234374,-27.51145038167939,65.3587786259542,-6.015267175572519,-8.504204296874999,0.8307879760742187,1.3455413330078123,8.82442748091603,17.984732824427482,6.8396946564885495,0.0
12.560000658035278,-5.135562561035156,-2.849099975585937,1.3742717529296875,-11.786259541984732,76.07633587786259,-10.702290076335878,-10.079588989257813,-1.5131354492187499,2.6886884643554687,7.694656488549619,16.717557251908396,10.51908396946565,0.0
12.570000648498535,-5.925649108886718,-2.398990063476562,2.250549560546875,5.572519083969466,82.91603053435115,-13.267175572519085,-12.686874597167968,-2.8012159423828122,4.489128112792969,18.99236641221374,13.374045801526718,12.458015267175572,0.0
12.580000400543213,-6.868964562988281,-1.7645266235351562,3.4763808105468748,27.068702290076335,91.17557251908397,-15.48091603053435,-11.341333264160156,-1.2761094848632812,2.748543505859375,23.083969465648856,0.9465648854961832,6.687022900763359,0.0
12.590000629425049,-8.528146313476562,-0.5482721801757812,5.616797094726562,38.656488549618324,93.32824427480917,-16.12213740458015,-10.0748005859375,-0.3711012573242187,2.0470424194335934,12.198473282442748,-0.061068702290076333,2.7938931297709924,0.0
12.600000858306885,-11.192892761230468,0.82360537109375,8.650250598144531,47.89312977099237,89.74045801526718,-15.389312977099237,-10.249577307128906,-0.928950244140625,2.1835119140624997,11.022900763358779,0.48854961832061067,5.66412213740458,0.0
12.610000610351562,-14.058752148437499,2.906560815429687,12.619836950683593,58.19847328244275,77.78625954198473,-9.725190839694656,-10.287884533691406,-0.35194764404296874,1.01514150390625,5.7251908396946565,-1.6793893129770991,6.33587786259542,0.0
12.620000839233398,-18.689138159179688,8.154650854492187,16.124948181152345,60.74809160305343,60.48854961832061,2.6259541984732824,-12.571952917480468,-2.070984436035156,2.7150246826171873,8.244274809160306,0.42748091603053434,11.19083969465649,0.0
12.630000352859497,-18.56703387451172,6.323086584472656,15.00925020751953,48.83969465648855,30.27480916030534,22.885496183206108,-11.54244620361328,-1.7501614135742187,0.8379705810546875,14.427480916030534,-5.00763358778626,10.122137404580153,0.0
12.640000581741333,-19.03150899658203,6.687005236816406,13.342885852050781,33.908396946564885,10.80916030534351,20.38167938931298,-11.221623181152344,-3.0334535034179684,2.061407629394531,8.366412213740459,3.8473282442748094,7.404580152671755,0.0
12.65000057220459,-15.86398020019531,4.197035510253906,7.182604980468749,4.0458015267175576,-21.541984732824428,18.48854961832061,-8.611943371582031,-2.398990063476562,0.507570751953125,15.541984732824428,1.7709923664122138,4.290076335877862,0.0
12.660000562667847,-8.700528833007812,-1.197100830078125,-1.1276689819335937,-16.625954198473284,-32.19847328244275,19.633587786259543,-8.571241943359375,-2.499546533203125,0.4165910888671875,24.870229007633586,-1.633587786259542,0.07633587786259542,0.0
12.670000553131104,-5.324704492187499,-7.936778503417968,0.5722141967773438,-33.038167938931295,-26.50381679389313,9.32824427480916,-8.429984045410155,-1.0079588989257813,0.17238251953125,16.641221374045802,2.564885496183206,-7.648854961832061,0.0
12.68000054359436,-3.5865140869140624,-10.998962426757812,2.0183119995117185,-22.259541984732824,-19.251908396946565,-5.465648854961832,-8.99501563720703,-1.0510545288085937,0.45010991210937495,16.091603053435115,4.67175572519084,-8.183206106870228,0.0
12.690000534057617,-3.778050219726562,-6.562506750488281,0.9050082275390624,6.1679389312977095,-1.0534351145038168,-13.84732824427481,-9.466673364257812,-1.3024457031249999,0.5243301635742187,13.419847328244275,6.6106870229007635,-7.893129770992366,0.0
12.700000286102295,-4.797980126953124,2.31758720703125,-0.24899697265624998,27.19083969465649,16.33587786259542,-12.396946564885496,-10.283096130371094,-1.8052280517578123,1.0582371337890624,18.885496183206108,7.450381679389313,-6.320610687022901,0.0
12.71000075340271,-6.866570361328125,6.426037255859375,-0.258573779296875,12.854961832061068,20.977099236641223,-5.511450381679389,-10.436325036621094,-1.2976572998046874,0.948103857421875,19.541984732824428,5.740458015267175,-5.938931297709924,0.0
12.720000743865967,-6.2009822998046875,2.858676782226562,-0.9792284790039062,6.916030534351145,30.0,3.480916030534351,-10.730811840820312,-0.679953271484375,1.458068811035156,22.68702290076336,4.870229007633588,-3.2061068702290076,0.0
12.730000734329224,-6.143521459960938,-0.46686932373046874,-1.3144167114257812,1.8473282442748091,42.94656488549618,0.7938931297709924,-9.897629663085937,0.8882488159179687,0.6607996582031249,14.351145038167939,5.770992366412214,-4.320610687022901,0.0
12.740000486373901,-7.137115148925781,-1.5179238525390624,-0.8906430175781249,4.137404580152672,54.70229007633588,-6.519083969465649,-10.105925207519531,0.5674257934570313,1.2330138549804688,14.0,5.9541984732824424,2.122137404580153,0.0
12.750000476837158,-10.503362683105468,1.1444283935546875,1.8531120849609375,6.854961832061068,63.20610687022901,-13.557251908396946,-10.371681591796875,0.9983820922851562,1.4101847778320311,13.389312977099237,2.1374045801526718,6.137404580152672,0.0
12.760000705718994,-7.3094976684570305,-0.06703764648437499,-0.5889736083984375,16.748091603053435,53.69465648854962,-4.106870229007634,-9.617508068847656,1.659181750488281,0.8212111694335937,1.8931297709923665,-0.061068702290076333,5.694656488549619,0.0
12.770000696182251,-12.591106530761717,3.835511059570312,5.616797094726562,21.938931297709924,66.45801526717557,-5.404580152671755,-9.332598071289063,1.4508862060546874,0.9074024291992187,-6.137404580152672,0.7633587786259542,7.908396946564886,0.0
12.780084371566772,-12.849680310058593,4.048595007324218,6.0525417968749995,9.206106870229007,52.42748091603053,-1.5725190839694656,-9.02135185546875,2.118868469238281,0.8882488159179687,-15.068702290076336,1.5877862595419847,9.786259541984732,0.0
12.790000677108765,-12.478579052734375,2.4588451049804685,5.623979699707031,-6.793893129770993,40.76335877862596,5.038167938931298,-9.006986645507812,1.656787548828125,0.9074024291992187,-27.419847328244273,2.732824427480916,13.48091603053435,0.0
12.800000667572021,-10.618284362792968,0.7900865478515624,4.537012145996093,-20.12213740458015,30.091603053435115,7.251908396946565,-9.435548742675781,1.4820108276367188,0.5770026000976562,-33.93893129770992,1.5572519083969465,14.717557251908397,0.0
12.810000658035278,-10.314220751953124,0.4644751220703125,4.266467358398438,-23.6793893129771,25.801526717557252,5.984732824427481,-11.49216796875,-0.33518823242187495,1.0821791503906248,-28.931297709923665,-1.4961832061068703,18.076335877862597,0.0
12.820000410079956,-8.686163623046875,0.15322890625,2.731784094238281,-27.053435114503817,16.3206106870229,6.8396946564885495,-10.256759912109374,0.679953271484375,0.8978256225585937,-32.778625954198475,-6.900763358778626,13.86259541984733,0.0
12.830000638961792,-8.130708837890625,0.4860229370117187,2.3487118286132813,-17.908396946564885,18.916030534351144,7.648854961832061,-9.753977563476562,0.38307226562499996,0.7805097412109374,-33.80152671755725,-6.549618320610687,13.877862595419847,0.0
12.840000867843628,-7.575254052734374,0.35673604736328124,2.070984436035156,-17.908396946564885,19.31297709923664,6.0458015267175576,-9.79946739501953,0.143652099609375,1.0223241088867188,-29.69465648854962,-5.8320610687022905,15.419847328244275,0.0
12.850126504898071,-7.4794859863281244,-0.6943184814453125,0.7733271362304687,-11.32824427480916,21.34351145038168,5.8320610687022905,-10.175357055664062,-0.6607996582031249,1.3646949462890625,-23.66412213740458,-7.557251908396947,17.17557251908397,0.0
12.8600594997406,-8.444349255371094,-0.584185205078125,1.4317325927734375,-2.687022900763359,32.229007633587784,2.854961832061069,-10.137049829101562,-0.9337386474609375,1.6352397338867186,-18.519083969465647,-10.198473282442748,16.18320610687023,0.0
12.87000036239624,-8.750807067871094,-0.277727392578125,0.833182177734375,3.0229007633587788,34.030534351145036,2.122137404580153,-9.78031378173828,-0.20829554443359374,1.5969325073242187,-17.221374045801525,-13.404580152671755,14.366412213740459,0.0
12.880000591278076,-8.949525805664061,-0.1005564697265625,0.5123591552734374,7.694656488549619,38.045801526717554,1.2671755725190839,-9.6151138671875,-0.46208092041015625,1.89620771484375,-18.15267175572519,-13.83206106870229,14.778625954198473,0.0
12.890000581741333,-9.375693701171874,0.9720458740234375,1.180341418457031,7.419847328244275,42.36641221374046,-1.3740458015267176,-9.720458740234374,-0.40222587890625,1.8076222534179687,-16.366412213740457,-16.9618320610687,14.458015267175572,0.0
12.90000057220459,-9.677363110351562,1.4508862060546874,0.9097966308593749,4.366412213740458,40.85496183206107,-1.5572519083969465,-10.733206042480468,-1.3455413330078123,2.8467057739257813,-13.98473282442748,-17.81679389312977,14.961832061068701,0.0
12.910000562667847,-9.923965881347655,1.2928688964843749,1.2856862915039062,2.564885496183206,44.717557251908396,-1.633587786259542,-10.984597216796875,-0.18435352783203124,2.8945898071289062,-11.664122137404581,-22.27480916030534,12.412213740458014,0.0
12.920000553131104,-9.840168823242188,1.2569558715820313,1.0941501586914062,-0.3816793893129771,44.30534351145038,-1.4961832061068703,-9.464279162597656,-0.7350199096679687,1.9488801513671874,0.07633587786259542,-31.740458015267176,9.84732824427481,0.0
12.93000054359436,-10.350133776855468,3.047818713378906,1.9297265380859374,-4.1679389312977095,45.29770992366412,-2.6717557251908395,-9.222464794921875,0.565031591796875,2.0638018310546875,-13.709923664122137,-38.595419847328245,5.709923664122138,0.0
12.940000534057617,-8.789114294433594,1.9871873779296874,0.74699091796875,-9.98473282442748,42.6412213740458,2.183206106870229,-10.826579907226561,1.1707646118164061,4.115632653808594,-20.50381679389313,-27.908396946564885,11.709923664122137,0.0
12.950000762939453,-10.275913525390624,1.7621324218749999,1.6304513305664061,-16.671755725190838,43.954198473282446,2.2442748091603053,-11.851298217773437,-0.09576806640624999,3.9360675292968748,-14.702290076335878,-29.66412213740458,15.450381679389313,0.0
12.96000051498413,-9.636661682128906,1.5322890624999999,1.3527239379882812,-20.076335877862597,40.56488549618321,2.7022900763358777,-13.601459631347655,-2.8467057739257813,5.542576843261719,-2.717557251908397,-38.54961832061068,15.038167938931299,0.0
12.970000982284546,-11.303026037597656,1.5394716674804687,1.5610194824218748,-19.740458015267176,39.00763358778626,3.1603053435114505,-13.59188282470703,-2.636016027832031,4.958391638183594,15.725190839694656,-61.770992366412216,8.366412213740459,0.0
12.980000495910645,-8.865728747558594,0.5243301635742187,0.4836287353515625,-24.229007633587788,34.51908396946565,3.1297709923664123,-11.688492504882811,0.814028564453125,5.159504577636718,4.213740458015267,-68.91603053435115,-3.5267175572519083,0.0
12.99000072479248,-9.777919580078125,0.39743747558593745,1.6328455322265625,-28.229007633587788,38.656488549618324,1.7557251908396947,-12.140996618652343,-0.7326257080078125,5.61200869140625,5.9541984732824424,-74.67175572519083,-1.7099236641221374,0.0
13.000000476837158,-9.892841259765625,-0.5219359619140624,1.0606313354492187,-31.755725190839694,36.091603053435115,-2.213740458015267,-11.621454858398437,0.19632453613281248,3.8091748413085935,1.7709923664122138,-86.6412213740458,-4.061068702290076,0.0
13.010000705718994,-9.832986218261718,-0.9911994873046874,1.350329736328125,-26.442748091603054,36.76335877862596,-3.66412213740458,-12.437877624511717,-0.2609679809570312,5.049371301269531,1.5114503816793894,-91.5114503816794,-5.236641221374046,0.0
13.020000696182251,-9.272743029785156,0.16519991455078123,1.1947066284179686,-21.709923664122137,35.87786259541985,-6.290076335877862,-10.338162768554687,1.5801730957031248,3.900154504394531,-13.84732824427481,-99.09923664122137,-9.83206106870229,0.0
13.030000448226929,-10.74517705078125,1.3670891479492187,1.8914193115234375,-26.12213740458015,34.70229007633588,-7.648854961832061,-11.444283935546874,1.2785036865234374,4.661510632324219,-12.366412213740459,-98.35114503816794,-4.534351145038168,0.0
13.040000677108765,-8.188169677734374,0.8164227661132812,0.4381389038085937,-21.053435114503817,29.221374045801525,-4.717557251908397,-9.330203869628905,1.8195932617187498,2.3367408203125,-28.50381679389313,-105.29770992366412,-7.175572519083969,0.0
13.050000667572021,-11.267113012695312,1.3407529296874998,1.3934253662109375,-22.85496183206107,27.69465648854962,-3.816793893129771,-10.625466967773438,0.7541735229492187,4.675875842285156,-28.625954198473284,-97.46564885496183,-2.1068702290076335,0.0
13.0600004196167,-9.849745629882811,1.199495031738281,0.7852981445312499,-21.374045801526716,23.49618320610687,-1.7709923664122138,-8.836998327636719,2.042254016113281,1.47482822265625,-33.43511450381679,-104.30534351145039,-5.694656488549619,0.0
13.070000648498535,-11.0707884765625,1.3862427612304686,1.0582371337890624,-26.80916030534351,18.12213740458015,-0.8549618320610687,-8.987833032226561,1.3287819213867187,2.8802245971679685,-34.12213740458015,-93.3587786259542,-3.954198473282443,0.0
13.080000877380371,-9.016563452148437,-0.9217676391601562,0.49320554199218747,-14.900763358778626,18.625954198473284,2.2290076335877864,-8.40125362548828,-0.031124621582031248,1.1444283935546875,-14.82442748091603,-102.90076335877863,-1.5572519083969465,0.0
13.090000629425049,-9.840168823242188,0.8403647827148437,1.0199299072265624,-16.244274809160306,17.587786259541986,-3.3740458015267176,-8.259995727539062,0.3687070556640625,2.29843359375,-25.34351145038168,-88.1526717557252,-8.13740458015267,0.0
13.100000858306885,-9.629479077148437,-0.45010991210937495,0.4429273071289062,-12.549618320610687,13.740458015267176,-2.7022900763358777,-8.99501563720703,0.13646949462890623,1.9728221679687499,-0.9618320610687023,-92.47328244274809,-3.435114503816794,0.0
13.110000848770142,-9.883264453125,0.47884033203125,1.3838485595703125,-3.1755725190839694,18.198473282442748,-6.625954198473282,-7.812280017089844,1.608903515625,0.47884033203125,-24.702290076335878,-78.83969465648855,-12.549618320610687,0.0
13.12000060081482,-10.014945544433592,0.8044517578125,0.8547299926757812,-4.183206106870229,15.19083969465649,-7.908396946564886,-9.880870251464843,0.7254431030273437,2.020706201171875,-8.580152671755725,-75.31297709923665,-5.633587786259542,0.0
13.130000352859497,-8.001421948242188,-0.5291185668945312,-0.26336218261718747,10.80916030534351,18.015267175572518,-8.122137404580153,-8.336610180664062,2.360682836914062,-0.3806780639648437,-18.137404580152673,-70.77862595419847,-8.80916030534351,0.0
13.140000581741333,-9.892841259765625,2.4133552734375,1.0582371337890624,10.748091603053435,24.198473282442748,-13.32824427480916,-7.592013464355468,2.868253588867187,-0.3280056274414062,-34.961832061068705,-52.01526717557252,-8.366412213740459,0.0
13.15000033378601,-10.903194360351561,3.2632968627929686,1.5059528442382812,8.335877862595419,24.50381679389313,-13.84732824427481,-9.91438907470703,-0.16280571289062498,1.7262193969726563,-26.366412213740457,-44.42748091603053,-2.183206106870229,0.0
13.160000324249268,-11.173739147949219,3.258508459472656,1.2880804931640624,4.091603053435114,21.81679389312977,-11.603053435114504,-9.634267480468749,0.20350714111328125,0.7924807495117187,-23.52671755725191,-44.70229007633588,-4.931297709923665,0.0
13.170000553131104,-9.782707983398437,3.1364041748046874,0.46686932373046874,1.9083969465648856,21.541984732824428,-9.022900763358779,-6.624755993652343,2.0638018310546875,-0.05027823486328125,-37.786259541984734,-32.44274809160305,-10.442748091603054,0.0
13.18000054359436,-10.20169327392578,4.350264416503906,1.0079588989257813,-9.022900763358779,20.977099236641223,-7.038167938931298,-6.842628344726562,2.068590234375,1.6017209106445311,-41.404580152671755,-15.587786259541986,-10.83969465648855,0.0
13.190000295639038,-9.445125549316407,3.258508459472656,0.8212111694335937,-11.618320610687023,23.893129770992367,-6.152671755725191,-9.878476049804688,-1.905784521484375,3.718195178222656,-37.70992366412214,-11.404580152671755,-9.511450381679388,0.0
13.200000524520874,-10.635043774414061,4.141968872070312,1.7286135986328124,-16.045801526717558,26.15267175572519,-8.259541984732824,-8.154650854492187,-0.5578489868164063,2.0470424194335934,-35.083969465648856,-9.34351145038168,-13.48091603053435,0.0
13.210000276565552,-9.038111267089842,1.7022773803710936,0.05027823486328125,-25.19083969465649,19.374045801526716,-4.198473282442748,-8.494627490234375,-1.005564697265625,3.0238766967773434,-23.6793893129771,-7.603053435114504,-13.770992366412214,0.0
13.220000505447388,-9.49300958251953,1.8267758666992187,0.5602431884765625,-26.38167938931298,20.33587786259542,-5.129770992366412,-8.406042028808594,-1.1444283935546875,3.459621398925781,-21.51145038167939,-2.8396946564885495,-15.572519083969466,0.0
13.230000734329224,-10.357316381835936,2.6288334228515624,1.3646949462890625,-35.06870229007634,19.358778625954198,-5.66412213740458,-7.9655089233398435,-0.55545478515625,3.373430139160156,-15.633587786259541,-2.366412213740458,-17.358778625954198,0.0
13.240000486373901,-8.987833032226561,-0.4261678955078125,-0.6057330200195312,-32.0,17.129770992366414,-1.5267175572519085,-7.706935144042968,0.0718260498046875,3.3686417358398435,-14.13740458015267,-0.5190839694656488,-17.14503816793893,0.0
13.250000715255737,-8.267178332519531,-0.9026140258789062,-0.24899697265624998,-19.31297709923664,23.51145038167939,-3.3435114503816794,-7.48906279296875,0.1388636962890625,3.5051112304687497,-13.236641221374045,2.030534351145038,-15.618320610687023,0.0
13.260000705718994,-9.26316622314453,0.8116343627929687,1.149216796875,-19.923664122137403,28.931297709923665,-9.84732824427481,-7.259219433593749,0.4525041137695312,3.687070556640625,-10.534351145038167,3.236641221374046,-15.022900763358779,0.0
13.270000696182251,-11.326968054199218,1.3168109130859373,1.4939818359375,-24.99236641221374,23.480916030534353,-8.885496183206106,-7.570465649414062,0.411802685546875,4.050989208984375,-9.114503816793894,4.305343511450381,-12.290076335877863,0.0
13.280000686645508,-11.75313594970703,1.5682020874023437,2.1835119140624997,-22.27480916030534,22.82442748091603,-7.282442748091603,-7.3286512817382805,0.6296750366210937,4.211400720214844,-9.053435114503817,5.099236641221374,-10.305343511450381,0.0
13.290000677108765,-9.880870251464843,-0.13407529296874998,0.9409212524414062,-20.946564885496183,18.045801526717558,-4.2748091603053435,-7.240065820312499,0.7876923461914062,4.319139794921875,-9.419847328244275,5.129770992366412,-9.099236641221374,0.0
13.300000667572021,-10.572794531249999,0.7733271362304687,1.5729904907226562,-19.068702290076335,16.27480916030534,-5.755725190839694,-7.987056738281249,-0.3495534423828125,5.576095666503906,-6.885496183206107,6.396946564885496,-4.625954198473282,0.0
13.3100004196167,-10.249577307128906,0.2753331909179687,1.4053963745117186,-13.404580152671755,15.587786259541986,-5.374045801526718,-7.307103466796875,-0.316034619140625,4.666299035644531,4.091603053435114,-2.2290076335877864,-2.0610687022900764,0.0
13.320000886917114,-10.115502014160155,0.1388636962890625,1.2282254516601563,-10.259541984732824,13.34351145038168,-5.435114503816794,-8.805873706054687,-0.16998831787109375,6.112396838378906,3.801526717557252,-0.21374045801526717,-0.6412213740458015,0.0
13.330000638961792,-9.550470422363281,0.011971008300781249,0.7924807495117187,-5.9541984732824424,12.961832061068701,-5.877862595419847,-8.453926062011718,-1.1372457885742187,5.894524487304687,12.213740458015268,-6.152671755725191,2.4885496183206106,0.0
13.340000867843628,-9.694122521972655,0.38786066894531246,0.8116343627929687,-6.1679389312977095,12.610687022900763,-8.198473282442748,-6.572083557128906,0.6607996582031249,3.4356793823242184,10.488549618320612,-11.19083969465649,-0.15267175572519084,0.0
13.350000619888306,-9.782707983398437,0.9337386474609375,0.833182177734375,-4.076335877862595,14.595419847328245,-7.572519083969466,-7.6470801025390625,-0.55545478515625,4.996698864746094,2.6564885496183206,-3.236641221374046,0.5038167938931297,0.0
13.36000108718872,-9.49300958251953,1.3838485595703125,0.5386953735351562,-5.251908396946565,14.900763358778626,-7.435114503816794,-4.862623571777344,1.1013327636718748,3.787627026367187,-18.091603053435115,7.175572519083969,-2.4122137404580153,0.0
13.370000839233398,-9.026140258789061,1.1444283935546875,0.36152445068359373,-7.587786259541985,16.12213740458015,-6.564885496183206,-3.9839515624999997,0.3806780639648437,2.655169641113281,-27.022900763358777,14.900763358778626,-0.24427480916030533,0.0
13.380000829696655,-9.950302099609374,1.5873557006835937,0.488417138671875,-10.045801526717558,16.33587786259542,-7.236641221374046,-8.583212951660157,-2.319981408691406,4.240131140136718,-9.435114503816793,15.511450381679388,7.557251908396947,0.0
13.390000581741333,-9.90241806640625,1.8267758666992187,0.4261678955078125,-9.755725190839694,16.091603053435115,-8.198473282442748,-8.549694128417968,-2.1068974609374997,5.528211633300781,-9.450381679389313,17.61832061068702,2.213740458015267,0.0
13.40000057220459,-10.350133776855468,1.7214309936523438,0.612915625,-10.717557251908397,15.16030534351145,-7.0534351145038165,-8.999804040527343,-2.8012159423828122,5.832275244140624,0.4580152671755725,14.793893129770993,0.6870229007633588,0.0
13.410000562667847,-9.701305126953125,1.2378022583007813,0.5339069702148437,-8.442748091603054,15.786259541984732,-7.603053435114504,-8.422801440429687,-2.051830822753906,5.942408520507812,2.549618320610687,14.580152671755725,-3.954198473282443,0.0
13.420000314712524,-9.60793126220703,1.2737152832031249,0.8092401611328125,-10.488549618320612,15.603053435114504,-8.793893129770993,-7.951143713378905,-1.5849614990234373,5.284003063964843,6.106870229007634,13.16030534351145,-5.6183206106870225,0.0
13.43000054359436,-9.928754284667969,1.5514426757812498,1.2497732666015624,-6.625954198473282,15.648854961832061,-8.900763358778626,-8.339004382324218,-1.5011644409179687,5.65031591796875,9.587786259541986,14.488549618320612,-5.312977099236641,0.0
13.440000534057617,-10.27830772705078,1.3335703247070312,1.465251416015625,-6.122137404580153,13.664122137404581,-8.870229007633588,-8.566453540039062,-1.3718775512695311,5.865794067382812,11.633587786259541,14.625954198473282,-5.786259541984733,0.0
13.450000762939453,-10.007762939453125,1.1444283935546875,1.5969325073242187,-2.50381679389313,12.50381679389313,-8.900763358778626,-8.406042028808594,-1.3359645263671873,5.935225915527344,12.534351145038167,14.106870229007633,-6.931297709923665,0.0
13.460000276565552,-10.259154113769531,1.3718775512695311,1.867477294921875,-1.7557251908396947,10.473282442748092,-10.305343511450381,-7.881711865234375,-1.407790576171875,5.5545478515625,13.450381679389313,13.221374045801527,-8.244274809160306,0.0
13.470000743865967,-9.686939916992188,0.7422025146484375,1.5729904907226562,4.824427480916031,8.259541984732824,-10.198473282442748,-7.742848168945312,-1.7357962036132812,5.643133312988281,16.38167938931298,13.664122137404581,-8.396946564885496,0.0
13.480000495910645,-8.896853369140624,0.9552864624023437,1.4939818359375,12.381679389312977,8.061068702290076,-10.290076335877863,-6.950367419433594,-1.0342951171875,4.920084411621094,16.549618320610687,13.98473282442748,-9.648854961832061,0.0
13.49000072479248,-9.859322436523437,1.917755529785156,2.1308394775390624,13.419847328244275,7.557251908396947,-10.900763358778626,-6.648698010253906,-0.5315127685546874,4.369418029785156,12.427480916030534,21.221374045801525,-9.099236641221374,0.0
13.500000476837158,-10.711658227539061,1.687912170410156,2.319981408691406,8.213740458015268,1.2061068702290076,-8.50381679389313,-6.016628771972656,-1.0893617553710937,3.277662072753906,12.16793893129771,23.297709923664122,-8.65648854961832,0.0
13.510000705718994,-10.268730920410155,0.7062894897460937,2.540247961425781,15.083969465648854,-2.3053435114503817,-7.603053435114504,-6.265625744628906,-0.34237083740234375,3.1842882080078123,11.48091603053435,29.52671755725191,-7.801526717557252,0.0
13.520000696182251,-10.007762939453125,0.1867477294921875,2.7269956909179687,19.938931297709924,-7.312977099236641,-8.030534351145038,-5.145139367675781,0.4213794921875,1.467645617675781,8.381679389312977,35.404580152671755,-8.854961832061068,0.0
13.530000686645508,-10.213664282226562,0.4860229370117187,3.1866824096679687,25.587786259541986,-11.129770992366412,-11.068702290076336,-5.046977099609375,1.455674609375,0.5147533569335937,-3.786259541984733,52.61068702290076,-9.572519083969466,0.0
13.540000677108765,-10.249577307128906,0.316034619140625,3.2609026611328122,31.206106870229007,-16.702290076335878,-12.870229007633588,-4.965574243164062,0.8810662109374999,-1.6615759521484375,-16.549618320610687,67.92366412213741,-11.816793893129772,0.0
13.550000429153442,-10.682927807617187,0.6464344482421874,3.794809631347656,36.74809160305343,-22.244274809160306,-15.32824427480916,-8.410830432128906,-0.031124621582031248,-0.689530078125,-20.47328244274809,83.81679389312977,-13.541984732824428,0.0
13.560001134872437,-11.324573852539062,1.0007762939453124,4.261678955078125,43.541984732824424,-29.358778625954198,-16.702290076335878,-10.98699141845703,-0.6631938598632812,1.8842367065429686,-19.251908396946565,95.64885496183206,-13.83206106870229,0.0
13.570000648498535,-11.89439384765625,0.7541735229492187,4.771643908691406,48.30534351145038,-37.66412213740458,-16.33587786259542,-12.773065856933593,0.6057330200195312,3.21780703125,1.3129770992366412,86.80916030534351,-11.938931297709924,0.0
13.580000877380371,-12.667720983886719,1.0941501586914062,5.353434912109375,51.587786259541986,-46.274809160305345,-16.595419847328245,-15.35401524658203,0.5219359619140624,8.145074047851562,22.33587786259542,79.49618320610686,-3.1755725190839694,0.0
13.590000867843628,-13.625401647949218,1.1468225952148436,6.653486413574218,48.732824427480914,-59.969465648854964,-14.061068702290076,-14.7482822265625,4.062960217285156,8.451531860351562,38.01526717557252,58.44274809160305,4.748091603053435,0.0
13.600000858306885,-12.617442749023438,-1.6065093139648436,7.307103466796875,66.07633587786259,-65.19083969465649,-10.900763358778626,-14.449007019042968,4.1754876953124995,8.851363537597656,35.786259541984734,49.70992366412214,18.580152671755727,0.0
13.610000610351562,-12.629413757324219,0.7661445312499999,7.46272657470703,69.00763358778626,-81.6793893129771,-12.106870229007633,-15.152902307128905,1.0079588989257813,5.779602807617187,29.893129770992367,39.89312977099237,23.61832061068702,0.0
13.62002968788147,-14.769830041503905,2.2170307373046874,8.497021691894531,62.900763358778626,-103.37404580152672,-14.198473282442748,-10.172962854003906,1.6065093139648436,0.15083470458984374,-3.6793893129770994,38.97709923664122,14.885496183206106,0.0
13.630000591278076,-15.337255834960937,3.0502129150390624,8.087613208007811,58.87022900763359,-122.12213740458016,-8.274809160305344,-7.903259680175781,-0.5315127685546874,-1.8195932617187498,-17.374045801526716,54.030534351145036,14.854961832061068,0.0
13.640000581741333,-16.565481286621093,3.897760302734375,7.884106066894531,44.10687022900763,-142.03053435114504,-4.015267175572519,-7.7596075805664055,-1.438915197753906,-4.8889597900390624,7.419847328244275,52.47328244274809,17.419847328244273,0.0
13.65000057220459,-16.263811877441405,2.480392919921875,6.076483813476562,37.099236641221374,-164.42748091603053,3.9083969465648853,-6.232106921386718,0.32082302246093747,-4.69263525390625,12.259541984732824,56.47328244274809,8.83969465648855,0.0
13.660000562667847,-15.974113476562499,2.090138049316406,4.242525341796875,30.68702290076336,-174.6259541984733,13.86259541984733,-6.813897924804687,-0.7493851196289062,-0.4333505004882812,21.72519083969466,66.91603053435115,13.450381679389313,0.0
13.670000553131104,-13.742717529296874,-0.229843359375,1.0773907470703123,22.366412213740457,-187.61832061068702,22.3206106870229,-9.064447485351561,-4.027047192382812,1.350329736328125,34.030534351145036,63.93893129770992,14.0,0.0
13.68000054359436,-13.82172618408203,-0.4070142822265625,-0.17238251953125,26.50381679389313,-189.6793893129771,23.862595419847327,-9.603142858886718,-3.9887399658203124,2.4157494750976563,16.213740458015266,67.66412213740458,-2.381679389312977,0.0
13.690000534057617,-18.157625390625,2.5067291381835934,-0.14125789794921875,17.84732824427481,-189.86259541984734,25.862595419847327,-10.457872851562499,-4.211400720214844,2.6671406494140624,26.18320610687023,62.87022900763359,-4.198473282442748,0.0
13.700000524520874,-14.420276599121093,2.094926452636719,-1.2282254516601563,12.717557251908397,-192.27480916030535,32.152671755725194,-9.696516723632811,0.9193734375,-0.9888052856445312,25.6793893129771,48.70229007633588,-8.381679389312977,0.0
13.71000075340271,-11.379640490722656,0.8834604125976562,-2.913743420410156,10.198473282442748,-194.50381679389312,41.41984732824427,-11.281478222656249,1.2306196533203124,1.867477294921875,10.717557251908397,59.267175572519086,-1.9694656488549618,0.0
13.720000505447388,-8.947131604003905,-1.8698714965820311,-4.240131140136718,9.236641221374045,-180.99236641221373,46.900763358778626,-13.603853833007811,-0.28730419921875,2.360682836914062,27.84732824427481,48.74809160305343,13.755725190839694,0.0
13.73030972480774,-6.962338427734375,-3.507505432128906,-3.873818286132812,15.587786259541986,-159.0229007633588,41.87786259541985,-12.15536182861328,0.7398083129882812,1.599326708984375,23.00763358778626,39.70992366412214,10.488549618320612,0.0
13.740228176116943,-4.53940634765625,-4.7572786987304685,-4.498704919433593,32.0,-131.61832061068702,38.961832061068705,-10.979808813476561,-0.20350714111328125,3.0142998901367184,15.84732824427481,40.94656488549618,11.083969465648854,0.0
13.750000715255737,-5.389347937011719,-4.819527941894531,-3.5697546752929687,51.93893129770992,-97.00763358778626,32.916030534351144,-12.90235274658203,-2.6695348510742187,4.560954162597656,38.62595419847328,34.045801526717554,16.778625954198475,0.0
13.760000944137573,-4.96078583984375,-3.7397429931640622,-4.122815258789062,70.62595419847328,-73.02290076335878,26.53435114503817,-9.564835632324218,-1.216254443359375,1.16837041015625,38.13740458015267,18.702290076335878,6.366412213740458,0.0
13.77000093460083,-8.542511523437499,0.9624690673828125,-1.7118541870117185,76.7175572519084,-45.23664122137404,20.198473282442748,-8.039729174804688,0.06703764648437499,0.8092401611328125,23.770992366412212,16.671755725190838,-2.1374045801526718,0.0
13.780000686645508,-7.501033801269531,0.9433154541015625,-0.9097966308593749,66.03053435114504,-38.44274809160305,21.587786259541986,-7.934384301757812,1.905784521484375,0.1005564697265625,6.549618320610687,24.198473282442748,-3.2213740458015265,0.0
13.790000677108765,-8.674192614746094,3.019088293457031,0.9888052856445312,49.343511450381676,-29.66412213740458,23.419847328244273,-8.549694128417968,-0.7900865478515624,0.6009446166992187,-15.83206106870229,33.69465648854962,2.687022900763359,0.0
13.800000667572021,-10.381258398437499,3.8953661010742184,2.3774422485351563,21.541984732824428,-33.908396946564885,25.862595419847327,-11.286266625976562,-3.1459809814453124,2.8203695556640622,-3.1908396946564888,27.984732824427482,9.709923664122137,0.0
13.810000658035278,-8.91840118408203,3.4165257690429685,2.0087351928710935,1.2061068702290076,-37.05343511450382,30.53435114503817,-13.893552233886718,-3.284844677734375,3.071760729980469,13.938931297709924,17.908396946564885,8.473282442748092,0.0
13.820000886917114,-8.279149340820313,2.5234885498046875,1.5897499023437498,-21.572519083969464,-39.099236641221374,30.519083969465647,-11.473014355468749,-1.9847931762695312,2.0350714111328125,16.610687022900763,8.961832061068701,0.4122137404580153,0.0
13.830000400543213,-7.630320690917968,1.608903515625,1.5131354492187499,-40.50381679389313,-37.282442748091604,27.770992366412212,-9.121908325195312,-1.0678139404296874,0.9624690673828125,18.50381679389313,6.549618320610687,-4.9465648854961835,0.0
13.840000867843628,-6.667851623535156,0.5099649536132812,0.8786720092773437,-57.19083969465649,-33.083969465648856,24.244274809160306,-9.0021982421875,-1.1037269653320312,1.5251064575195312,16.519083969465647,9.49618320610687,-5.282442748091603,0.0
13.850000619888306,-5.57370146484375,-0.7685387329101562,0.055066638183593745,-62.76335877862596,-25.480916030534353,21.64885496183206,-9.37808790283203,-0.5770026000976562,1.6017209106445311,15.725190839694656,9.541984732824428,-4.366412213740458,0.0
13.860000848770142,-4.302380383300781,-2.5737667846679684,-0.814028564453125,-58.01526717557252,-14.15267175572519,19.954198473282442,-7.714117749023437,0.24660277099609373,1.0079588989257813,2.6259541984732824,11.48091603053435,-5.679389312977099,0.0
13.87000060081482,-3.7900212280273435,-2.5474305664062498,-0.354341845703125,-48.595419847328245,3.7557251908396947,15.725190839694656,-11.789048974609374,-0.4836287353515625,4.297591979980469,5.435114503816794,21.770992366412212,0.4580152671755725,0.0
13.880000591278076,-4.630386010742187,-2.29843359375,0.5746083984375,-45.05343511450382,15.83206106870229,9.633587786259541,-12.191274853515624,-1.3311761230468748,4.141968872070312,14.244274809160306,15.572519083969466,3.7251908396946565,0.0
13.890000581741333,-5.0182466796875,-2.346317626953125,1.4173673828125,-34.13740458015267,28.778625954198475,6.732824427480916,-9.835380419921874,0.201112939453125,2.2002713256835937,14.488549618320612,5.236641221374046,-0.8244274809160306,0.0
13.90000057220459,-4.53940634765625,-2.1452046874999997,1.8100164550781248,-24.595419847328245,38.2442748091603,4.824427480916031,-10.529698901367187,-0.699106884765625,3.1124621582031247,11.221374045801527,7.511450381679389,-0.7022900763358778,0.0
13.910000562667847,-4.106055847167968,-1.8219874633789062,1.9033903198242186,-11.755725190839694,48.47328244274809,3.3740458015267176,-9.440337145996093,-0.6296750366210937,2.138022082519531,11.877862595419847,4.458015267175573,-0.10687022900763359,0.0
13.920000553131104,-5.329492895507812,-1.1276689819335937,3.5984850952148437,-0.6870229007633588,58.3206106870229,0.9312977099236641,-10.199299072265624,-1.1228805786132812,2.389413256835937,14.595419847328245,3.5267175572519083,1.6488549618320612,0.0
13.93000054359436,-6.41646044921875,0.14604630126953125,5.106832141113281,12.335877862595419,64.10687022900764,0.183206106870229,-9.97184991455078,-1.2904746948242187,2.1068974609374997,11.86259541984733,2.0916030534351147,1.2671755725190839,0.0
13.940000534057617,-7.146691955566406,1.1348515869140625,5.683834741210937,22.3206106870229,64.93129770992367,2.549618320610687,-10.24000050048828,-1.5490484741210937,2.3918074584960936,16.106870229007633,-1.0229007633587786,1.8625954198473282,0.0
13.950000762939453,-7.283161450195312,1.0821791503906248,6.205770703124999,29.908396946564885,66.79389312977099,4.198473282442748,-10.060435375976562,-1.9009961181640624,1.6735469604492186,17.557251908396946,-2.1068702290076335,1.0534351145038168,0.0
13.96000051498413,-7.7596075805664055,0.9337386474609375,6.382941625976562,31.84732824427481,65.16030534351145,1.8778625954198473,-11.003750830078124,-1.8124106567382812,2.8131869506835936,23.31297709923664,-0.6412213740458015,0.8244274809160306,0.0
13.970000743865967,-8.142679846191406,0.1867477294921875,6.337451794433593,28.977099236641223,57.587786259541986,-2.4732824427480917,-10.146626635742187,-0.967257470703125,1.8746598999023436,18.442748091603054,0.24427480916030533,-2.2290076335877864,0.0
13.980000257492065,-9.193734375,0.6177040283203125,6.536170532226562,28.82442748091603,54.213740458015266,-5.816793893129771,-10.579977136230468,-0.7661445312499999,2.24097275390625,19.14503816793893,1.9083969465648856,-1.4351145038167938,0.0
13.99000072479248,-9.567229833984374,0.3280056274414062,7.127538342285156,30.137404580152673,52.0,-5.251908396946565,-10.259154113769531,-0.17956512451171874,1.697488977050781,12.717557251908397,3.7709923664122136,-2.0,0.0
14.000000238418579,-12.27028350830078,3.801992236328125,7.948749511718749,37.17557251908397,46.44274809160305,0.2900763358778626,-10.350133776855468,-0.12689268798828124,1.5849614990234373,10.183206106870228,3.450381679389313,1.083969465648855,0.0
14.010000705718994,-13.47696114501953,6.682216833496093,6.471527087402343,45.14503816793893,43.66412213740458,13.007633587786259,-10.529698901367187,-0.41419688720703124,1.1372457885742187,4.8396946564885495,4.198473282442748,4.229007633587786,0.0
14.020000696182251,-13.965378283691406,6.232106921386718,4.299986181640625,24.641221374045802,42.6412213740458,17.083969465648856,-11.149797131347656,-1.3838485595703125,1.3814543579101561,3.633587786259542,5.221374045801527,6.3816793893129775,0.0
14.030000686645508,-13.740323327636718,1.5275006591796874,4.551377355957031,-24.396946564885496,34.458015267175576,5.358778625954199,-10.369287390136718,-1.0510545288085937,1.0749965454101562,-0.4122137404580153,4.564885496183206,4.625954198473282,0.0
14.040000677108765,-12.052411157226562,-3.1579519897460937,6.0716954101562495,-40.412213740458014,26.519083969465647,-1.4045801526717556,-9.004592443847656,-0.9337386474609375,0.8858546142578124,-10.427480916030534,5.847328244274809,2.183206106870229,0.0
14.050000667572021,-11.10191309814453,-2.0542250244140625,3.5027170288085934,-31.16030534351145,29.31297709923664,-4.580152671755725,-8.765172277832031,-0.3327940307617187,0.7110778930664062,-14.244274809160306,6.67175572519084,0.8549618320610687,0.0
14.0600004196167,-10.256759912109374,-0.16759411621093748,1.8531120849609375,-36.36641221374046,34.93129770992366,-4.244274809160306,-8.33182177734375,0.43574470214843747,0.15322890625,-24.198473282442748,6.33587786259542,-1.984732824427481,0.0
14.07006549835205,-9.358934289550781,-0.46208092041015625,2.27927998046875,-31.129770992366414,38.961832061068705,-0.6717557251908397,-8.473079675292968,1.8650830932617186,-1.2282254516601563,-28.946564885496183,4.091603053435114,0.10687022900763359,0.0
14.080000877380371,-7.805097412109374,-1.5705962890624998,0.7781155395507812,-19.862595419847327,45.80152671755725,-1.5725190839694656,-11.635820068359374,-1.0821791503906248,1.4317325927734375,-28.549618320610687,13.267175572519085,11.541984732824428,0.0
14.090000629425049,-5.485116003417969,-2.729389892578125,-1.0534487304687499,-7.450381679389313,55.038167938931295,-7.374045801526718,-10.716446630859375,-0.6272808349609375,0.1005564697265625,-21.572519083969464,-0.04580152671755725,11.053435114503817,0.0
14.100000858306885,-6.4667386840820305,-1.8363526733398436,-0.30885201416015623,3.7099236641221376,65.45038167938931,-13.251908396946565,-10.524910498046875,0.2753331909179687,0.59376201171875,-27.46564885496183,1.251908396946565,11.526717557251908,0.0
14.110000610351562,-7.615955480957031,0.02633621826171875,0.8547299926757812,11.572519083969466,72.59541984732824,-14.916030534351146,-9.188945971679686,1.1731588134765625,0.20350714111328125,-28.30534351145038,1.6793893129770991,13.038167938931299,0.0
14.120039463043213,-9.10993731689453,1.5370774658203123,2.6695348510742187,15.374045801526718,75.1145038167939,-14.213740458015268,-9.555258825683593,0.47644613037109373,0.44532150878906246,-28.748091603053435,1.465648854961832,17.00763358778626,0.0
14.130000591278076,-11.382034692382812,4.015076184082031,4.505887524414062,9.17557251908397,75.46564885496183,-13.419847328244275,-9.636661682128906,0.20829554443359374,0.7278373046875,-29.435114503816795,0.8396946564885496,19.450381679389313,0.0
14.140000581741333,-9.74200655517578,1.024718310546875,2.7940333374023436,-4.473282442748092,61.11450381679389,-5.7251908396946565,-9.560047229003906,0.11013327636718749,0.7781155395507812,-29.435114503816795,0.07633587786259542,19.297709923664122,0.0
14.15000033378601,-10.077194787597655,1.5035586425781249,3.6583401367187496,-10.320610687022901,63.17557251908397,-6.305343511450381,-9.14824454345703,-0.34715924072265625,0.507570751953125,-31.801526717557252,-0.9770992366412213,19.022900763358777,0.0
14.160000562667847,-11.84890401611328,3.009511486816406,4.132392065429687,-27.16030534351145,53.267175572519086,-7.068702290076335,-8.798691101074219,0.5147533569335937,0.39983167724609375,-31.51145038167939,-1.7404580152671756,17.6793893129771,0.0
14.170000791549683,-9.485826977539062,-0.03591302490234375,2.1499930908203124,-25.587786259541986,42.396946564885496,2.9770992366412212,-9.435548742675781,0.5410895751953124,0.6847416748046875,-29.00763358778626,-2.045801526717557,19.908396946564885,0.0
14.180000305175781,-9.188945971679686,-0.5410895751953124,2.858676782226562,-13.267175572519085,46.900763358778626,3.5419847328244276,-9.49300958251953,-0.05746083984375,1.22583125,-26.442748091603054,-1.83206106870229,19.755725190839694,0.0
14.190001010894775,-9.560047229003906,1.85790048828125,2.693476867675781,-13.129770992366412,42.595419847328245,-0.916030534351145,-10.54645831298828,0.14125789794921875,1.5945383056640625,-13.83206106870229,-6.977099236641221,18.916030534351144,0.0
14.200000762939453,-8.760383874511719,1.7693150268554687,1.9800047729492187,-12.244274809160306,36.35114503816794,0.8396946564885496,-11.133037719726563,-0.229843359375,2.5426421630859375,-12.854961832061068,-6.900763358778626,19.709923664122137,0.0
14.21000075340271,-8.959102612304687,1.1085153686523437,1.9656395629882812,-7.923664122137405,36.68702290076336,2.351145038167939,-11.056423266601563,-0.44053310546874996,2.5617957763671875,-9.786259541984732,-9.557251908396946,18.045801526717558,0.0
14.220016956329346,-8.566453540039062,0.97683427734375,1.4413093994140624,-6.595419847328245,35.57251908396947,0.549618320610687,-9.117119921875,-0.7757213378906249,1.7549498168945312,-8.229007633587786,-15.145038167938932,15.251908396946565,0.0
14.230000734329224,-10.072406384277343,1.189918225097656,1.7956512451171873,-6.702290076335878,36.3206106870229,-1.1603053435114503,-11.346121667480467,-4.153939880371094,2.89219560546875,13.816793893129772,-32.42748091603053,16.061068702290076,0.0
14.240000486373901,-10.168174450683592,1.9512743530273435,1.5873557006835937,-7.511450381679389,34.58015267175573,-2.854961832061069,-10.534487304687499,0.21787235107421873,1.4125789794921875,10.50381679389313,-37.29770992366412,5.236641221374046,0.0
14.250000715255737,-9.811438403320311,3.0047230834960934,2.0542250244140625,-14.045801526717558,29.603053435114504,0.8091603053435115,-8.271966735839843,2.8945898071289062,0.9816226806640624,-12.946564885496183,-28.763358778625953,0.13740458015267176,0.0
14.260000705718994,-10.350133776855468,3.0406361083984375,2.3319524169921872,-20.9618320610687,28.12213740458015,3.4656488549618323,-9.315838659667968,1.89620771484375,1.8004396484374998,-22.076335877862597,-17.46564885496183,10.13740458015267,0.0
14.270000457763672,-7.4579381713867186,-0.43574470214843747,-0.016759411621093748,-15.16030534351145,21.862595419847327,8.13740458015267,-10.927136376953124,0.373495458984375,1.5083470458984374,-13.465648854961833,-17.938931297709924,16.47328244274809,0.0
14.280000686645508,-8.05648858642578,-1.0821791503906248,0.354341845703125,-2.2290076335877864,28.03053435114504,5.3893129770992365,-11.563994018554688,-0.7398083129882812,2.7653029174804686,-7.358778625954199,-20.259541984732824,15.786259541984732,0.0
14.290000677108765,-8.836998327636719,0.59376201171875,0.9002198242187499,7.0534351145038165,33.770992366412216,0.7633587786259542,-10.350133776855468,-0.9050082275390624,3.308786694335937,7.770992366412214,-25.81679389312977,12.885496183206106,0.0
14.300000429153442,-10.050858569335936,1.1635820068359375,0.8164227661132812,7.984732824427481,31.755725190839694,-1.633587786259542,-11.549628808593749,-1.467645617675781,4.4196962646484375,22.82442748091603,-36.42748091603053,9.740458015267176,0.0
14.3100004196167,-11.020510241699219,1.8770541015625,1.6639701538085936,5.587786259541985,32.68702290076336,-2.6564885496183206,-11.154585534667968,0.06464344482421874,3.2632968627929686,29.022900763358777,-50.88549618320611,2.8396946564885495,0.0
14.320000886917114,-9.088389501953124,2.0159177978515626,0.9648632690429687,-0.10687022900763359,26.427480916030536,-1.282442748091603,-9.457096557617186,3.0909143432617188,3.038241906738281,7.419847328244275,-49.282442748091604,-3.6946564885496183,0.0
14.330000638961792,-9.655815295410155,2.0542250244140625,1.7788918334960937,-7.343511450381679,27.557251908396946,-0.732824427480916,-9.255983618164063,2.1021090576171875,3.1962592163085937,3.49618320610687,-44.30534351145038,5.358778625954199,0.0
14.340000629425049,-7.520187414550781,0.26815058593749996,0.0,-10.15267175572519,17.267175572519083,2.7022900763358777,-11.920730065917969,-0.565031591796875,3.5529952636718747,12.793893129770993,-48.83969465648855,10.198473282442748,0.0
14.350000619888306,-9.598354455566406,0.028730419921875,0.8451531860351562,-3.099236641221374,22.30534351145038,0.13740458015267176,-10.302249743652343,2.418143676757812,2.094926452636719,1.4198473282442747,-58.091603053435115,1.450381679389313,0.0
14.360000848770142,-8.702923034667968,0.7517793212890624,1.1252747802734375,1.0229007633587786,24.625954198473284,0.22900763358778625,-7.630320690917968,2.568978381347656,2.8203695556640622,-16.778625954198475,-50.10687022900763,0.8854961832061069,0.0
14.37000036239624,-9.167398156738281,1.6543933471679686,0.7422025146484375,-0.9007633587786259,25.51145038167939,-0.6106870229007634,-9.957484704589843,-0.05746083984375,3.706224169921875,-3.2061068702290076,-44.38167938931298,13.34351145038168,0.0
14.380000591278076,-10.256759912109374,1.5873557006835937,1.0702081420898437,-2.6564885496183206,24.793893129770993,-2.3206106870229006,-10.769119067382812,0.09337386474609374,3.5290532470703124,0.22900763358778625,-54.0,9.114503816793894,0.0
14.390000581741333,-10.251971508789062,2.166752502441406,1.3742717529296875,-3.2213740458015265,24.30534351145038,-1.2061068702290076,-7.644685900878906,3.4763808105468748,1.7956512451171873,-18.244274809160306,-58.36641221374046,0.030534351145038167,0.0
14.400000810623169,-10.47702646484375,2.710236279296875,2.013523596191406,-9.709923664122137,22.198473282442748,0.5038167938931297,-7.613561279296874,3.957615344238281,1.4939818359375,-27.17557251908397,-44.412213740458014,6.0,0.0
14.410000562667847,-9.734823950195311,1.7788918334960937,2.0566192260742184,-14.366412213740459,18.916030534351144,1.450381679389313,-9.1554271484375,0.1292868896484375,1.4724340209960938,-19.72519083969466,-39.89312977099237,15.83206106870229,0.0
14.420000553131104,-10.77630167236328,2.104503259277344,2.104503259277344,-12.473282442748092,15.374045801526718,0.3816793893129771,-11.429918725585937,-0.5961562133789062,1.8267758666992187,-8.045801526717558,-44.47328244274809,12.595419847328245,0.0
14.43000054359436,-9.696516723632811,0.5051765502929687,1.0007762939453124,-10.83969465648855,6.534351145038168,2.8396946564885495,-10.977414611816405,0.7996633544921875,1.7573440185546874,-7.236641221374046,-50.0763358778626,2.351145038167939,0.0
14.440000772476196,-9.074024291992187,0.7302315063476562,0.9911994873046874,-2.198473282442748,6.33587786259542,4.0,-8.166621862792969,2.3439234252929686,0.6871358764648438,-14.030534351145038,-46.36641221374046,-0.13740458015267176,0.0
14.450001001358032,-8.650250598144531,1.1444283935546875,1.3311761230468748,1.4198473282442747,8.595419847328245,2.122137404580153,-8.310273962402343,1.9871873779296874,1.0007762939453124,-13.709923664122137,-37.3587786259542,6.961832061068702,0.0
14.46000051498413,-9.548076220703125,2.760514514160156,1.7357962036132812,-1.5877862595419847,7.923664122137405,0.4580152671755725,-10.773907470703124,-0.1149216796875,2.6815058593749996,-2.183206106870229,-30.229007633587788,13.450381679389313,0.0
14.470000743865967,-9.97184991455078,2.987963671875,0.8978256225585937,-2.045801526717557,6.2748091603053435,1.7557251908396947,-11.130643518066405,-1.209071838378906,2.4947581298828125,3.954198473282443,-34.412213740458014,9.526717557251908,0.0
14.480000257492065,-9.478644372558593,2.559401574707031,0.622492431640625,-3.267175572519084,6.351145038167939,4.33587786259542,-10.405200415039062,-0.6871358764648438,1.7812860351562498,5.3893129770992365,-41.038167938931295,1.5572519083969465,0.0
14.49000072479248,-9.066841687011719,2.5354595581054684,0.38307226562499996,-4.5038167938931295,8.870229007633588,4.5038167938931295,-8.276755139160155,1.9728221679687499,1.5131354492187499,3.480916030534351,-37.43511450381679,-2.0,0.0
14.500000238418579,-9.634267480468749,3.4907460205078125,0.8379705810546875,-12.702290076335878,10.977099236641221,3.480916030534351,-7.611167077636718,2.863465185546875,0.8092401611328125,-1.0381679389312977,-32.213740458015266,4.0458015267175576,0.0
14.510000944137573,-9.282319836425781,2.760514514160156,0.603338818359375,-18.27480916030534,11.801526717557252,3.099236641221374,-9.373299499511718,0.6416460449218749,2.540247961425781,-4.152671755725191,-21.81679389312977,11.068702290076336,0.0
14.520000696182251,-9.758765966796874,2.0302830078125,0.584185205078125,-22.870229007633586,12.061068702290076,3.480916030534351,-10.31661495361328,-0.076614453125,1.927332336425781,-6.793893129770993,-23.69465648854962,8.442748091603054,0.0
14.530000686645508,-9.409212524414063,1.6232687255859375,0.38307226562499996,-23.84732824427481,12.900763358778626,3.3587786259541983,-10.749965454101561,0.18435352783203124,2.980781066894531,-6.8396946564885495,-24.977099236641223,3.572519083969466,0.0
14.540000677108765,-10.347739575195313,1.8171990600585937,0.8044517578125,-25.72519083969466,13.98473282442748,2.33587786259542,-10.333374365234375,0.06703764648437499,2.8467057739257813,-5.786259541984733,-25.114503816793892,0.5190839694656488,0.0
14.550000667572021,-9.574412438964844,1.0678139404296874,0.5817910034179687,-26.076335877862597,14.473282442748092,1.9083969465648856,-11.154585534667968,-0.5817910034179687,3.593696691894531,5.0534351145038165,-32.412213740458014,-1.618320610687023,0.0
14.560000658035278,-10.467449658203124,0.9193734375,0.5027823486328125,-27.114503816793892,15.068702290076336,-1.282442748091603,-12.631807958984375,-1.218648645019531,4.8650177734375,13.557251908396946,-36.67175572519084,-7.206106870229007,0.0
14.570000648498535,-9.938331091308592,0.2705447875976562,0.14604630126953125,-24.47328244274809,14.717557251908397,-2.564885496183206,-11.915941662597655,-1.6136919189453125,4.7381250854492185,22.717557251908396,-47.70992366412214,-11.206106870229007,0.0
14.580000877380371,-10.369287390136718,0.34715924072265625,0.36152445068359373,-23.358778625954198,16.12213740458015,-4.290076335877862,-9.536105212402344,1.675941162109375,2.398990063476562,16.82442748091603,-60.61068702290076,-20.671755725190838,0.0
14.59000039100647,-10.04846436767578,1.0749965454101562,0.21308394775390624,-23.770992366412212,17.893129770992367,-5.206106870229007,-7.682993127441406,3.2154128295898436,3.5793314819335937,1.5877862595419847,-50.045801526717554,-17.46564885496183,0.0
14.600000858306885,-12.112266198730469,2.27927998046875,1.43652099609375,-35.099236641221374,16.82442748091603,-7.480916030534351,-10.184933862304687,0.430956298828125,4.438849877929687,13.465648854961833,-50.56488549618321,-6.961832061068702,0.0
14.610000610351562,-11.250353601074218,1.1635820068359375,0.4740519287109375,-36.85496183206107,11.251908396946565,-6.106870229007634,-8.312668164062499,1.9871873779296874,2.422932080078125,-5.129770992366412,-55.05343511450382,-14.0,0.0
14.62000060081482,-8.789114294433594,-0.143652099609375,-0.34715924072265625,-29.34351145038168,12.366412213740459,-2.6106870229007635,-5.719747766113281,3.181894006347656,1.659181750488281,-26.229007633587788,-45.05343511450382,-13.099236641221374,0.0
14.630000829696655,-9.404424121093749,0.2609679809570312,0.0718260498046875,-30.198473282442748,11.49618320610687,-3.7557251908396947,-8.698134631347656,-0.7733271362304687,4.697423657226563,-17.46564885496183,-38.12213740458015,-3.801526717557252,0.0
14.640000581741333,-9.686939916992188,-0.02633621826171875,0.4429273071289062,-21.14503816793893,15.32824427480916,-5.969465648854962,-9.890447058105469,-0.8834604125976562,4.484339709472656,-0.5648854961832062,-45.725190839694655,-4.412213740458015,0.0
14.65000033378601,-10.002974536132811,1.1444283935546875,0.612915625,-18.38167938931298,14.931297709923664,-7.404580152671755,-6.4834980957031245,2.269703173828125,2.0757728393554684,-13.450381679389313,-46.68702290076336,-13.557251908396946,0.0
14.660000324249268,-10.022128149414062,1.47482822265625,0.699106884765625,-20.3206106870229,11.648854961832061,-5.603053435114504,-6.533776330566406,3.6080619018554687,2.032677209472656,-25.19083969465649,-33.66412213740458,-11.32824427480916,0.0
14.670000553131104,-9.619902270507811,1.0558429321289062,0.7709329345703124,-17.893129770992367,12.396946564885496,-5.00763358778626,-6.943184814453125,2.6503812377929687,2.1643583007812497,-47.770992366412216,-16.50381679389313,-7.923664122137405,0.0
14.68000054359436,-9.555258825683593,0.6679822631835937,0.4213794921875,-16.15267175572519,11.541984732824428,-4.732824427480916,-10.256759912109374,-0.469263525390625,3.756502404785156,-34.80916030534351,-16.412213740458014,-2.6717557251908395,0.0
14.690001010894775,-9.591171850585937,0.5147533569335937,0.2059013427734375,-8.946564885496183,12.595419847328245,-5.312977099236641,-9.414000927734374,0.4860229370117187,2.4492682983398435,-32.717557251908396,-17.19083969465649,-4.244274809160306,0.0
14.700000286102295,-9.988609326171874,0.612915625,0.43574470214843747,-8.885496183206106,12.83969465648855,-5.770992366412214,-7.8912886718749995,0.16519991455078123,1.16837041015625,-32.83969465648855,-17.297709923664122,-6.412213740458015,0.0
14.71000075340271,-10.388441003417968,1.43652099609375,0.5889736083984375,-7.816793893129771,13.679389312977099,-6.900763358778626,-8.84178673095703,1.0654197387695312,1.9608511596679685,-34.62595419847328,-11.099236641221374,-8.961832061068701,0.0
14.720000505447388,-9.595960253906249,1.4508862060546874,0.316034619140625,-9.664122137404581,12.854961832061068,-7.6183206106870225,-9.100360510253905,-0.0047884033203125,2.6599580444335937,-36.68702290076336,-7.969465648854962,-10.992366412213741,0.0
14.730039119720459,-9.658209497070311,1.2880804931640624,0.37828386230468747,-10.931297709923664,13.603053435114504,-8.870229007633588,-10.211270080566406,-1.3239935180664062,3.892971899414062,-20.3206106870229,-13.450381679389313,-10.335877862595419,0.0
14.740000247955322,-9.751583361816406,1.5873557006835937,0.37828386230468747,-10.885496183206106,14.259541984732824,-9.068702290076336,-9.255983618164063,-1.024718310546875,3.366247534179687,-13.557251908396946,-17.282442748091604,-13.206106870229007,0.0
14.750000715255737,-9.72285294189453,1.4628572143554686,0.41419688720703124,-11.297709923664122,13.755725190839694,-8.488549618320612,-9.725247143554688,-0.9744400756835937,4.627991809082031,-7.0534351145038165,-16.702290076335878,-14.977099236641221,0.0
14.760000944137573,-9.662997900390625,1.5107412475585937,0.5051765502929687,-14.045801526717558,13.954198473282442,-8.687022900763358,-7.884106066894531,0.0383072265625,2.932897033691406,-8.412213740458014,-19.435114503816795,-17.938931297709924,0.0
14.770000696182251,-9.926360083007811,1.4101847778320311,0.699106884765625,-16.458015267175572,14.473282442748092,-9.786259541984732,-7.074865905761718,0.09816226806640624,2.068590234375,-3.114503816793893,-26.16793893129771,-19.450381679389313,0.0
14.780000686645508,-10.251971508789062,2.0781670410156248,0.5674257934570313,-16.65648854961832,15.557251908396946,-9.664122137404581,-6.0525417968749995,1.5825672973632812,2.5067291381835934,-27.00763358778626,-10.290076335877863,-23.435114503816795,0.0
