timestamp,Thigh_L_Acc_X,Thigh_L_Acc_Y,Thigh_L_Acc_Z,Thigh_L_Gyr_X,Thigh_L_Gyr_Y,Thigh_L_Gyr_Z,Thigh_R_Acc_X,Thigh_R_Acc_Y,Thigh_R_Acc_Z,Thigh_R_Gyr_X,Thigh_R_Gyr_Y,Thigh_R_Gyr_Z,gpio_output
10.000000476837158,-15.126566088867186,3.423708374023437,-0.8499415893554687,-62.42748091603053,-11.679389312977099,-1.9694656488549618,-8.954314208984375,4.522646936035156,0.06703764648437499,-34.274809160305345,-20.47328244274809,10.67175572519084,0.0
10.010000705718994,-11.532869396972655,0.9193734375,-4.493916516113281,-61.29770992366412,-12.15267175572519,-4.0,-13.141772912597656,1.426944189453125,3.181894006347656,-42.152671755725194,-17.00763358778626,20.16793893129771,1.0
10.020000696182251,-7.905653881835937,-0.5602431884765625,-7.031770275878906,-39.43511450381679,0.21374045801526717,-0.7786259541984732,-16.500837841796873,-0.2442085693359375,5.008669873046875,-50.6412213740458,-18.763358778625953,25.51145038167939,1.0
10.030000686645508,-6.167463476562499,-0.8738836059570312,-6.019022973632812,-8.412213740458014,17.755725190839694,9.206106870229007,-18.646042529296874,-1.848323681640625,5.475539196777343,-55.38931297709924,-25.87786259541985,28.0,1.0
10.040000677108765,-6.445190869140625,1.924938134765625,-3.8043864379882812,17.938931297709924,39.38931297709924,15.297709923664122,-20.242975036621093,-4.084508032226562,6.047753393554687,-37.465648854961835,-40.13740458015267,28.12213740458015,1.0
10.050000429153442,-8.13310303955078,4.515464331054687,-0.6584054565429687,17.923664122137403,50.67175572519084,16.595419847328245,-19.340361010742185,-5.954379528808594,5.430049365234375,-4.488549618320611,-56.16793893129771,23.893129770992367,1.0
10.060000658035278,-12.061987963867187,4.594472985839843,1.6519991455078125,-2.5343511450381677,48.79389312977099,14.488549618320612,-17.97087766113281,-4.299986181640625,4.896142395019531,30.18320610687023,-76.42748091603053,10.732824427480915,1.0
10.070000648498535,-11.81777939453125,4.192247106933594,0.9959878906249999,-26.83969465648855,35.61832061068702,14.198473282442748,-13.417106103515625,-0.14604630126953125,3.361459130859375,22.50381679389313,-81.23664122137404,-7.694656488549619,1.0
10.080000638961792,-15.310919616699218,4.762067102050781,3.227383837890625,-60.18320610687023,29.786259541984734,11.389312977099237,-9.409212524414063,-1.2761094848632812,2.001552587890625,13.099236641221374,-74.7175572519084,-16.65648854961832,1.0
10.090000629425049,-12.562376110839843,-0.05027823486328125,1.5658078857421873,-76.51908396946565,21.389312977099237,9.419847328244275,-8.858546142578124,0.9911994873046874,0.9433154541015625,24.732824427480917,-69.69465648854961,-14.854961832061068,1.0
10.100000619888306,-11.750741748046874,-0.33758243408203126,0.5482721801757812,-84.67175572519083,18.38167938931298,3.954198473282443,-6.481103894042969,4.165910888671875,-1.2689268798828124,26.778625954198475,-61.29770992366412,-14.076335877862595,1.0
10.110000610351562,-10.481814868164061,0.00718260498046875,-1.0342951171875,-87.41984732824427,21.16030534351145,-0.7022900763358778,-5.511452221679687,5.68862314453125,-1.3551181396484375,19.068702290076335,-40.36641221374046,-5.66412213740458,1.0
10.12000060081482,-10.319009155273436,-1.0295067138671874,-2.2266075439453124,-93.20610687022901,23.114503816793892,-2.1526717557251906,-10.067617980957031,1.7094599853515624,1.3407529296874998,20.900763358778626,-23.6793893129771,6.33587786259542,1.0
10.130000591278076,-8.798691101074219,-3.854664672851562,-1.9297265380859374,-73.7557251908397,31.862595419847327,-2.2595419847328246,-9.74200655517578,3.246537451171875,-0.4740519287109375,5.404580152671755,-27.19083969465649,4.076335877862595,1.0
10.140000581741333,-9.373299499511718,-3.21780703125,-0.6464344482421874,-57.55725190839695,39.16030534351145,-6.229007633587786,-10.376469995117187,1.9871873779296874,2.511517541503906,-17.541984732824428,-13.435114503816793,5.419847328244275,1.0
10.15000057220459,-8.25520732421875,-3.6583401367187496,-0.430956298828125,-39.221374045801525,43.541984732824424,-6.916030534351145,-11.082759484863281,-0.852335791015625,4.383783239746093,-20.82442748091603,-7.740458015267175,9.511450381679388,1.0
10.160000324249268,-11.051634863281249,-0.86191259765625,2.308010400390625,-29.206106870229007,43.29770992366412,-14.595419847328245,-14.355633154296875,-2.3535002319335936,6.536170532226562,-6.824427480916031,-14.595419847328245,11.694656488549619,1.0
10.170000314712524,-8.59997236328125,-4.240131140136718,0.7326257080078125,-11.816793893129772,39.11450381679389,-14.366412213740459,-9.267954626464844,1.22583125,2.1883003173828124,-4.396946564885496,-40.97709923664122,0.7633587786259542,1.0
10.180001020431519,-10.608707556152343,-0.1388636962890625,3.0885201416015624,-4.137404580152672,38.56488549618321,-21.16030534351145,-9.720458740234374,-0.02633621826171875,5.284003063964843,-11.557251908396946,-31.69465648854962,-1.3129770992366412,1.0
10.190000295639038,-10.177751257324218,0.8020575561523438,3.1268273681640624,-21.328244274809162,21.81679389312977,-23.374045801526716,-7.800309008789062,0.603338818359375,1.467645617675781,-7.435114503816794,-45.89312977099237,-6.595419847328245,1.0
10.200000762939453,-13.43865391845703,2.786850732421875,5.367800122070312,-31.450381679389313,19.49618320610687,-24.900763358778626,-10.31661495361328,-0.9145850341796874,5.042188696289062,-3.1908396946564888,-37.725190839694655,-4.0458015267175576,1.0
10.21000051498413,-10.28549033203125,0.9409212524414062,3.1076737548828124,-34.35114503816794,7.984732824427481,-16.076335877862597,-6.696582043457031,1.199495031738281,1.6160861206054686,-2.8702290076335877,-48.94656488549618,-6.091603053435114,0.0
10.220000743865967,-12.00931552734375,3.0502129150390624,3.1292215698242187,-35.93893129770992,5.022900763358779,-13.526717557251908,-9.102754711914063,-1.1635820068359375,5.233724829101562,6.015267175572519,-41.969465648854964,-0.22900763358778625,0.0
10.230000257492065,-8.86812294921875,0.9145850341796874,1.0295067138671874,-32.961832061068705,1.633587786259542,-8.396946564885496,-6.9144543945312495,0.7972691528320313,3.404554760742187,0.4732824427480916,-45.343511450381676,-2.3053435114503817,0.0
10.240000486373901,-9.79946739501953,1.6831237670898436,1.7381904052734374,-26.27480916030534,5.755725190839694,-6.8396946564885495,-9.387664709472656,-0.9145850341796874,5.805939025878906,8.854961832061068,-42.54961832061068,2.900763358778626,0.0
10.250000476837158,-8.595183959960938,0.6943184814453125,0.97683427734375,-19.389312977099237,5.9541984732824424,-6.702290076335878,-7.122749938964843,-0.03591302490234375,4.604049792480469,2.2290076335877864,-45.37404580152672,-1.282442748091603,0.0
10.260000705718994,-9.07163009033203,0.5027823486328125,0.9959878906249999,-9.86259541984733,10.931297709923664,-5.847328244274809,-9.83777462158203,-2.4899697265625,6.663063220214843,11.786259541984732,-43.81679389312977,2.366412213740458,0.0
10.270000696182251,-8.664615808105468,1.0534487304687499,1.3144167114257812,-1.6488549618320612,19.755725190839694,-11.007633587786259,-6.528987927246093,-0.22026655273437498,4.587290380859375,2.7480916030534353,-46.80916030534351,-4.824427480916031,0.0
10.280000448226929,-9.552864624023437,2.3918074584960936,1.6519991455078125,-1.9694656488549618,24.091603053435115,-14.213740458015268,-8.44674345703125,-2.118868469238281,6.050147595214844,10.992366412213741,-42.0763358778626,-3.969465648854962,0.0
10.290000438690186,-8.317456567382813,1.4724340209960938,0.8714894042968749,-3.877862595419847,20.595419847328245,-14.732824427480915,-5.966350537109375,0.38786066894531246,3.6391865234374996,5.129770992366412,-46.0763358778626,-9.709923664122137,0.0
10.300000667572021,-7.6279264892578125,2.6910826660156246,1.1444283935546875,-4.9465648854961835,21.00763358778626,-13.786259541984732,-6.591237170410156,-0.6081272216796875,4.853046765136718,1.0076335877862594,-31.87786259541985,-9.053435114503817,0.0
10.310000658035278,-9.370905297851563,2.6312276245117188,1.6998831787109374,-13.84732824427481,19.755725190839694,-11.312977099236642,-9.983820922851562,-1.7405846069335937,5.671863732910156,10.412213740458014,-33.66412213740458,-7.465648854961832,0.0
10.320000410079956,-8.82263311767578,1.5155296508789062,1.1635820068359375,-8.01526717557252,18.229007633587788,-7.786259541984733,-6.940790612792968,1.5610194824218748,3.8139632446289062,6.595419847328245,-36.717557251908396,-13.435114503816793,0.0
10.330000638961792,-9.674968908691406,2.157175695800781,2.252943762207031,-2.2442748091603053,26.564885496183205,-9.16030534351145,-4.529829541015625,1.9488801513671874,3.0813375366210938,-9.969465648854962,-26.198473282442748,-15.16030534351145,0.0
10.340000629425049,-11.947066284179687,3.727771984863281,2.8012159423828122,-8.763358778625955,26.595419847328245,-12.305343511450381,-7.544129431152343,-0.20829554443359374,5.480327600097656,-11.648854961832061,-12.335877862595419,-9.816793893129772,0.0
10.350000619888306,-11.046846459960937,2.389413256835937,2.1212626708984375,-7.511450381679389,18.793893129770993,-8.076335877862595,-9.169792358398437,-0.20350714111328125,5.801150622558594,-4.183206106870229,-15.34351145038168,-7.893129770992366,0.0
10.360000610351562,-8.657433203124999,1.4532804077148436,1.0199299072265624,-1.8931297709923665,16.549618320610687,-4.702290076335878,-8.626308581542968,-0.6607996582031249,5.480327600097656,6.305343511450381,-22.53435114503817,-8.67175572519084,0.0
10.37000060081482,-10.036493359375,2.913743420410156,2.3678654418945313,-3.4198473282442747,18.793893129770993,-7.450381679389313,-7.005434057617187,0.699106884765625,4.067748620605468,5.679389312977099,-29.96946564885496,-13.419847328244275,0.0
10.380000591278076,-9.765948571777344,2.906560815429687,1.8770541015625,-13.49618320610687,10.580152671755725,-5.022900763358779,-3.5889082885742187,3.5098996337890624,3.679887951660156,-12.564885496183207,-19.923664122137403,-17.450381679389313,0.0
10.390000581741333,-8.25520732421875,1.0007762939453124,1.5322890624999999,-6.106870229007634,13.236641221374045,-0.7633587786259542,-6.58884296875,1.5035586425781249,5.331887097167969,-25.17557251908397,-2.885496183206107,-9.740458015267176,0.0
10.40000033378601,-9.859322436523437,2.365471240234375,2.6695348510742187,-9.648854961832061,12.366412213740459,-3.8931297709923665,-6.584054565429687,0.74699091796875,4.146757275390625,-30.610687022900763,-4.122137404580153,-9.389312977099237,0.0
10.410000562667847,-9.299079248046874,1.4939818359375,1.7669208251953124,-2.5343511450381677,8.0,-3.3587786259541983,-7.659051110839843,0.3950432739257812,5.061342309570312,-22.33587786259542,-1.5114503816793894,-7.908396946564886,0.0
10.420000791549683,-10.319009155273436,2.157175695800781,2.6815058593749996,-0.9770992366412213,7.893129770992366,-3.3893129770992365,-5.6215854980468745,1.4700398193359374,3.840299462890625,-28.106870229007633,-3.4198473282442747,-11.664122137404581,0.0
10.43000054359436,-10.740388647460938,2.858676782226562,3.1579519897460937,-5.9541984732824424,2.3969465648854964,-3.6946564885496183,-6.143521459960938,1.2234370483398436,5.0757075195312495,-32.12213740458015,9.083969465648854,-9.19083969465649,0.0
10.440000534057617,-12.253524096679687,3.5865140869140624,3.928884924316406,-10.274809160305344,0.15267175572519084,-2.7786259541984735,-5.633556506347656,-0.12449848632812499,3.0909143432617188,-28.732824427480917,1.1145038167938932,-9.84732824427481,0.0
10.450000286102295,-9.270348828125,3.478775012207031,2.9975404785156248,-9.709923664122137,-9.083969465648854,0.9770992366412213,-5.9783215454101555,0.5889736083984375,3.758896606445312,-26.580152671755727,12.51908396946565,-9.129770992366412,0.0
10.46000075340271,-8.279149340820313,2.375048046875,2.5713725830078125,-4.519083969465649,-11.770992366412214,5.068702290076335,-4.541800549316406,1.024718310546875,2.3319524169921872,-33.93893129770992,13.267175572519085,-9.19083969465649,0.0
10.470000505447388,-8.556876733398436,1.180341418457031,3.086125939941406,-0.5343511450381679,-15.557251908396946,4.595419847328245,-2.96881005859375,2.9448680419921875,1.8531120849609375,-46.74809160305343,29.69465648854962,-11.664122137404581,0.0
10.480000495910645,-10.670956799316405,2.4660277099609376,5.013458276367187,0.549618320610687,-10.030534351145038,-0.04580152671755725,-4.216189123535156,0.8738836059570312,2.925714428710937,-53.45038167938932,42.656488549618324,-4.076335877862595,0.0
10.490000486373901,-8.497021691894531,2.0566192260742184,3.3782185424804685,2.5343511450381677,-20.717557251908396,1.8625954198473282,-7.005434057617187,-0.8882488159179687,3.1938650146484373,-43.725190839694655,44.091603053435115,-1.0534351145038168,0.0
10.500000238418579,-8.109161022949218,1.0965443603515623,3.289633081054687,9.435114503816793,-22.458015267175572,2.4122137404580153,-5.6311623046875,-0.5267243652343749,3.1028853515624997,-43.603053435114504,48.83969465648855,-3.3893129770992365,0.0
10.510000467300415,-6.548141540527343,0.19393033447265623,2.0159177978515626,14.564885496183207,-25.908396946564885,2.564885496183206,-7.086836914062499,-1.4149731811523436,3.859453076171875,-30.778625954198475,50.12213740458015,-1.7099236641221374,0.0
10.520000696182251,-9.028534460449219,0.7924807495117187,2.020706201171875,17.954198473282442,-23.206106870229007,-2.427480916030534,-5.791573815917968,-1.1540052001953125,3.086125939941406,-25.221374045801525,48.656488549618324,-4.198473282442748,0.0
10.530000686645508,-8.86094034423828,1.9033903198242186,2.3630770385742186,14.091603053435115,-27.709923664122137,-4.442748091603053,-7.244854223632812,-2.0829554443359375,4.182670300292968,-9.404580152671755,47.61832061068702,-2.595419847328244,0.0
10.540000438690186,-10.17056865234375,2.013523596191406,3.737348791503906,16.50381679389313,-27.00763358778626,-3.7404580152671754,-7.388506323242187,-1.4341267944335936,3.6296097167968746,-1.282442748091603,38.6412213740458,-3.9389312977099236,0.0
10.5500009059906,-9.045293872070312,2.896984008789062,3.976768957519531,20.48854961832061,-33.25190839694657,-0.3969465648854962,-5.95677373046875,-0.43574470214843747,3.8953661010742184,-6.793893129770993,43.06870229007634,-7.022900763358779,0.0
10.560000658035278,-10.014945544433592,3.31357509765625,3.921702319335937,21.083969465648856,-31.755725190839694,3.6030534351145036,-6.842628344726562,-1.8339584716796873,3.67749375,-5.633587786259542,39.31297709923664,-3.6946564885496183,0.0
10.570000886917114,-7.592013464355468,1.3239935180664062,1.1420341918945311,12.702290076335878,-36.67175572519084,2.900763358778626,-11.228805786132812,-3.9935283691406247,7.931990100097655,11.34351145038168,42.87022900763359,-0.0916030534351145,0.0
10.580000638961792,-7.915230688476562,1.1875240234375,1.5825672973632812,11.618320610687023,-35.49618320610687,0.0916030534351145,-7.709329345703124,-2.0063409912109376,4.797980126953124,12.67175572519084,22.229007633587788,-8.045801526717558,0.0
10.590000629425049,-8.049305981445311,1.7477672119140624,1.9919757812499999,10.366412213740459,-36.42748091603053,-1.9236641221374047,-6.758831286621094,-0.5243301635742187,4.146757275390625,12.83969465648855,20.106870229007633,-10.412213740458014,0.0
10.600000619888306,-6.797138513183594,0.49320554199218747,0.8283937744140625,15.587786259541986,-31.541984732824428,-0.4122137404580153,-6.524199523925781,-0.08379705810546874,4.453215087890625,7.419847328244275,21.083969465648856,-9.068702290076336,0.0
10.610000610351562,-6.356605407714843,0.1771709228515625,0.9552864624023437,11.251908396946565,-21.83206106870229,-5.755725190839694,-6.452373474121093,0.09337386474609374,4.180276098632812,2.717557251908397,21.389312977099237,-7.32824427480916,0.0
10.62000060081482,-7.977479931640625,1.4149731811523436,3.1794998046874996,2.2900763358778624,-15.511450381679388,-13.007633587786259,-4.709394665527343,1.6735469604492186,3.5003228271484375,-8.351145038167939,27.022900763358777,-8.244274809160306,0.0
10.630000352859497,-8.137891442871092,1.2976572998046874,4.036623999023437,-0.8091603053435115,-12.106870229007633,-13.083969465648854,-3.77326181640625,2.5641899780273434,2.5953145996093747,-28.65648854961832,38.916030534351144,-6.076335877862595,0.0
10.640000343322754,-8.398859423828124,1.0031704956054688,5.030217687988281,-4.442748091603053,-7.251908396946565,-15.572519083969466,-5.813121630859374,-0.28012159423828126,3.6750995483398436,-41.00763358778626,56.50381679389313,0.061068702290076333,0.0
10.65000057220459,-9.363722692871093,0.18914193115234373,5.923254907226562,-7.770992366412214,-15.34351145038168,-17.770992366412212,-6.2584431396484375,-1.5562310791015623,1.6112977172851561,-35.64885496183206,51.20610687022901,1.6946564885496183,0.0
10.660000562667847,-9.064447485351561,-0.2154781494140625,7.316680273437499,0.2900763358778626,-26.641221374045802,-20.366412213740457,-1.16837041015625,0.9888052856445312,-0.33758243408203126,-42.47328244274809,60.778625954198475,-2.931297709923664,0.0
10.670000314712524,-10.302249743652343,0.6967126831054687,8.985438830566405,-1.1297709923664123,-40.25954198473283,-23.480916030534353,-4.070142822265625,0.38307226562499996,-0.46686932373046874,-47.37404580152672,77.87786259541984,-0.10687022900763359,0.0
10.68000078201294,-9.011775048828124,0.4261678955078125,9.859322436523437,4.427480916030534,-58.87022900763359,-27.068702290076335,-7.716511950683593,0.8164227661132812,0.9409212524414062,-34.76335877862596,79.09923664122137,-1.2671755725190839,0.0
10.690000534057617,-11.690886706542969,2.6910826660156246,9.787496386718749,-1.83206106870229,-75.74045801526718,-33.00763358778626,-13.53442198486328,0.38786066894531246,8.762778076171875,-46.0763358778626,95.70992366412214,-7.267175572519084,0.0
10.700000762939453,-13.01727442626953,1.9488801513671874,9.279925634765624,-1.465648854961832,-97.69465648854961,-30.564885496183205,-19.23501613769531,-0.16998831787109375,15.246276171875,-57.7557251908397,89.66412213740458,-12.458015267175572,0.0
10.71000051498413,-15.112200878906249,3.0334535034179684,8.185775476074218,6.977099236641221,-112.29007633587786,-27.96946564885496,-28.77351555175781,-6.5218053222656245,24.380155505371093,-56.396946564885496,56.58015267175573,-23.435114503816795,0.0
10.720000743865967,-13.524845178222655,2.877830395507812,3.782838623046875,17.435114503816795,-127.90839694656489,-19.633587786259543,-30.43509150390625,-9.093177905273437,21.727380065917966,-37.603053435114504,0.8702290076335878,-27.984732824427482,0.0
10.730000495910645,-13.970166687011718,4.283226770019531,1.3024457031249999,23.786259541984734,-121.77099236641222,-7.557251908396947,-22.467188378906247,1.3862427612304686,7.067683300781249,25.572519083969464,-52.82442748091603,7.450381679389313,0.0
10.740000486373901,-13.905523242187499,4.141968872070312,-0.7493851196289062,20.83969465648855,-122.1526717557252,9.206106870229007,-14.666879370117186,6.279990954589843,-0.5147533569335937,32.76335877862596,-73.29770992366412,26.610687022900763,0.0
10.750000476837158,-17.314866406249998,5.482721801757812,-1.01514150390625,21.053435114503817,-112.70229007633588,27.022900763358777,-8.851363537597656,3.19865341796875,-9.368511096191405,19.022900763358777,-77.86259541984732,30.290076335877863,0.0
10.760000467300415,-18.550274462890624,5.279214660644531,-0.28969840087890625,9.312977099236642,-111.57251908396947,44.50381679389313,-1.5179238525390624,-1.3120225097656248,-9.251195214843749,-37.11450381679389,-49.87786259541985,5.557251908396947,0.0
10.770000457763672,-19.397821850585938,3.6200329101562496,1.158793603515625,0.6106870229007634,-107.45038167938931,56.412213740458014,0.3687070556640625,-5.913678100585937,-6.943184814453125,-56.778625954198475,-25.923664122137403,-5.816793893129771,0.0
10.780000686645508,-16.156072802734375,-0.229843359375,0.30885201416015623,-0.6412213740458015,-105.32824427480917,58.274809160305345,-2.518700146484375,-6.995857250976562,-7.184999182128906,-46.58015267175573,-8.274809160305344,-18.65648854961832,0.0
10.790001153945923,-13.354856860351562,-1.3311761230468748,-1.0462661254882812,7.908396946564886,-90.16793893129771,52.67175572519084,-9.509768994140625,-6.002263562011718,-5.109226342773437,-36.82442748091603,14.870229007633588,-24.30534351145038,0.0
10.800000667572021,-8.544905725097657,-4.7764323120117185,-2.5234885498046875,24.68702290076336,-71.78625954198473,48.51908396946565,-11.494562170410155,-4.620809204101562,-4.618415002441406,-9.206106870229007,21.557251908396946,-22.427480916030536,0.0
10.810000896453857,-11.604695446777344,-1.3311761230468748,2.1356278808593747,33.69465648854962,-40.12213740458015,33.37404580152672,-12.303802331542968,-0.11013327636718749,-1.218648645019531,-6.213740458015267,40.091603053435115,-16.33587786259542,0.0
10.820000648498535,-13.026851232910156,1.0869675537109373,2.5617957763671875,21.206106870229007,-41.45038167938932,27.740458015267176,-15.67962667236328,-1.467645617675781,4.412513659667969,6.595419847328245,49.16030534351145,-2.2290076335877864,0.0
10.830000877380371,-9.911994873046874,-2.3032219970703123,1.9129671264648436,22.30534351145038,-39.63358778625954,39.16030534351145,-12.289437121582031,1.9632453613281249,1.7812860351562498,22.580152671755727,39.48091603053435,9.083969465648854,0.0
10.840000629425049,-6.160280871582031,-4.608838195800781,0.03591302490234375,29.66412213740458,-29.66412213740458,42.732824427480914,-10.93671318359375,3.1220389648437497,2.3965958618164063,34.68702290076336,39.25190839694657,20.18320610687023,0.0
10.850000619888306,-6.035782385253906,-4.4005426513671875,0.36391865234375,26.580152671755727,-19.6793893129771,33.3587786259542,-8.276755139160155,4.814739538574218,0.5363011718749999,40.152671755725194,33.61832061068702,27.709923664122137,0.0
10.860000610351562,-5.049371301269531,-5.2648494506835934,-0.612915625,27.633587786259543,-23.0381679389313,26.27480916030534,-8.343792785644531,2.85388837890625,0.46686932373046874,21.236641221374047,43.11450381679389,29.34351145038168,0.0
10.87000060081482,-4.8123453369140625,-4.529829541015625,-0.36152445068359373,34.85496183206107,-12.885496183206106,20.748091603053435,-9.356540087890625,-2.427720483398437,0.9241618408203125,35.06870229007634,40.56488549618321,33.23664122137404,0.0
10.880000591278076,-5.710170959472656,-2.549824768066406,0.05985504150390625,28.137404580152673,-8.320610687022901,6.793893129770993,-12.914323754882812,-4.134786267089844,2.437297290039062,55.770992366412216,38.045801526717554,30.412213740458014,0.0
10.890000581741333,-7.3286512817382805,-0.143652099609375,0.6584054565429687,15.17557251908397,-8.412213740458014,0.48854961832061067,-9.900023864746093,-1.8243816650390623,0.9074024291992187,50.80916030534351,35.02290076335878,17.770992366412212,0.0
10.90000057220459,-6.584054565429687,0.5770026000976562,0.5506663818359374,5.6183206106870225,-1.3740458015267176,-0.6870229007633588,-8.398859423828124,-1.1133037719726562,0.09337386474609374,47.02290076335878,32.58015267175573,12.50381679389313,0.0
10.910000324249268,-3.459621398925781,-1.1923124267578125,-1.4939818359375,-4.595419847328245,1.5572519083969465,-1.5267175572519085,-8.547299926757812,-0.9169792358398436,1.0342951171875,46.274809160305345,31.893129770992367,11.389312977099237,0.0
10.920000791549683,-3.6583401367187496,-0.8834604125976562,-0.9696516723632812,-13.34351145038168,13.511450381679388,-9.49618320610687,-10.043675964355469,-1.9129671264648436,2.04943662109375,47.45038167938932,32.74809160305343,9.969465648854962,0.0
10.93000054359436,-4.4196962646484375,0.009576806640625,-0.49799394531249996,-27.114503816793892,19.52671755725191,-17.755725190839694,-9.904812268066406,-0.6703764648437499,3.0526071166992184,45.37404580152672,31.64885496183206,8.091603053435115,0.0
10.940000772476196,-3.404554760742187,-1.5418658691406248,-1.68551796875,-32.83969465648855,23.770992366412212,-19.022900763358777,-9.943119494628906,-0.21068974609375,3.5625720703124997,42.961832061068705,28.30534351145038,7.526717557251908,0.0
10.950000286102295,-4.587290380859375,-2.039859814453125,-1.8602946899414061,-24.778625954198475,37.57251908396947,-18.366412213740457,-8.798691101074219,-0.6200982299804687,3.361459130859375,37.93893129770992,25.83206106870229,7.435114503816794,0.0
10.96000051498413,-4.46279189453125,-3.0310593017578125,-1.3718775512695311,1.4351145038167938,57.80152671755725,-15.389312977099237,-8.817844714355468,-0.9576806640625,4.675875842285156,31.6793893129771,23.66412213740458,8.15267175572519,0.0
10.970000505447388,-1.6065093139648436,-5.449202978515625,-3.057395520019531,11.236641221374045,65.63358778625954,-18.091603053435115,-10.223241088867187,-1.714248388671875,5.257666845703125,28.595419847328245,18.519083969465647,10.0,0.0
10.980000257492065,-2.73896669921875,-4.2880151733398435,-0.7852981445312499,31.358778625954198,88.25954198473282,-25.954198473282442,-10.817003100585938,-2.7653029174804686,7.606378674316406,28.442748091603054,15.221374045801527,13.297709923664122,0.0
10.990000486373901,-1.6927005737304686,-5.480327600097656,0.469263525390625,44.778625954198475,114.30534351145039,-37.343511450381676,-9.955090502929687,-0.01915361328125,5.76523759765625,29.19083969465649,5.251908396946565,11.816793893129772,0.0
11.000000238418579,-6.366182214355469,0.7350199096679687,4.560954162597656,43.465648854961835,121.17557251908397,-54.213740458015266,-8.750807067871094,1.5969325073242187,4.00310517578125,11.557251908396946,-1.0076335877862594,9.068702290076336,0.0
11.010000467300415,-6.6343328002929685,2.1739351074218747,5.149927770996094,51.86259541984733,118.25954198473282,-47.19083969465649,-10.754753857421875,0.08858546142578125,6.172251879882812,4.0,4.229007633587786,14.580152671755725,0.0
11.02000093460083,-8.930372192382812,6.4284314575195305,9.102754711914063,89.2824427480916,130.29007633587787,-28.30534351145038,-9.976638317871092,-0.43574470214843747,5.932831713867187,-0.6412213740458015,-3.099236641221374,14.534351145038167,0.0
11.030000686645508,-13.230358374023437,13.306972827148437,12.15536182861328,88.16793893129771,121.8473282442748,-19.84732824427481,-9.114725720214842,0.00718260498046875,4.367023828124999,-5.603053435114504,-6.99236641221374,10.305343511450381,0.0
11.040000438690186,-11.0707884765625,8.499415893554687,9.677363110351562,77.14503816793894,96.4885496183206,-1.4961832061068703,-9.935936889648437,-2.04943662109375,4.395754248046875,-0.8549618320610687,-10.65648854961832,14.458015267175572,0.0
11.05000114440918,-14.719551806640624,6.4739212890625,8.662221606445312,68.1526717557252,88.38167938931298,9.312977099236642,-10.563217724609375,-3.3327287109375,3.227383837890625,11.633587786259541,-21.709923664122137,16.290076335877863,0.0
11.060000658035278,-20.163966381835937,10.450690246582031,7.055712292480468,16.519083969465647,64.50381679389314,9.541984732824428,-9.481038574218749,-2.27927998046875,2.3056161987304686,3.2061068702290076,-18.137404580152673,13.648854961832061,0.0
11.070000886917114,-20.683508142089842,5.992686755371094,4.65432802734375,-11.511450381679388,37.37404580152672,32.030534351145036,-12.138602416992187,-3.6104561035156246,3.0406361083984375,11.541984732824428,-14.580152671755725,17.984732824427482,0.0
11.080000638961792,-20.293253271484375,-1.5059528442382812,9.311050256347656,-29.282442748091604,14.793893129770993,19.114503816793892,-11.726799731445311,-2.5139117431640625,2.592920397949219,11.938931297709924,-18.03053435114504,13.679389312977099,0.0
11.090000629425049,-17.101782458496093,-3.6487633300781246,10.800243688964843,-53.05343511450382,-10.870229007633588,-10.732824427480915,-10.579977136230468,-0.4572925170898437,2.252943762207031,3.8625954198473282,-16.549618320610687,6.519083969465649,0.0
11.100000619888306,-8.422801440429687,-2.1835119140624997,1.886630908203125,-34.030534351145036,-12.641221374045802,-17.908396946564885,-14.176068029785155,-3.1699229980468746,4.797980126953124,12.961832061068701,-17.72519083969466,8.83969465648855,0.0
11.110000371932983,-3.2249896362304686,-1.0534487304687499,-3.7134067749023436,-15.114503816793894,0.04580152671755725,-12.83969465648855,-14.037204333496092,-3.689464758300781,3.768473413085937,25.862595419847327,-26.412213740458014,5.694656488549619,0.0
11.12000060081482,-3.746925598144531,-2.1404162841796874,-3.1292215698242187,-4.213740458015267,16.931297709923665,-12.15267175572519,-14.547169287109375,-2.4349030883789062,3.612850305175781,32.213740458015266,-33.32824427480916,-1.1755725190839694,0.0
11.130000829696655,-2.3127988037109373,-3.4931402221679684,-5.003881469726562,16.99236641221374,33.267175572519086,-9.679389312977099,-14.027627526855468,0.5626373901367188,1.656787548828125,28.50381679389313,-44.67175572519084,-8.198473282442748,0.0
11.140000581741333,-3.423708374023437,-1.16837041015625,-4.9823336547851556,46.10687022900763,58.58015267175573,-7.740458015267175,-12.186486450195313,0.9552864624023437,1.6232687255859375,8.916030534351146,-43.11450381679389,-10.229007633587786,0.0
11.15000057220459,-7.685387329101562,3.6631285400390623,-2.1356278808593747,47.98473282442748,73.32824427480917,-8.793893129770993,-8.226476904296874,0.5985504150390625,0.7613561279296874,-3.1908396946564888,-38.13740458015267,-9.419847328244275,0.0
11.160000562667847,-11.942277880859374,6.495469104003906,0.4261678955078125,26.12213740458015,72.80916030534351,-8.50381679389313,-10.09395419921875,-0.4165910888671875,1.458068811035156,7.236641221374046,-31.709923664122137,-4.1679389312977095,0.0
11.170000314712524,-12.921506359863281,4.472368701171875,0.143652099609375,2.381679389312977,62.045801526717554,-4.0,-10.16338604736328,-1.5107412475585937,1.8602946899414061,22.99236641221374,-31.16030534351145,-6.152671755725191,0.0
11.18000078201294,-13.728352319335936,1.3263877197265623,1.2497732666015624,-9.114503816793894,56.717557251908396,-8.0,-8.391676818847655,-1.7429788085937499,3.4452561889648434,32.44274809160305,-25.374045801526716,-9.221374045801527,0.0
11.190000534057617,-12.464213842773436,0.8092401611328125,1.886630908203125,-21.61832061068702,47.52671755725191,-14.977099236641221,-6.157886669921875,3.3255461059570313,0.9648632690429687,26.244274809160306,-29.786259541984734,-16.198473282442748,0.0
11.200000762939453,-12.53843409423828,2.789244934082031,2.427720483398437,-39.89312977099237,37.31297709923664,-19.404580152671755,-8.51617530517578,4.826710546875,2.1787235107421874,17.69465648854962,-14.244274809160306,-9.221374045801527,0.0
11.21000051498413,-10.752359655761719,1.448492004394531,1.4125789794921875,-44.900763358778626,32.47328244274809,-16.12213740458015,-10.096348400878906,3.4739866088867184,1.4604630126953124,12.610687022900763,-6.0458015267175576,-2.198473282442748,0.0
11.220000743865967,-7.843404638671874,-0.3064578125,-1.1037269653320312,-40.091603053435115,26.427480916030536,-11.557251908396946,-10.450690246582031,3.775656018066406,1.3958195678710936,-1.8015267175572518,0.3511450381679389,-1.1603053435114503,0.0
11.230000495910645,-11.214440576171874,1.1372457885742187,0.47644613037109373,-41.86259541984733,33.32824427480916,-14.106870229007633,-12.916717956542968,1.4221557861328125,3.603273498535156,-2.7786259541984735,5.8320610687022905,1.3587786259541985,0.0
11.240000486373901,-10.259154113769531,-0.09816226806640624,0.24660277099609373,-36.93129770992366,35.19083969465649,-14.961832061068701,-13.089100476074218,-1.5418658691406248,4.2521021484374995,7.984732824427481,-4.0458015267175576,-0.6412213740458015,0.0
11.250000476837158,-8.449137658691406,-1.8435352783203125,-1.5322890624999999,-29.83206106870229,29.0381679389313,-14.290076335877863,-12.74912384033203,-1.005564697265625,3.4715924072265625,22.12213740458015,-24.30534351145038,-6.091603053435114,0.0
11.260000705718994,-7.654262707519531,-2.0278888061523435,-1.7764976318359373,-10.412213740458014,33.31297709923664,-14.854961832061068,-10.156203442382813,2.27927998046875,2.9855694702148434,8.900763358778626,-25.0381679389313,-13.541984732824428,0.0
11.270000696182251,-7.893682873535155,-0.4836287353515625,-1.139639990234375,-2.6412213740458017,40.6412213740458,-15.511450381679388,-10.24000050048828,1.1611878051757811,4.311957189941406,10.274809160305344,-24.595419847328245,-6.809160305343512,0.0
11.280000448226929,-9.732429748535155,1.0606313354492187,-0.42377369384765623,-3.450381679389313,42.12213740458015,-16.625954198473284,-11.528080993652344,0.22505495605468748,4.7189714721679685,18.885496183206108,-32.62595419847328,-5.450381679389313,0.0
11.290000915527344,-9.957484704589843,2.5617957763671875,-0.09816226806640624,-5.175572519083969,42.0,-14.748091603053435,-9.227253198242186,0.8020575561523438,4.04141240234375,12.274809160305344,-37.51145038167939,-7.114503816793893,0.0
11.300000667572021,-12.847286108398437,3.555389465332031,2.1356278808593747,-16.015267175572518,41.29770992366412,-11.389312977099237,-10.24718310546875,0.1388636962890625,5.422866760253906,18.793893129770993,-38.30534351145038,-4.977099236641221,0.0
11.310000896453857,-11.042058056640624,3.4093431640625,1.8531120849609375,-25.6793893129771,36.93129770992366,-9.526717557251908,-7.520187414550781,0.9911994873046874,3.8091748413085935,9.16030534351145,-40.58015267175573,-6.549618320610687,0.0
11.320000648498535,-10.570400329589843,2.602497204589844,1.5322890624999999,-34.88549618320611,31.19083969465649,-6.854961832061068,-7.297526660156249,0.9744400756835937,2.9927520751953125,6.549618320610687,-44.38167938931298,-6.458015267175573,0.0
11.330000638961792,-11.152191333007812,3.0430303100585934,2.042254016113281,-43.587786259541986,25.587786259541986,-8.183206106870228,-7.249642626953125,1.446097802734375,4.158728283691406,-8.351145038167939,-33.404580152671755,-5.66412213740458,0.0
11.34000039100647,-11.267113012695312,1.5945383056640625,2.0542250244140625,-51.847328244274806,22.091603053435115,-6.8396946564885495,-10.996568225097656,-1.5658078857421873,6.363788012695312,0.44274809160305345,-31.206106870229007,-0.3053435114503817,0.0
11.350000619888306,-8.78432589111328,-1.9584569580078124,0.7589619262695312,-38.25954198473283,19.64885496183206,-5.908396946564886,-8.061276989746093,0.5315127685546874,1.7621324218749999,3.7099236641221376,-48.213740458015266,-7.511450381679389,0.0
11.360000371932983,-11.092336291503905,0.928950244140625,2.2553379638671873,-36.16793893129771,18.50381679389313,-10.091603053435115,-9.926360083007811,-0.5219359619140624,5.8226984375,0.0,-33.51145038167939,-5.877862595419847,0.0
11.370000839233398,-9.370905297851563,0.19871873779296872,1.0606313354492187,-44.030534351145036,8.351145038167939,-7.923664122137405,-12.552799304199217,-2.3774422485351563,4.426878869628906,19.61832061068702,-50.44274809160305,-4.67175572519084,0.0
11.380000591278076,-8.415618835449218,-2.31758720703125,0.13168109130859373,-27.00763358778626,7.419847328244275,-4.977099236641221,-8.463502868652343,1.4221557861328125,2.710236279296875,7.8320610687022905,-54.76335877862596,-10.916030534351146,0.0
11.390000343322754,-9.14824454345703,-1.7860744384765623,0.842758984375,-10.320610687022901,13.236641221374045,-3.49618320610687,-9.677363110351562,0.011971008300781249,4.1946413085937495,13.48091603053435,-51.70992366412214,-6.916030534351145,0.0
11.40000057220459,-9.890447058105469,0.44053310546874996,1.675941162109375,-4.641221374045801,15.450381679389313,-8.687022900763358,-8.398859423828124,0.37828386230468747,3.746925598144531,8.50381679389313,-52.44274809160305,-8.335877862595419,0.0
11.410000562667847,-9.871293444824218,-0.062249243164062495,1.4604630126953124,-0.44274809160305345,12.564885496183207,-6.488549618320611,-8.688557824707031,0.4381389038085937,3.754108203125,19.66412213740458,-55.51145038167939,-6.687022900763359,0.0
11.420000791549683,-8.228871105957031,-0.2561795776367187,0.5698199951171875,16.061068702290076,10.763358778625955,-4.641221374045801,-6.598419775390624,1.0845733520507812,3.4165257690429685,4.732824427480916,-49.9236641221374,-9.221374045801527,0.0
11.430000305175781,-12.267889306640624,2.6527754394531247,3.1483751831054687,8.290076335877863,15.587786259541986,-8.931297709923664,-8.145074047851562,-1.0989385620117187,5.267243652343749,13.450381679389313,-45.099236641221374,-6.488549618320611,0.0
11.440000772476196,-12.571952917480468,3.4620156005859375,2.9448680419921875,-6.152671755725191,9.114503816793894,-12.274809160305344,-6.56968935546875,0.4429273071289062,4.024652990722656,6.625954198473282,-44.38167938931298,-9.954198473282442,0.0
11.450000524520874,-10.352527978515624,2.1021090576171875,2.133233679199219,-8.931297709923664,3.8931297709923665,-6.091603053435114,-7.771578588867187,-1.1468225952148436,5.173869787597656,10.763358778625955,-38.6412213740458,-7.038167938931298,0.0
11.46000075340271,-8.667010009765624,0.86191259765625,1.0654197387695312,1.8015267175572518,-0.366412213740458,-2.9618320610687023,-4.9823336547851556,0.9313444458007812,2.8467057739257813,-0.9465648854961832,-40.229007633587784,-12.229007633587786,0.0
11.470000505447388,-8.568847741699217,2.3535002319335936,1.5035586425781249,3.66412213740458,0.16793893129770993,-3.786259541984733,-5.954379528808594,0.4525041137695312,4.843469958496094,-5.465648854961832,-19.0381679389313,-9.969465648854962,0.0
11.480000495910645,-8.14028564453125,1.649604943847656,1.6472107421875,3.053435114503817,-1.8931297709923665,-4.366412213740458,-9.334992272949219,-1.924938134765625,5.645527514648437,3.6030534351145036,-16.3206106870229,-5.7251908396946565,0.0
11.490000486373901,-9.598354455566406,1.2401964599609374,1.407790576171875,5.633587786259542,-7.312977099236641,-5.465648854961832,-8.473079675292968,-1.39821376953125,4.352658618164062,14.244274809160306,-27.81679389312977,-9.450381679389313,0.0
11.500000238418579,-9.552864624023437,1.1133037719726562,1.7429788085937499,10.946564885496183,-4.870229007633588,-7.709923664122138,-4.8889597900390624,2.185906115722656,2.6862942626953124,5.8320610687022905,-25.053435114503817,-15.664122137404581,0.0
11.510000705718994,-9.888052856445311,2.3151930053710936,2.2601263671875,2.732824427480916,-5.282442748091603,-8.412213740458014,-5.944802722167968,1.8219874633789062,4.630386010742187,-4.595419847328245,-4.702290076335878,-11.312977099236642,0.0
11.520000696182251,-7.943961108398437,1.5346832641601562,2.1068974609374997,4.198473282442748,-5.236641221374046,-6.625954198473282,-5.762843395996094,1.218648645019531,3.8953661010742184,-21.297709923664122,-1.2061068702290076,-8.458015267175572,0.0
11.530000686645508,-6.584054565429687,0.9026140258789062,1.3263877197265623,12.106870229007633,-4.793893129770993,-3.145038167938931,-7.211335400390625,0.16998831787109375,4.07971962890625,-16.870229007633586,2.198473282442748,-5.7251908396946565,0.0
11.540000677108765,-8.291120349121094,2.9951462768554684,2.5737667846679684,14.763358778625955,-1.633587786259542,-6.809160305343512,-6.868964562988281,0.2920926025390625,3.67749375,-18.702290076335878,1.6030534351145038,-6.015267175572519,0.0
11.5500009059906,-10.74517705078125,3.4524387939453125,2.7653029174804686,5.282442748091603,-10.564885496183207,-5.679389312977099,-6.691793640136718,0.5219359619140624,3.852270471191406,-14.0,3.1908396946564888,-5.587786259541985,0.0
11.560000658035278,-8.374917407226562,1.1611878051757811,2.118868469238281,9.236641221374045,-14.320610687022901,-0.8244274809160306,-6.6343328002929685,0.6488286499023437,4.235342736816406,-14.778625954198473,4.366412213740458,-4.931297709923665,0.0
11.570000886917114,-10.601524951171875,1.6735469604492186,3.4165257690429685,8.885496183206106,-12.534351145038167,-4.519083969465649,-5.315127685546875,0.86191259765625,3.5673604736328124,-21.022900763358777,3.8931297709923665,-6.137404580152672,0.0
11.580000638961792,-10.912771166992187,1.85790048828125,4.149151477050781,1.9236641221374047,-23.480916030534353,-7.435114503816794,-5.422866760253906,0.5434837768554687,3.392583752441406,-18.946564885496183,7.038167938931298,-4.9465648854961835,0.0
11.590000629425049,-10.062829577636718,0.8188169677734375,4.266467358398438,4.427480916030534,-31.022900763358777,-7.358778625954199,-6.330269189453125,0.031124621582031248,4.132392065429687,-20.15267175572519,7.541984732824427,-3.8473282442748094,0.0
11.600000381469727,-7.501033801269531,-1.1133037719726562,2.3295582153320313,9.053435114503817,-34.18320610687023,-8.717557251908397,-1.369483349609375,3.047818713378906,0.9241618408203125,-38.0763358778626,1.450381679389313,-11.007633587786259,0.0
11.610000371932983,-6.730100866699218,-0.5506663818359374,2.1978771240234374,9.236641221374045,-33.6793893129771,-14.641221374045802,-1.3814543579101561,2.8562825805664063,3.450044592285156,-62.93129770992366,38.35114503816794,-4.519083969465649,0.0
11.62000060081482,-7.754819177246094,-0.062249243164062495,3.9983167724609374,11.32824427480916,-30.931297709923665,-17.786259541984734,-3.6535517333984373,-0.3327940307617187,2.5234885498046875,-64.3969465648855,37.32824427480916,7.648854961832061,0.0
11.630000591278076,-6.76122548828125,0.4572925170898437,3.1220389648437497,18.900763358778626,-36.3206106870229,-19.83206106870229,-2.834734765625,0.44532150878906246,2.9568390502929685,-70.7175572519084,51.52671755725191,2.717557251908397,0.0
11.640000581741333,-6.423643054199219,0.4165910888671875,2.0302830078125,17.96946564885496,-31.633587786259543,-20.106870229007633,-3.086125939941406,-0.1292868896484375,2.291250988769531,-65.29770992366412,50.56488549618321,10.564885496183207,0.0
11.65000057220459,-6.449979272460937,0.1149216796875,2.039859814453125,12.183206106870228,-31.022900763358777,-24.396946564885496,-6.059724401855468,-1.8770541015625,4.886565588378906,-62.01526717557252,65.63358778625954,8.473282442748092,0.0
11.660000562667847,-8.688557824707031,1.5322890624999999,2.990357873535156,8.259541984732824,-30.18320610687023,-26.366412213740457,-5.140350964355468,-1.8028338500976562,2.4013842651367185,-52.13740458015267,54.61068702290076,8.870229007633588,0.0
11.670000553131104,-9.124302526855468,1.62805712890625,4.283226770019531,11.541984732824428,-33.02290076335878,-27.61832061068702,-6.720524060058593,-3.1220389648437497,5.219359619140625,-45.9236641221374,64.6412213740458,4.778625954198473,0.0
11.68000078201294,-8.805873706054687,0.833182177734375,4.431667272949219,13.755725190839694,-38.18320610687023,-27.053435114503817,-6.047753393554687,-4.563348364257812,3.7205893798828122,-42.48854961832061,59.63358778625954,5.206106870229007,0.0
11.690000534057617,-11.789048974609374,3.6272155151367187,6.519411120605469,12.13740458015267,-36.0763358778626,-34.74809160305343,-5.91846650390625,-4.900930798339844,3.189076611328125,-27.114503816793892,55.14503816793893,-0.8396946564885496,0.0
11.700000762939453,-11.441889733886718,4.955997436523437,7.678204724121093,-1.9083969465648856,-58.717557251908396,-35.55725190839695,-4.237736938476562,-1.946485949707031,1.2976572998046874,-21.129770992366414,48.6412213740458,-8.045801526717558,0.0
11.71000051498413,-9.30147344970703,2.291250988769531,6.998251452636718,-3.5877862595419847,-80.61068702290076,-28.9618320610687,-6.059724401855468,-1.9895815795898437,3.229778039550781,-20.916030534351144,56.717557251908396,-7.694656488549619,0.0
11.720000743865967,-11.96382569580078,4.012681982421875,8.681375219726561,-11.770992366412214,-93.1145038167939,-32.88549618320611,-9.756371765136718,-5.260061047363281,6.038176586914062,-13.49618320610687,61.86259541984733,-10.778625954198473,0.0
11.730000495910645,-11.9518546875,3.892971899414062,7.307103466796875,-28.885496183206108,-125.6793893129771,-34.396946564885496,-12.835315100097656,0.076614453125,5.6574985229492185,3.4198473282442747,47.7557251908397,-25.96946564885496,0.0
11.740000247955322,-14.669273571777342,4.182670300292968,5.76523759765625,-33.05343511450382,-146.44274809160305,-25.893129770992367,-16.86236229248047,3.5889082885742187,10.120290417480469,-8.320610687022901,47.80152671755725,-34.58015267175573,0.0
11.750000476837158,-15.416264489746093,4.058171813964844,2.308010400390625,-32.274809160305345,-160.42748091603053,-9.893129770992367,-32.084696447753906,-2.7246014892578123,25.75921566162109,6.580152671755725,34.534351145038165,-27.587786259541986,0.0
11.760000705718994,-13.747505932617187,1.2401964599609374,-0.06703764648437499,-11.053435114503817,-163.23664122137404,7.938931297709924,-37.63445589599609,-11.686098303222655,24.904485668945313,35.221374045801525,-26.717557251908396,-22.519083969465647,0.0
11.770000696182251,-18.432958581542966,5.0757075195312495,-0.16998831787109375,3.6030534351145036,-148.13740458015266,21.954198473282442,-27.65063497314453,-0.488417138671875,7.371746911621093,71.8473282442748,-77.1145038167939,-6.748091603053435,0.0
11.780000686645508,-20.39141553955078,7.381323718261719,0.06703764648437499,-2.198473282442748,-146.93129770992365,43.12977099236641,-14.681244580078124,5.7843912109375,-1.5155296508789062,47.43511450381679,-94.85496183206106,6.99236641221374,0.0
11.790000438690186,-19.254169750976562,5.659892724609374,-0.9959878906249999,-9.465648854961833,-146.73282442748092,63.51145038167939,-7.6614453125,0.6272808349609375,-8.295908752441406,-2.0916030534351147,-79.89312977099236,5.648854961832061,0.0
11.800000667572021,-21.332336791992187,4.101267443847656,2.3223756103515623,-28.03053435114504,-130.70229007633588,76.83969465648855,-3.1603461914062496,-2.2361843505859373,-6.969521032714844,-24.213740458015266,-67.96946564885496,-5.511450381679389,0.0
11.810000896453857,-19.44570588378906,0.011971008300781249,1.2138602416992186,-36.56488549618321,-133.75572519083968,74.03053435114504,-4.762067102050781,-3.239354846191406,-3.8379052612304685,-36.900763358778626,-51.49618320610687,-13.877862595419847,0.0
11.820000648498535,-14.805743066406249,-4.149151477050781,0.44053310546874996,-23.435114503816795,-120.04580152671755,69.3587786259542,-2.4660277099609376,-1.848323681640625,-8.89924757080078,-51.89312977099237,-43.603053435114504,-22.15267175572519,0.0
11.830000877380371,-11.719617126464843,-5.219359619140625,2.0757728393554684,-7.099236641221374,-90.22900763358778,57.49618320610687,-6.210559106445312,1.4341267944335936,-5.513846423339843,-49.80152671755725,2.8244274809160306,-6.824427480916031,0.0
11.840000629425049,-8.621520178222656,-7.575254052734374,2.5713725830078125,18.229007633587788,-66.03053435114504,50.06106870229008,-10.345345373535155,-0.028730419921875,-5.442020373535156,-41.969465648854964,18.137404580152673,8.687022900763358,0.0
11.850000619888306,-12.251129895019531,-2.6599580444335937,5.76523759765625,26.610687022900763,-44.94656488549618,37.38931297709924,-12.028469140624999,0.05027823486328125,-2.01112939453125,-28.793893129770993,41.954198473282446,12.488549618320612,0.0
11.860000610351562,-10.575188732910156,-3.0693665283203124,4.189852905273438,33.587786259541986,-48.10687022900763,41.14503816793893,-12.095506787109374,1.2018892333984375,-1.4891934326171874,-31.84732824427481,68.53435114503817,16.229007633587788,0.0
11.87000036239624,-8.169016064453125,-3.708618371582031,4.529829541015625,27.938931297709924,-39.06870229007634,47.61832061068702,-12.04762275390625,-0.9169792358398436,-1.16837041015625,-25.206106870229007,83.95419847328245,24.83969465648855,0.0
11.880000591278076,-7.110778930664062,-3.5482068603515624,2.0159177978515626,28.99236641221374,-40.045801526717554,43.19083969465649,-8.489839086914062,2.1452046874999997,-3.507505432128906,-15.755725190839694,79.1145038167939,24.916030534351144,0.0
11.890000581741333,-9.53131680908203,-0.9911994873046874,2.961627453613281,13.679389312977099,-33.31297709923664,33.282442748091604,-9.610325463867188,2.896984008789062,-1.9225439331054686,-10.244274809160306,86.50381679389314,30.793893129770993,0.0
11.90000057220459,-8.645462194824217,-2.109291662597656,3.5218706420898434,5.923664122137405,-34.25954198473283,28.3206106870229,-11.899182250976562,0.45968671875,0.928950244140625,10.931297709923664,84.79389312977099,44.68702290076336,0.0
11.910000324249268,-6.986280444335937,-3.392583752441406,3.4739866088867184,11.19083969465649,-29.557251908396946,23.099236641221374,-11.192892761230468,-0.8451531860351562,1.2282254516601563,24.900763358778626,74.04580152671755,46.54961832061068,0.0
11.920000791549683,-5.966350537109375,-2.990357873535156,1.2808978881835937,21.267175572519083,-22.641221374045802,13.801526717557252,-9.72285294189453,-0.27293898925781246,1.2138602416992186,11.221374045801527,81.96946564885496,38.80916030534351,0.0
11.930000305175781,-6.782773303222656,-1.3335703247070312,0.74699091796875,15.099236641221374,-19.236641221374047,10.67175572519084,-7.249642626953125,0.43574470214843747,0.8355763793945312,13.450381679389313,73.57251908396947,31.49618320610687,0.0
11.940000772476196,-3.5697546752929687,-2.6815058593749996,-0.6560112548828124,17.083969465648856,-13.19083969465649,9.48091603053435,-3.3877953491210935,1.7836802368164062,-1.5634136840820312,-4.1679389312977095,68.07633587786259,24.595419847328245,0.0
11.950000524520874,-5.947196923828125,-0.4860229370117187,0.7900865478515624,15.908396946564885,4.0,2.198473282442748,-3.8953661010742184,2.042254016113281,-1.1875240234375,-31.404580152671755,79.1145038167939,22.15267175572519,0.0
11.96000075340271,-5.394136340332031,0.7493851196289062,-0.06464344482421874,5.3893129770992365,5.358778625954199,-4.809160305343512,-9.220070593261719,-5.082890124511718,4.043806604003906,-29.923664122137403,83.41984732824427,28.16793893129771,0.0
11.970000505447388,-4.857835168457031,0.19393033447265623,-0.1867477294921875,-0.6564885496183206,10.213740458015268,-5.938931297709924,-8.008604553222655,-2.1811177124023438,2.6599580444335937,-0.9007633587786259,65.26717557251908,28.38167938931298,0.0
11.980000495910645,-2.8419173706054686,-1.9776105712890624,-1.7238251953125,3.969465648854962,13.664122137404581,-5.923664122137405,-10.005368737792969,-4.6351744140625,4.8506525634765625,-1.8778625954198473,60.229007633587784,21.72519083969466,0.0
11.990000486373901,-1.8339584716796873,-2.31758720703125,-2.2194249389648437,13.541984732824428,30.870229007633586,-9.145038167938932,-9.763554370117188,-6.9719152343749995,6.320692382812499,30.53435114503817,44.61068702290076,17.954198473282442,0.0
12.000000476837158,-1.1755530151367186,-2.7916391357421872,-3.361459130859375,15.954198473282442,36.83969465648855,-17.31297709923664,-8.542511523437499,-3.912125512695312,4.80755693359375,34.091603053435115,35.404580152671755,8.13740458015267,0.0
12.010000705718994,-3.0047230834960934,-1.1611878051757811,-1.649604943847656,16.198473282442748,51.11450381679389,-22.580152671755727,-8.221688500976562,-2.166752502441406,4.027047192382812,25.435114503816795,25.31297709923664,1.0076335877862594,0.0
12.020000457763672,-3.727771984863281,-0.22266075439453123,-0.8044517578125,7.969465648854962,59.25190839694657,-24.931297709923665,-9.052476477050782,-1.254561669921875,4.546588952636719,21.6793893129771,19.404580152671755,1.6030534351145038,0.0
12.030000686645508,-3.6343981201171873,0.4644751220703125,-0.277727392578125,4.748091603053435,65.6030534351145,-22.213740458015266,-11.077971081542968,-0.18435352783203124,5.343858105468749,25.72519083969466,14.16793893129771,8.15267175572519,0.0
12.040000677108765,-4.493916516113281,0.8882488159179687,1.2042834350585936,2.3053435114503817,74.12213740458016,-19.72519083969466,-10.230423693847655,0.7278373046875,3.6008792968749996,29.251908396946565,6.061068702290076,12.320610687022901,0.0
12.050000429153442,-5.312733483886719,1.369483349609375,2.308010400390625,8.15267175572519,80.38167938931298,-16.015267175572518,-8.429984045410155,1.2689268798828124,3.383006945800781,28.076335877862597,3.053435114503817,14.748091603053435,0.0
12.060000658035278,-5.923254907226562,1.687912170410156,3.725377783203125,18.625954198473284,84.91603053435115,-10.13740458015267,-8.386888415527343,0.23223756103515625,3.718195178222656,25.96946564885496,3.312977099236641,17.435114503816795,0.0
12.070000886917114,-7.137115148925781,2.291250988769531,5.923254907226562,27.435114503816795,87.32824427480917,-7.465648854961832,-6.619967590332031,-0.32561142578124996,1.5705962890624998,18.9618320610687,5.00763358778626,17.84732824427481,0.0
12.080203771591187,-10.254365710449218,4.6639048339843745,9.504980590820312,21.236641221374047,77.78625954198473,-8.076335877862595,-7.151480358886718,-1.3168109130859373,1.4245499877929686,19.31297709923664,8.854961832061068,19.251908396946565,0.0
12.090000629425049,-11.379640490722656,4.340687609863281,10.613495959472656,29.236641221374047,72.47328244274809,-3.7251908396946565,-7.275978845214843,-1.4173673828125,0.7709329345703124,13.954198473282442,13.404580152671755,18.35114503816794,0.0
12.100000619888306,-11.757924353027343,7.0461354858398435,11.099518896484375,13.297709923664122,55.25190839694657,-3.068702290076336,-9.852139831542969,-2.0278888061523435,2.528276953125,18.244274809160306,15.526717557251908,14.595419847328245,0.0
12.110000371932983,-13.441048120117186,8.106766821289062,11.197681164550781,-8.885496183206106,37.52671755725191,7.908396946564886,-11.068394274902342,-2.8802245971679685,3.902548706054687,11.893129770992367,14.870229007633588,10.763358778625955,0.0
12.12000060081482,-9.447519750976562,2.8802245971679685,7.0102224609374995,-5.206106870229007,23.908396946564885,24.885496183206108,-13.429077111816406,-3.7397429931640622,5.403713146972656,12.65648854961832,8.67175572519084,9.19083969465649,0.0
12.130000591278076,-8.667010009765624,1.2521674682617188,7.316680273437499,15.954198473282442,26.900763358778626,31.954198473282442,-12.548010900878905,-3.3638533325195312,6.117185241699218,14.67175572519084,-0.3969465648854962,10.82442748091603,0.0
12.140000581741333,-10.577582934570312,4.5585599609375,8.183381274414062,15.740458015267176,21.435114503816795,31.557251908396946,-9.686939916992188,0.12210428466796874,4.110844250488281,15.114503816793894,-13.786259541984732,10.381679389312977,0.0
12.15000033378601,-8.267178332519531,3.9552211425781247,3.794809631347656,22.99236641221374,15.938931297709924,46.70229007633588,-9.87608184814453,0.5267243652343749,4.3263223999023435,5.465648854961832,-12.091603053435115,19.786259541984734,0.0
12.160000562667847,-6.9360022094726554,0.5865794067382812,2.530671154785156,41.19083969465649,17.633587786259543,63.29770992366412,-8.736441857910156,0.603338818359375,3.5051112304687497,8.320610687022901,-12.625954198473282,26.229007633587788,0.0
12.170000553131104,-7.690175732421874,-1.9393033447265624,1.1348515869140625,50.213740458015266,30.916030534351144,66.58015267175573,-7.388506323242187,1.2617442749023438,3.009511486816406,0.4122137404580153,-13.648854961832061,24.885496183206108,0.0
12.18000078201294,-6.926425402832031,-5.303156677246093,-1.216254443359375,50.06106870229008,43.267175572519086,55.099236641221374,-9.251195214843749,-0.6512228515624999,4.276044165039062,-2.183206106870229,-12.290076335877863,24.732824427480917,0.0
12.190000534057617,-7.331045483398437,-9.974244116210937,4.589684582519531,30.076335877862597,54.916030534351144,20.671755725190838,-10.8409451171875,-1.1372457885742187,4.489128112792969,3.145038167938931,-18.580152671755727,21.068702290076335,0.0
12.200000762939453,-10.843339318847656,-7.1035963256835934,9.205705383300781,-2.427480916030534,45.725190839694655,-20.900763358778626,-12.064382165527343,0.32082302246093747,3.7517140014648436,-6.580152671755725,-23.786259541984734,13.679389312977099,0.0
12.21000051498413,-13.57272921142578,-3.0621839233398433,7.381323718261719,-3.786259541984733,43.14503816793893,-31.96946564885496,-12.299013928222655,-0.28490999755859375,4.417302062988281,-13.465648854961833,-26.83969465648855,14.83969465648855,0.0
12.220000743865967,-15.703568688964843,0.1867477294921875,3.794809631347656,-14.030534351145038,40.01526717557252,-28.015267175572518,-11.188104357910156,0.0430956298828125,4.441244079589843,-19.450381679389313,-32.2442748091603,14.244274809160306,0.0
12.230000495910645,-18.90940471191406,3.1699229980468746,6.344634399414062,-12.335877862595419,34.778625954198475,-16.50381679389313,-11.781866369628906,0.3232172241210937,2.5641899780273434,-24.625954198473284,-43.64885496183206,15.603053435114504,0.0
12.240000247955322,-13.864821813964843,3.3351229125976563,-0.47165772705078124,5.251908396946565,24.68702290076336,0.4732824427480916,-13.354856860351562,-1.120486376953125,2.877830395507812,-38.54961832061068,-45.05343511450382,17.603053435114504,0.0
12.250000476837158,-13.290213415527344,3.181894006347656,-3.1220389648437497,4.534351145038168,25.541984732824428,-2.885496183206107,-15.203180541992186,-6.114791040039062,3.35188232421875,-30.53435114503817,-52.68702290076336,16.9618320610687,0.0
12.260000705718994,-12.279860314941406,2.6048914062499997,-2.8203695556640622,-5.3893129770992365,25.099236641221374,-14.595419847328245,-17.176002709960937,-6.7277066650390625,2.5426421630859375,-19.954198473282442,-64.47328244274809,8.01526717557252,0.0
12.270000696182251,-6.9527616210937495,0.7517793212890624,-4.474762902832031,6.473282442748092,23.328244274809162,-11.877862595419847,-18.28451807861328,-8.568847741699217,4.465186096191406,5.7251908396946565,-69.58778625954199,0.2595419847328244,0.0
12.280000925064087,-5.849034655761718,-1.43652099609375,-3.9695863525390624,29.64885496183206,39.89312977099237,-10.625954198473282,-15.91665263671875,-4.8123453369140625,1.005564697265625,35.89312977099237,-86.54961832061069,-17.69465648854962,0.0
12.290001153945923,-7.955932116699218,1.4700398193359374,-1.5442600708007812,29.740458015267176,49.86259541984733,-18.458015267175572,-15.294160205078125,-1.8938135131835936,0.7206546997070312,40.396946564885496,-80.65648854961832,-33.48091603053435,0.0
12.300000429153442,-8.705317236328124,2.262520568847656,-1.2497732666015624,18.38167938931298,51.19083969465649,-17.450381679389313,-11.75313594970703,3.246537451171875,-1.9895815795898437,36.80916030534351,-68.74809160305344,-40.29007633587786,0.0
12.310000896453857,-11.465831750488281,3.0813375366210938,-0.05746083984375,5.206106870229007,51.19083969465649,-15.038167938931299,-12.267889306640624,5.439626171875,-1.6615759521484375,51.587786259541986,-52.0,-36.0,0.0
12.320000648498535,-12.629413757324219,2.530671154785156,0.12210428466796874,-9.34351145038168,49.083969465648856,-15.419847328244275,-9.0788126953125,9.363722692871093,-4.489128112792969,20.625954198473284,-41.32824427480916,-39.11450381679389,0.0
12.330000877380371,-11.547234606933593,3.0454245117187497,-0.4572925170898437,-25.51145038167939,44.42748091603053,-14.900763358778626,-6.880935571289062,7.824251025390624,-2.1021090576171875,-1.8931297709923665,-15.664122137404581,-22.900763358778626,0.0
12.34000039100647,-12.006921325683592,3.1794998046874996,-0.4285620971679687,-42.80916030534351,41.41984732824427,-15.541984732824428,-11.334150659179686,0.5123591552734374,3.0142998901367184,5.740458015267175,-1.4198473282442747,-13.129770992366412,0.0
12.350000619888306,-12.263100903320312,1.024718310546875,-0.833182177734375,-55.969465648854964,32.88549618320611,-18.610687022900763,-9.33978067626953,2.916137622070312,1.7669208251953124,5.419847328244275,-6.595419847328245,-15.557251908396946,0.0
12.360000610351562,-12.713210815429687,2.8107927490234372,0.8690952026367187,-54.50381679389313,35.343511450381676,-18.106870229007633,-11.073182678222656,2.35589443359375,4.881777185058594,10.870229007633588,0.9007633587786259,-10.290076335877863,0.0
12.37000060081482,-10.273519323730468,1.1875240234375,-0.7422025146484375,-66.73282442748092,31.83206106870229,-15.801526717557252,-11.434707128906249,0.7445967163085937,4.039018200683594,26.870229007633586,-12.366412213740459,-8.274809160305344,0.0
12.380000591278076,-8.422801440429687,-2.0183119995117185,-1.8650830932617186,-53.770992366412216,36.67175572519084,-13.358778625954198,-10.319009155273436,2.2864625854492187,1.8531120849609375,31.282442748091604,-29.16030534351145,-10.198473282442748,0.0
12.390000581741333,-7.0844427124023435,-3.670311145019531,-1.2042834350585936,-24.091603053435115,57.23664122137404,-14.488549618320612,-7.343016491699219,6.038176586914062,1.1947066284179686,4.396946564885496,-26.748091603053435,-12.51908396946565,0.0
12.40000057220459,-8.078036401367187,0.023942016601562498,0.42377369384765623,-18.33587786259542,65.14503816793894,-20.137404580152673,-9.277531433105468,3.3399113159179685,2.9831752685546875,-3.0229007633587788,-18.671755725190838,-3.450381679389313,0.0
12.410000562667847,-7.850587243652344,1.1540052001953125,-0.239420166015625,-22.045801526717558,63.20610687022901,-21.083969465648856,-8.015787158203125,4.278438366699218,0.12689268798828124,-10.274809160305344,-28.900763358778626,0.10687022900763359,0.0
12.420000314712524,-12.222399475097655,6.330269189453125,2.7653029174804686,-32.091603053435115,68.16793893129771,-22.442748091603054,-10.587159741210938,2.2936451904296873,3.897760302734375,-22.48854961832061,-14.580152671755725,6.061068702290076,0.0
12.43000054359436,-11.097124694824219,4.548983154296875,1.889025109863281,-54.87022900763359,50.961832061068705,-10.473282442748092,-10.965443603515624,0.062249243164062495,2.8275521606445313,-8.122137404580153,-28.38167938931298,9.389312977099237,0.0
12.440000772476196,-10.644620581054687,2.5354595581054684,2.0254946044921875,-51.17557251908397,46.85496183206107,-4.8396946564885495,-9.277531433105468,1.24498486328125,1.889025109863281,-26.27480916030534,-27.297709923664122,1.5419847328244274,0.0
12.450000524520874,-8.786720092773438,0.373495458984375,2.6479870361328124,-37.19083969465649,47.48091603053435,0.732824427480916,-9.306261853027344,-1.3431471313476562,2.8945898071289062,-17.740458015267176,-31.450381679389313,2.4122137404580153,0.0
12.46000051498413,-10.39322940673828,3.0645781249999997,3.4620156005859375,-38.458015267175576,41.083969465648856,-4.732824427480916,-8.106766821289062,-0.9026140258789062,2.051830822753906,-19.435114503816795,-31.633587786259543,-2.7480916030534353,0.0
12.470000505447388,-10.927136376953124,2.4564509033203126,3.299209887695312,-46.35114503816794,27.404580152671755,-0.6259541984732825,-9.629479077148437,-2.8131869506835936,3.27526787109375,-1.3435114503816794,-35.25190839694657,-1.7709923664122138,0.0
12.480000495910645,-9.591171850585937,0.3136404174804687,2.7820623291015623,-41.16030534351145,22.519083969465647,1.7251908396946565,-7.321468676757812,-1.3575123413085937,2.8706477905273435,-10.0,-35.05343511450382,-8.122137404580153,0.0
12.490000486373901,-9.878476049804688,-0.06703764648437499,3.404554760742187,-39.25190839694657,17.87786259541985,2.1068702290076335,-9.576806640625,-2.4875755249023435,5.358223315429687,2.183206106870229,-25.893129770992367,-6.625954198473282,0.0
12.500000476837158,-9.198522778320312,0.5243301635742187,3.172317199707031,-41.43511450381679,12.091603053435115,-1.9694656488549618,-7.302315063476562,-0.9983820922851562,3.3255461059570313,-1.8931297709923665,-36.396946564885496,-14.15267175572519,0.0
12.510000467300415,-10.187328063964843,-0.02633621826171875,2.39420166015625,-41.11450381679389,8.335877862595419,-1.8931297709923665,-7.987056738281249,-1.37906015625,5.145139367675781,0.7786259541984732,-25.87786259541985,-14.15267175572519,0.0
12.520000696182251,-9.30147344970703,-0.5434837768554687,2.422932080078125,-24.580152671755727,10.15267175572519,-0.916030534351145,-8.710105639648438,-1.659181750488281,4.965574243164062,4.305343511450381,-31.236641221374047,-14.625954198473282,0.0
12.530000686645508,-12.717999218749998,3.1028853515624997,4.261678955078125,-24.85496183206107,10.442748091603054,-6.106870229007634,-7.697358337402343,0.14604630126953125,5.331887097167969,4.0458015267175576,-25.374045801526716,-17.908396946564885,0.0
12.540000677108765,-11.578359228515625,3.071760729980469,2.789244934082031,-33.267175572519086,-1.3282442748091603,-1.099236641221374,-9.878476049804688,-1.1324573852539062,6.270414147949219,9.969465648854962,-26.0,-13.923664122137405,0.0
12.5500009059906,-8.999804040527343,0.27293898925781246,0.5674257934570313,-21.129770992366414,-8.687022900763358,6.656488549618321,-11.67652149658203,-2.310404602050781,6.818686328125,27.572519083969464,-40.51908396946565,-12.213740458015268,0.0
12.5600004196167,-7.560888842773437,-0.4261678955078125,0.05746083984375,-1.5419847328244274,-5.099236641221374,5.893129770992366,-7.876923461914062,1.22583125,5.204994409179688,22.229007633587788,-50.94656488549618,-17.923664122137403,0.0
12.570000886917114,-9.390058911132812,0.6536170532226562,0.5626373901367188,-2.213740458015267,-1.7251908396946565,1.5114503816793894,-9.107543115234375,0.24181436767578124,7.3478048950195305,25.297709923664122,-41.32824427480916,-11.908396946564885,0.0
12.580000638961792,-9.337386474609374,0.6775590698242188,0.9217676391601562,-3.83206106870229,0.4122137404580153,-1.7404580152671756,-9.212887988281249,-0.12210428466796874,5.487510205078125,28.15267175572519,-59.786259541984734,-11.709923664122137,0.0
12.59000039100647,-9.911994873046874,1.4173673828125,0.8738836059570312,3.816793893129771,4.213740458015267,-1.5877862595419847,-7.982268334960937,0.09816226806640624,5.844246252441406,20.137404580152673,-56.01526717557252,-12.488549618320612,0.0
12.600000381469727,-8.755595471191405,0.8116343627929687,0.9888052856445312,8.305343511450381,10.122137404580153,0.3969465648854962,-7.297526660156249,0.584185205078125,4.994304663085937,12.412213740458014,-58.51908396946565,-12.473282442748092,0.0
12.610000610351562,-9.763554370117188,2.2601263671875,1.139639990234375,4.519083969465649,8.82442748091603,-1.1603053435114503,-5.9017070922851556,1.0678139404296874,4.924872814941406,-3.0381679389312977,-47.48091603053435,-14.335877862595419,0.0
12.62000060081482,-9.564835632324218,1.5658078857421873,1.656787548828125,7.633587786259542,10.305343511450381,1.3740458015267176,-7.6470801025390625,-0.9840168823242187,5.793968017578124,-5.786259541984733,-42.54961832061068,-10.030534351145038,0.0
12.630000591278076,-10.297461340332031,2.0781670410156248,1.8626888916015625,4.152671755725191,5.9541984732824424,0.916030534351145,-5.576095666503906,0.6344634399414062,3.842693664550781,-12.641221374045802,-48.152671755725194,-15.358778625954198,0.0
12.640000581741333,-10.805032092285156,1.7405846069335937,2.212242333984375,2.33587786259542,3.3282442748091605,0.8091603053435115,-1.5849614990234373,3.478775012207031,2.6408044311523438,-37.05343511450382,-33.847328244274806,-18.38167938931298,0.0
12.650000810623169,-9.94072529296875,0.7278373046875,2.592920397949219,2.015267175572519,1.7251908396946565,1.6946564885496183,-5.6191912963867185,0.6440402465820312,3.689464758300781,-42.47328244274809,-15.938931297709924,-7.893129770992366,0.0
12.660000562667847,-9.9215716796875,0.8379705810546875,3.1411925781249996,6.534351145038168,-3.0229007633587788,-1.297709923664122,-1.0821791503906248,3.4739866088867184,-0.47884033203125,-63.29770992366412,-22.580152671755727,-15.099236641221374,0.0
12.670000314712524,-8.966285217285156,1.1180921752929687,3.1100679565429687,12.488549618320612,-5.709923664122138,0.16793893129770993,-2.2457611572265623,3.4548329956054684,1.254561669921875,-76.03053435114504,17.267175572519083,-8.061068702290076,0.0
12.68000078201294,-9.236830004882812,0.8954314208984374,3.31357509765625,12.01526717557252,-6.183206106870229,-1.5114503816793894,-4.015076184082031,0.8643067993164062,0.00239420166015625,-78.47328244274809,22.916030534351144,-0.22900763358778625,0.0
12.690000534057617,-8.892064965820312,0.9600748657226562,3.912125512695312,11.221374045801527,-12.580152671755725,-4.580152671755725,-4.996698864746094,0.296881005859375,1.3958195678710936,-69.70992366412214,44.10687022900763,0.4122137404580153,0.0
12.700000762939453,-9.038111267089842,0.8379705810546875,4.383783239746093,19.19083969465649,-18.076335877862597,-3.3893129770992365,-5.315127685546875,-0.29927520751953124,-0.21787235107421873,-58.44274809160305,40.396946564885496,4.564885496183206,0.0
12.710000276565552,-9.777919580078125,1.458068811035156,4.067748620605468,16.595419847328245,-28.671755725190838,-6.137404580152672,-6.7803791015625,-0.6200982299804687,2.683900061035156,-48.18320610687023,56.595419847328245,6.900763358778626,0.0
12.720000982284546,-10.046070166015625,0.5315127685546874,3.9719805541992184,12.885496183206106,-32.29007633587786,-5.801526717557252,-5.935225915527344,-0.7398083129882812,0.21787235107421873,-39.51145038167939,47.57251908396947,8.717557251908397,0.0
12.730000257492065,-7.560888842773437,-1.2928688964843749,2.147598889160156,17.49618320610687,-38.595419847328245,-7.419847328244275,-7.072471704101562,-1.39821376953125,2.770091320800781,-36.25954198473283,63.81679389312977,7.450381679389313,0.0
12.740000486373901,-8.667010009765624,0.1005564697265625,3.299209887695312,24.27480916030534,-37.61832061068702,-11.770992366412214,-6.564900952148437,-1.8076222534179687,1.350329736328125,-24.641221374045802,58.213740458015266,11.267175572519085,0.0
12.750000476837158,-7.532158422851562,0.277727392578125,2.760514514160156,31.022900763358777,-41.93893129770992,-14.977099236641221,-8.322244970703125,-2.920926025390625,3.380612744140625,-10.320610687022901,62.29007633587786,10.229007633587786,0.0
12.760000705718994,-8.726865051269531,0.5674257934570313,2.8323405639648436,42.595419847328245,-38.30534351145038,-15.48091603053435,-7.587225061035156,-3.057395520019531,2.7844565307617186,-0.9770992366412213,53.541984732824424,7.572519083969466,0.0
12.770000696182251,-7.584830859375,0.45968671875,1.3359645263671873,40.01526717557252,-39.38931297709924,-17.587786259541986,-5.473144995117187,-2.4109610717773435,2.592920397949219,5.267175572519084,51.57251908396947,2.8091603053435112,0.0
12.780000686645508,-9.526528405761718,1.4987702392578124,2.868253588867187,35.847328244274806,-37.55725190839695,-20.9618320610687,-5.324704492187499,-2.971204260253906,3.5697546752929687,10.244274809160306,53.11450381679389,3.3893129770992365,0.0
12.790000915527344,-8.88009395751953,1.3455413330078123,4.010287780761718,31.34351145038168,-41.70992366412214,-19.419847328244273,-4.57771357421875,-2.6216508178710938,3.737348791503906,17.84732824427481,49.55725190839695,2.4580152671755724,0.0
12.800000667572021,-7.888894470214844,0.5434837768554687,2.9568390502929685,30.778625954198475,-42.152671755725194,-20.717557251908396,-1.0606313354492187,-1.209071838378906,1.3431471313476562,28.198473282442748,35.05343511450382,-2.6717557251908395,0.0
12.810000896453857,-7.208941198730468,0.0047884033203125,3.603273498535156,24.38167938931298,-43.603053435114504,-29.083969465648856,-1.6448165405273436,0.6631938598632812,2.6336218261718747,15.48091603053435,42.58015267175573,-7.4961832061068705,0.0
12.820000410079956,-8.52335791015625,0.6488286499023437,6.150704064941406,15.83206106870229,-44.030534351145036,-34.717557251908396,1.0103531005859374,2.863465185546875,0.4285620971679687,-10.595419847328245,53.9236641221374,-4.687022900763359,0.0
12.830000877380371,-6.866570361328125,1.0893617553710937,6.488286499023437,7.465648854961832,-58.80916030534351,-36.0763358778626,1.0510545288085937,2.7269956909179687,1.5011644409179687,-23.755725190839694,84.19847328244275,6.717557251908397,0.0
12.840000629425049,-5.415684155273437,-0.17477672119140625,7.821856823730468,10.763358778625955,-71.40458015267176,-36.58015267175573,-1.4796166259765624,3.9791631591796874,-0.9720458740234375,-44.68702290076336,97.69465648854961,14.259541984732824,0.0
12.850000381469727,-7.481880187988281,1.4796166259765624,8.954314208984375,8.687022900763358,-81.40458015267176,-44.656488549618324,-3.0550013183593747,6.756437084960937,-3.9504327392578125,-58.88549618320611,113.81679389312977,15.17557251908397,0.0
12.860000610351562,-12.251129895019531,3.9432501342773434,8.192958081054687,1.450381679389313,-99.89312977099236,-45.19083969465649,-8.238447912597655,6.392518432617187,-1.4030021728515625,-66.44274809160305,121.17557251908397,16.671755725190838,0.0
12.87000060081482,-13.043610644531249,3.679887951660156,6.6271501953125,-0.24427480916030533,-123.3587786259542,-35.29770992366412,-25.373749194335936,-0.6440402465820312,16.438588598632812,-82.80916030534351,133.86259541984734,4.564885496183206,0.0
12.880000591278076,-17.041927416992188,5.858611462402344,2.8754361938476563,8.01526717557252,-132.59541984732823,-17.19083969465649,-35.22828322753906,-10.091559997558592,23.95877601318359,-90.9618320610687,82.87022900763358,-3.8473282442748094,0.0
12.890000343322754,-19.634847814941406,7.0078282592773435,-1.8028338500976562,13.099236641221374,-144.35114503816794,6.900763358778626,-38.359898999023436,-14.870386511230468,21.028273181152343,-48.01526717557252,17.69465648854962,-5.435114503816794,0.0
12.90000057220459,-23.920468786621093,7.920019091796875,-2.231395947265625,15.114503816793894,-140.38167938931298,28.045801526717558,-36.32003918457031,-14.068328955078124,9.545682019042967,75.06870229007633,-67.80152671755725,21.236641221374047,0.0
12.910000562667847,-26.56606162109375,9.303867651367186,-0.2920926025390625,11.938931297709924,-142.61068702290078,43.93893129770992,-26.120740112304684,-8.365340600585936,-5.286397265624999,104.65648854961832,-105.64885496183206,22.106870229007633,0.0
12.920000791549683,-29.932309155273437,9.686939916992188,1.0941501586914062,-4.473282442748092,-143.16030534351145,66.35114503816794,-10.81460889892578,1.3551181396484375,-10.496180078124999,45.83206106870229,-107.5114503816794,-17.557251908396946,0.0
12.93000054359436,-26.13031691894531,5.410895751953125,0.97683427734375,-14.717557251908397,-142.91603053435114,84.0,-6.3973068359375,7.668627917480468,-2.243366955566406,18.259541984732824,-72.9618320610687,-24.931297709923665,0.0
12.940000772476196,-19.29247697753906,-2.612074011230469,-1.2761094848632812,-10.259541984732824,-133.45038167938932,95.40458015267176,-4.199429711914062,0.12689268798828124,-7.287949853515625,6.687022900763359,-57.29770992366412,-16.82442748091603,0.0
12.950000524520874,-12.181698046874999,-6.56968935546875,-1.455674609375,-2.6106870229007635,-110.21374045801527,83.87786259541984,0.7972691528320313,0.8188169677734375,-12.81376728515625,-24.045801526717558,-35.083969465648856,-20.35114503816794,0.0
12.96000075340271,-9.598354455566406,-7.192181787109375,0.7924807495117187,11.694656488549619,-83.7557251908397,72.01526717557252,-1.0319009155273438,0.0,-6.742071875,-26.793893129770993,2.7480916030534353,-10.458015267175572,0.0
12.970000267028809,-7.955932116699218,-5.061342309570312,1.9800047729492187,30.290076335877863,-56.595419847328245,60.38167938931298,-4.613626599121093,-1.707065783691406,-6.624755993652343,-9.694656488549619,19.603053435114504,2.427480916030534,0.0
12.980000495910645,-8.74601866455078,-2.607285607910156,3.6152445068359373,30.53435114503817,-32.87022900763359,44.87022900763359,-8.010998754882811,-0.8259995727539062,-5.374982727050781,-6.625954198473282,41.083969465648856,0.4732824427480916,0.0
12.990000486373901,-9.911994873046874,1.3814543579101561,2.370259643554687,13.267175572519085,-27.64885496183206,36.83969465648855,-12.042834350585936,-2.9544448486328125,-1.5705962890624998,12.290076335877863,57.83206106870229,0.6412213740458015,0.0
13.000000476837158,-5.65031591796875,-2.913743420410156,0.7852981445312499,-3.9236641221374047,-28.519083969465647,33.587786259541986,-11.027692846679686,0.17238251953125,-1.8339584716796873,34.47328244274809,50.58015267175573,0.9465648854961832,0.0
13.010000705718994,-4.266467358398438,-2.863465185546875,2.166752502441406,-11.893129770992367,-19.755725190839694,26.885496183206108,-10.51533369140625,1.8219874633789062,0.00239420166015625,30.35114503816794,69.57251908396947,8.595419847328245,0.0
13.020000696182251,-3.670311145019531,-4.76924970703125,0.35194764404296874,-17.31297709923664,-25.282442748091604,24.53435114503817,-9.478644372558593,3.4524387939453125,-1.0917559570312498,46.25954198473283,66.3969465648855,19.52671755725191,0.0
13.030000686645508,-4.575319372558593,-3.921702319335937,2.8610709838867185,-13.893129770992367,-12.229007633587786,16.35114503816794,-11.604695446777344,2.384624853515625,2.7820623291015623,33.541984732824424,81.14503816793894,29.61832061068702,0.0
13.040000677108765,-4.055777612304687,-4.477157104492187,1.0079588989257813,-1.9083969465648856,-14.534351145038167,10.580152671755725,-9.220070593261719,4.7117888671875,2.281674182128906,44.25954198473283,71.52671755725191,31.69465648854962,0.0
13.0500009059906,-6.035782385253906,-3.1675287963867187,1.8363526733398436,6.396946564885496,-3.282442748091603,0.42748091603053434,-10.275913525390624,1.3575123413085937,4.4005426513671875,30.549618320610687,72.97709923664122,35.908396946564885,0.0
13.060000658035278,-3.0885201416015624,-4.261678955078125,-1.0989385620117187,16.50381679389313,-5.694656488549619,-4.366412213740458,-8.690952026367187,0.10295067138671875,4.350264416503906,58.67175572519084,52.778625954198475,38.51908396946565,0.0
13.070000886917114,-3.69664736328125,-2.8850130004882812,-0.6416460449218749,23.236641221374047,4.305343511450381,-11.541984732824428,-7.972691528320312,1.9009961181640624,2.1787235107421874,38.900763358778626,45.74045801526717,32.717557251908396,0.0
13.080000638961792,-2.8371289672851563,-1.6232687255859375,-0.4908113403320312,31.358778625954198,12.702290076335878,-18.106870229007633,-7.745242370605468,-0.4525041137695312,3.825934252929687,9.435114503816793,51.083969465648856,26.641221374045802,0.0
13.090000629425049,-3.816357446289062,1.218648645019531,-1.5011644409179687,26.12213740458015,22.427480916030536,-25.923664122137403,-8.537723120117187,-3.5027170288085934,5.212177014160156,11.755725190839694,41.954198473282446,25.87786259541985,0.0
13.100000619888306,-1.8531120849609375,-0.852335791015625,-3.9408559326171875,30.625954198473284,30.259541984732824,-21.6793893129771,-9.394847314453125,-3.3327287109375,5.286397265624999,8.977099236641221,32.412213740458014,17.87786259541985,0.0
13.110000610351562,-0.49320554199218747,-2.1930887207031247,-4.477157104492187,43.45038167938932,51.93893129770992,-20.427480916030536,-9.143456140136719,-3.907337109375,5.248090039062499,-1.8015267175572518,23.0381679389313,8.030534351145038,0.0
13.12000060081482,-0.14604630126953125,-2.588131994628906,-4.453215087890625,41.083969465648856,70.73282442748092,-27.419847328244273,-9.952696301269532,-4.599261389160156,6.042964990234375,5.770992366412214,13.725190839694656,4.061068702290076,0.0
13.130000591278076,-1.6472107421875,-0.5195417602539062,-1.956062756347656,33.41984732824427,86.73282442748092,-35.3587786259542,-9.318232861328125,-3.9624037475585934,6.60799658203125,7.511450381679389,3.0381679389312977,3.3893129770992365,0.0
13.140000343322754,-2.9735984619140625,1.2401964599609374,2.0278888061523435,17.755725190839694,92.68702290076335,-43.267175572519086,-7.697358337402343,-2.592920397949219,6.804321118164062,8.16793893129771,-9.312977099236642,4.748091603053435,0.0
13.15000057220459,-4.934449621582031,2.839523168945312,7.307103466796875,11.938931297709924,95.19083969465649,-41.48091603053435,-8.298302954101562,-2.5474305664062498,6.998251452636718,14.427480916030534,-15.709923664122137,5.679389312977099,0.0
13.160000562667847,-6.440402465820312,5.504269616699219,11.633425866699218,29.068702290076335,93.57251908396947,-30.0,-6.854599353027344,-1.3670891479492187,5.252878442382812,16.595419847328245,-22.3206106870229,-0.9618320610687023,0.0
13.170000553131104,-8.43956085205078,11.176133349609374,13.7906015625,38.97709923664122,81.1145038167939,-16.48854961832061,-6.481103894042969,1.2378022583007813,4.69263525390625,12.641221374045802,-30.748091603053435,-10.992366412213741,0.0
13.18000078201294,-9.548076220703125,14.7482822265625,13.625401647949218,13.374045801526718,56.61068702290076,-7.541984732824427,-10.022128149414062,-0.9193734375,7.819462622070312,2.7786259541984735,-25.6793893129771,-10.702290076335878,0.0
13.190000534057617,-8.9255837890625,8.092401611328125,11.209652172851563,-6.641221374045801,36.213740458015266,5.6183206106870225,-10.599130749511717,-2.3439234252929686,7.702146740722656,27.251908396946565,-39.02290076335878,-3.1603053435114505,0.0
13.200000762939453,-9.916783276367187,4.304774584960938,9.191340173339842,1.3893129770992367,25.068702290076335,15.786259541984732,-13.388375683593749,-5.415684155273437,7.544129431152343,59.099236641221374,-56.93129770992366,6.106870229007634,0.0
13.21000051498413,-11.348515869140625,0.7781155395507812,6.0908490234374995,39.31297709923664,24.18320610687023,39.16030534351145,-8.154650854492187,1.0438719238281249,1.3455413330078123,53.83206106870229,-75.40458015267176,2.33587786259542,0.0
13.220000743865967,-6.584054565429687,-2.729389892578125,-0.4740519287109375,67.46564885496183,16.38167938931298,56.56488549618321,-8.214505895996094,1.1731588134765625,2.5570073730468748,27.099236641221374,-61.51145038167939,6.351145038167939,0.0
13.230000495910645,-5.576095666503906,-0.9816226806640624,-5.023035083007812,57.20610687022901,25.6793893129771,55.05343511450382,-4.6351744140625,0.8475473876953125,-0.6919242797851562,28.03053435114504,-67.00763358778626,13.709923664122137,0.0
13.240000486373901,-7.501033801269531,-0.4213794921875,-0.9337386474609375,9.358778625954198,30.198473282442748,35.17557251908397,-4.3239281982421875,1.5394716674804687,-0.19871873779296872,3.877862595419847,-53.9236641221374,14.580152671755725,0.0
13.250000476837158,-10.728417639160156,-5.078101721191406,12.205640063476562,-3.954198473282443,28.244274809160306,26.793893129770993,-7.280767248535156,-0.5770026000976562,0.8810662109374999,0.3816793893129771,-35.770992366412216,24.106870229007633,0.0
13.260000705718994,-19.10812344970703,-3.902548706054687,21.545420739746092,55.908396946564885,28.442748091603054,25.755725190839694,-11.568782421875,-3.7517140014648436,2.118868469238281,19.450381679389313,-36.778625954198475,24.82442748091603,0.0
13.270000457763672,-26.709713720703125,6.909665991210937,15.042769030761718,67.3587786259542,12.427480916030534,17.435114503816795,-12.227187878417968,-3.414131567382812,1.8602946899414061,27.19083969465649,-46.82442748091603,9.389312977099237,0.0
13.280000686645508,-20.760122595214842,-0.6607996582031249,3.8379052612304685,25.068702290076335,-23.49618320610687,5.465648854961832,-14.927847351074218,-3.1699229980468746,2.3630770385742186,27.786259541984734,-43.02290076335878,-0.6870229007633588,0.0
13.290000915527344,-13.68765089111328,-7.766790185546874,-0.833182177734375,20.9618320610687,-26.50381679389313,-18.27480916030534,-14.41548819580078,-2.003946789550781,1.3575123413085937,26.076335877862597,-47.282442748091604,-6.900763358778626,0.0
13.300000667572021,-6.845022546386718,-4.1563340820312495,-6.60799658203125,34.213740458015266,-17.022900763358777,-37.86259541984733,-15.636531042480469,-0.5315127685546874,2.2744915771484373,9.312977099236642,-41.57251908396947,-14.335877862595419,0.0
13.310000896453857,-3.1459809814453124,0.8786720092773437,-8.719682446289061,55.89312977099237,-0.8091603053435115,-32.152671755725194,-17.944541442871092,-1.668758557128906,2.980781066894531,-2.6412213740458017,-42.38167938931298,-9.358778625954198,0.0
13.320000648498535,1.3838485595703125,3.1603461914062496,-8.793902697753905,72.30534351145039,16.946564885496183,-15.908396946564885,-19.75934630126953,-4.707000463867187,5.403713146972656,13.740458015267176,-48.396946564885496,-1.0534351145038168,0.0
13.330000638961792,-2.5450363647460934,6.45476767578125,-6.768408093261718,80.90076335877863,46.56488549618321,-2.7786259541984735,-19.12727706298828,-4.101267443847656,5.157110375976562,37.19083969465649,-64.36641221374046,-5.480916030534351,0.0
13.340000629425049,-8.10197841796875,9.26316622314453,-4.197035510253906,57.16030534351145,59.55725190839695,5.175572519083969,-15.677232470703125,0.59376201171875,3.7900212280273435,25.96946564885496,-65.89312977099236,-20.137404580152673,0.0
13.350000619888306,-14.504073657226561,8.015787158203125,-0.2442085693359375,15.129770992366412,59.66412213740458,7.557251908396947,-8.588001354980468,5.683834741210937,-3.1100679565429687,10.381679389312977,-66.3206106870229,-27.603053435114504,0.0
13.360000610351562,-15.880739611816406,4.209006518554688,1.637633935546875,-22.442748091603054,52.0763358778626,5.099236641221374,-11.080365283203124,2.4564509033203126,1.2234370483398436,9.49618320610687,-38.94656488549618,-19.862595419847327,0.0
13.37000060081482,-16.393098767089842,0.19153613281249998,2.1308394775390624,-43.099236641221374,47.12977099236641,-7.923664122137405,-11.556811413574218,-0.699106884765625,1.5538368774414062,27.52671755725191,-41.32824427480916,-15.618320610687023,0.0
13.380000591278076,-14.877569116210937,-0.8643067993164062,2.422932080078125,-54.29007633587786,38.045801526717554,-20.763358778625953,-11.073182678222656,-1.2114660400390624,3.2824504760742186,30.625954198473284,-31.19083969465649,-23.00763358778626,0.0
13.390000581741333,-10.488997473144531,-3.778050219726562,0.11013327636718749,-46.10687022900763,33.45038167938932,-23.49618320610687,-8.042123376464843,4.280832568359375,0.39264907226562495,29.297709923664122,-27.49618320610687,-29.557251908396946,0.0
13.40000033378601,-9.105148913574219,-3.612850305175781,-0.01915361328125,-27.69465648854962,41.7557251908397,-27.17557251908397,-6.363788012695312,6.880935571289062,-0.07900865478515624,11.022900763358779,-5.694656488549619,-24.549618320610687,0.0
13.410000324249268,-7.788338000488281,-1.8938135131835936,-1.158793603515625,-16.30534351145038,48.656488549618324,-30.30534351145038,-8.547299926757812,4.939238024902344,0.07422025146484375,8.366412213740459,5.022900763358779,-13.801526717557252,0.0
13.420000791549683,-7.989450939941406,-0.4836287353515625,-1.2928688964843749,-10.0,52.83969465648855,-31.419847328244273,-15.665261462402343,1.199495031738281,5.181052392578125,17.0381679389313,17.557251908396946,-4.595419847328245,0.0
13.430000305175781,-7.888894470214844,-0.1580173095703125,-1.936909143066406,-0.9465648854961832,53.541984732824424,-29.068702290076335,-9.655815295410155,1.2689268798828124,0.6751648681640625,16.045801526717558,-0.3969465648854962,-8.610687022900763,0.0
13.440000772476196,-10.213664282226562,2.3223756103515623,-0.19153613281249998,0.3053435114503817,58.732824427480914,-28.85496183206107,-11.9135474609375,-0.229843359375,5.1331683593749995,19.46564885496183,4.366412213740458,-4.961832061068702,0.0
13.450000524520874,-8.614337573242187,1.429338391113281,-0.3854664672851562,2.9618320610687023,56.13740458015267,-24.061068702290076,-11.362881079101562,-0.5698199951171875,3.5003228271484375,36.06106870229008,-11.465648854961833,-5.511450381679389,0.0
13.46000075340271,-11.870451831054687,4.673481640625,2.6862942626953124,2.854961832061069,60.595419847328245,-26.045801526717558,-8.892064965820312,2.602497204589844,2.2649147705078123,16.244274809160306,-16.15267175572519,-15.251908396946565,0.0
13.470000743865967,-9.30147344970703,2.346317626953125,0.9433154541015625,-0.5648854961832062,53.31297709923664,-17.49618320610687,-8.623914379882812,2.152387292480469,2.722207287597656,17.053435114503817,-22.702290076335878,-11.557251908396946,0.0
13.480000495910645,-11.37006368408203,3.4261025756835934,3.19865341796875,-7.877862595419847,47.16030534351145,-16.717557251908396,-9.947907897949218,1.2665326782226562,4.046200805664062,10.244274809160306,-20.9618320610687,-9.801526717557252,0.0
13.490000486373901,-10.85291612548828,2.96881005859375,3.258508459472656,-15.541984732824428,44.68702290076336,-14.748091603053435,-9.670180505371093,-0.21787235107421873,2.8467057739257813,22.50381679389313,-35.343511450381676,-11.358778625954198,0.0
13.500000715255737,-10.304643945312499,3.289633081054687,3.6104561035156246,-24.931297709923665,38.83969465648855,-14.564885496183207,-10.809820495605468,-0.7924807495117187,5.528211633300781,19.603053435114504,-27.31297709923664,-13.419847328244275,0.0
13.510000705718994,-9.495403784179686,2.8323405639648436,2.817975354003906,-33.343511450381676,36.87022900763359,-11.709923664122137,-6.246472131347656,0.28969840087890625,1.927332336425781,26.0,-45.48091603053435,-16.442748091603054,0.0
13.520000696182251,-9.342174877929686,4.498704919433593,2.1308394775390624,-41.29770992366412,36.091603053435115,-12.473282442748092,-7.168239770507812,0.35673604736328124,3.9695863525390624,23.770992366412212,-41.11450381679389,-16.99236641221374,0.0
13.530000448226929,-9.739612353515625,3.785232824707031,2.2960393920898436,-55.969465648854964,30.702290076335878,-8.366412213740459,-5.607220288085937,1.1061211669921875,3.9791631591796874,11.83206106870229,-34.51908396946565,-14.946564885496183,0.0
13.540000677108765,-10.611101757812499,2.6862942626953124,3.105279553222656,-63.70992366412214,30.30534351145038,-4.320610687022901,-9.026140258789061,-2.6599580444335937,6.356605407714843,21.00763358778626,-30.076335877862597,-9.32824427480916,0.0
13.5500009059906,-9.854534033203125,1.1923124267578125,1.695094775390625,-69.52671755725191,22.27480916030534,-2.564885496183206,-7.105990527343749,0.51714755859375,2.8227637573242186,13.770992366412214,-43.6793893129771,-14.625954198473282,0.0
13.560000658035278,-11.79144317626953,3.967192150878906,3.5601778686523438,-73.32824427480917,16.3206106870229,-1.3282442748091603,-7.977479931640625,-0.1388636962890625,5.384559533691406,12.65648854961832,-29.938931297709924,-9.587786259541986,0.0
13.570000648498535,-10.24000050048828,1.6328455322265625,2.8012159423828122,-82.04580152671755,6.244274809160306,4.106870229007634,-9.05965908203125,0.24899697265624998,3.825934252929687,15.587786259541986,-44.62595419847328,-8.916030534351146,0.0
13.580000400543213,-10.589553942871094,0.6488286499023437,2.6671406494140624,-65.98473282442748,3.6946564885496183,7.4961832061068705,-6.833051538085937,2.29843359375,3.265691064453125,-0.183206106870229,-42.030534351145036,-10.580152671755725,0.0
13.590000629425049,-8.497021691894531,-1.3048399047851562,1.6519991455078125,-52.70229007633588,-0.15267175572519084,12.122137404580153,-9.143456140136719,0.33758243408203126,4.860229370117187,1.83206106870229,-35.45038167938932,-2.595419847328244,0.0
13.600000619888306,-9.842563024902343,0.20350714111328125,2.6815058593749996,-38.35114503816794,1.2213740458015268,6.106870229007634,-6.775590698242187,2.73896669921875,2.5258827514648434,-4.198473282442748,-45.083969465648856,-5.6183206106870225,0.0
13.610000610351562,-8.327033374023436,-0.1197100830078125,2.0374656127929685,-27.282442748091604,0.2748091603053435,5.404580152671755,-6.3901242309570305,2.7461493041992187,4.319139794921875,-15.49618320610687,-29.96946564885496,-2.8091603053435112,0.0
13.62000060081482,-7.71890615234375,-1.39821376953125,1.189918225097656,-11.374045801526718,5.221374045801527,6.076335877862595,-9.313444458007812,-0.6919242797851562,5.4515971801757805,-17.068702290076335,-26.16793893129771,4.213740458015267,0.0
13.630000591278076,-7.3549875,0.5410895751953124,0.9217676391601562,-0.7633587786259542,10.916030534351146,0.48854961832061067,-6.564900952148437,1.484405029296875,3.1962592163085937,-16.717557251908396,-35.98473282442748,-0.9770992366412213,0.0
13.640000581741333,-8.655039001464843,1.9129671264648436,0.9720458740234375,-2.9618320610687023,11.923664122137405,-0.5190839694656488,-3.6750995483398436,3.0334535034179684,3.3399113159179685,-30.213740458015266,-18.977099236641223,-2.427480916030534,0.0
13.65000057220459,-9.725247143554688,3.380612744140625,1.9129671264648436,-7.511450381679389,18.748091603053435,0.6106870229007634,-5.88015927734375,0.21787235107421873,4.9823336547851556,-44.091603053435115,-2.4732824427480917,3.480916030534351,0.0
13.660000562667847,-9.658209497070311,2.8945898071289062,1.8339584716796873,-19.450381679389313,17.801526717557252,2.519083969465649,-9.09796630859375,-2.6503812377929687,5.724536169433593,-33.80152671755725,-2.0763358778625953,7.236641221374046,0.0
13.670000314712524,-9.478644372558593,1.5370774658203123,1.180341418457031,-21.114503816793892,15.450381679389313,4.473282442748092,-6.938396411132812,-0.5793968017578125,4.402936853027343,-25.6793893129771,-12.793893129770993,1.6793893129770991,0.0
13.680000305175781,-9.387664709472656,1.908178723144531,1.7094599853515624,-18.0,18.076335877862597,3.2061068702290076,-5.109226342773437,1.3551181396484375,4.062960217285156,-31.587786259541986,-7.893129770992366,-1.3129770992366412,0.0
13.690000295639038,-9.382876306152344,1.4532804077148436,1.9512743530273435,-23.72519083969466,15.282442748091603,0.732824427480916,-6.567295153808593,0.21068974609375,4.855440966796874,-37.83206106870229,-0.6259541984732825,0.44274809160305345,0.0
13.700000524520874,-8.920795385742187,1.8100164550781248,2.288856787109375,-23.46564885496183,12.885496183206106,-1.4045801526717556,-5.298368273925781,-0.02154781494140625,4.460397692871093,-46.595419847328245,0.04580152671755725,0.6870229007633588,0.0
13.71000051498413,-9.26316622314453,0.8188169677734375,2.806004345703125,-19.450381679389313,10.366412213740459,-0.549618320610687,-6.2584431396484375,0.20350714111328125,4.299986181640625,-48.38167938931298,6.824427480916031,3.2977099236641223,0.0
13.720000743865967,-9.047688073730468,-0.16998831787109375,3.076549133300781,-13.954198473282442,8.580152671755725,-2.7480916030534353,-8.954314208984375,-1.180341418457031,4.774038110351563,-38.82442748091603,3.1603053435114505,7.297709923664122,0.0
13.730000257492065,-9.193734375,-0.33758243408203126,3.459621398925781,-7.694656488549619,5.816793893129771,-7.32824427480916,-6.5601125488281244,0.8882488159179687,3.5218706420898434,-43.038167938931295,-1.3435114503816794,1.9236641221374047,0.0
13.740000486373901,-8.798691101074219,-0.4860229370117187,3.1555577880859373,0.6870229007633588,5.267175572519084,-9.17557251908397,-3.9600095458984375,3.4931402221679684,2.9041666137695312,-62.74809160305343,12.885496183206106,-0.32061068702290074,0.0
13.750000476837158,-8.389282617187499,0.28490999755859375,2.147598889160156,0.6412213740458015,4.0458015267175576,-13.099236641221374,-6.5768719604492185,0.11252747802734374,5.221753820800781,-66.36641221374046,29.435114503816795,11.450381679389313,0.0
13.760000705718994,-8.647856396484375,0.8355763793945312,2.001552587890625,1.7404580152671756,2.198473282442748,-16.625954198473284,-9.777919580078125,-3.744531396484375,5.248090039062499,-44.56488549618321,17.786259541984734,17.236641221374047,0.0
13.770000696182251,-9.658209497070311,2.3151930053710936,2.099714855957031,5.7251908396946565,-0.13740458015267176,-18.671755725190838,-6.794744311523437,-0.852335791015625,2.408566870117187,-37.25190839694657,-1.618320610687023,2.2900763358778624,0.0
13.780000686645508,-8.760383874511719,2.3056161987304686,2.1643583007812497,15.511450381679388,-0.1984732824427481,-13.572519083969466,-2.839523168945312,3.3399113159179685,2.31758720703125,-57.267175572519086,16.778625954198475,-3.3435114503816794,0.0
13.790000915527344,-7.692569934082031,2.6527754394531247,2.2864625854492187,16.15267175572519,2.1526717557251906,-11.679389312977099,-3.6439749267578123,1.924938134765625,2.7629087158203123,-72.91603053435115,33.80152671755725,7.145038167938932,0.0
13.800000429153442,-9.550470422363281,4.453215087890625,3.754108203125,9.83206106870229,0.3969465648854962,-15.251908396946565,-5.571307263183593,-0.622492431640625,3.7110125732421873,-71.22137404580153,44.97709923664122,17.87786259541985,0.0
13.810000896453857,-10.694898815917968,5.216965417480468,4.474762902832031,0.9312977099236641,-7.755725190839694,-13.267175572519085,-8.659827404785156,-2.906560815429687,3.766079211425781,-55.725190839694655,41.17557251908397,23.419847328244273,0.0
13.820000648498535,-11.597512841796874,4.328716601562499,5.537788439941406,-1.6488549618320612,-12.488549618320612,-10.198473282442748,-8.434772448730468,-2.288856787109375,4.108450048828125,-52.68702290076336,39.98473282442748,14.564885496183207,0.0
13.830000877380371,-8.992621435546875,2.0254946044921875,4.438849877929687,-5.66412213740458,-23.297709923664122,-6.0,-8.054094384765625,-2.8275521606445313,4.355052819824219,-36.274809160305345,33.6793893129771,10.488549618320612,0.0
13.840000629425049,-7.208941198730468,-0.3016694091796875,2.6503812377929687,-1.633587786259542,-30.33587786259542,-4.549618320610687,-9.236830004882812,-3.39018955078125,4.697423657226563,-15.282442748091603,24.85496183206107,8.67175572519084,0.0
13.850000619888306,-8.882488159179687,0.1292868896484375,4.407725256347656,6.625954198473282,-28.977099236641223,-11.83206106870229,-7.582436657714843,-2.940079638671875,4.903325,-2.732824427480916,20.83969465648855,4.5038167938931295,0.0
13.860000371932983,-9.964667309570311,2.0254946044921875,4.745307690429687,3.2061068702290076,-36.717557251908396,-15.389312977099237,-6.459556079101562,-0.6703764648437499,3.6631285400390623,4.1679389312977095,17.129770992366414,-0.3816793893129771,0.0
13.87000060081482,-9.062053283691405,0.5770026000976562,4.127603662109375,11.022900763358779,-45.969465648854964,-10.625954198473282,-5.887341882324218,-0.32082302246093747,3.3111808959960936,2.4122137404580153,20.03053435114504,0.33587786259541985,0.0
13.880000352859497,-12.605471740722656,3.0980969482421874,6.9144543945312495,8.702290076335878,-46.19847328244275,-15.16030534351145,-3.976768957519531,0.9313444458007812,0.93852705078125,-10.961832061068701,20.16793893129771,-3.0381679389312977,0.0
13.890000581741333,-12.169727038574218,4.173093493652344,8.080430603027343,-5.465648854961832,-66.59541984732824,-16.366412213740457,-4.948814831542968,3.9911341674804683,1.158793603515625,-23.206106870229007,42.35114503816794,-0.6259541984732825,0.0
13.90000057220459,-9.162609753417968,1.24498486328125,8.066065393066406,5.00763358778626,-82.91603053435115,-8.946564885496183,-3.1579519897460937,-0.40940848388671874,0.9792284790039062,-49.98473282442748,64.27480916030534,12.427480916030534,0.0
13.910000562667847,-9.686939916992188,1.85790048828125,9.291896643066405,-0.3511450381679389,-94.47328244274809,-16.427480916030536,-5.542576843261719,-0.4213794921875,-0.3591302490234375,-36.13740458015267,67.57251908396947,14.01526717557252,0.0
13.920000791549683,-12.08592998046875,3.840299462890625,10.067617980957031,-7.801526717557252,-113.26717557251908,-27.129770992366414,-7.848193041992187,2.741360900878906,1.889025109863281,-28.82442748091603,83.22137404580153,2.4732824427480917,0.0
13.93000054359436,-11.214440576171874,1.9871873779296874,9.5384994140625,-14.335877862595419,-134.68702290076337,-26.137404580152673,-11.046846459960937,2.8323405639648436,4.589684582519531,-44.961832061068705,102.68702290076335,-2.045801526717557,0.0
13.940000534057617,-15.246276171875,3.385401147460937,10.520122094726561,-21.572519083969464,-148.91603053435114,-28.396946564885496,-10.32379755859375,4.446032482910156,6.734889270019531,-48.44274809160305,85.0381679389313,-10.50381679389313,0.0
13.950000524520874,-16.333243725585938,6.086060620117187,8.087613208007811,-29.61832061068702,-173.7709923664122,-24.38167938931298,-18.160019592285156,0.411802685546875,15.777788940429687,-74.65648854961832,86.80916030534351,-16.50381679389313,0.0
13.96000075340271,-15.04755743408203,3.337517114257812,2.770091320800781,-31.480916030534353,-185.25190839694656,-5.1603053435114505,-27.77752766113281,-9.97184991455078,19.98918966064453,-79.05343511450381,56.70229007633588,-11.86259541984733,0.0
13.970000505447388,-15.614983227539062,3.114856359863281,0.5339069702148437,-29.984732824427482,-180.85496183206106,5.633587786259542,-25.28037532958984,-5.058948107910156,10.474632263183594,-15.83206106870229,-7.7251908396946565,-1.5725190839694656,0.0
13.980000495910645,-16.340426330566405,4.120421057128906,-1.9704279663085937,-9.374045801526718,-176.42748091603053,19.984732824427482,-21.12643544921875,3.172317199707031,2.4013842651367185,-12.992366412213741,-30.671755725190838,15.374045801526718,0.0
13.990000486373901,-19.256563952636718,3.9360675292968748,-2.592920397949219,8.0,-166.8854961832061,38.16793893129771,-16.457742211914063,0.5219359619140624,-2.896984008789062,17.022900763358777,-60.0763358778626,32.35114503816794,0.0
14.000000238418579,-20.73618057861328,3.797203833007812,-0.9528922607421875,16.412213740458014,-154.87022900763358,53.55725190839695,-7.165845568847656,-0.3758896606445312,-6.919242797851562,-8.625954198473282,-54.16793893129771,13.755725190839694,0.0
14.010000705718994,-19.302053784179687,1.5035586425781249,-0.20829554443359374,17.87786259541985,-145.3587786259542,64.1526717557252,-0.33039982910156246,-1.0965443603515623,-5.2624552490234375,-55.12977099236641,-47.05343511450382,-9.038167938931299,0.0
14.020000696182251,-15.478513732910155,1.2473790649414063,0.4908113403320312,7.038167938931298,-133.57251908396947,65.96946564885496,2.636016027832031,-4.929661218261718,-7.1778165771484375,-82.99236641221374,-28.82442748091603,-18.763358778625953,0.0
14.030001163482666,-12.516886279296875,-0.105344873046875,2.2840683837890623,-6.2748091603053435,-115.81679389312977,63.343511450381676,-5.224148022460938,-7.785943798828124,-4.055777612304687,-65.48091603053435,-6.641221374045801,-16.549618320610687,0.0
14.040000438690186,-5.042188696289062,-5.753266589355468,0.5315127685546874,16.65648854961832,-101.2824427480916,63.38931297709924,-11.314997045898437,-9.246406811523437,-2.27927998046875,-24.045801526717558,0.061068702290076333,-12.82442748091603,0.0
14.0500009059906,-5.284003063964843,-4.544194750976562,2.0973206542968748,44.29007633587786,-56.29007633587786,49.57251908396947,-13.788207360839843,-8.86094034423828,0.16998831787109375,19.862595419847327,4.305343511450381,-16.68702290076336,0.0
14.060000658035278,-11.281478222656249,1.0726023437499999,4.843469958496094,33.61832061068702,-45.603053435114504,31.099236641221374,-14.518438867187498,-6.095637426757812,2.0063409912109376,56.458015267175576,5.923664122137405,-16.671755725190838,0.0
14.070000886917114,-8.066065393066406,-2.7246014892578123,1.8626888916015625,34.30534351145038,-51.51145038167939,35.23664122137404,-13.462595935058593,-2.0063409912109376,0.7852981445312499,82.16793893129771,3.8625954198473282,-10.320610687022901,0.0
14.080000400543213,-5.0948611328124995,-5.2433016357421875,0.258573779296875,34.68702290076336,-43.98473282442748,38.36641221374046,-10.939107385253905,4.115632653808594,-0.02154781494140625,75.57251908396947,13.908396946564885,-5.908396946564886,0.0
14.090000629425049,-7.429207751464843,-1.5658078857421873,2.2481553588867187,24.732824427480917,-32.732824427480914,31.51145038167939,-6.83783994140625,9.507374792480467,-1.180341418457031,43.847328244274806,26.427480916030536,1.984732824427481,0.0
14.100000381469727,-3.418919970703125,-3.5817256835937497,-0.4285620971679687,19.541984732824428,-32.62595419847328,30.48854961832061,-9.387664709472656,5.2624552490234375,1.9488801513671874,9.969465648854962,52.85496183206107,20.27480916030534,0.0
14.110000371932983,-3.842693664550781,-2.9281086303710935,1.2521674682617188,13.083969465648854,-13.099236641221374,22.091603053435115,-10.644620581054687,2.0350714111328125,1.3910311645507811,17.297709923664122,49.51145038167939,29.267175572519083,0.0
14.12000060081482,-3.7708676147460936,-2.9281086303710935,-0.00239420166015625,12.198473282442748,-12.83969465648855,8.702290076335878,-11.621454858398437,1.3718775512695311,3.5697546752929687,12.946564885496183,56.76335877862596,28.03053435114504,0.0
14.130000591278076,-5.097255334472656,-2.4157494750976563,-0.2346317626953125,11.358778625954198,0.13740458015267176,2.015267175572519,-9.713276135253906,-1.429338391113281,2.6862942626953124,31.282442748091604,43.16030534351145,27.358778625954198,0.0
14.140000581741333,-3.2321722412109373,-3.8762124877929685,-1.8626888916015625,8.67175572519084,4.900763358778626,-6.320610687022901,-10.51533369140625,-2.3319524169921872,4.122815258789062,39.12977099236641,37.343511450381676,23.81679389312977,0.0
14.15000057220459,-4.235342736816406,-2.0733786376953125,-0.9002198242187499,8.82442748091603,19.557251908396946,-15.251908396946565,-7.505822204589843,0.0383072265625,1.8459294799804686,25.908396946564885,31.52671755725191,16.03053435114504,0.0
14.160000324249268,-5.6024318847656245,-0.23702596435546874,0.12689268798828124,-10.305343511450381,24.885496183206108,-25.557251908396946,-7.319074475097656,0.6440402465820312,1.4820108276367188,15.19083969465649,29.16030534351145,15.786259541984732,0.0
14.170000553131104,-5.576095666503906,1.6328455322265625,0.26815058593749996,-28.625954198473284,28.717557251908396,-27.603053435114504,-8.588001354980468,-0.2537853759765625,2.243366955566406,7.374045801526718,27.404580152671755,19.69465648854962,0.0
14.18000078201294,-2.001552587890625,-0.82360537109375,-2.5474305664062498,-29.328244274809162,36.97709923664122,-23.404580152671755,-9.739612353515625,-1.2641384765625,2.6527754394531247,5.129770992366412,23.6793893129771,20.68702290076336,0.0
14.190000534057617,-2.6815058593749996,-1.7310078002929687,-2.0159177978515626,-24.900763358778626,57.17557251908397,-26.229007633587788,-9.804255798339844,-2.1787235107421874,4.067748620605468,1.3282442748091603,22.671755725190838,18.916030534351144,0.0
14.200000762939453,-1.3742717529296875,-2.2026655273437497,-3.3446997192382812,-19.96946564885496,68.29007633587786,-31.862595419847327,-10.192116467285155,-1.889025109863281,4.2880151733398435,1.3282442748091603,19.938931297709924,16.916030534351144,0.0
14.21000051498413,-1.7717092285156248,-2.1619640991210938,-2.731784094238281,-17.419847328244273,83.45038167938931,-37.63358778625954,-8.927977990722656,-2.1308394775390624,4.429273071289062,-1.3282442748091603,13.664122137404581,15.450381679389313,0.0
14.220000743865967,-3.287238879394531,-0.6416460449218749,-1.4820108276367188,-13.618320610687023,98.04580152671755,-43.908396946564885,-9.062053283691405,-2.2864625854492187,4.7764323120117185,-2.427480916030534,11.022900763358779,14.717557251908397,0.0
14.230000495910645,-3.919308117675781,0.3591302490234375,-0.6751648681640625,-9.740458015267176,111.8473282442748,-45.969465648854964,-8.214505895996094,-2.128445275878906,4.201823913574218,-3.648854961832061,6.061068702290076,13.969465648854962,0.0
14.240000247955322,-6.100425830078125,-0.031124621582031248,0.9648632690429687,0.6717557251908397,125.81679389312977,-41.465648854961835,-9.562441430664062,-3.385401147460937,5.166687182617188,2.9770992366412212,2.9770992366412212,16.015267175572518,0.0
14.250000476837158,-8.33182177734375,-0.6488286499023437,3.8187516479492185,15.86259541984733,135.86259541984734,-34.97709923664122,-9.595960253906249,-2.446874096679687,4.774038110351563,15.419847328244275,-8.091603053435115,13.755725190839694,0.0
14.260000705718994,-9.969455712890625,0.24181436767578124,6.524199523925781,39.541984732824424,137.84732824427482,-26.99236641221374,-8.86094034423828,-2.118868469238281,4.5968671875,18.3206106870229,-10.83969465648855,9.877862595419847,0.0
14.270000696182251,-13.036428039550781,4.479551306152343,11.410765112304686,59.52671755725191,130.9618320610687,-18.793893129770993,-6.751648681640624,-0.2609679809570312,2.896984008789062,10.091603053435115,-13.603053435114504,6.213740458015267,0.0
14.280000448226929,-12.217611071777343,6.909665991210937,12.04762275390625,58.152671755725194,96.85496183206106,-1.8931297709923665,-7.651868505859374,0.5674257934570313,3.9719805541992184,-2.122137404580153,-0.42748091603053434,11.206106870229007,0.0
14.290000915527344,-14.7482822265625,11.994950317382811,14.061146350097655,56.48854961832061,90.50381679389314,12.045801526717558,-6.270414147949219,-0.7493851196289062,2.8036101440429686,-3.236641221374046,-4.1679389312977095,18.33587786259542,0.0
14.300000667572021,-18.021155895996092,13.881581225585936,15.792154150390624,3.2061068702290076,55.61832061068702,13.389312977099237,-7.8553756469726554,-2.0159177978515626,3.450044592285156,-1.251908396946565,-2.5343511450381677,21.404580152671755,0.0
14.310000658035278,-14.326902734374999,5.568913061523437,11.372457885742186,-20.244274809160306,20.519083969465647,33.80152671755725,-9.277531433105468,-3.4907460205078125,3.394977954101562,15.34351145038168,-6.961832061068702,25.435114503816795,0.0
14.320000648498535,-9.763554370117188,-0.8667010009765624,7.256825231933593,-1.0381679389312977,9.664122137404581,45.93893129770992,-9.619902270507811,-3.392583752441406,3.3782185424804685,24.076335877862597,-9.694656488549619,23.83206106870229,0.0
14.330000877380371,-11.257536206054686,-0.7302315063476562,7.498639599609374,19.206106870229007,13.694656488549619,45.80152671755725,-7.79552060546875,-2.741360900878906,2.2290017456054687,29.267175572519083,-10.50381679389313,19.282442748091604,0.0
14.340000629425049,-4.6255976074218745,-8.061276989746093,0.3327940307617187,57.81679389312977,4.0,55.404580152671755,-9.2320416015625,-3.1866824096679687,1.695094775390625,35.05343511450382,-10.213740458015268,18.33587786259542,0.0
14.350000381469727,-5.9208607055664055,-9.160215551757812,2.3151930053710936,88.80916030534351,29.358778625954198,38.396946564885496,-8.463502868652343,-2.243366955566406,1.5394716674804687,28.610687022900763,-9.954198473282442,12.564885496183207,0.0
14.360000610351562,-6.845022546386718,-8.250418920898436,5.468356591796875,54.961832061068705,19.083969465648856,-2.1526717557251906,-10.579977136230468,-2.023100402832031,2.4516625,27.938931297709924,-4.091603053435114,4.183206106870229,0.0
14.37000060081482,-12.998120812988281,-3.4356793823242184,12.492944262695312,47.3587786259542,21.938931297709924,-24.106870229007633,-11.73398233642578,-2.2960393920898436,2.81558115234375,30.03053435114504,-4.961832061068702,-0.0916030534351145,0.0
14.380000591278076,-15.727510705566406,2.114080065917969,8.947131604003905,37.83206106870229,13.267175572519085,-27.740458015267176,-12.48097325439453,-1.5442600708007812,3.1962592163085937,28.458015267175572,-6.99236641221374,-8.198473282442748,0.0
14.390000581741333,-15.43062969970703,6.739677673339843,1.6232687255859375,19.19083969465649,7.068702290076335,-22.16793893129771,-12.780248461914061,0.2537853759765625,3.5194764404296874,18.15267175572519,-6.931297709923665,-7.435114503816794,0.0
14.40000057220459,-9.641450085449218,3.0142998901367184,-6.066907006835937,9.877862595419847,-5.938931297709924,-6.99236641221374,-13.41950030517578,0.9528922607421875,3.5098996337890624,13.404580152671755,-12.366412213740459,-0.9770992366412213,0.0
14.410000562667847,-7.445967163085937,-0.9816226806640624,-4.627991809082031,30.366412213740457,14.83969465648855,-4.0458015267175576,-14.51125626220703,0.1005564697265625,4.747701892089843,6.061068702290076,-18.259541984732824,5.984732824427481,0.0
14.420000791549683,-9.188945971679686,2.7365724975585937,-2.518700146484375,29.572519083969464,27.267175572519083,-9.954198473282442,-16.110582971191405,-0.928950244140625,6.0884548217773435,6.67175572519084,-27.786259541984734,8.320610687022901,0.0
14.430000305175781,-5.942408520507812,5.53539423828125,-5.351040710449219,41.89312977099237,34.38167938931298,-0.030534351145038167,-16.68997977294922,-0.37828386230468747,6.385335827636719,-8.427480916030534,-33.3587786259542,7.190839694656488,0.0
14.440000772476196,-7.551312036132812,6.004657763671875,-2.176329309082031,41.25190839694657,50.534351145038165,7.877862595419847,-15.030798022460937,-0.32561142578124996,6.835445739746094,-10.961832061068701,-34.30534351145038,5.847328244274809,0.0
14.450000524520874,-10.115502014160155,4.024652990722656,0.9217676391601562,15.083969465648854,57.847328244274806,3.7709923664122136,-15.090653063964844,-1.4963760375976562,5.542576843261719,4.9465648854961835,-46.94656488549618,0.8091603053435115,0.0
14.46000051498413,-10.060435375976562,0.74699091796875,0.3902548706054687,-3.816793893129771,54.88549618320611,-0.9007633587786259,-13.409923498535155,-2.2936451904296873,4.881777185058594,10.641221374045802,-53.038167938931295,-5.923664122137405,0.0
14.470000505447388,-12.179303845214843,-1.189918225097656,1.905784521484375,-12.717557251908397,54.62595419847328,-7.374045801526718,-12.794613671875,-2.8514941772460936,4.7764323120117185,23.206106870229007,-55.66412213740458,-15.86259541984733,0.0
14.480000495910645,-13.61103643798828,0.3591302490234375,2.6192566162109374,-28.091603053435115,47.969465648854964,-17.954198473282442,-11.449072338867186,-0.07422025146484375,1.5562310791015623,29.893129770992367,-66.51908396946565,-28.259541984732824,0.0
14.490000486373901,-13.041216442871093,0.33518823242187495,1.9919757812499999,-40.13740458015267,38.13740458015267,-22.885496183206108,-3.134009973144531,2.1835119140624997,-3.2345664428710936,25.46564885496183,-81.74045801526718,-33.69465648854962,0.0
14.500000476837158,-13.340491650390625,0.15322890625,1.1563994018554686,-46.732824427480914,33.74045801526717,-24.290076335877863,-9.131485131835937,3.124433166503906,0.3112462158203125,31.099236641221374,-60.82442748091603,-23.221374045801525,0.0
14.510000705718994,-9.512163195800781,-0.05027823486328125,-1.0342951171875,-48.6412213740458,25.83206106870229,-21.0381679389313,-6.718129858398437,5.798756420898437,-1.6041151123046875,23.83206106870229,-55.12977099236641,-19.541984732824428,0.0
14.52000093460083,-8.461108666992187,-1.5753846923828123,-1.9728221679687499,-44.67175572519084,21.068702290076335,-17.022900763358777,-8.226476904296874,5.722141967773437,0.7900865478515624,15.877862595419847,-32.54961832061068,-9.34351145038168,0.0
14.530000686645508,-7.40526573486328,-1.687912170410156,-2.607285607910156,-24.213740458015266,27.083969465648856,-13.312977099236642,-10.845733520507812,2.24097275390625,0.8858546142578124,20.27480916030534,-27.49618320610687,-1.8015267175572518,0.0
14.540000677108765,-9.088389501953124,0.5219359619140624,-1.2282254516601563,-12.961832061068701,30.48854961832061,-16.244274809160306,-10.263942517089843,4.235342736816406,0.5339069702148437,4.244274809160306,-22.290076335877863,-6.763358778625954,0.0
14.5500009059906,-9.550470422363281,1.8770541015625,-1.235408056640625,-5.557251908396947,36.74809160305343,-12.488549618320612,-8.808267907714843,1.1133037719726562,1.149216796875,-8.030534351145038,-10.610687022900763,-3.8473282442748094,0.0
14.5600004196167,-9.5384994140625,2.0973206542968748,-0.9433154541015625,-4.717557251908397,38.51908396946565,-9.465648854961833,-12.76827745361328,-3.801992236328125,4.8650177734375,8.320610687022901,-5.526717557251908,1.7099236641221374,0.0
14.570000886917114,-9.105148913574219,1.7334020019531249,-0.6679822631835937,-2.9618320610687023,38.0,-9.16030534351145,-11.264718811035156,-1.455674609375,2.042254016113281,28.80916030534351,-26.65648854961832,-2.7480916030534353,0.0
14.580000400543213,-10.172962854003906,2.4444798950195312,0.5315127685546874,-3.618320610687023,38.412213740458014,-8.290076335877863,-9.143456140136719,1.2569558715820313,2.7461493041992187,21.893129770992367,-25.083969465648856,-10.290076335877863,0.0
14.59000039100647,-9.445125549316407,2.1787235107421874,1.2928688964843749,-7.312977099236641,39.87786259541985,-3.9236641221374047,-11.056423266601563,-2.2098481323242187,4.546588952636719,32.44274809160305,-27.755725190839694,-6.6106870229007635,0.0
14.600000381469727,-9.229647399902344,1.5897499023437498,1.3910311645507811,-10.564885496183207,37.908396946564885,-5.648854961832061,-10.259154113769531,-0.6440402465820312,2.1643583007812497,34.94656488549618,-37.9236641221374,-12.992366412213741,0.0
14.610000610351562,-9.715670336914062,2.2960393920898436,1.8076222534179687,-12.564885496183207,36.595419847328245,-5.572519083969466,-10.58476553955078,-0.679953271484375,3.632003918457031,42.85496183206107,-39.541984732824424,-13.98473282442748,0.0
14.62000036239624,-11.3772462890625,2.3367408203125,2.8610709838867185,-20.53435114503817,34.36641221374046,-6.580152671755725,-8.748412866210938,0.9696516723632812,2.70065947265625,39.404580152671755,-42.091603053435115,-16.885496183206108,0.0
14.630000352859497,-9.402029919433593,0.4165910888671875,2.221819140625,-21.984732824427482,31.00763358778626,-5.236641221374046,-9.533711010742186,0.4070142822265625,3.4332851806640625,45.87786259541985,-45.32824427480916,-16.18320610687023,0.0
14.640000581741333,-8.690952026367187,0.584185205078125,2.0446482177734375,-21.0381679389313,29.236641221374047,-7.816793893129771,-6.888118176269531,2.7437551025390623,1.8195932617187498,28.03053435114504,-41.86259541984733,-21.206106870229007,0.0
14.65000057220459,-11.329362255859374,2.5905261962890624,3.8666356811523435,-33.64885496183206,25.14503816793893,-11.251908396946565,-9.169792358398437,0.852335791015625,5.382165332031249,32.961832061068705,-31.923664122137403,-14.091603053435115,0.0
14.660000562667847,-9.938331091308592,2.916137622070312,2.935291235351562,-44.33587786259542,13.98473282442748,-8.106870229007633,-7.381323718261719,1.3192051147460937,3.296815686035156,24.702290076335878,-37.89312977099237,-15.435114503816793,0.0
14.670000553131104,-9.744400756835937,0.9504980590820312,1.946485949707031,-45.786259541984734,6.809160305343512,-1.2061068702290076,-8.473079675292968,0.5746083984375,4.496310717773437,25.328244274809162,-31.740458015267176,-10.396946564885496,0.0
14.68000078201294,-10.790666882324219,0.507570751953125,2.8802245971679685,-41.89312977099237,7.129770992366412,-0.061068702290076333,-8.712499841308594,0.9409212524414062,4.405331054687499,23.709923664122137,-35.587786259541986,-8.320610687022901,0.0
14.690000534057617,-9.809044201660155,1.3766659545898436,2.001552587890625,-40.900763358778626,-0.7633587786259542,-0.5190839694656488,-7.529764221191406,1.9321207397460936,3.651157531738281,17.389312977099237,-32.3206106870229,-7.709923664122138,0.0
14.700000524520874,-9.303867651367186,0.22505495605468748,1.3646949462890625,-30.3206106870229,-3.7099236641221376,3.2061068702290076,-10.115502014160155,0.4955997436523437,4.824316345214844,23.755725190839694,-35.45038167938932,-1.1297709923664123,0.0
14.710000276565552,-8.427589843749999,-0.5698199951171875,0.9265560424804687,-13.053435114503817,0.32061068702290074,2.33587786259542,-5.896918688964844,3.246537451171875,2.4660277099609376,4.763358778625954,-35.93893129770992,-5.435114503816794,0.0
14.720000743865967,-8.305485559082031,-1.2210428466796874,0.8786720092773437,-3.7099236641221376,4.549618320610687,0.8244274809160306,-7.783549597167968,1.7357962036132812,4.529829541015625,1.8473282442748091,-25.61832061068702,1.0076335877862594,0.0
14.730000257492065,-8.59278975830078,0.5770026000976562,1.8411410766601561,2.8396946564885495,9.709923664122137,-5.282442748091603,-8.027758166503906,1.005564697265625,3.9552211425781247,-2.015267175572519,-32.030534351145036,3.0076335877862594,0.0
14.740000486373901,-10.927136376953124,2.2194249389648437,2.693476867675781,-0.366412213740458,12.641221374045802,-8.900763358778626,-4.721365673828124,3.2130186279296873,3.4261025756835934,-18.03053435114504,-22.3206106870229,-0.9923664122137404,0.0
14.750000476837158,-9.392453112792968,0.7541735229492187,1.1563994018554686,-1.5419847328244274,8.01526717557252,-2.7786259541984735,-7.656656909179687,-0.38307226562499996,5.248090039062499,-22.549618320610687,-14.091603053435115,6.8396946564885495,0.0
14.760000705718994,-8.343792785644531,-0.0526724365234375,0.5793968017578125,3.6946564885496183,8.83969465648855,-1.8473282442748091,-9.782707983398437,-1.5634136840820312,5.837063647460937,-10.916030534351146,-20.549618320610687,8.412213740458014,0.0
14.770000696182251,-9.217676391601563,1.2761094848632812,1.6352397338867186,9.908396946564885,15.786259541984732,-6.488549618320611,-7.089231115722656,0.32082302246093747,4.146757275390625,-8.458015267175572,-26.82442748091603,1.2366412213740459,0.0
14.780000686645508,-10.235212097167969,3.1794998046874996,2.4205378784179685,2.5801526717557253,16.290076335877863,-9.19083969465649,-4.074931225585937,1.1875240234375,4.580107775878906,-21.755725190839694,-15.053435114503817,-2.8091603053435112,0.0
14.790000915527344,-10.304643945312499,3.5003228271484375,2.5713725830078125,-6.473282442748092,13.007633587786259,-7.786259541984733,-5.4707507934570305,-0.009576806640625,4.841075756835937,-32.74809160305343,-2.519083969465649,0.44274809160305345,0.0
