timestamp,Thigh_L_Acc_X,Thigh_L_Acc_Y,Thigh_L_Acc_Z,Thigh_L_Gyr_X,Thigh_L_Gyr_Y,Thigh_L_Gyr_Z,Thigh_R_Acc_X,Thigh_R_Acc_Y,Thigh_R_Acc_Z,Thigh_R_Gyr_X,Thigh_R_Gyr_Y,Thigh_R_Gyr_Z,gpio_output
10.000000715255737,-11.080365283203124,-1.0462661254882812,0.9840168823242187,-1.2366412213740459,82.38167938931298,-3.2977099236641223,-20.23818663330078,-3.840299462890625,5.305550878906249,-12.045801526717558,-33.81679389312977,14.0,0.0
10.010000944137573,-11.9518546875,-1.3383587280273437,2.6384102294921874,-24.015267175572518,81.17557251908397,-18.045801526717558,-20.44408797607422,-2.3582886352539063,4.5585599609375,18.595419847328245,-67.89312977099236,7.3893129770992365,1.0
10.020000696182251,-10.225635290527343,0.5243301635742187,-0.08140285644531249,-33.14503816793893,76.4885496183206,-27.099236641221374,-20.1112939453125,-1.0199299072265624,4.642357019042969,21.221374045801525,-88.6412213740458,5.66412213740458,1.0
10.030000686645508,-8.0828248046875,-2.166752502441406,0.63206923828125,-20.778625954198475,86.25954198473282,-26.38167938931298,-17.64766043701172,2.032677209472656,2.925714428710937,35.31297709923664,-121.0381679389313,5.816793893129771,1.0
10.040000915527344,-4.8314989501953125,-7.173028173828125,-3.833116857910156,17.297709923664122,91.95419847328245,-22.458015267175572,-20.07777512207031,-1.5131354492187499,5.05655390625,47.41984732824427,-143.6030534351145,8.305343511450381,1.0
10.050000667572021,1.9991583862304687,-9.512163195800781,-3.9695863525390624,87.86259541984732,151.1908396946565,-22.80916030534351,-18.579004882812498,1.438915197753906,5.446808776855469,55.7557251908397,-151.48091603053436,13.022900763358779,1.0
10.060000658035278,2.7724855224609373,-11.410765112304686,-5.97592734375,141.46564885496184,178.35114503816794,-46.2442748091603,-13.354856860351562,-1.2665326782226562,5.082890124511718,47.587786259541986,-147.5267175572519,-0.13740458015267176,1.0
10.070001125335693,-5.504269616699219,-7.48906279296875,-3.3494881225585935,197.64885496183206,233.25190839694656,-69.61832061068702,-12.811373083496093,-1.8770541015625,1.7429788085937499,36.62595419847328,-156.5801526717557,-9.816793893129772,1.0
10.080193042755127,-10.831368310546875,4.039018200683594,-3.670311145019531,208.35114503816794,236.33587786259542,-91.38931297709924,-11.774683764648437,-1.1109095703125,1.9225439331054686,20.48854961832061,-147.3740458015267,-27.206106870229007,1.0
10.090000629425049,-18.176779003906248,13.967772485351562,5.035006091308594,180.9770992366412,238.53435114503816,-86.99236641221374,-9.284714038085937,0.9648632690429687,-2.89219560546875,7.251908396946565,-152.91603053435114,-38.80916030534351,1.0
10.100000858306885,-7.3478048950195305,0.8571241943359375,-4.134786267089844,142.7175572519084,198.13740458015266,-72.99236641221374,-12.569558715820312,-0.062249243164062495,-0.8954314208984374,9.114503816793894,-144.44274809160305,-42.82442748091603,1.0
10.110040664672852,-12.310984936523436,-4.170699291992188,0.21308394775390624,188.67175572519085,217.55725190839695,-74.76335877862596,-12.164938635253906,1.5155296508789062,-0.6344634399414062,12.885496183206106,-140.90076335877862,-37.45038167938932,1.0
10.120000839233398,-5.070919116210937,-3.9408559326171875,0.1484405029296875,177.5114503816794,181.96946564885496,-85.92366412213741,-12.849680310058593,4.833893151855468,-1.5610194824218748,24.870229007633586,-133.64885496183206,-38.68702290076336,1.0
10.130000352859497,-12.464213842773436,4.106055847167968,2.896984008789062,212.3206106870229,190.83969465648855,-90.44274809160305,-12.433089221191405,3.4644098022460934,-1.218648645019531,15.312977099236642,-123.3587786259542,-33.55725190839695,1.0
10.140001058578491,-13.2159931640625,20.039467895507812,6.902483386230468,101.06870229007633,136.74809160305344,-100.3206106870229,-7.9272016967773435,7.3094976684570305,-5.272032055664062,-15.816793893129772,-116.82442748091603,-47.25190839694657,1.0
10.15000057220459,-5.540182641601562,8.542511523437499,3.1866824096679687,-32.70229007633588,81.1145038167939,-91.19083969465649,-8.283937744140625,4.067748620605468,-2.8203695556640622,-16.564885496183205,-92.51908396946565,-34.10687022900763,1.0
10.160000562667847,-6.986280444335937,3.414131567382812,1.5658078857421873,-68.97709923664122,62.76335877862596,-93.00763358778626,-7.979874133300781,2.3439234252929686,-3.83072265625,-3.786259541984733,-96.19847328244275,-29.46564885496183,1.0
10.170037984848022,-7.716511950683593,2.0063409912109376,0.82360537109375,-76.3206106870229,56.213740458015266,-89.93893129770993,-6.423643054199219,3.3159692993164063,-1.0630255371093749,-1.1297709923664123,-85.63358778625954,-28.48854961832061,1.0
10.18000054359436,-7.941566906738281,-2.834734765625,-1.5873557006835937,-38.25954198473283,70.8854961832061,-74.25954198473282,-8.904035974121093,0.0718260498046875,2.499546533203125,13.954198473282442,-78.80916030534351,-21.6793893129771,1.0
10.190000534057617,-10.117896215820313,0.15083470458984374,-0.023942016601562498,-9.114503816793894,79.40458015267176,-74.09160305343511,-8.396465222167969,1.209071838378906,3.0621839233398433,15.48091603053435,-86.61068702290076,-24.18320610687023,1.0
10.200000524520874,-10.139444030761718,-1.9393033447265624,0.16519991455078123,7.435114503816794,88.45801526717557,-71.48091603053435,-7.381323718261719,2.080561242675781,1.1635820068359375,18.732824427480917,-95.17557251908397,-25.61832061068702,1.0
10.21000051498413,-11.247959399414063,3.2609026611328122,1.4867992309570313,10.717557251908397,91.93893129770993,-79.77099236641222,-9.33978067626953,-0.3447650390625,2.7916391357421872,18.27480916030534,-92.07633587786259,-20.82442748091603,0.0
10.220000505447388,-7.4579381713867186,0.7493851196289062,0.9169792358398436,1.3282442748091603,91.45038167938931,-83.05343511450381,-6.4834980957031245,2.2361843505859373,0.1149216796875,3.1603053435114505,-98.83969465648855,-24.30534351145038,0.0
10.230000734329224,-10.601524951171875,3.1699229980468746,2.5641899780273434,-15.969465648854962,83.06870229007633,-89.98473282442748,-8.832209924316405,1.3742717529296875,1.4724340209960938,5.404580152671755,-91.7557251908397,-18.045801526717558,0.0
10.240046739578247,-10.263942517089843,3.574543078613281,2.0757728393554684,-20.99236641221374,82.36641221374046,-91.37404580152672,-6.112396838378906,3.718195178222656,0.3902548706054687,-11.969465648854962,-91.87786259541984,-20.748091603053435,0.0
10.250000476837158,-7.417236743164062,0.565031591796875,0.16041151123046873,-36.274809160305345,71.3587786259542,-84.13740458015268,-8.729259252929687,1.2593500732421874,2.473210314941406,-3.480916030534351,-85.69465648854961,-13.404580152671755,0.0
10.260000705718994,-8.068459594726562,3.4548329956054684,-0.16519991455078123,-32.36641221374046,70.61068702290076,-81.43511450381679,-7.417236743164062,2.47081611328125,1.4820108276367188,-9.541984732824428,-96.8854961832061,-18.65648854961832,0.0
10.270000696182251,-6.943184814453125,2.1452046874999997,-1.0702081420898437,-40.0763358778626,70.30534351145039,-72.82442748091603,-7.244854223632812,1.5969325073242187,3.4548329956054684,-14.229007633587786,-88.22900763358778,-14.076335877862595,0.0
10.280000686645508,-8.55448253173828,3.7301661865234372,0.05985504150390625,-46.44274809160305,66.12213740458016,-67.7557251908397,-8.027758166503906,1.458068811035156,2.712630480957031,-12.0,-96.44274809160305,-14.992366412213741,0.0
10.290000915527344,-22.924480895996094,26.25960380859375,11.432312927246093,-114.9618320610687,64.29007633587786,-83.23664122137404,-7.273584643554687,3.227383837890625,3.0621839233398433,-23.022900763358777,-92.44274809160305,-13.923664122137405,0.0
10.300000667572021,-10.196904870605469,6.900089184570312,4.436455676269531,-223.5114503816794,4.9465648854961835,-57.31297709923664,-9.435548742675781,1.3718775512695311,2.6192566162109374,-16.3206106870229,-96.44274809160305,-10.900763358778626,0.0
10.3100004196167,-5.722141967773437,-3.7229835815429686,-4.838681555175781,-169.75572519083968,3.3740458015267176,-30.229007633587788,-7.242460021972656,1.5873557006835937,2.6862942626953124,-27.221374045801525,-96.33587786259542,-10.564885496183207,0.0
10.320000648498535,-29.393613781738278,26.60197464599609,10.781090075683593,-183.8320610687023,27.114503816793892,-36.412213740458014,-8.772354882812499,0.6727706665039062,3.497928625488281,-14.122137404580153,-93.6030534351145,-7.419847328244275,0.0
10.330000638961792,-13.304578625488281,6.1626750732421876,2.6575638427734374,-320.77862595419845,-56.152671755725194,2.33587786259542,-8.116343627929687,3.1794998046874996,2.4684219116210935,-15.679389312977099,-94.87022900763358,-8.305343511450381,0.0
10.340000629425049,-18.49041942138672,5.058948107910156,0.7254431030273437,-253.25190839694656,-61.05343511450382,39.25190839694657,-7.0461354858398435,2.3918074584960936,2.73896669921875,-23.66412213740458,-97.38931297709924,-2.3969465648854964,0.0
10.350000381469727,-8.568847741699217,-7.9295958984374995,-3.6679169433593746,-200.76335877862596,-71.77099236641222,74.82442748091603,-8.231265307617187,3.1483751831054687,2.2649147705078123,-21.801526717557252,-91.81679389312977,-3.1603053435114505,0.0
10.360000848770142,-13.153743920898437,-6.890512377929687,1.2401964599609374,-140.7175572519084,-56.961832061068705,67.43511450381679,-8.226476904296874,1.0678139404296874,2.6862942626953124,-19.34351145038168,-86.79389312977099,-0.7480916030534351,0.0
10.37000060081482,-7.687781530761718,-10.031704956054687,-2.6862942626953124,-109.19083969465649,-64.03053435114504,51.32824427480916,-7.8338278320312495,1.3934253662109375,4.158728283691406,-16.061068702290076,-80.27480916030534,-0.8396946564885496,0.0
10.380000829696655,-1.7286135986328124,-11.824961999511718,-5.7508723876953125,-35.37404580152672,-41.541984732824424,42.36641221374046,-4.8506525634765625,1.9201497314453124,2.4684219116210935,-20.0,-82.12213740458016,-0.916030534351145,0.0
10.390000820159912,-5.518634826660156,-5.674257934570313,-1.7094599853515624,-19.053435114503817,-19.87786259541985,18.870229007633586,-6.45476767578125,0.7805097412109374,3.9911341674804683,-9.84732824427481,-69.6793893129771,-1.099236641221374,0.0
10.40000033378601,-4.472368701171875,-4.855440966796874,-2.0638018310546875,26.580152671755727,6.2748091603053435,3.5419847328244276,-0.00239420166015625,3.1603461914062496,1.6615759521484375,-23.984732824427482,-67.6030534351145,-7.480916030534351,0.0
10.410000562667847,-7.60398447265625,0.15562310791015624,-0.5889736083984375,27.786259541984734,43.49618320610687,-14.045801526717558,-2.272097375488281,0.05027823486328125,5.288791467285156,-33.7557251908397,-38.045801526717554,-7.297709923664122,0.0
10.420024633407593,-9.342174877929686,1.6256629272460936,-1.189918225097656,24.229007633587788,60.396946564885496,-23.0381679389313,-2.4253262817382812,0.1484405029296875,2.89219560546875,-45.282442748091604,-36.18320610687023,-13.541984732824428,0.0
10.430000305175781,-9.370905297851563,0.0430956298828125,-1.9919757812499999,28.53435114503817,75.86259541984732,-22.03053435114504,-5.643133312988281,-0.6536170532226562,4.441244079589843,-40.42748091603053,-24.748091603053435,-13.526717557251908,0.0
10.440000295639038,-8.034940771484374,0.8475473876953125,-1.0702081420898437,24.290076335877863,79.83206106870229,-31.328244274809162,-4.946420629882812,0.430956298828125,1.9297265380859374,-38.68702290076336,-32.274809160305345,-17.6793893129771,0.0
10.450000524520874,-10.307038146972655,3.5769372802734374,-0.3687070556640625,22.48854961832061,83.89312977099236,-42.50381679389313,-4.690241052246093,2.0973206542968748,2.592920397949219,-47.20610687022901,-14.122137404580153,-19.282442748091604,0.0
10.46000051498413,-11.626243261718749,5.896918688964844,1.879448303222656,-2.045801526717557,77.49618320610686,-46.10687022900763,-6.746860278320312,0.8882488159179687,2.6240450195312497,-57.587786259541986,-5.404580152671755,-14.16793893129771,0.0
10.470000505447388,-13.536816186523437,1.5107412475585937,1.407790576171875,-6.320610687022901,62.0763358778626,-38.656488549618324,-9.141061938476563,-1.8602946899414061,4.129997863769531,-45.23664122137404,-1.786259541984733,-8.396946564885496,0.0
10.480000734329224,-12.387599389648436,4.094084838867187,2.2649147705078123,-7.8320610687022905,55.267175572519086,-34.01526717557252,-8.190563879394531,-2.6048914062499997,3.124433166503906,-28.732824427480917,-11.877862595419847,-10.16793893129771,0.0
10.490140199661255,-13.153743920898437,5.53539423828125,2.5426421630859375,-28.213740458015266,39.770992366412216,-26.778625954198475,-7.848193041992187,-1.1947066284179686,3.871424084472656,-9.541984732824428,-13.022900763358779,-12.80916030534351,0.0
10.500000476837158,-14.080299963378906,4.613626599121093,3.19865341796875,-37.725190839694655,30.83969465648855,-9.129770992366412,-6.337451794433593,0.430956298828125,3.5529952636718747,-9.48091603053435,-13.129770992366412,-14.15267175572519,0.0
10.510000705718994,-10.189722265624999,-0.4644751220703125,0.19632453613281248,-33.48091603053435,21.862595419847327,5.145038167938932,-5.5258174316406246,0.6631938598632812,3.852270471191406,-18.625954198473284,-2.198473282442748,-13.786259541984732,0.0
10.520000696182251,-10.338162768554687,0.0,1.0127473022460938,-24.12213740458015,27.52671755725191,0.5648854961832062,-6.337451794433593,-0.7876923461914062,4.778826513671874,-15.49618320610687,2.381679389312977,-10.625954198473282,0.0
10.530000686645508,-10.137049829101562,-0.7062894897460937,1.350329736328125,-30.412213740458014,24.80916030534351,-6.824427480916031,-6.356605407714843,-1.24498486328125,5.413289953613281,-10.564885496183207,5.786259541984733,-10.183206106870228,0.0
10.540000438690186,-12.253524096679687,1.5346832641601562,1.8818425048828125,-30.778625954198475,21.14503816793893,-12.595419847328245,-6.229712719726562,-1.0845733520507812,5.473144995117187,-6.67175572519084,7.633587786259542,-10.51908396946565,0.0
10.550000667572021,-10.577582934570312,-1.1276689819335937,1.3287819213867187,-40.13740458015267,7.511450381679389,-14.732824427480915,-6.64630380859375,-1.0175357055664063,5.571307263183593,1.3435114503816794,9.694656488549619,-10.748091603053435,0.0
10.560000658035278,-10.946289990234375,-2.4349030883789062,0.948103857421875,-16.3206106870229,16.900763358778626,-11.038167938931299,-6.619967590332031,-0.7733271362304687,5.2624552490234375,3.3435114503816794,12.320610687022901,-12.15267175572519,0.0
10.570000648498535,-9.674968908691406,-3.3399113159179685,0.373495458984375,1.7099236641221374,21.6793893129771,-13.541984732824428,-6.4643444824218745,-0.19153613281249998,4.611232397460937,7.816793893129771,15.053435114503817,-12.442748091603054,0.0
10.58002257347107,-10.20169327392578,-1.8171990600585937,0.6919242797851562,10.977099236641221,21.6793893129771,-15.770992366412214,-6.619967590332031,0.2705447875976562,4.450820886230469,8.885496183206106,18.16793893129771,-10.977099236641221,0.0
10.590000629425049,-10.517727893066406,0.0430956298828125,1.1013327636718748,21.31297709923664,20.870229007633586,-17.64885496183206,-6.1459156616210935,0.4525041137695312,4.261678955078125,7.419847328244275,22.091603053435115,-8.961832061068701,0.0
10.600000858306885,-9.600748657226562,0.5674257934570313,0.5578489868164063,19.19083969465649,15.877862595419847,-19.633587786259543,-4.5585599609375,2.0733786376953125,2.959233251953125,-1.7404580152671756,26.916030534351144,-9.435114503816793,0.0
10.610000610351562,-10.989385620117186,2.04943662109375,0.8690952026367187,19.770992366412212,17.633587786259543,-20.717557251908396,-3.5051112304687497,2.5570073730468748,2.0350714111328125,-14.259541984732824,36.030534351145036,-8.580152671755725,0.0
10.620000839233398,-12.126631408691406,2.9496564453125,2.3391350219726563,7.9541984732824424,13.129770992366412,-24.885496183206108,0.4955997436523437,5.791573815917968,-0.16759411621093748,-47.06870229007634,53.541984732824424,-9.34351145038168,0.0
10.630000591278076,-11.137826123046874,2.8706477905273435,2.2266075439453124,5.236641221374046,11.816793893129772,-21.572519083969464,-5.434837768554687,3.5410242553710933,3.0119056884765625,-93.41984732824427,106.82442748091603,-3.0839694656488548,0.0
10.640000820159912,-13.165714929199218,5.046977099609375,4.264073156738281,-12.305343511450381,4.427480916030534,-19.099236641221374,8.152256652832031,9.85692823486328,-8.116343627929687,-147.63358778625954,100.59541984732824,-5.068702290076335,0.0
10.65000033378601,-13.682862487792969,6.373364819335937,5.980715747070312,-35.17557251908397,-13.770992366412214,-15.007633587786259,2.6001030029296874,15.342044238281249,-9.682151513671874,-263.14503816793894,206.9618320610687,0.4580152671755725,0.0
10.660000562667847,-11.027692846679686,2.051830822753906,4.647145422363281,-43.61832061068702,-30.580152671755727,-1.984732824427481,-10.527304699707031,-0.30406361083984373,-2.3918074584960936,-246.5801526717557,234.51908396946564,49.52671755725191,0.0
10.670000553131104,-14.290989709472655,2.3415292236328122,6.026205578613281,-22.900763358778626,-28.229007633587788,-3.2977099236641223,-13.038822241210937,-7.771578588867187,-0.29927520751953124,-131.38931297709922,198.9770992366412,68.77862595419847,0.0
10.68000054359436,-15.035586425781249,1.9847931762695312,7.362170104980469,-16.732824427480917,-46.534351145038165,-4.473282442748092,-12.248735693359373,-8.731653454589843,-0.6248866333007812,-106.01526717557252,210.41221374045801,53.49618320610687,0.0
10.690000534057617,-14.659696765136719,-1.1540052001953125,8.257601525878906,1.8931297709923665,-67.14503816793894,2.8396946564885495,-17.712303881835936,-9.634267480468749,2.5354595581054684,-52.2442748091603,199.0229007633588,54.656488549618324,0.0
10.700000524520874,-19.7282216796875,2.645592834472656,12.394781994628906,6.931297709923665,-80.2442748091603,-5.755725190839694,0.97683427734375,5.173869787597656,-9.162609753417968,-96.10687022900764,146.3206106870229,7.297709923664122,0.0
10.710000276565552,-19.237410339355467,3.976768957519531,14.427459204101561,0.5954198473282443,-119.25190839694656,-1.4351145038167938,-14.49210264892578,13.548787194824218,-4.53940634765625,-295.37404580152673,261.22137404580155,-18.946564885496183,0.0
10.720000505447388,-22.239739221191407,0.7948749511718749,18.638859924316407,15.908396946564885,-163.64885496183206,15.618320610687023,-24.710555334472655,3.6080619018554687,3.134009973144531,-382.0458015267176,253.14503816793894,-12.305343511450381,0.0
10.730000734329224,-21.7201974609375,0.6464344482421874,21.45922947998047,52.80916030534351,-203.70992366412213,14.687022900763358,-34.052730212402345,-23.223756103515623,14.132972399902343,-314.5648854961832,222.44274809160305,5.969465648854962,0.0
10.740000486373901,-22.155942163085935,2.6048914062499997,15.406687683105467,89.0381679389313,-239.54198473282443,29.709923664122137,-18.176779003906248,-20.1879083984375,16.589423303222656,-35.89312977099237,128.76335877862596,53.14503816793893,0.0
10.750000953674316,-22.96518232421875,-0.5099649536132812,8.932766394042968,103.37404580152672,-258.3358778625954,49.038167938931295,-9.3086560546875,-8.911218579101561,8.444349255371094,168.33587786259542,49.55725190839695,111.0381679389313,0.0
10.760000705718994,-25.409662219238278,-1.889025109863281,6.179434484863281,84.8854961832061,-276.44274809160305,53.465648854961835,-2.8419173706054686,2.7653029174804686,-5.331887097167969,257.8625954198473,-2.50381679389313,137.25190839694656,0.0
10.770000696182251,-24.167071557617184,-0.8164227661132812,0.7326257080078125,76.19847328244275,-294.0458015267176,70.82442748091603,-1.848323681640625,9.430760339355468,-11.348515869140625,162.01526717557252,30.83969465648855,109.34351145038168,0.0
10.780166149139404,-20.731392175292967,0.4908113403320312,-7.659051110839843,49.98473282442748,-302.8702290076336,85.12977099236642,-4.656722229003906,10.16338604736328,-6.979097839355468,52.48854961832061,79.6793893129771,62.717557251908396,0.0
10.790000677108765,-15.562310791015625,0.8738836059570312,-7.848193041992187,16.641221374045802,-304.3358778625954,83.86259541984732,-7.2903440551757805,6.548141540527343,-3.9312791259765625,-45.221374045801525,131.80152671755727,33.38931297709924,0.0
10.800000429153442,-10.989385620117186,-3.3255461059570313,-4.867411975097656,30.946564885496183,-292.8854961832061,82.01526717557252,-9.488221179199218,0.7493851196289062,-0.36391865234375,-52.3206106870229,134.8091603053435,28.3206106870229,0.0
10.810038089752197,-8.001421948242188,-4.4005426513671875,-2.597708801269531,61.74045801526717,-267.0534351145038,75.63358778625954,-15.397110876464843,-3.6463691284179687,2.789244934082031,8.793893129770993,112.35114503816794,48.30534351145038,0.0
10.820000648498535,-7.711723547363281,-4.984727856445312,-1.4867992309570313,94.6412213740458,-234.45801526717557,66.53435114503817,-15.028403820800781,-5.439626171875,2.5043349365234375,44.732824427480914,104.79389312977099,71.09923664122137,0.0
10.830000638961792,-7.6087728759765625,-3.5506010620117183,-1.5131354492187499,112.67175572519083,-207.25190839694656,55.404580152671755,-12.00931552734375,2.9185318237304685,-2.212242333984375,85.54198473282443,76.25954198473282,76.91603053435115,0.0
10.84000039100647,-8.580818749999999,-1.2689268798828124,-2.5330653564453125,128.1679389312977,-186.77862595419847,50.30534351145038,-12.512097875976561,-1.0103531005859374,0.1484405029296875,34.900763358778626,82.67175572519083,74.41221374045801,0.0
10.850000619888306,-9.131485131835937,1.0031704956054688,-0.9600748657226562,122.12213740458016,-171.14503816793894,50.36641221374046,-9.945513696289062,3.6367923217773437,0.3280056274414062,41.51145038167939,68.16793893129771,63.099236641221374,0.0
10.860036849975586,-8.91840118408203,3.7110125732421873,0.5458779785156249,94.0,-167.9083969465649,56.152671755725194,-9.74200655517578,-1.85790048828125,4.050989208984375,18.610687022900763,74.74809160305344,55.80152671755725,0.0
10.87000060081482,-8.978256225585938,5.760449194335937,1.4221557861328125,52.62595419847328,-166.27480916030535,62.3206106870229,-8.738836059570312,0.9911994873046874,1.8171990600585937,41.81679389312977,60.99236641221374,48.916030534351144,0.0
10.880000829696655,-6.275202551269531,5.183446594238281,0.948103857421875,9.114503816793894,-168.50381679389312,65.7557251908397,-7.747636572265624,1.407790576171875,0.08140285644531249,11.282442748091603,67.6793893129771,44.62595419847328,0.0
10.890000581741333,-4.987122058105468,3.801992236328125,0.11731588134765625,-24.076335877862597,-162.0,64.62595419847328,-9.392453112792968,-1.3383587280273437,1.1420341918945311,26.763358778625953,65.19083969465649,45.89312977099237,0.0
10.90000033378601,-2.152387292480469,-0.28969840087890625,-4.053383410644531,-42.94656488549618,-155.72519083969465,61.02290076335878,-18.50717883300781,-14.353238952636717,9.006986645507812,83.06870229007633,70.47328244274809,61.02290076335878,0.0
10.910000324249268,-1.6998831787109374,0.7948749511718749,-3.8043864379882812,-52.42748091603053,-127.1145038167939,49.282442748091604,-6.045359191894531,1.7429788085937499,-0.49799394531249996,133.81679389312978,28.442748091603054,51.847328244274806,0.0
10.920000791549683,-1.879448303222656,1.2306196533203124,-3.4093431640625,-60.33587786259542,-106.10687022900764,41.969465648854964,-6.718129858398437,1.8219874633789062,-2.626439221191406,40.274809160305345,45.847328244274806,36.595419847328245,0.0
10.93000054359436,3.1938650146484373,-2.9759926635742184,-4.790797521972656,-61.06870229007634,-85.69465648854961,41.19083969465649,-18.037915307617187,-14.79856046142578,10.026916552734374,85.58778625954199,61.541984732824424,55.43511450381679,0.0
10.940000534057617,3.593696691894531,-4.285620971679688,-4.367023828124999,-51.06870229007634,-41.12977099236641,29.206106870229007,-11.61906065673828,-8.418013037109375,7.050923889160156,194.03053435114504,15.954198473282442,58.6412213740458,0.0
10.950000524520874,2.1356278808593747,-4.4196962646484375,-2.9855694702148434,-48.732824427480914,-15.648854961832061,14.061068702290076,-5.2624552490234375,1.4963760375976562,-2.300827795410156,185.22137404580153,-23.34351145038168,34.44274809160305,0.0
10.96000051498413,3.0597897216796874,-4.357447021484375,-2.8203695556640622,-28.748091603053435,9.969465648854962,5.190839694656488,-18.62928311767578,-19.469647900390623,12.411541406249999,118.38167938931298,25.572519083969464,39.587786259541986,0.0
10.970000505447388,1.1109095703125,-1.8435352783203125,0.9026140258789062,3.0839694656488548,35.12977099236641,-0.8091603053435115,-10.465055456542968,-5.092466931152344,6.023811376953125,236.42748091603053,-43.52671755725191,18.396946564885496,0.0
10.980000495910645,-2.4971523315429685,1.0917559570312498,6.227318518066406,28.03053435114504,46.091603053435115,-4.473282442748092,-8.70771143798828,3.938461730957031,-2.844311572265625,153.38931297709922,-62.42748091603053,-14.13740458015267,0.0
10.99000072479248,0.143652099609375,0.05027823486328125,6.4475850708007805,56.33587786259542,49.541984732824424,6.6106870229007635,-7.838616235351562,3.114856359863281,-0.4740519287109375,70.94656488549619,-32.458015267175576,-28.18320610687023,0.0
11.000000476837158,-0.9145850341796874,2.7557261108398436,8.789114294433594,71.17557251908397,60.93129770992366,12.732824427480915,-5.372588525390625,4.826710546875,-1.9728221679687499,50.656488549618324,-27.87786259541985,-28.412213740458014,0.0
11.010000705718994,-2.73896669921875,5.736507177734374,9.160215551757812,68.76335877862596,57.908396946564885,12.732824427480915,-6.787561706542968,2.2170307373046874,0.6248866333007812,53.11450381679389,-23.755725190839694,-10.305343511450381,0.0
11.020071506500244,0.29927520751953124,4.522646936035156,6.598419775390624,71.06870229007633,49.267175572519086,21.374045801526716,-10.761936462402343,2.8993782104492185,2.952050646972656,28.27480916030534,-4.442748091603053,3.312977099236641,0.0
11.030000448226929,-1.9129671264648436,6.268019946289062,7.127538342285156,76.16793893129771,60.0763358778626,30.03053435114504,-14.836867687988281,2.89219560546875,5.078101721191406,10.641221374045802,22.106870229007633,14.961832061068701,0.0
11.040046215057373,-7.173028173828125,9.993397729492187,7.711723547363281,51.38931297709924,58.16793893129771,31.328244274809162,-13.041216442871093,4.031835595703125,3.303998291015625,-6.320610687022901,23.053435114503817,17.740458015267176,0.0
11.050000667572021,-11.02529864501953,8.128314636230469,2.0087351928710935,2.4427480916030535,59.9236641221374,38.88549618320611,-12.229582080078124,6.517016918945312,2.940079638671875,-58.62595419847328,30.732824427480917,17.923664122137403,0.0
11.060000658035278,-15.765817932128906,2.473210314941406,2.9185318237304685,-49.6793893129771,69.05343511450381,23.66412213740458,-15.002067602539062,3.892971899414062,2.722207287597656,-89.19083969465649,30.85496183206107,22.458015267175572,0.0
11.070000410079956,-20.465635791015625,2.4301146850585935,9.337386474609374,-55.29770992366412,66.6412213740458,5.4961832061068705,-19.136853869628904,0.00718260498046875,2.549824768066406,-84.2442748091603,15.114503816793894,26.47328244274809,0.0
11.080000638961792,-18.06664572753906,-0.9935936889648437,8.59997236328125,-34.25954198473283,74.29007633587786,12.549618320610687,-18.78251202392578,-3.1747114013671873,4.359841223144531,-80.68702290076335,-1.4809160305343512,22.549618320610687,0.0
11.090000629425049,-14.372392565917968,-5.760449194335937,6.864176159667968,-47.89312977099237,82.73282442748092,7.312977099236641,-19.553444958496094,-5.667075329589843,5.2073886108398435,-55.69465648854962,-29.603053435114504,14.213740458015268,0.0
11.100000381469727,-9.763554370117188,-5.947196923828125,-0.4525041137695312,-46.88549618320611,85.63358778625954,-2.9770992366412212,-17.51837354736328,-3.883395092773437,5.513846423339843,-32.87022900763359,-64.33587786259542,4.244274809160306,0.0
11.110000610351562,-9.785102185058593,-5.5545478515625,-0.11731588134765625,-45.32824427480916,84.99236641221374,-23.068702290076335,-20.695479150390625,-5.303156677246093,9.306261853027344,-9.19083969465649,-87.0381679389313,1.9694656488549618,0.0
11.120000839233398,-7.163451367187499,-5.793968017578124,-1.8148048583984373,-24.916030534351144,86.97709923664122,-31.17557251908397,-22.65154190673828,-3.0909143432617188,9.777919580078125,34.091603053435115,-130.5801526717557,8.580152671755725,0.0
11.130000352859497,-10.115502014160155,-1.4963760375976562,0.5243301635742187,-13.19083969465649,90.79389312977099,-43.12977099236641,-16.091429357910155,3.1651345947265623,1.7022773803710936,31.587786259541986,-170.53435114503816,9.435114503816793,0.0
11.140000820159912,3.9983167724609374,-10.812214697265624,-1.936909143066406,61.908396946564885,99.74045801526718,-23.0381679389313,-18.102558752441404,0.0526724365234375,4.086902233886718,52.732824427480914,-177.0381679389313,12.778625954198473,0.0
11.15000057220459,6.931213806152344,-19.244592944335935,-9.332598071289063,176.76335877862596,188.5801526717557,-30.244274809160306,-13.618219042968748,-1.6041151123046875,0.6200982299804687,56.56488549618321,-195.9236641221374,2.6564885496183206,0.0
11.160000562667847,-14.439430212402343,0.5315127685546874,-3.0406361083984375,194.2290076335878,227.98473282442748,-101.05343511450381,-8.63109698486328,3.42849677734375,-0.16280571289062498,54.916030534351144,-177.49618320610688,-23.19083969465649,0.0
11.170000553131104,-6.675034228515624,2.7461493041992187,-4.498704919433593,187.16030534351145,212.18320610687022,-87.00763358778626,-8.33182177734375,2.0781670410156248,-1.8148048583984373,20.549618320610687,-162.59541984732823,-28.519083969465647,0.0
11.18000054359436,-2.9496564453125,-4.951209033203125,-8.252813122558594,243.80152671755727,254.13740458015266,-61.7557251908397,-7.319074475097656,1.5682020874023437,-3.21780703125,-2.015267175572519,-155.89312977099237,-34.13740458015267,0.0
11.190000534057617,-16.498443640136717,7.378929516601562,1.446097802734375,252.21374045801528,269.5267175572519,-93.43511450381679,-8.757989672851561,1.9871873779296874,-5.154716174316406,5.32824427480916,-144.94656488549617,-40.58015267175573,0.0
11.200000524520874,-22.105663928222654,20.16157218017578,10.029310754394531,149.74045801526717,215.70992366412213,-115.58778625954199,-11.786654772949218,0.4860229370117187,-3.9600095458984375,4.564885496183206,-129.17557251908397,-38.29007633587786,0.0
11.21000051498413,1.3814543579101561,-9.088389501953124,-13.072341064453123,115.81679389312977,138.0763358778626,-70.61068702290076,-14.774618444824219,-1.2832920898437499,-2.7174188842773437,18.12213740458015,-119.83206106870229,-30.641221374045802,0.0
11.220000505447388,-8.204929089355469,-11.413159313964844,-1.5466542724609373,286.7480916030534,221.96946564885496,-64.0,-11.092336291503905,-1.199495031738281,-1.6256629272460936,29.34351145038168,-117.14503816793894,-33.89312977099237,0.0
11.230000257492065,-15.734693310546874,20.784064611816405,9.10993731689453,188.51908396946564,172.0916030534351,-90.58015267175573,-9.342174877929686,0.8978256225585937,0.316034619140625,53.786259541984734,-110.59541984732824,-42.83969465648855,0.0
11.240000486373901,-12.105083593749999,24.372972900390625,7.45075556640625,32.50381679389313,109.61832061068702,-86.22900763358778,-9.983820922851562,5.4899044067382805,-0.9313444458007812,42.18320610687023,-110.25954198473282,-44.76335877862596,0.0
11.250000476837158,-8.305485559082031,16.737863806152344,3.8187516479492185,-100.85496183206106,51.41984732824427,-82.10687022900764,-11.118672509765624,3.1603461914062496,-0.21787235107421873,31.480916030534353,-104.06106870229007,-43.00763358778626,0.0
11.260000705718994,-2.2457611572265623,-2.8802245971679685,-3.6655227416992187,-122.62595419847328,42.13740458015267,-66.01526717557252,-9.45470235595703,3.268085266113281,-2.0925322509765625,22.916030534351144,-100.22900763358778,-46.85496183206107,0.0
11.270000696182251,-9.129090930175781,-0.8571241943359375,-0.8475473876953125,-98.21374045801527,53.603053435114504,-61.61832061068702,-8.932766394042968,2.1260510742187497,-2.0757728393554684,32.01526717557252,-103.05343511450381,-46.85496183206107,0.0
11.280000686645508,-8.374917407226562,-4.951209033203125,-2.482787121582031,-68.03053435114504,64.76335877862596,-52.94656488549618,-8.147468249511718,2.8012159423828122,-0.2346317626953125,30.198473282442748,-96.51908396946565,-42.717557251908396,0.0
11.290000915527344,-8.044517578125,-7.884106066894531,-1.6519991455078125,-11.419847328244275,88.51908396946565,-51.80152671755725,-5.693411547851563,4.158728283691406,0.34237083740234375,16.290076335877863,-97.54198473282443,-35.93893129770992,0.0
11.300000667572021,-11.949460485839843,-3.35188232421875,2.0638018310546875,22.35114503816794,105.06870229007633,-66.9618320610687,-6.672640026855468,4.161122485351562,1.2761094848632812,11.938931297709924,-94.41221374045801,-29.83206106870229,0.0
11.310000658035278,-9.792284790039062,-2.8467057739257813,-0.17477672119140625,22.595419847328245,100.67175572519083,-81.72519083969466,-8.013392956542969,1.9033903198242186,3.545812658691406,-2.045801526717557,-87.16030534351145,-24.16793893129771,0.0
11.320000648498535,-10.374075793457031,3.3710359375,2.511517541503906,11.725190839694656,96.65648854961832,-89.31297709923665,-5.157110375976562,3.0358477050781247,0.9433154541015625,-17.17557251908397,-98.12213740458016,-28.946564885496183,0.0
11.330000638961792,-12.413935607910156,5.5832782714843745,3.0071172851562498,-8.351145038167939,88.22900763358778,-87.6793893129771,-6.438008264160156,1.7525556152343749,3.9049429077148434,-18.717557251908396,-86.51908396946565,-22.106870229007633,0.0
11.340000629425049,-7.905653881835937,2.5378537597656248,1.3455413330078123,-26.580152671755727,74.94656488549619,-78.07633587786259,-5.4515971801757805,2.612074011230469,1.936909143066406,-27.81679389312977,-94.03053435114504,-25.64885496183206,0.0
11.350000619888306,-9.847351428222655,5.691017346191406,2.6336218261718747,-40.70229007633588,65.58778625954199,-72.45801526717557,-6.845022546386718,1.4508862060546874,3.641580725097656,-28.610687022900763,-82.8854961832061,-19.450381679389313,0.0
11.360000848770142,-8.020575561523437,1.3215993164062498,0.4429273071289062,-42.458015267175576,57.25190839694657,-59.74045801526717,-7.79552060546875,1.429338391113281,2.492363928222656,-20.244274809160306,-89.55725190839695,-17.633587786259543,0.0
11.37000060081482,-24.97391751708984,26.068067675781247,16.409858178710937,-95.02290076335878,59.41984732824427,-71.86259541984732,-7.879317663574218,0.7565677246093749,4.197035510253906,-26.396946564885496,-80.59541984732824,-15.404580152671755,0.0
11.380000829696655,-5.623979699707031,-2.2840683837890623,0.3184288208007812,-141.9083969465649,10.106870229007633,-36.2442748091603,-11.0707884765625,0.8954314208984374,3.105279553222656,-11.84732824427481,-89.14503816793894,-11.083969465648854,0.0
11.390000343322754,-3.296815686035156,-6.825868933105468,-3.5051112304687497,-59.05343511450382,23.87786259541985,-18.015267175572518,-8.104372619628906,0.6631938598632812,3.4261025756835934,-22.977099236641223,-89.63358778625954,-13.038167938931299,0.0
11.40000057220459,-22.579715856933593,18.464083203125,11.805808386230469,-101.6793893129771,23.34351145038168,-40.51908396946565,-10.038887561035155,-1.5011644409179687,4.608838195800781,-7.374045801526718,-87.80152671755725,-12.900763358778626,0.0
11.410000562667847,-21.22938612060547,22.30677686767578,14.93263575439453,-261.31297709923666,-44.412213740458014,-44.74809160305343,-9.897629663085937,0.0143652099609375,3.42849677734375,-5.587786259541985,-89.70992366412214,-13.679389312977099,0.0
11.420000791549683,-8.750807067871094,1.4030021728515625,-4.534617944335937,-278.1832061068702,-84.41221374045801,3.2519083969465647,-8.805873706054687,1.4604630126953124,1.6807295654296874,-13.557251908396946,-100.73282442748092,-12.290076335877863,0.0
11.430000305175781,-4.261678955078125,-11.805808386230469,-8.396465222167969,-146.21374045801528,-61.81679389312977,42.030534351145036,-10.084377392578125,-0.5626373901367188,3.9312791259765625,-5.740458015267175,-93.54198473282443,-8.427480916030534,0.0
11.440000534057617,-11.863269226074218,-4.857835168457031,1.7286135986328124,-56.19847328244275,-18.015267175572518,39.16030534351145,-9.847351428222655,-1.7573440185546874,5.118803149414062,7.786259541984733,-90.9618320610687,-13.068702290076336,0.0
11.450000524520874,-9.162609753417968,-2.3151930053710936,0.033518823242187495,-54.68702290076336,-28.50381679389313,24.229007633587788,-9.665392102050781,-1.6735469604492186,5.671863732910156,32.152671755725194,-95.05343511450381,-16.717557251908396,0.0
11.46000051498413,-8.619125976562499,-4.0988732421875,-2.5330653564453125,-26.0,-23.236641221374047,19.19083969465649,-8.40125362548828,-2.2002713256835937,6.287173559570312,32.01526717557252,-92.70229007633588,-17.908396946564885,0.0
11.470000505447388,-13.888763830566406,1.2473790649414063,1.149216796875,-25.572519083969464,3.3435114503816794,-0.04580152671755725,-3.1411925781249996,1.8195932617187498,3.4931402221679684,13.526717557251908,-89.1145038167939,-28.595419847328245,0.0
11.480000495910645,-10.129867224121092,1.6232687255859375,-0.8283937744140625,-54.900763358778626,0.4122137404580153,-8.748091603053435,2.2026655273437497,4.759672900390624,2.5641899780273434,-5.6183206106870225,-62.36641221374046,-28.580152671755727,0.0
11.49000072479248,-7.807491613769531,-1.6903063720703124,-3.402160559082031,-30.48854961832061,17.282442748091604,-1.7099236641221374,-1.467645617675781,1.5538368774414062,5.027823486328125,-23.572519083969464,-30.763358778625953,-16.870229007633586,0.0
11.500000476837158,-7.362170104980469,-1.9776105712890624,-0.842758984375,-2.595419847328244,48.56488549618321,-5.114503816793893,-3.0502129150390624,0.6847416748046875,2.9568390502929685,-33.81679389312977,-23.770992366412212,-16.244274809160306,0.0
11.510000944137573,-10.967837805175781,2.1883003173828124,1.0534487304687499,-3.435114503816794,58.412213740458014,-19.083969465648856,-3.1196447631835937,0.8858546142578124,2.9735984619140625,-32.396946564885496,-12.549618320610687,-20.549618320610687,0.0
11.520000457763672,-11.441889733886718,2.8203695556640622,0.9097966308593749,-11.114503816793894,54.16793893129771,-27.16030534351145,-6.5577183471679685,-1.0893617553710937,5.908889697265625,-29.129770992366414,3.6793893129770994,-16.30534351145038,0.0
11.530000925064087,-10.709264025878905,0.7445967163085937,1.5059528442382812,-11.282442748091603,53.51145038167939,-31.14503816793893,-3.4835634155273434,1.484405029296875,0.6296750366210937,-27.52671755725191,-12.030534351145038,-19.862595419847327,0.0
11.540000438690186,-11.21683477783203,0.12210428466796874,1.0175357055664063,-9.86259541984733,45.770992366412216,-33.12977099236641,-3.938461730957031,2.5809493896484375,2.2361843505859373,-33.19083969465649,14.549618320610687,-18.68702290076336,0.0
11.550000667572021,-9.483432775878907,-0.737414111328125,0.6823474731445313,2.4885496183206106,42.717557251908396,-28.366412213740457,-4.723759875488281,1.886630908203125,2.2457611572265623,-46.44274809160305,28.0,-13.572519083969466,0.0
11.560000658035278,-10.63025537109375,2.5761609863281247,1.5897499023437498,5.435114503816794,40.56488549618321,-28.38167938931298,-8.346186987304687,-1.687912170410156,4.13718046875,-29.450381679389313,33.51145038167939,-5.32824427480916,0.0
11.570000410079956,-12.121843005371092,5.341463903808593,3.785232824707031,-33.465648854961835,15.206106870229007,-23.603053435114504,-7.098807922363281,-0.55545478515625,2.4492682983398435,-14.702290076335878,25.938931297709924,-6.717557251908397,0.0
11.58000111579895,-10.759542260742187,0.9097966308593749,1.0438719238281249,-13.49618320610687,9.648854961832061,-5.221374045801527,-8.221688500976562,-1.254561669921875,4.92247861328125,-5.022900763358779,38.54961832061068,-2.6259541984732824,0.0
11.590000629425049,-8.91840118408203,-0.7541735229492187,1.1444283935546875,-3.0229007633587788,10.351145038167939,-4.030534351145038,-7.287949853515625,-1.5203180541992187,4.247313745117188,7.083969465648855,33.17557251908397,-1.7099236641221374,0.0
11.600000858306885,-9.600748657226562,0.16280571289062498,1.209071838378906,4.076335877862595,8.045801526717558,-11.877862595419847,-6.2201359130859375,-0.6536170532226562,3.478775012207031,12.381679389312977,35.00763358778626,-2.6717557251908395,0.0
11.610246896743774,-9.591171850585937,1.0630255371093749,1.3623007446289062,10.732824427480915,0.7938931297709924,-14.229007633587786,-5.7077767578125,-0.055066638183593745,3.337517114257812,19.938931297709924,33.80152671755725,-1.0381679389312977,0.0
11.620001077651978,-12.34689796142578,3.418919970703125,3.754108203125,2.9160305343511452,0.48854961832061067,-17.557251908396946,-5.561730456542969,0.6584054565429687,3.5984850952148437,17.099236641221374,37.6793893129771,0.3969465648854962,0.0
11.630000352859497,-14.628572143554686,3.948038537597656,4.434061474609375,-10.122137404580153,-7.221374045801527,-19.0381679389313,-4.601655590820312,1.7645266235351562,2.5953145996093747,6.748091603053435,41.86259541984733,0.16793893129770993,0.0
11.640000820159912,-12.023680737304687,1.8914193115234375,3.404554760742187,-11.923664122137405,-10.458015267175572,-13.419847328244275,-2.166752502441406,4.012681982421875,1.0223241088867188,-23.755725190839694,59.11450381679389,-2.3053435114503817,0.0
11.65000057220459,-10.465055456542968,1.5035586425781249,3.9145197143554684,-11.511450381679388,-21.297709923664122,-8.854961832061068,-1.927332336425781,3.897760302734375,-0.7661445312499999,-50.54961832061068,83.81679389312977,-0.24427480916030533,0.0
11.660000801086426,-10.752359655761719,2.6408044311523438,4.778826513671874,-11.129770992366412,-28.091603053435115,-8.610687022900763,-6.349422802734375,-0.33758243408203126,0.1580173095703125,-54.25954198473283,113.81679389312977,3.786259541984733,0.0
11.670000553131104,-10.342951171874999,2.674323254394531,5.257666845703125,-7.251908396946565,-36.656488549618324,-7.923664122137405,-7.994239343261718,-0.8954314208984374,-0.9792284790039062,-41.98473282442748,123.25190839694656,1.618320610687023,0.0
11.680000305175781,-13.067552661132812,2.7653029174804686,6.943184814453125,1.3435114503816794,-41.9236641221374,-7.419847328244275,-10.251971508789062,2.003946789550781,-0.023942016601562498,-28.717557251908396,132.74809160305344,1.83206106870229,0.0
11.690000534057617,-14.599841723632812,3.842693664550781,7.819462622070312,4.244274809160306,-53.52671755725191,-8.641221374045802,-11.755530151367187,3.0502129150390624,3.9815573608398434,-36.56488549618321,133.64885496183206,3.9083969465648853,0.0
11.700000524520874,-16.773776831054686,3.3207577026367185,9.093177905273437,-5.419847328244275,-78.06106870229007,-5.847328244274809,-11.578359228515625,1.2042834350585936,6.093243225097656,-57.11450381679389,120.62595419847328,3.267175572519084,0.0
11.71000051498413,-20.53746184082031,4.821922143554687,11.789048974609374,-14.259541984732824,-96.74809160305344,-1.7557251908396947,-14.477737438964843,2.5522189697265625,5.810727429199218,-78.10687022900764,116.68702290076335,6.931297709923665,0.0
11.720000505447388,-19.982007055664063,4.836287353515624,12.866439721679686,-27.328244274809162,-132.67175572519085,6.656488549618321,-12.210428466796873,2.090138049316406,4.714183068847656,-111.63358778625954,128.91603053435114,15.938931297709924,0.0
11.730000257492065,-21.55499754638672,5.80354482421875,14.463372229003905,-25.938931297709924,-163.09923664122138,21.14503816793893,-6.536170532226562,6.488286499023437,-4.448426684570312,-116.29007633587786,107.20610687022901,29.435114503816795,0.0
11.740000486373901,-21.14319486083984,5.516240625,12.282254516601562,-21.022900763358777,-197.58778625954199,33.48091603053435,-11.068394274902342,8.420407238769531,-3.361459130859375,-164.41221374045801,156.21374045801528,36.94656488549618,0.0
11.750000476837158,-21.145589062499997,3.0023288818359375,11.702857714843748,-13.83206106870229,-221.16030534351145,53.9236641221374,-6.478709692382812,1.3311761230468748,-2.6815058593749996,-139.84732824427482,149.09923664122138,59.725190839694655,0.0
11.760059595108032,-20.31480108642578,-1.5610194824218748,9.042899670410156,-0.9618320610687023,-245.86259541984734,65.69465648854961,-10.364498986816406,-4.529829541015625,-0.49320554199218747,-127.74045801526718,153.95419847328245,65.83206106870229,0.0
11.770000457763672,-17.72188068847656,-8.226476904296874,3.976768957519531,20.366412213740457,-255.93893129770993,79.31297709923665,-12.528857287597656,-17.559074975585936,6.069301208496094,-58.534351145038165,136.18320610687022,67.86259541984732,0.0
11.780000686645508,-14.69082138671875,-11.712434521484374,-3.727771984863281,27.6793893129771,-256.2748091603053,70.91603053435115,-6.042964990234375,-6.7277066650390625,-0.8667010009765624,-1.8931297709923665,99.1145038167939,46.83969465648855,0.0
11.790000677108765,-13.486537951660155,-9.370905297851563,-7.153874560546875,24.641221374045802,-254.53435114503816,49.29770992366412,-2.0781670410156248,5.176263989257812,-6.6151791870117185,-40.67175572519084,107.69465648854961,23.81679389312977,0.0
11.800000667572021,-10.223241088867187,-3.2537200561523436,-10.900800158691405,25.114503816793892,-252.99236641221373,37.221374045801525,-8.52335791015625,5.590460876464843,-1.1109095703125,-127.43511450381679,156.9618320610687,25.938931297709924,0.0
11.810000896453857,-9.605537060546874,-0.23702596435546874,-4.9416322265625,31.114503816793892,-231.80152671755727,32.42748091603053,-5.322310290527343,14.027627526855468,-9.311050256347656,-156.7175572519084,127.45038167938931,15.740458015267176,0.0
11.820000886917114,-10.730811840820312,0.12689268798828124,3.5027170288085934,64.54961832061069,-201.84732824427482,37.63358778625954,-16.065093139648436,10.242394702148436,-6.246472131347656,-328.7480916030534,210.51908396946564,10.351145038167939,0.0
11.830000638961792,-9.358934289550781,-1.8004396484374998,3.938461730957031,89.66412213740458,-179.86259541984734,46.67175572519084,-23.420080639648436,-14.60702432861328,8.94473740234375,-231.09923664122138,193.1145038167939,35.69465648854962,0.0
11.840000629425049,-9.179369165039063,-1.7501614135742187,1.7381904052734374,112.93129770992367,-160.38167938931298,40.916030534351144,-17.238251953124998,-23.388956018066406,9.124302526855468,-50.51908396946565,127.57251908396947,65.81679389312977,0.0
11.850000619888306,-9.904812268066406,-2.9496564453125,-0.8690952026367187,124.99236641221374,-149.29770992366412,37.267175572519086,-8.896853369140624,-11.405976708984374,5.796362219238281,106.3969465648855,63.16030534351145,86.68702290076335,0.0
11.860000848770142,-11.899182250976562,0.028730419921875,-0.8834604125976562,122.2442748091603,-137.66412213740458,32.13740458015267,-10.058041174316406,-6.198588098144531,2.128445275878906,161.06870229007635,29.862595419847327,95.63358778625954,0.0
11.87000060081482,-10.790666882324219,3.296815686035156,0.9600748657226562,98.33587786259542,-141.08396946564886,34.54961832061068,-7.912836486816405,2.47081611328125,-2.925714428710937,110.94656488549619,37.9236641221374,77.45038167938931,0.0
11.880000829696655,-11.207257971191405,6.083666418457031,3.459621398925781,59.43511450381679,-137.54198473282443,41.587786259541986,-8.597578161621094,7.125144140624999,-2.2577321655273437,58.67175572519084,47.969465648854964,45.12977099236641,0.0
11.890000581741333,-10.402806213378906,7.924807495117187,4.745307690429687,14.442748091603054,-143.7709923664122,47.099236641221374,-10.857704528808593,2.942473840332031,0.622492431640625,17.69465648854962,66.79389312977099,34.42748091603053,0.0
11.90000057220459,-6.4284314575195305,5.834669445800781,3.0238766967773434,-15.022900763358779,-147.75572519083968,52.76335877862596,-8.774749084472656,5.109226342773437,-1.93451494140625,-13.923664122137405,77.2824427480916,32.38167938931298,0.0
11.910000324249268,-4.335899206542969,3.2417490478515623,1.7262193969726563,-27.480916030534353,-137.0229007633588,54.54961832061068,-11.9135474609375,-2.6096798095703124,1.369483349609375,-31.480916030534353,90.56488549618321,47.70992366412214,0.0
11.920000553131104,-2.0877438476562498,0.22266075439453123,-0.6009446166992187,-28.83969465648855,-127.6793893129771,52.56488549618321,-12.179303845214843,-3.0526071166992184,1.8100164550781248,34.56488549618321,73.58778625954199,67.08396946564885,0.0
11.93000054359436,1.3120225097656248,-4.151545678710937,-3.0358477050781247,-13.511450381679388,-111.14503816793894,51.12977099236641,-27.971457995605466,-24.423251135253906,15.090653063964844,89.43511450381679,109.70992366412214,97.6030534351145,0.0
11.940000534057617,1.7788918334960937,-2.798821740722656,-3.0430303100585934,8.854961832061068,-75.55725190839695,41.725190839694655,-1.4221557861328125,4.292803576660156,0.20829554443359374,242.61068702290078,12.13740458015267,80.41221374045801,0.0
11.950000524520874,0.22744915771484372,-1.1659762084960936,-2.0087351928710935,11.49618320610687,-51.267175572519086,31.51145038167939,-18.875885888671874,-18.806454040527342,9.062053283691405,169.1145038167939,53.221374045801525,77.89312977099236,0.0
11.96000051498413,0.8212111694335937,-1.3359645263671873,-2.2361843505859373,12.51908396946565,-24.015267175572518,25.00763358778626,-0.9696516723632812,3.0813375366210938,-1.8100164550781248,273.96946564885496,-17.572519083969464,44.900763358778626,0.0
11.970000982284546,-1.0726023437499999,-0.1197100830078125,-0.35673604736328124,2.2748091603053435,-9.770992366412214,16.549618320610687,-11.908759057617187,-6.507440112304687,2.906560815429687,195.45038167938932,5.129770992366412,25.893129770992367,0.0
11.980000257492065,-0.833182177734375,0.7254431030273437,1.656787548828125,0.5801526717557252,13.587786259541986,13.511450381679388,-3.430890979003906,5.446808776855469,-2.176329309082031,227.55725190839695,-35.49618320610687,4.015267175572519,0.0
11.990047216415405,0.44053310546874996,0.5267243652343749,2.3032219970703123,9.450381679389313,26.564885496183205,13.83206106870229,-13.99410870361328,2.616862414550781,0.8499415893554687,157.31297709923663,-17.938931297709924,-1.6030534351145038,0.0
12.000000715255737,-1.6136919189453125,3.277662072753906,5.647921716308593,22.35114503816794,46.12213740458015,14.442748091603054,-6.323086584472656,6.505045910644531,-3.306392492675781,124.87022900763358,-33.282442748091604,-13.541984732824428,0.0
12.010000705718994,-2.473210314941406,5.269637854003906,7.467514978027343,19.206106870229007,44.62595419847328,12.687022900763358,-3.440467785644531,8.805873706054687,-4.153939880371094,57.80152671755725,-16.0,-11.877862595419847,0.0
12.020000696182251,-3.778050219726562,7.333439685058593,9.145850341796875,-4.549618320610687,35.29770992366412,14.625954198473282,-5.7508723876953125,7.445967163085937,-2.463633508300781,52.94656488549618,-7.694656488549619,4.122137404580153,0.0
12.030000686645508,-1.3192051147460937,6.959944226074218,9.631873278808593,-20.85496183206107,28.442748091603054,19.206106870229007,-7.730877160644531,3.6655227416992187,-1.465251416015625,-2.763358778625954,13.221374045801527,19.87786259541985,0.0
12.040000438690186,-1.0031704956054688,6.284779357910156,11.353304272460937,-32.12213740458015,17.404580152671755,26.778625954198475,-10.721235034179687,4.276044165039062,1.2282254516601563,-20.763358778625953,56.56488549618321,34.33587786259542,0.0
12.050000667572021,-2.4564509033203126,6.900089184570312,14.013262316894531,-22.717557251908396,10.80916030534351,35.49618320610687,-9.105148913574219,4.369418029785156,0.8188169677734375,-40.88549618320611,76.07633587786259,43.05343511450382,0.0
12.060000658035278,-3.9312791259765625,4.039018200683594,14.238317272949217,3.83206106870229,1.4045801526717556,48.56488549618321,-10.12507882080078,3.5194764404296874,-0.2609679809570312,-63.63358778625954,90.2442748091603,46.68702290076336,0.0
12.070000648498535,-5.255272644042968,1.3311761230468748,10.654197387695312,53.267175572519086,13.007633587786259,69.17557251908397,-13.146561315917968,1.8531120849609375,0.5219359619140624,-75.25190839694656,93.66412213740458,52.83969465648855,0.0
12.080248355865479,-6.313509777832031,0.354341845703125,-5.149927770996094,55.70992366412214,40.06106870229008,70.77862595419847,-15.119383483886718,-0.3854664672851562,1.8626888916015625,-76.93129770992367,94.33587786259542,54.99236641221374,0.0
12.090000629425049,-7.184999182128906,-5.085284326171875,-12.433089221191405,-28.748091603053435,46.82442748091603,39.38931297709924,-12.643778967285156,-4.979939453125,1.714248388671875,-77.05343511450381,74.94656488549619,51.221374045801525,0.0
12.10017204284668,-10.062829577636718,-7.79552060546875,-2.1260510742187497,-56.68702290076336,66.93129770992367,-3.404580152671756,-20.532673437499998,-6.787561706542968,4.824316345214844,-81.89312977099236,70.83969465648855,46.47328244274809,0.0
12.110000371932983,-12.579135522460938,-3.2704794677734372,10.117896215820313,20.99236641221374,89.32824427480917,-6.366412213740458,-17.899051611328122,-9.167398156738281,6.770802294921874,-56.900763358778626,45.55725190839695,33.099236641221374,0.0
12.120000839233398,-11.92551846923828,-0.8307879760742187,12.15536182861328,81.23664122137404,114.19847328244275,4.442748091603053,-19.026720593261718,-10.168174450683592,8.046911779785155,-17.66412213740458,15.114503816793894,24.717557251908396,0.0
12.130096197128296,-14.788983654785156,0.9840168823242187,6.658274816894531,41.29770992366412,110.53435114503817,-4.687022900763359,-16.37394515380859,-3.816357446289062,6.045359191894531,-0.3511450381679389,-14.992366412213741,14.67175572519084,0.0
12.140000820159912,-14.733917016601561,4.867411975097656,-1.1851298217773436,-11.022900763358779,96.1526717557252,-19.00763358778626,-14.963760375976562,-0.5219359619140624,3.727771984863281,-15.068702290076336,-32.74809160305343,4.763358778625954,0.0
12.150000810623169,-15.061922644042967,5.327098693847656,3.5314474487304683,-53.954198473282446,84.9618320610687,-28.85496183206107,-17.413028674316404,-1.0462661254882812,3.6679169433593746,-21.862595419847327,-40.916030534351144,4.809160305343512,0.0
12.160000562667847,-12.00213292236328,3.6679169433593746,3.2800562744140622,-55.45038167938932,76.76335877862596,-19.480916030534353,-17.56865178222656,-2.722207287597656,3.689464758300781,-1.4045801526717556,-57.61832061068702,9.099236641221374,0.0
12.170000553131104,-12.619836950683593,5.027823486328125,3.4668040039062498,-48.229007633587784,83.54198473282443,-11.206106870229007,-17.171214306640625,-0.7948749511718749,3.210624426269531,21.14503816793893,-80.74809160305344,6.717557251908397,0.0
12.180000305175781,-9.176974963378905,-0.9217676391601562,1.467645617675781,-40.25954198473283,82.13740458015268,0.366412213740458,-11.346121667480467,2.418143676757812,3.6391865234374996,49.17557251908397,-108.12213740458016,3.4198473282442747,0.0
12.190000295639038,-0.9816226806640624,-8.920795385742187,-3.1938650146484373,-2.381679389312977,103.17557251908397,4.106870229007634,-13.527239379882811,3.7708676147460936,2.032677209472656,36.76335877862596,-117.08396946564885,0.7175572519083969,0.0
12.200000524520874,3.3399113159179685,-17.149666491699218,-5.066130712890625,71.29770992366412,158.3969465648855,-12.290076335877863,-14.750676428222656,2.588131994628906,1.9033903198242186,27.603053435114504,-118.93129770992367,-4.9465648854961835,0.0
12.210000276565552,27.56683791503906,-39.2266,-19.888633190917968,218.0,185.7709923664122,-32.458015267175576,-11.903970654296874,-1.3623007446289062,1.687912170410156,31.053435114503817,-114.3969465648855,-11.099236641221374,0.0
12.220000267028809,8.37012900390625,-39.2266,-27.164612036132812,476.9312977099237,352.01526717557255,-90.51908396946565,-6.402095239257812,-1.649604943847656,0.28012159423828126,15.419847328244275,-118.30534351145039,-17.633587786259543,0.0
12.230000257492065,-38.49397429199219,19.373879833984375,-1.6017209106445311,500.25954198473283,380.3358778625954,-185.17557251908397,-6.208164904785156,0.8020575561523438,-0.8212111694335937,26.38167938931298,-112.67175572519083,-40.61068702290076,0.0
12.240000486373901,-26.017789440917966,22.258892834472654,-2.133233679199219,425.48091603053433,316.7022900763359,-132.21374045801528,-7.474697583007812,5.176263989257812,-2.6384102294921874,-20.83969465648855,-115.2824427480916,-31.87786259541985,0.0
12.250000953674316,-24.162283154296873,17.37232724609375,8.145074047851562,361.6641221374046,289.4503816793893,-114.70229007633588,-15.176844323730467,0.4213794921875,-0.033518823242187495,-34.30534351145038,-95.05343511450381,-21.557251908396946,0.0
12.260000467300415,-17.994819677734373,38.0390759765625,9.447519750976562,118.58015267175573,162.0,-134.70229007633588,-11.420341918945311,5.410895751953125,-3.88818349609375,-27.435114503816795,-102.13740458015268,-33.63358778625954,0.0
12.270000696182251,-12.48097325439453,34.19398811035156,8.499415893554687,-108.27480916030534,55.038167938931295,-132.41221374045801,-7.558494641113281,7.888894470214844,-5.137956762695312,-46.70229007633588,-97.31297709923665,-26.50381679389313,0.0
12.280000686645508,-4.441244079589843,4.774038110351563,0.21308394775390624,-211.58778625954199,-7.00763358778626,-109.80152671755725,-13.077129467773437,-1.1037269653320312,3.440467785644531,-16.519083969465647,-77.90839694656489,2.2595419847328246,0.0
12.290000915527344,-4.821922143554687,-4.314351391601562,-3.5410242553710933,-153.93893129770993,-4.641221374045801,-79.83206106870229,-15.612589025878906,-5.161898779296875,2.8945898071289062,51.465648854961835,-93.22137404580153,-3.66412213740458,0.0
12.300005435943604,-5.216965417480468,-8.111555224609374,-5.8083332275390624,-81.48091603053435,27.053435114503817,-49.89312977099237,-11.666944689941406,1.7238251953125,-1.419761584472656,58.79389312977099,-108.83969465648855,-34.213740458015266,0.0
12.3100004196167,-8.700528833007812,-1.898601916503906,-0.10295067138671875,-62.0,53.954198473282446,-40.595419847328245,-8.793902697753905,4.340687609863281,-0.38786066894531246,51.25190839694657,-104.7175572519084,-40.10687022900763,0.0
12.320000648498535,-7.948749511718749,-2.0063409912109376,0.5793968017578125,-66.06106870229007,58.97709923664122,-50.152671755725194,-8.511386901855468,2.932897033691406,0.9816226806640624,36.36641221374046,-95.12977099236642,-32.213740458015266,0.0
12.330000638961792,-6.777984899902344,-4.8650177734375,-2.9951462768554684,-62.35114503816794,53.267175572519086,-68.77862595419847,-8.092401611328125,1.2689268798828124,-0.6584054565429687,24.83969465648855,-95.81679389312977,-23.450381679389313,0.0
12.340000629425049,-7.453149768066406,-6.770802294921874,-4.431667272949219,-11.816793893129772,72.97709923664122,-78.68702290076335,-7.390900524902343,2.849099975585937,-1.5322890624999999,19.923664122137403,-102.4885496183206,-19.923664122137403,0.0
12.350000619888306,-6.562506750488281,-7.204152795410156,-4.347870214843749,53.19083969465649,95.98473282442748,-80.97709923664122,-8.930372192382812,0.3854664672851562,1.7693150268554687,16.82442748091603,-92.12213740458016,-14.381679389312977,0.0
12.360000848770142,-16.747440612792968,13.187262744140623,6.524199523925781,27.61832061068702,102.03053435114504,-101.89312977099236,-6.744466076660156,2.1739351074218747,0.4955997436523437,4.030534351145038,-95.08396946564885,-21.755725190839694,0.0
12.37000060081482,-8.434772448730468,6.8976949829101555,4.912901806640625,-79.09923664122137,52.045801526717554,-94.97709923664122,-6.746860278320312,3.42849677734375,0.8786720092773437,-8.396946564885496,-84.61068702290076,-23.206106870229007,0.0
12.380001068115234,-8.990227233886719,1.8938135131835936,1.4317325927734375,-67.20610687022901,50.0,-77.3587786259542,-8.793902697753905,-0.4213794921875,1.5035586425781249,4.534351145038168,-85.00763358778626,-17.541984732824428,0.0
12.390000581741333,-16.35000313720703,6.797138513183594,2.1691467041015624,-69.72519083969466,44.30534351145038,-72.73282442748092,-7.666233715820312,1.3215993164062498,1.7597382202148437,0.2595419847328244,-86.94656488549619,-29.419847328244273,0.0
12.40000033378601,-8.283937744140625,-0.8451531860351562,0.0526724365234375,-58.0,45.221374045801525,-50.47328244274809,-9.627084875488281,-0.296881005859375,2.1739351074218747,22.290076335877863,-87.87786259541984,-26.35114503816794,0.0
12.410006284713745,-18.203115222167966,14.891934326171874,10.601524951171875,-70.2442748091603,45.786259541984734,-55.69465648854962,-9.813832604980469,0.0,2.825157958984375,29.66412213740458,-95.98473282442748,-29.14503816793893,0.0
12.420000314712524,-9.030928662109375,2.93050283203125,1.8698714965820311,-138.6259541984733,-3.282442748091603,-31.61832061068702,-8.161833459472655,2.9544448486328125,0.622492431640625,34.51908396946565,-109.87786259541984,-33.587786259541986,0.0
12.43000054359436,-21.325154187011716,14.362815759277343,4.525041137695312,-141.4198473282443,-4.519083969465649,-28.778625954198475,-9.87608184814453,2.8012159423828122,1.8938135131835936,33.57251908396947,-111.87786259541984,-26.259541984732824,0.0
12.440019130706787,-9.794678991699218,1.5945383056640625,-0.0430956298828125,-179.32824427480915,-37.3587786259542,-2.595419847328244,-9.868899243164062,3.6272155151367187,1.848323681640625,28.641221374045802,-117.29770992366412,-27.603053435114504,0.0
12.450000286102295,-6.7803791015625,-3.2417490478515623,-3.821145849609375,-116.8854961832061,-33.81679389312977,17.282442748091604,-8.238447912597655,2.300827795410156,1.4006079711914061,15.450381679389313,-120.36641221374046,-22.396946564885496,0.0
12.46000051498413,-21.772869897460936,8.219294299316406,6.301538769531249,-105.95419847328245,-10.473282442748092,6.763358778625954,-7.410054138183593,0.9145850341796874,2.1068974609374997,15.740458015267176,-119.48091603053435,-21.068702290076335,0.0
12.470000505447388,-14.954183569335937,6.785167504882812,4.266467358398438,-168.0916030534351,-48.458015267175576,11.587786259541986,-5.954379528808594,2.693476867675781,0.8116343627929687,20.0,-124.21374045801527,-19.96946564885496,0.0
12.480000495910645,-11.125855114746093,-2.4851813232421875,-0.6081272216796875,-130.793893129771,-73.26717557251908,39.19083969465649,-6.811503723144531,1.9823989746093749,1.8171990600585937,13.954198473282442,-123.14503816793894,-12.259541984732824,0.0
12.49000072479248,-7.735665563964844,-9.765948571777344,-2.221819140625,-62.06106870229008,-55.29770992366412,52.56488549618321,-7.40526573486328,1.7190367919921874,2.5737667846679684,2.8702290076335877,-111.31297709923665,-16.900763358778626,0.0
12.500000476837158,-8.884882360839843,-7.912836486816405,-0.11731588134765625,-11.48091603053435,-26.244274809160306,32.36641221374046,-7.201758593749999,0.25139117431640623,2.7054478759765623,8.290076335877863,-102.61068702290076,-20.106870229007633,0.0
12.510001182556152,-5.219359619140625,0.6727706665039062,-3.0597897216796874,-5.0534351145038165,-36.48854961832061,3.633587786259542,-8.846575134277343,0.842758984375,5.240907434082031,15.83206106870229,-90.62595419847328,-19.404580152671755,0.0
12.520000696182251,-6.9527616210937495,-3.0933085449218747,-3.0214824951171875,14.900763358778626,-13.053435114503817,-3.5267175572519083,-5.353434912109375,2.133233679199219,4.2305543334960936,2.4885496183206106,-84.09160305343511,-19.66412213740458,0.0
12.530000448226929,-4.436455676269531,-3.9791631591796874,-2.940079638671875,38.51908396946565,19.541984732824428,-10.030534351145038,-7.249642626953125,1.0199299072265624,4.7572786987304685,-1.9389312977099236,-74.94656488549619,-20.35114503816794,0.0
12.540000438690186,-8.008604553222655,1.2880804931640624,-1.1875240234375,39.12977099236641,42.045801526717554,-26.30534351145038,-2.8850130004882812,4.991910461425781,0.4525041137695312,-19.221374045801525,-72.12213740458016,-29.66412213740458,0.0
12.550000667572021,-9.775525378417969,2.935291235351562,-0.13407529296874998,29.587786259541986,54.79389312977099,-21.282442748091604,-3.9432501342773434,3.066972326660156,3.469198205566406,-24.870229007633586,-43.06870229007634,-23.374045801526716,0.0
12.560000658035278,-9.79946739501953,2.0829554443359375,0.9600748657226562,20.412213740458014,65.34351145038168,-14.213740458015268,-7.987056738281249,-0.09816226806640624,5.267243652343749,-33.74045801526717,-34.10687022900763,-20.396946564885496,0.0
12.570000648498535,-10.91037696533203,2.8730419921875,1.9105729248046874,13.16030534351145,68.01526717557252,-15.129770992366412,-8.360552197265624,-0.41898529052734373,4.189852905273438,-23.52671755725191,-36.58015267175573,-22.458015267175572,0.0
12.580000638961792,-11.872846032714843,3.6008792968749996,2.1595698974609374,3.1908396946564888,62.2442748091603,-20.53435114503817,-6.275202551269531,0.4572925170898437,2.9376854370117185,-19.72519083969466,-39.099236641221374,-25.66412213740458,0.0
12.590000629425049,-12.50012686767578,5.427655163574219,2.205059729003906,-8.534351145038167,49.099236641221374,-26.778625954198475,-7.015010864257812,0.622492431640625,3.1316157714843746,-20.519083969465647,-36.48854961832061,-22.396946564885496,0.0
12.600028991699219,-13.749900134277343,6.880935571289062,4.5968671875,-32.54961832061068,28.458015267175572,-27.022900763358777,-7.644685900878906,0.9840168823242187,2.923320227050781,-23.83206106870229,-31.709923664122137,-19.374045801526716,0.0
12.610001802444458,-11.518504187011718,4.733336682128906,0.7134720947265625,-46.44274809160305,22.198473282442748,-21.389312977099237,-4.99909306640625,2.4253262817382812,1.2713210815429687,-33.908396946564885,-29.633587786259543,-21.022900763358777,0.0
12.620000839233398,-8.640673791503906,-0.16041151123046873,-0.7278373046875,-45.083969465648856,11.022900763358779,-7.511450381679389,-6.505045910644531,1.6041151123046875,3.6152445068359373,-40.93129770992366,-10.16793893129771,-17.480916030534353,0.0
12.63000226020813,-7.1778165771484375,-2.0087351928710935,-2.408566870117187,-28.442748091603054,9.618320610687023,-0.3969465648854962,-6.035782385253906,1.139639990234375,3.1962592163085937,-47.49618320610687,-5.251908396946565,-15.526717557251908,0.0
12.640000581741333,-8.621520178222656,-0.8882488159179687,-2.176329309082031,-21.69465648854962,16.15267175572519,-3.6946564885496183,-5.882553479003906,0.36631285400390623,4.283226770019531,-47.3587786259542,5.709923664122138,-14.732824427480915,0.0
12.65000033378601,-10.87206973876953,1.0510545288085937,0.28012159423828126,-19.66412213740458,29.419847328244273,-10.244274809160306,-7.5537062377929685,-0.967257470703125,4.69263525390625,-27.923664122137403,1.251908396946565,-10.50381679389313,0.0
12.660216808319092,-10.194510668945313,1.7693150268554687,0.5985504150390625,-30.748091603053435,24.9618320610687,-14.625954198473282,-8.755595471191405,-1.8339584716796873,6.198588098144531,-15.32824427480916,2.6564885496183206,-10.534351145038167,0.0
12.670000314712524,-9.100360510253905,0.5051765502929687,0.47884033203125,-24.366412213740457,25.938931297709924,-12.977099236641221,-5.882553479003906,0.7445967163085937,4.474762902832031,-14.610687022900763,-5.145038167938932,-13.572519083969466,0.0
12.68000054359436,-10.225635290527343,-0.39264907226562495,0.5961562133789062,-18.793893129770993,28.259541984732824,-12.16793893129771,-5.65031591796875,1.3335703247070312,4.321533996582031,-16.85496183206107,0.030534351145038167,-12.335877862595419,0.0
12.690000534057617,-10.97502041015625,-0.4955997436523437,1.668758557128906,-13.84732824427481,27.81679389312977,-13.725190839694656,-5.693411547851563,0.7230489013671875,4.141968872070312,-20.671755725190838,2.50381679389313,-9.404580152671755,0.0
12.700000524520874,-10.254365710449218,-0.4740519287109375,1.4628572143554686,-7.694656488549619,28.16793893129771,-14.473282442748092,-6.133944653320312,0.02154781494140625,4.5968671875,-19.404580152671755,5.343511450381679,-7.312977099236641,0.0
12.71000051498413,-12.366051574707031,1.24498486328125,2.6001030029296874,-8.305343511450381,22.519083969465647,-16.595419847328245,-5.626373901367187,-0.22744915771484372,4.613626599121093,-21.251908396946565,6.763358778625954,-7.694656488549619,0.0
12.720000743865967,-10.996568225097656,0.39743747558593745,1.9512743530273435,1.1908396946564885,26.717557251908396,-15.709923664122137,-6.023811376953125,-1.0271125122070313,5.104437939453125,-16.061068702290076,8.931297709923664,-6.458015267175573,0.0
12.730000734329224,-11.666944689941406,0.9648632690429687,2.104503259277344,-3.053435114503817,20.076335877862597,-17.587786259541986,-6.287173559570312,-1.4149731811523436,5.279214660644531,-12.458015267175572,11.389312977099237,-7.6183206106870225,0.0
12.740000486373901,-10.828974108886719,1.7908628417968748,2.166752502441406,-0.6717557251908397,15.877862595419847,-18.748091603053435,-5.963956335449218,-1.4030021728515625,5.070919116210937,-7.236641221374046,13.877862595419847,-7.557251908396947,0.0
12.750000715255737,-12.526463085937499,3.5577836669921874,3.172317199707031,-7.251908396946565,12.717557251908397,-21.938931297709924,-6.229712719726562,-1.199495031738281,4.929661218261718,-3.3435114503816794,16.412213740458014,-7.206106870229007,0.0
12.760000467300415,-12.624625354003905,3.835511059570312,4.364629626464843,-31.984732824427482,-8.458015267175572,-22.0,-6.449979272460937,-0.7781155395507812,4.448426684570312,-1.9083969465648856,18.717557251908396,-6.5038167938931295,0.0
12.770000696182251,-11.812990991210937,1.7501614135742187,0.9648632690429687,-28.427480916030536,-9.694656488549619,-14.290076335877863,-6.306327172851562,-0.47644613037109373,4.120421057128906,-3.633587786259542,22.229007633587788,-4.809160305343512,0.0
12.780000448226929,-10.005368737792969,0.062249243164062495,0.7924807495117187,-25.404580152671755,-15.465648854961833,-11.236641221374045,-5.949591125488281,0.1580173095703125,3.507505432128906,-7.114503816793893,25.603053435114504,-3.435114503816794,0.0
12.790000438690186,-11.769895361328125,0.8116343627929687,1.8626888916015625,-26.137404580152673,-16.198473282442748,-12.534351145038167,-4.867411975097656,0.5003881469726562,3.5290532470703124,-19.358778625954198,33.52671755725191,-2.33587786259542,0.0
12.800000667572021,-11.128249316406249,1.5658078857421873,2.93050283203125,-27.938931297709924,-23.96946564885496,-12.717557251908397,-6.186617089843749,0.14604630126953125,4.201823913574218,-25.603053435114504,38.25954198473283,0.6870229007633588,0.0
12.8100004196167,-11.801019982910155,2.2840683837890623,4.029441394042968,-24.564885496183205,-28.27480916030534,-13.648854961832061,-6.208164904785156,0.29448680419921874,4.484339709472656,-38.778625954198475,48.54961832061068,1.3129770992366412,0.0
12.820000410079956,-11.805808386230469,1.8650830932617186,4.80755693359375,-24.519083969465647,-35.31297709923664,-13.709923664122137,-4.592078784179687,-0.7206546997070312,0.6440402465820312,-44.94656488549618,56.88549618320611,1.984732824427481,0.0
12.830000638961792,-13.32373223876953,2.770091320800781,6.48589229736328,-19.984732824427482,-43.83206106870229,-15.84732824427481,-2.978386865234375,0.5722141967773438,-4.7884033203125,-45.541984732824424,78.85496183206106,-3.2061068702290076,0.0
12.840001106262207,-13.464990136718749,2.269703173828125,7.362170104980469,-16.12213740458015,-55.41984732824427,-13.740458015267176,-4.893748193359374,1.22583125,-4.00310517578125,-40.67175572519084,120.35114503816794,-1.083969465648855,0.0
12.850000619888306,-14.137760803222655,2.1356278808593747,9.409212524414063,-6.916030534351145,-68.2442748091603,-10.50381679389313,-2.932897033691406,4.843469958496094,-3.258508459472656,-51.32824427480916,128.73282442748092,0.4580152671755725,0.0
12.860000848770142,-16.065093139648436,2.712630480957031,12.397176196289061,2.687022900763359,-86.67175572519083,-8.396946564885496,-8.015787158203125,4.42448466796875,4.04141240234375,-70.35114503816794,173.74045801526717,6.396946564885496,0.0
12.87000060081482,-18.102558752441404,1.0271125122070313,14.674061975097656,16.106870229007633,-113.26717557251908,0.48854961832061067,-14.700398193359375,-2.7150246826171873,5.928043310546875,-84.06106870229007,173.08396946564886,21.603053435114504,0.0
12.880000829696655,-20.1879083984375,0.18914193115234373,16.903063720703123,36.900763358778626,-139.57251908396947,4.320610687022901,-19.83596075439453,-5.655104321289063,9.727641345214844,-50.30534351145038,167.0229007633588,21.61832061068702,0.0
12.890000581741333,-21.92849300537109,1.0965443603515623,17.30768380126953,63.267175572519086,-176.70229007633588,9.007633587786259,-13.704410302734374,-4.900930798339844,3.4715924072265625,-10.458015267175572,141.98473282442748,20.106870229007633,0.0
12.90000057220459,-21.55499754638672,3.6583401367187496,13.268665600585937,87.02290076335878,-213.3740458015267,16.564885496183205,-18.425775976562498,0.5051765502929687,5.317521887207031,-2.6106870229007635,145.25190839694656,27.908396946564885,0.0
12.910000324249268,-20.764910998535154,2.4061726684570313,9.672574707031249,92.54961832061069,-241.58778625954199,36.35114503816794,-3.564966271972656,10.709264025878905,-7.781155395507812,0.9007633587786259,110.13740458015268,26.48854961832061,0.0
12.920000553131104,-19.26135235595703,0.7326257080078125,6.6151791870117185,87.16030534351145,-253.1908396946565,58.961832061068705,-2.442085693359375,11.109095703125,-6.912060192871094,-99.14503816793894,172.94656488549617,36.47328244274809,0.0
12.93000078201294,-16.40746397705078,-4.029441394042968,0.48123453369140623,59.6793893129771,-260.77862595419845,78.2442748091603,-3.294421484375,10.848127722167968,-6.545747338867187,-115.0381679389313,169.4198473282443,54.93129770992366,0.0
12.940000534057617,-13.230358374023437,-5.66946953125,-7.165845568847656,41.05343511450382,-263.8473282442748,74.33587786259542,-11.4538607421875,6.002263562011718,-1.7741034301757812,-169.3740458015267,206.85496183206106,63.3587786259542,0.0
12.950000524520874,-10.62307276611328,-3.6248213134765623,-8.89924757080078,30.946564885496183,-258.35114503816794,63.9236641221374,-19.515137731933592,-12.114660400390624,8.655039001464843,-144.36641221374046,187.34351145038167,55.465648854961835,0.0
12.96000075340271,-8.508992700195313,-1.8171990600585937,-6.921636999511718,45.32824427480916,-239.5267175572519,55.25190839694657,-10.551246716308594,-5.444414575195312,-0.16280571289062498,-56.2442748091603,112.06106870229007,47.6793893129771,0.0
12.970000505447388,-9.682151513671874,-1.3646949462890625,-0.9217676391601562,75.5114503816794,-198.76335877862596,56.79389312977099,-13.426682910156249,-3.1364041748046874,0.5506663818359374,-53.81679389312977,110.18320610687023,39.725190839694655,0.0
12.980000257492065,-10.970232006835937,-1.2952630981445312,2.6216508178710938,93.78625954198473,-174.9770992366412,54.717557251908396,-17.238251953124998,-10.39322940673828,7.48906279296875,27.419847328244273,78.61068702290076,54.274809160305345,0.0
12.99000072479248,-9.255983618164063,-1.3335703247070312,0.86191259765625,110.42748091603053,-161.22137404580153,54.0,1.6615759521484375,14.221557861328124,-14.068328955078124,24.946564885496183,20.53435114503817,31.49618320610687,0.0
13.000000476837158,-10.69968721923828,3.5410242553710933,1.6208745239257811,96.76335877862596,-147.6946564885496,56.732824427480914,-11.592724438476562,9.361328491210937,-8.257601525878906,-207.05343511450383,139.46564885496184,24.03053435114504,0.0
13.010000944137573,-10.97502041015625,4.668693237304687,1.5921441040039062,65.90839694656489,-145.89312977099237,64.85496183206106,-15.978901879882812,1.6903063720703124,1.9728221679687499,-216.29007633587787,157.93893129770993,33.9236641221374,0.0
13.020000696182251,-5.351040710449219,0.3902548706054687,-0.7661445312499999,55.954198473282446,-150.19847328244273,72.59541984732824,-13.99410870361328,-12.643778967285156,6.093243225097656,-125.32824427480917,122.35114503816794,50.51908396946565,0.0
13.030000686645508,-6.655880615234374,1.8028338500976562,0.584185205078125,42.458015267175576,-140.0763358778626,69.02290076335878,-12.030863342285155,-12.416329809570312,4.589684582519531,-1.1755725190839694,84.73282442748092,62.85496183206107,0.0
13.040000677108765,-8.815450512695312,3.086125939941406,1.3383587280273437,25.00763358778626,-139.06870229007635,61.25190839694657,-10.079588989257813,-8.870517150878905,3.5817256835937497,79.70992366412214,59.20610687022901,73.87786259541984,0.0
13.050000429153442,-6.007051965332031,-0.03591302490234375,-0.42377369384765623,8.65648854961832,-146.51908396946564,59.81679389312977,-6.452373474121093,1.0031704956054688,-3.172317199707031,73.38931297709924,53.9236641221374,69.81679389312977,0.0
13.060000658035278,-6.461950280761719,2.8730419921875,0.2705447875976562,-2.549618320610687,-126.45801526717557,57.221374045801525,-11.159373937988281,-1.0654197387695312,-1.0726023437499999,34.99236641221374,64.76335877862596,58.87022900763359,0.0
13.070000410079956,-3.347093920898437,1.898601916503906,-0.9313444458007812,-11.34351145038168,-118.97709923664122,59.43511450381679,-11.372457885742186,-2.4157494750976563,2.0877438476562498,48.79389312977099,65.19083969465649,52.50381679389313,0.0
13.080000400543213,-2.39420166015625,1.446097802734375,-1.0414777221679687,-19.14503816793893,-101.61832061068702,58.94656488549618,-8.748412866210938,3.8091748413085935,-0.9720458740234375,43.93893129770992,58.778625954198475,44.54961832061068,0.0
13.090000629425049,-1.7405846069335937,1.917755529785156,0.11013327636718749,-29.251908396946565,-81.77099236641222,54.229007633587784,-10.654197387695312,-0.622492431640625,0.4429273071289062,-2.045801526717557,81.8473282442748,44.58015267175573,0.0
13.100000858306885,3.725377783203125,-3.5817256835937497,-3.430890979003906,-27.358778625954198,-70.36641221374046,53.17557251908397,-11.595118640136718,-1.3192051147460937,1.886630908203125,35.23664122137404,69.55725190839695,54.61068702290076,0.0
13.110000610351562,3.967192150878906,-4.7022120605468745,-2.549824768066406,-9.48091603053435,-35.282442748091604,44.30534351145038,-8.63827958984375,0.3758896606445312,-0.258573779296875,11.770992366412214,83.19083969465649,59.37404580152672,0.0
13.12000060081482,-2.070984436035156,0.1388636962890625,1.1109095703125,-13.007633587786259,-12.702290076335878,26.48854961832061,-9.749189160156249,-0.584185205078125,0.5003881469726562,36.35114503816794,68.87022900763358,61.099236641221374,0.0
13.130000591278076,2.2744915771484373,-3.076549133300781,-1.0678139404296874,-4.137404580152672,-6.33587786259542,26.748091603053435,-12.375628381347655,-4.106055847167968,2.9759926635742184,11.83206106870229,91.57251908396947,63.3587786259542,0.0
13.140000820159912,2.4779987182617185,-2.50912333984375,0.6200982299804687,26.671755725190838,21.236641221374047,25.450381679389313,-10.206481677246094,-2.4756045166015626,2.3870190551757813,78.67175572519083,52.67175572519084,61.541984732824424,0.0
13.15000057220459,0.6081272216796875,-0.4836287353515625,3.555389465332031,48.30534351145038,38.229007633587784,17.557251908396946,-13.685256689453125,-11.145008728027342,7.280767248535156,74.21374045801527,67.49618320610686,63.00763358778626,0.0
13.160000562667847,-0.3399766357421875,1.3407529296874998,5.506663818359375,60.38167938931298,46.396946564885496,13.374045801526718,-6.368576416015625,1.0941501586914062,1.5179238525390624,108.38167938931298,33.770992366412216,55.404580152671755,0.0
13.170000314712524,-2.1930887207031247,3.385401147460937,7.082048510742187,60.3206106870229,46.35114503816794,10.687022900763358,-15.686809277343748,-5.6383449096679685,4.225765930175781,77.6030534351145,42.534351145038165,49.41984732824427,0.0
13.18000054359436,-2.9185318237304685,4.838681555175781,7.975085729980468,53.17557251908397,49.23664122137404,8.687022900763358,-10.256759912109374,0.488417138671875,1.4820108276367188,54.97709923664122,43.57251908396947,42.58015267175573,0.0
13.190000534057617,-5.645527514648437,6.332663391113281,9.945513696289062,40.030534351145036,39.954198473282446,6.137404580152672,-16.639701538085937,-3.6008792968749996,6.7085530517578125,71.48091603053435,32.62595419847328,39.48091603053435,0.0
13.200000524520874,-7.1395093505859375,8.453926062011718,11.286266625976562,37.55725190839695,32.961832061068705,10.687022900763358,-9.600748657226562,-0.8499415893554687,1.687912170410156,93.17557251908397,3.3435114503816794,34.51908396946565,0.0
13.21000051498413,-9.988609326171874,10.347739575195313,14.884751721191405,41.37404580152672,23.923664122137403,23.770992366412212,-12.80658468017578,-0.6607996582031249,3.6056677001953124,48.152671755725194,19.49618320610687,24.396946564885496,0.0
13.220000267028809,-10.534487304687499,13.488932153320311,13.567940808105467,53.66412213740458,15.84732824427481,45.541984732824424,-8.147468249511718,4.541800549316406,-1.5035586425781249,14.183206106870228,9.389312977099237,11.404580152671755,0.0
13.230000734329224,-10.498574279785156,11.475408557128906,2.607285607910156,4.427480916030534,20.80916030534351,62.88549618320611,-20.23818663330078,-6.41646044921875,6.742071875,-1.0076335877862594,28.50381679389313,17.923664122137403,0.0
13.240000486373901,-12.241553088378906,0.9624690673828125,-3.0933085449218747,-85.96946564885496,22.748091603053435,45.9236641221374,-14.611812731933593,-0.9002198242187499,1.5538368774414062,30.18320610687023,-5.419847328244275,13.709923664122137,0.0
13.250000715255737,3.3016040893554686,-25.771186669921875,-17.056292626953123,-46.54961832061068,21.893129770992367,39.6793893129771,-20.810400830078123,-8.123526232910155,5.743689782714843,25.770992366412212,-6.488549618320611,17.068702290076335,0.0
13.260000944137573,0.9648632690429687,-23.175872070312497,-6.605602380371093,98.6412213740458,133.16030534351145,2.717557251908397,-13.2159931640625,-2.370259643554687,0.3016694091796875,69.00763358778626,-52.717557251908396,10.961832061068701,0.0
13.270000696182251,-13.467384338378906,-3.402160559082031,6.48589229736328,148.61068702290078,168.0916030534351,-43.63358778625954,-15.112200878906249,1.6543933471679686,0.02154781494140625,46.54961832061068,-60.36641221374046,-5.419847328244275,0.0
13.280000686645508,-4.853046765136718,-10.101136804199218,-3.3877953491210935,150.33587786259542,175.9083969465649,-30.748091603053435,-16.627730529785154,4.809951135253906,1.005564697265625,5.114503816793893,-44.51908396946565,-4.854961832061068,0.0
13.290000677108765,-1.5897499023437498,-15.231910961914062,-13.773842150878906,209.74045801526717,212.91603053435114,-35.69465648854962,-18.483236816406247,0.9816226806640624,2.7246014892578123,7.465648854961832,-55.86259541984733,-3.572519083969466,0.0
13.300000667572021,-15.346832641601562,-0.8499415893554687,-1.2593500732421874,225.16030534351145,231.14503816793894,-71.06870229007633,-21.701043847656248,3.4356793823242184,2.492363928222656,-6.488549618320611,-58.01526717557252,-2.0,0.0
13.310000658035278,-25.435998437499997,20.053833105468748,8.55448253173828,141.38931297709922,189.08396946564886,-85.58778625954199,-18.0427037109375,4.6064439941406246,1.4772224243164063,-37.43511450381679,-64.3969465648855,6.351145038167939,0.0
13.320000648498535,-2.607285607910156,-12.85207451171875,-10.649408984374999,132.24427480916032,154.44274809160305,-41.02290076335878,-14.642937353515624,1.946485949707031,1.9225439331054686,-38.045801526717554,-84.09160305343511,17.66412213740458,0.0
13.330000400543213,-10.900800158691405,-14.343662145996094,-3.6655227416992187,307.8320610687023,236.73282442748092,-35.23664122137404,-14.372392565917968,-2.384624853515625,1.9416975463867185,-23.114503816793892,-96.47328244274809,26.610687022900763,0.0
13.34000039100647,-21.89736838378906,16.04833372802734,7.881711865234375,228.9770992366412,198.67175572519085,-77.52671755725191,-13.639766857910155,-0.2920926025390625,1.0342951171875,-3.2061068702290076,-111.77099236641222,10.213740458015268,0.0
13.350000619888306,-19.852720166015622,27.358542370605466,6.050147595214844,78.70229007633588,145.00763358778627,-86.76335877862596,-14.755464831542968,-1.4221557861328125,4.290409374999999,-20.702290076335878,-99.05343511450381,5.32824427480916,0.0
13.360000848770142,-12.488155859374999,15.708357092285155,5.03740029296875,-85.41984732824427,79.26717557251908,-95.49618320610686,-12.931083166503905,-1.8028338500976562,1.149216796875,7.770992366412214,-120.8854961832061,-6.122137404580153,0.0
13.37000060081482,-7.3669585083007805,3.162740393066406,1.3742717529296875,-159.48091603053436,36.51908396946565,-103.37404580152672,-12.605471740722656,-0.9959878906249999,0.8954314208984374,-5.862595419847328,-117.14503816793894,-16.244274809160306,0.0
13.380000829696655,-6.7037646484375,-1.3958195678710936,-1.5610194824218748,-151.87786259541986,32.18320610687023,-94.33587786259542,-11.01332763671875,-0.6751648681640625,-1.7693150268554687,10.458015267175572,-128.87022900763358,-27.419847328244273,0.0
13.390000581741333,-4.7189714721679685,-8.415618835449218,-5.0757075195312495,-82.50381679389314,59.29770992366412,-74.99236641221374,-13.242329382324218,-3.1220389648437497,0.469263525390625,23.267175572519083,-121.52671755725191,-31.480916030534353,0.0
13.40000057220459,-7.304709265136719,-4.570530969238281,-1.2713210815429687,-11.297709923664122,91.98473282442748,-66.9618320610687,-9.94072529296875,-2.2074539306640624,-1.599326708984375,31.49618320610687,-122.74809160305344,-40.16793893129771,0.0
13.410000562667847,-8.204929089355469,-3.83072265625,-0.8690952026367187,18.83969465648855,104.01526717557252,-67.34351145038168,-8.145074047851562,-0.430956298828125,-1.2306196533203124,41.57251908396947,-125.08396946564885,-49.343511450381676,0.0
13.420000553131104,-9.969455712890625,1.0893617553710937,0.737414111328125,26.137404580152673,105.66412213740458,-75.37404580152672,-10.153809240722655,2.4851813232421875,-1.2521674682617188,58.62595419847328,-133.80152671755727,-50.94656488549618,0.0
13.43000054359436,-12.133814013671874,5.145139367675781,2.437297290039062,11.541984732824428,101.61832061068702,-84.6412213740458,-11.532869396972655,2.863465185546875,0.21787235107421873,56.412213740458014,-125.2824427480916,-42.67175572519084,0.0
13.440000295639038,-13.146561315917968,9.832986218261718,4.364629626464843,-29.893129770992367,84.13740458015268,-93.43511450381679,-7.912836486816405,6.119579443359375,-2.001552587890625,34.44274809160305,-115.66412213740458,-37.908396946564885,0.0
13.450000524520874,-15.303737011718749,12.69884560546875,5.027823486328125,-118.06106870229007,48.10687022900763,-99.49618320610686,-8.987833032226561,5.693411547851563,-1.5514426757812498,28.671755725190838,-104.18320610687023,-31.6793893129771,0.0
13.460000276565552,-7.493851196289062,-0.40222587890625,-1.0558429321289062,-124.9618320610687,30.366412213740457,-80.41221374045801,-6.648698010253906,5.5090580200195305,-2.806004345703125,4.076335877862595,-94.36641221374046,-27.389312977099237,0.0
13.470000267028809,-16.397887170410154,11.908759057617187,8.93755479736328,-126.2442748091603,26.137404580152673,-73.8473282442748,-9.641450085449218,0.41898529052734373,1.4532804077148436,12.01526717557252,-79.41984732824427,-20.564885496183205,0.0
13.480000257492065,-8.90643017578125,-0.10773907470703124,0.9552864624023437,-154.04580152671755,5.557251908396947,-56.10687022900763,-7.465120776367187,2.7054478759765623,-0.7398083129882812,11.145038167938932,-88.90076335877863,-28.85496183206107,0.0
13.49000072479248,-17.453730102539062,10.752359655761719,5.391742138671875,-142.35114503816794,18.12213740458015,-50.38167938931298,-8.346186987304687,2.2840683837890623,0.5458779785156249,17.862595419847327,-92.70229007633588,-29.72519083969466,0.0
13.500000476837158,-9.1554271484375,-1.0749965454101562,-0.18914193115234373,-175.75572519083968,-14.198473282442748,-31.954198473282442,-9.868899243164062,3.411737365722656,0.3232172241210937,28.80916030534351,-102.47328244274809,-32.0763358778626,0.0
13.510000705718994,-17.70512127685547,5.7125651611328125,5.125985754394531,-154.36641221374046,-1.4809160305343512,-26.076335877862597,-11.535263598632811,0.8259995727539062,2.375048046875,28.48854961832061,-105.22137404580153,-25.00763358778626,0.0
13.52000093460083,-8.70771143798828,-1.62805712890625,0.3112462158203125,-163.72519083969465,-18.549618320610687,-10.01526717557252,-11.197681164550781,2.5163059448242184,0.4955997436523437,28.53435114503817,-117.95419847328245,-29.099236641221374,0.0
13.530000448226929,-15.109806677246093,2.863465185546875,4.584896179199219,-133.75572519083968,-8.51908396946565,-5.236641221374046,-13.462595935058593,1.35990654296875,1.8746598999023436,26.03053435114504,-118.99236641221374,-22.83969465648855,0.0
13.540000438690186,-8.59278975830078,-2.427720483398437,0.7350199096679687,-126.33587786259542,-13.419847328244275,1.8625954198473282,-8.75320126953125,2.269703173828125,-0.8834604125976562,21.64885496183206,-132.41221374045801,-29.00763358778626,0.0
13.550000667572021,-9.162609753417968,-3.246537451171875,0.04548983154296875,-82.19847328244275,-0.3511450381679389,4.091603053435114,-7.134720947265625,1.3862427612304686,0.8044517578125,16.045801526717558,-131.81679389312978,-23.022900763358777,0.0
13.560000658035278,-6.279990954589843,-4.80755693359375,-0.7757213378906249,-56.717557251908396,10.885496183206106,-0.9618320610687023,-9.296685046386719,3.0430303100585934,1.5083470458984374,21.450381679389313,-126.3206106870229,-20.50381679389313,0.0
13.570000886917114,-7.503428002929687,-2.7054478759765623,0.22266075439453123,-25.770992366412212,27.083969465648856,-12.610687022900763,-8.394071020507813,2.6527754394531247,2.896984008789062,20.99236641221374,-118.9618320610687,-14.15267175572519,0.0
13.580000638961792,-5.406107348632812,-2.0087351928710935,-0.8283937744140625,-4.809160305343512,40.85496183206107,-19.450381679389313,-7.0078282592773435,2.389413256835937,2.1906945190429687,11.17557251908397,-113.66412213740458,-14.366412213740459,0.0
13.590000867843628,-7.019799267578125,2.9664158569335934,0.05985504150390625,-0.061068702290076333,48.50381679389313,-29.374045801526716,-6.507440112304687,0.9864110839843749,3.327940307617187,-4.061068702290076,-102.42748091603053,-13.877862595419847,0.0
13.600000858306885,-10.884040747070312,4.170699291992188,1.6831237670898436,-14.076335877862595,55.31297709923664,-31.14503816793893,-5.504269616699219,1.2785036865234374,4.314351391601562,-18.671755725190838,-84.51908396946565,-12.13740458015267,0.0
13.610000371932983,-10.328585961914062,2.8036101440429686,1.6519991455078125,-22.519083969465647,52.2442748091603,-22.610687022900763,-6.639121203613281,0.9265560424804687,3.0454245117187497,-23.053435114503817,-79.14503816793894,-11.312977099236642,0.0
13.620000839233398,-9.773131176757811,1.6065093139648436,1.89620771484375,-17.389312977099237,53.19083969465649,-16.625954198473284,-4.589684582519531,1.2665326782226562,2.8467057739257813,-32.030534351145036,-68.80916030534351,-13.465648854961833,0.0
13.630000591278076,-9.485826977539062,1.0869675537109373,2.099714855957031,-18.717557251908396,49.908396946564885,-15.16030534351145,-9.552864624023437,-1.2952630981445312,5.2816088623046875,-25.786259541984734,-56.44274809160305,-11.86259541984733,0.0
13.640000581741333,-9.643844287109374,1.47482822265625,1.6472107421875,-5.557251908396947,49.87786259541985,-17.374045801526716,-11.3772462890625,-1.2761094848632812,5.078101721191406,-8.50381679389313,-57.86259541984733,-12.473282442748092,0.0
13.650000810623169,-10.433930834960936,2.6527754394531247,2.032677209472656,-2.717557251908397,43.282442748091604,-20.27480916030534,-8.147468249511718,1.2042834350585936,3.4548329956054684,-0.6717557251908397,-67.54198473282443,-17.923664122137403,0.0
13.660000562667847,-10.611101757812499,4.084508032226562,2.1739351074218747,-13.48091603053435,29.297709923664122,-21.16030534351145,-6.947973217773437,1.0462661254882812,4.11802685546875,-4.412213740458015,-60.33587786259542,-16.916030534351144,0.0
13.670000314712524,-12.808978881835937,3.670311145019531,1.8028338500976562,-25.34351145038168,22.732824427480917,-17.893129770992367,-9.734823950195311,-0.0047884033203125,4.266467358398438,-3.6793893129770994,-58.79389312977099,-12.381679389312977,0.0
13.68000078201294,-10.448296044921875,0.842758984375,0.047884033203124995,-22.83969465648855,19.69465648854962,-8.610687022900763,-8.432378247070313,1.8171990600585937,3.1172505615234374,0.9465648854961832,-62.76335877862596,-12.580152671755725,0.0
13.690000295639038,-12.176909643554687,2.2960393920898436,2.3487118286132813,-17.83206106870229,23.541984732824428,-5.00763358778626,-4.220977526855468,3.5003228271484375,1.9297265380859374,-15.19083969465649,-57.31297709923664,-14.946564885496183,0.0
13.700000524520874,-11.494562170410155,2.104503259277344,1.0749965454101562,-38.36641221374046,19.709923664122137,-5.0534351145038165,-5.334281298828125,2.3343466186523436,3.612850305175781,-31.66412213740458,-37.221374045801525,-12.076335877862595,0.0
13.710000276565552,-11.501744775390625,2.3678654418945313,0.6464344482421874,-39.603053435114504,21.587786259541986,-3.068702290076336,-6.41646044921875,1.4030021728515625,2.3127988037109373,-32.54961832061068,-37.64885496183206,-10.82442748091603,0.0
13.720000505447388,-9.74200655517578,1.0342951171875,0.06943184814453125,-37.908396946564885,15.053435114503817,-2.015267175572519,-7.582436657714843,0.4477157104492187,5.049371301269531,-27.954198473282442,-24.564885496183205,-8.748091603053435,0.0
13.730000972747803,-8.980650427246093,0.5339069702148437,0.5482721801757812,-26.35114503816794,29.114503816793892,-3.9083969465648853,-7.378929516601562,0.028730419921875,4.984727856445312,-27.068702290076335,-22.732824427480917,-8.687022900763358,0.0
13.740000486373901,-12.083535778808592,3.323151904296875,1.2593500732421874,-32.656488549618324,26.259541984732824,-12.183206106870228,-6.974309436035155,0.7326257080078125,3.7612908081054686,-18.564885496183205,-24.717557251908396,-9.755725190839694,0.0
13.750000476837158,-12.275071911621094,2.0877438476562498,1.6903063720703124,-34.80916030534351,17.755725190839694,-10.13740458015267,-6.442796667480469,0.8978256225585937,3.7708676147460936,-14.091603053435115,-20.748091603053435,-8.51908396946565,0.0
13.760000467300415,-9.514557397460937,0.07900865478515624,0.316034619140625,-29.72519083969466,19.740458015267176,-7.114503816793893,-7.082048510742187,0.5746083984375,4.458003491210937,-14.82442748091603,-15.587786259541986,-6.106870229007634,0.0
13.770000696182251,-11.717222924804688,0.9744400756835937,1.1923124267578125,-26.549618320610687,21.633587786259543,-9.648854961832061,-4.716577270507813,2.0087351928710935,2.6982652709960937,-20.595419847328245,-16.213740458015266,-8.122137404580153,0.0
13.780000686645508,-10.244788903808594,-0.5530605834960938,0.4261678955078125,-27.374045801526716,21.66412213740458,-8.320610687022901,-7.022193469238281,0.5674257934570313,4.510675927734375,-17.374045801526716,-8.15267175572519,-4.33587786259542,0.0
13.790196418762207,-10.16338604736328,0.8116343627929687,1.149216796875,-23.022900763358777,25.419847328244273,-9.465648854961833,-5.195417602539062,1.5969325073242187,3.399766357421875,-29.099236641221374,-8.381679389312977,-7.145038167938932,0.0
13.80004072189331,-8.518569506835936,0.2059013427734375,0.55545478515625,-26.48854961832061,18.18320610687023,-6.854961832061068,-5.753266589355468,1.2856862915039062,4.297591979980469,-37.725190839694655,5.9541984732824424,-5.526717557251908,0.0
13.810000658035278,-9.066841687011719,0.4333505004882812,0.7757213378906249,-24.03053435114504,18.53435114503817,-3.6030534351145036,-4.841075756835937,0.9935936889648437,3.277662072753906,-47.954198473282446,9.114503816793894,-4.396946564885496,0.0
13.8200364112854,-7.532158422851562,-0.49799394531249996,0.1867477294921875,-18.015267175572518,16.778625954198475,-2.687022900763359,-6.864176159667968,-1.5490484741210937,5.066130712890625,-43.25190839694657,18.53435114503817,-0.2595419847328244,0.0
13.830000400543213,-7.101202124023437,-2.24097275390625,-0.6009446166992187,-6.641221374045801,20.106870229007633,-3.1603053435114505,-8.2743609375,-3.5721488769531247,5.793968017578124,-21.923664122137403,9.954198473282442,1.7557251908396947,0.0
13.84000039100647,-10.450690246582031,0.1197100830078125,0.6823474731445313,-4.2748091603053435,20.580152671755727,-12.030534351145038,-6.385335827636719,-0.2609679809570312,1.4772224243164063,-10.13740458015267,2.4427480916030535,-4.442748091603053,0.0
13.850000381469727,-11.461043347167967,2.636016027832031,1.707065783691406,-14.961832061068701,10.717557251908397,-19.251908396946565,-6.232106921386718,-0.373495458984375,5.437231970214843,-2.549618320610687,7.221374045801527,-3.83206106870229,0.0
13.860000848770142,-9.9215716796875,1.1851298217773436,0.8882488159179687,-19.068702290076335,15.664122137404581,-17.72519083969466,-5.868188269042968,-0.354341845703125,4.560954162597656,-8.961832061068701,9.282442748091603,-4.748091603053435,0.0
13.87000060081482,-10.481814868164061,0.5626373901367188,1.209071838378906,-14.977099236641221,18.396946564885496,-17.923664122137403,-6.236895324707031,-0.679953271484375,4.565742565917969,-7.511450381679389,13.022900763358779,-3.9236641221374047,0.0
13.880000591278076,-11.018116040039061,-0.4429273071289062,1.599326708984375,-15.740458015267176,13.954198473282442,-18.427480916030536,-5.274426257324219,-0.01915361328125,3.928884924316406,-10.702290076335878,13.709923664122137,-3.4656488549618323,0.0
13.890000343322754,-10.520122094726561,0.9097966308593749,2.4875755249023435,-16.106870229007633,8.488549618320612,-18.946564885496183,-4.012681982421875,-0.011971008300781249,4.129997863769531,-22.82442748091603,22.717557251908396,-2.9160305343511452,0.0
13.90000033378601,-10.764330664062498,2.032677209472656,3.246537451171875,-20.717557251908396,4.290076335877862,-19.557251908396946,-4.726154077148437,-1.2138602416992186,4.039018200683594,-31.297709923664122,31.17557251908397,-1.4809160305343512,0.0
13.910041332244873,-10.726023437499999,2.3511060302734372,4.07971962890625,-22.0,-1.5725190839694656,-19.770992366412212,-4.920084411621094,-0.7805097412109374,2.70065947265625,-34.68702290076336,38.54961832061068,-1.9389312977099236,0.0
13.920000553131104,-11.88721124267578,2.4684219116210935,5.588066674804687,-23.801526717557252,-6.488549618320611,-20.68702290076336,-2.896984008789062,0.6943184814453125,0.4860229370117187,-43.61832061068702,53.55725190839695,-4.854961832061068,0.0
13.930000305175781,-13.960589880371092,2.6623522460937497,7.232883215332031,-28.931297709923665,-17.068702290076335,-21.328244274809162,-3.2537200561523436,0.6177040283203125,-1.848323681640625,-48.51908396946565,77.0381679389313,-2.427480916030534,0.0
13.940000534057617,-12.720393420410156,1.4125789794921875,8.55448253173828,-25.404580152671755,-39.12977099236641,-16.80916030534351,-4.838681555175781,-1.5155296508789062,-5.444414575195312,-31.358778625954198,95.37404580152672,2.122137404580153,0.0
13.950000524520874,-12.801796276855468,0.4261678955078125,9.720458740234374,-16.85496183206107,-60.80916030534351,-17.053435114503817,-2.616862414550781,1.1611878051757811,-7.924807495117187,-21.450381679389313,115.1145038167939,-2.564885496183206,0.0
13.96000051498413,-14.456189624023436,-0.39264907226562495,11.79144317626953,5.038167938931298,-78.47328244274809,-15.557251908396946,-4.357447021484375,0.8020575561523438,-5.219359619140625,-20.85496183206107,148.04580152671755,2.8091603053435112,0.0
13.970000267028809,-15.746664318847655,-1.8531120849609375,13.919888452148436,30.045801526717558,-105.48091603053435,-15.083969465648854,-5.111620544433594,-1.2689268798828124,-3.318363500976562,-33.7557251908397,164.0,4.809160305343512,0.0
13.980000495910645,-17.621324218749997,-1.649604943847656,17.041927416992188,50.76335877862596,-137.206106870229,-13.694656488549619,-13.306972827148437,-0.35194764404296874,6.066907006835937,-46.396946564885496,201.63358778625954,2.2748091603053435,0.0
13.99000072479248,-18.236634045410156,-2.607285607910156,16.40028137207031,72.83969465648855,-172.3969465648855,-10.50381679389313,-13.352462658691405,2.389413256835937,2.128445275878906,-70.12213740458016,179.6946564885496,0.6106870229007634,0.0
14.000000476837158,-20.463241589355466,1.4532804077148436,16.251840869140626,89.80152671755725,-206.42748091603053,-10.67175572519084,-20.369867724609374,1.6304513305664061,9.37808790283203,-75.1145038167939,208.65648854961833,12.916030534351146,0.0
14.010000705718994,-19.960459240722656,1.4963760375976562,12.081141577148436,99.32824427480917,-229.12977099236642,4.458015267175573,-27.241226489257812,-2.6408044311523438,11.901576452636718,-25.022900763358777,188.90076335877862,47.81679389312977,0.0
14.020000696182251,-17.022773803710937,-3.7804444213867185,6.744466076660156,137.25190839694656,-249.08396946564886,21.740458015267176,-12.990938208007812,8.214505895996094,-2.89219560546875,19.66412213740458,131.80152671755727,48.87022900763359,0.0
14.030000686645508,-17.688361865234373,-5.2648494506835934,1.659181750488281,159.48091603053436,-242.2290076335878,36.62595419847328,-10.759542260742187,8.834604125976561,-3.6942531616210936,-44.0,173.12977099236642,59.74045801526717,0.0
14.040000438690186,-18.17438480224609,-4.2521021484374995,-3.9456443359374997,152.42748091603053,-234.44274809160305,55.45038167938932,-7.625532287597656,-1.618480322265625,3.5889082885742187,-24.748091603053435,163.7709923664122,77.32824427480917,0.0
14.050000667572021,-14.896722729492186,-1.4245499877929686,-11.219228979492186,130.73282442748092,-236.12213740458014,62.33587786259542,15.71793389892578,28.5388837890625,-26.18298935546875,-85.43511450381679,108.67175572519083,44.42748091603053,0.0
14.060000658035278,-13.069946862792968,8.0062103515625,-9.04050546875,85.32824427480917,-219.46564885496184,59.25190839694657,-3.5290532470703124,28.807034374999997,-21.037849987792967,-421.41984732824426,273.5267175572519,32.778625954198475,0.0
14.070000648498535,-6.847416748046874,1.3048399047851562,-4.553771557617187,61.87786259541985,-211.17557251908397,68.61068702290076,-21.028273181152343,-3.744531396484375,2.090138049316406,-453.4503816793893,293.9236641221374,45.23664122137404,0.0
14.080000638961792,-8.169016064453125,-4.036623999023437,3.9791631591796874,111.12977099236642,-172.10687022900763,67.74045801526718,-25.78555187988281,-36.540305737304685,9.311050256347656,-245.12977099236642,228.45801526717557,55.86259541984733,0.0
14.090000867843628,-7.3286512817382805,-8.719682446289061,0.948103857421875,164.91603053435114,-154.82442748091603,66.01526717557252,-22.562956445312498,-32.0631486328125,6.675034228515624,27.389312977099237,137.96946564885496,61.6793893129771,0.0
14.100000858306885,-11.774683764648437,-5.195417602539062,-0.3495534423828125,195.48091603053436,-124.74809160305344,51.61832061068702,-12.9861498046875,-17.76737052001953,6.050147595214844,213.22137404580153,53.19083969465649,95.6793893129771,0.0
14.110000371932983,-11.73398233642578,1.93451494140625,-1.9393033447265624,186.35114503816794,-119.43511450381679,46.13740458015267,-5.394136340332031,1.3862427612304686,-4.754884497070313,173.1145038167939,44.916030534351144,93.48091603053435,0.0
14.12000060081482,-14.796166259765624,9.658209497070311,1.3048399047851562,134.53435114503816,-115.78625954198473,58.48854961832061,-13.213598962402344,0.3016694091796875,-1.0175357055664063,146.4732824427481,30.519083969465647,84.06106870229007,0.0
14.130000591278076,-8.635885388183594,7.989450939941406,1.5777788940429687,87.96946564885496,-120.36641221374046,82.70229007633588,-9.330203869628905,7.742848168945312,-0.9145850341796874,100.33587786259542,42.82442748091603,58.916030534351144,0.0
14.140000820159912,-7.053318090820312,6.426037255859375,2.7150246826171873,40.88549618320611,-123.98473282442748,89.23664122137404,-8.549694128417968,8.33182177734375,0.316034619140625,54.74809160305343,54.534351145038165,41.87786259541985,0.0
14.15000057220459,-6.679822631835937,7.237671618652343,2.4947581298828125,-8.564885496183207,-128.70229007633588,85.26717557251908,-5.832275244140624,9.129090930175781,-1.8315642700195311,-11.969465648854962,81.64885496183206,34.56488549618321,0.0
14.160000324249268,-3.5434184570312497,1.668758557128906,-1.180341418457031,-38.88549618320611,-135.16030534351145,85.22137404580153,-10.819397302246093,-2.059013427734375,3.842693664550781,-1.3587786259541985,86.8854961832061,51.05343511450382,0.0
14.170000553131104,0.9888052856445312,-3.162740393066406,-4.2880151733398435,-31.053435114503817,-116.77862595419847,80.61068702290076,-6.8785413696289055,3.1124621582031247,-0.5602431884765625,19.954198473282442,75.5114503816794,57.603053435114504,0.0
14.18000054359436,-0.9744400756835937,-0.86191259765625,-3.0023288818359375,-24.091603053435115,-94.56488549618321,68.01526717557252,-8.690952026367187,-2.882618798828125,1.5849614990234373,25.755725190839694,77.32824427480917,63.908396946564885,0.0
14.190000295639038,0.5267243652343749,-1.6065093139648436,-3.0430303100585934,-20.290076335877863,-74.21374045801527,59.66412213740458,-12.571952917480468,-9.205705383300781,6.536170532226562,73.38931297709924,77.12977099236642,74.50381679389314,0.0
14.200000524520874,-0.5482721801757812,0.7900865478515624,-0.7757213378906249,-34.030534351145036,-54.87022900763359,47.83206106870229,-7.105990527343749,2.1787235107421874,0.7852981445312499,133.8320610687023,32.38167938931298,70.76335877862596,0.0
14.21000051498413,1.8602946899414061,-1.898601916503906,-1.8650830932617186,-40.99236641221374,-37.98473282442748,41.11450381679389,-14.195221643066406,-1.9919757812499999,0.3280056274414062,85.29770992366412,46.47328244274809,62.045801526717554,0.0
14.220000267028809,1.2473790649414063,-0.8379705810546875,-0.258573779296875,-54.47328244274809,-18.106870229007633,28.213740458015266,-8.609549169921875,4.319139794921875,-2.3247698120117186,70.54961832061069,38.595419847328245,51.23664122137404,0.0
14.230000734329224,0.8403647827148437,-1.6208745239257811,-1.1324573852539062,-58.87022900763359,-4.473282442748092,19.49618320610687,-17.317260607910157,-6.713341455078124,6.9144543945312495,61.221374045801525,53.86259541984733,55.19083969465649,0.0
14.24000072479248,2.1547814941406247,-2.3870190551757813,-0.6296750366210937,-30.564885496183205,17.893129770992367,17.6793893129771,-10.333374365234375,-0.8762778076171874,2.607285607910156,122.99236641221374,9.48091603053435,55.52671755725191,0.0
14.250000715255737,-0.814028564453125,-0.30885201416015623,3.0550013183593747,-4.717557251908397,28.580152671755727,12.702290076335878,-7.577648254394531,6.121973645019531,-3.0214824951171875,51.404580152671755,13.236641221374045,40.2442748091603,0.0
14.260000467300415,-0.2609679809570312,0.040701428222656245,6.241683728027343,25.19083969465649,36.06106870229008,16.03053435114504,-15.624560034179687,-1.8339584716796873,3.323151904296875,-6.885496183206107,53.48091603053435,41.16030534351145,0.0
14.270000457763672,1.5179238525390624,-2.0566192260742184,8.564059338378906,61.93893129770992,42.19847328244275,19.938931297709924,-14.034810131835936,-5.597643481445312,3.909731311035156,21.053435114503817,46.01526717557252,39.908396946564885,0.0
14.280000686645508,1.1252747802734375,-3.0358477050781247,9.143456140136719,107.2824427480916,30.33587786259542,22.916030534351144,-7.364564306640625,2.020706201171875,-0.18914193115234373,39.23664122137404,17.358778625954198,29.69465648854962,0.0
14.290000438690186,9.04050546875,-11.21683477783203,2.863465185546875,215.93893129770993,52.396946564885496,41.404580152671755,-21.325154187011716,-15.758635327148436,11.054029064941405,46.534351145038165,37.02290076335878,36.70229007633588,0.0
14.300000667572021,1.936909143066406,1.5849614990234373,-1.2785036865234374,283.32824427480915,103.93893129770993,37.404580152671755,-11.482591162109374,-9.545682019042967,8.29351455078125,139.29770992366412,-10.183206106870228,26.549618320610687,0.0
14.310000658035278,6.974309436035155,-6.500257507324219,-17.32204901123047,197.80152671755727,115.09923664122137,7.679389312977099,-9.890447058105469,-2.042254016113281,3.0980969482421874,117.20610687022901,-25.129770992366414,-0.21374045801526717,0.0
14.320000648498535,-9.617508068847656,-0.02633621826171875,-12.299013928222655,174.59541984732823,159.78625954198472,-43.74045801526717,-10.77630167236328,4.4196962646484375,-1.6998831787109374,62.18320610687023,-43.603053435114504,-21.46564885496183,0.0
14.330000400543213,-15.823278771972655,5.485116003417969,-1.8698714965820311,183.08396946564886,167.95419847328245,-36.54961832061068,-18.938135131835935,3.189076611328125,1.0917559570312498,-9.877862595419847,-17.740458015267176,-23.419847328244273,0.0
14.340000629425049,-25.0146189453125,10.965443603515624,17.233463549804686,237.89312977099237,203.17557251908397,-7.816793893129771,-18.088193542480468,1.924938134765625,2.020706201171875,-27.557251908396946,-28.702290076335878,-12.931297709923664,0.0
14.350000619888306,-13.467384338378906,-5.865794067382812,-0.8667010009765624,168.61068702290078,171.64885496183206,2.549618320610687,-19.148824877929687,3.411737365722656,2.559401574707031,-36.2442748091603,-37.86259541984733,-5.435114503816794,0.0
14.360000371932983,-16.79771884765625,-9.53131680908203,1.917755529785156,199.6030534351145,203.32824427480915,-18.641221374045802,-19.22304512939453,1.4628572143554686,2.1883003173828124,-52.67175572519084,-48.87022900763359,8.15267175572519,0.0
14.37000060081482,-20.491972009277344,9.655815295410155,4.637568615722656,110.29007633587786,155.6793893129771,-58.396946564885496,-20.994754357910153,1.0582371337890624,3.6248213134765623,-32.44274809160305,-70.21374045801527,16.80916030534351,0.0
14.380000829696655,-15.114595080566405,11.985373510742187,3.794809631347656,-10.030534351145038,103.96946564885496,-84.87022900763358,-15.217545751953125,5.760449194335937,1.1037269653320312,-72.07633587786259,-86.22900763358778,17.374045801526716,0.0
14.390000581741333,-13.038822241210937,5.250484240722656,3.9911341674804683,-84.59541984732824,57.20610687022901,-95.86259541984732,-19.091364038085935,-0.7541735229492187,4.371812231445312,-71.37404580152672,-95.12977099236642,14.305343511450381,0.0
14.40000033378601,-9.430760339355468,0.06703764648437499,-0.8667010009765624,-88.51908396946565,41.7557251908397,-89.96946564885496,-17.796100939941404,-1.7860744384765623,2.1212626708984375,-40.76335877862596,-110.87022900763358,12.16793893129771,0.0
14.410000562667847,-6.787561706542968,-2.6408044311523438,-3.9264907226562498,-89.14503816793894,39.81679389312977,-83.6030534351145,-17.932570434570312,-3.1842882080078123,3.2249896362304686,16.27480916030534,-133.3740458015267,-1.0229007633587786,0.0
14.420000553131104,-9.394847314453125,-6.236895324707031,-2.607285607910156,-48.213740458015266,64.91603053435115,-78.51908396946565,-15.188815332031249,-0.9624690673828125,2.013523596191406,24.15267175572519,-133.1145038167939,-19.557251908396946,0.0
14.43000054359436,-8.166621862792969,-7.7763669921875,-1.9752163696289062,6.717557251908397,89.89312977099236,-77.1145038167939,-11.487379565429686,-0.9911994873046874,1.005564697265625,16.778625954198475,-133.17557251908397,-34.961832061068705,0.0
14.440000295639038,-12.947842578125,-0.39264907226562495,0.07900865478515624,42.25954198473283,107.74045801526718,-84.91603053435115,-10.302249743652343,0.63206923828125,-0.086191259765625,26.931297709923665,-139.31297709923663,-45.80152671755725,0.0
14.450000524520874,-12.861651318359375,3.1507693847656246,1.697488977050781,43.587786259541986,111.00763358778626,-92.06106870229007,-7.651868505859374,2.0063409912109376,-2.70065947265625,15.954198473282442,-149.46564885496184,-53.9236641221374,0.0
14.46000051498413,-10.342951171874999,5.3390697021484375,0.22026655273437498,21.603053435114504,102.83969465648855,-98.38167938931298,-10.43871923828125,-0.5458779785156249,-2.0159177978515626,24.80916030534351,-141.61832061068702,-49.83206106870229,0.0
14.470000267028809,-11.183315954589844,5.928043310546875,-0.258573779296875,-11.816793893129772,87.20610687022901,-105.09923664122137,-11.461043347167967,-1.9201497314453124,0.055066638183593745,37.3587786259542,-132.13740458015266,-41.00763358778626,0.0
14.480000495910645,-9.370905297851563,4.058171813964844,-0.7422025146484375,-26.091603053435115,74.83969465648855,-101.43511450381679,-8.609549169921875,5.063736511230468,-3.356670727539062,39.404580152671755,-134.24427480916032,-42.717557251908396,0.0
14.49000072479248,-11.815385192871092,10.68053360595703,4.225765930175781,-40.030534351145036,74.85496183206106,-99.83206106870229,-12.598289135742187,3.2728736694335936,1.0989385620117187,42.36641221374046,-114.62595419847328,-37.908396946564885,0.0
14.500000238418579,-8.022969763183593,5.049371301269531,2.2170307373046874,-90.91603053435115,45.969465648854964,-89.78625954198473,-9.402029919433593,5.741295581054687,-2.6336218261718747,36.76335877862596,-113.66412213740458,-38.2442748091603,0.0
14.510000944137573,-17.140089685058594,14.441824414062499,8.659827404785156,-119.90839694656489,34.2442748091603,-87.12977099236642,-9.34696328125,5.6215854980468745,-2.6240450195312497,34.88549618320611,-108.3206106870229,-38.74809160305343,0.0
14.520000696182251,-2.3247698120117186,-6.552929943847656,-3.0837317382812497,-106.93129770992367,34.54961832061068,-63.02290076335878,-9.2320416015625,4.151545678710937,-1.1875240234375,31.419847328244273,-102.79389312977099,-37.725190839694655,0.0
14.530000686645508,-12.574347119140624,10.73799444580078,7.101202124023437,-102.91603053435115,36.961832061068705,-67.29770992366412,-8.59278975830078,2.7533319091796873,0.34237083740234375,24.99236641221374,-98.13740458015268,-34.656488549618324,0.0
14.540000677108765,-10.687716210937499,-0.09576806640624999,2.454056701660156,-149.1145038167939,17.46564885496183,-62.396946564885496,-7.082048510742187,5.434837768554687,-2.0374656127929685,22.03053435114504,-106.65648854961832,-36.35114503816794,0.0
14.550000667572021,-17.453730102539062,8.602366564941406,8.386888415527343,-146.6259541984733,18.793893129770993,-63.83206106870229,-12.07874737548828,1.199495031738281,3.9049429077148434,22.091603053435115,-95.12977099236642,-25.19083969465649,0.0
14.560000658035278,-7.800309008789062,-0.5626373901367188,1.448492004394531,-177.54198473282443,-6.99236641221374,-49.49618320610687,-10.98699141845703,1.0175357055664063,1.3120225097656248,20.16793893129771,-111.26717557251908,-28.50381679389313,0.0
14.570000648498535,-15.382745666503906,8.451531860351562,7.115567333984375,-148.67175572519085,0.4732824427480916,-41.00763358778626,-11.458649145507811,0.28969840087890625,2.612074011230469,15.19083969465649,-112.30534351145039,-26.977099236641223,0.0
14.580000638961792,-8.748412866210938,-0.9074024291992187,-0.14604630126953125,-152.87022900763358,-11.465648854961833,-21.083969465648856,-8.999804040527343,1.5346832641601562,1.0726023437499999,17.786259541984734,-122.7175572519084,-32.25954198473283,0.0
14.590000629425049,-10.912771166992187,-0.5458779785156249,0.7158662963867187,-109.48091603053435,3.5267175572519083,-11.34351145038168,-12.073958972167969,0.8571241943359375,2.2170307373046874,22.076335877862597,-124.82442748091603,-26.38167938931298,0.0
14.600000381469727,-6.177040283203125,-3.706224169921875,-1.189918225097656,-86.01526717557252,10.717557251908397,-5.206106870229007,-9.639055883789062,0.9696516723632812,-0.1005564697265625,25.81679389312977,-136.50381679389312,-34.16793893129771,0.0
14.610000610351562,-8.463502868652343,0.8379705810546875,1.4508862060546874,-60.97709923664122,25.31297709923664,-10.748091603053435,-5.80354482421875,0.5602431884765625,-1.005564697265625,20.9618320610687,-140.53435114503816,-35.19083969465649,0.0
14.620000839233398,-6.964732629394531,1.0390835205078124,0.28730419921875,-60.18320610687023,30.9618320610687,-11.84732824427481,-7.501033801269531,2.3870190551757813,0.9576806640625,28.229007633587788,-132.74809160305344,-30.83969465648855,0.0
14.630000591278076,-11.949460485839843,5.307945080566406,2.8131869506835936,-61.32824427480916,41.954198473282446,-15.572519083969466,-7.618349682617187,1.2617442749023438,2.6312276245117188,25.114503816793892,-119.52671755725191,-22.564885496183205,0.0
14.640000820159912,-9.622296472167967,1.5945383056640625,1.7334020019531249,-79.31297709923665,32.12213740458015,-10.961832061068701,-6.361393811035156,1.6615759521484375,1.7238251953125,16.442748091603054,-113.02290076335878,-21.14503816793893,0.0
14.650000810623169,-8.619125976562499,-0.70868369140625,0.6967126831054687,-62.74809160305343,36.900763358778626,-4.717557251908397,-6.078878015136718,1.5801730957031248,2.760514514160156,6.595419847328245,-95.8473282442748,-17.0381679389313,0.0
14.660000801086426,-6.430825659179687,-3.0023288818359375,-1.16837041015625,-46.42748091603053,44.412213740458014,-4.99236641221374,-5.291185668945312,2.602497204589844,0.5961562133789062,5.221374045801527,-93.43511450381679,-17.46564885496183,0.0
14.670000314712524,-9.823409411621093,2.2673089721679687,1.1372457885742187,-27.51145038167939,56.42748091603053,-16.564885496183205,-6.993463049316406,-0.5578489868164063,4.601655590820312,11.633587786259541,-71.70992366412214,-13.297709923664122,0.0
14.680000305175781,-10.225635290527343,1.216254443359375,0.93852705078125,-43.6793893129771,47.083969465648856,-17.31297709923664,-7.618349682617187,0.842758984375,2.6767174560546874,17.083969465648856,-79.25190839694656,-16.045801526717558,0.0
14.690000534057617,-10.09395419921875,0.7972691528320313,0.5865794067382812,-20.198473282442748,51.9236641221374,-13.48091603053435,-7.541735229492187,0.5195417602539062,4.058171813964844,16.3206106870229,-68.25954198473282,-15.908396946564885,0.0
14.700000286102295,-10.09395419921875,-0.488417138671875,1.120486376953125,-24.48854961832061,53.05343511450382,-18.015267175572518,-9.236830004882812,0.5482721801757812,4.44363828125,22.442748091603054,-67.41984732824427,-15.603053435114504,0.0
14.71000051498413,-11.080365283203124,1.5203180541992187,1.956062756347656,-18.80916030534351,53.69465648854962,-24.18320610687023,-6.495469104003906,3.1579519897460937,3.4524387939453125,12.916030534351146,-63.6793893129771,-20.580152671755727,0.0
14.720000505447388,-10.867281335449219,1.9776105712890624,0.9864110839843749,-26.137404580152673,48.38167938931298,-21.64885496183206,-9.682151513671874,1.1109095703125,5.430049365234375,14.83969465648855,-54.50381679389313,-13.877862595419847,0.0
14.730000734329224,-10.670956799316405,2.5713725830078125,1.3192051147460937,-28.213740458015266,46.99236641221374,-20.65648854961832,-8.717288244628906,2.35589443359375,3.373430139160156,14.091603053435115,-63.81679389312977,-14.427480916030534,0.0
14.740000247955322,-11.614272253417967,3.3638533325195312,2.5570073730468748,-35.49618320610687,44.229007633587784,-18.03053435114504,-5.540182641601562,4.027047192382812,3.0071172851562498,-1.0076335877862594,-54.61068702290076,-13.34351145038168,0.0
14.750000715255737,-12.502521069335936,3.725377783203125,3.0406361083984375,-48.54961832061068,34.778625954198475,-12.122137404580153,-6.715735656738281,2.636016027832031,3.0166940917968748,-8.229007633587786,-50.213740458015266,-8.061068702290076,0.0
14.760000467300415,-8.815450512695312,0.0526724365234375,0.5602431884765625,-35.51145038167939,33.37404580152672,-4.122137404580153,-7.991845141601562,2.511517541503906,5.157110375976562,-11.84732824427481,-41.29770992366412,-4.625954198473282,0.0
14.770000696182251,-11.346121667480467,2.1021090576171875,1.936909143066406,-34.93129770992366,30.748091603053435,-6.351145038167939,-4.57771357421875,2.9640216552734375,3.1196447631835937,-27.450381679389313,-39.06870229007634,-7.022900763358779,0.0
14.780000686645508,-12.488155859374999,3.9983167724609374,4.173093493652344,-39.083969465648856,26.85496183206107,-9.49618320610687,-4.6998178588867185,2.7461493041992187,4.247313745117188,-39.29770992366412,-22.83969465648855,-5.374045801526718,0.0
