timestamp,Thigh_L_Acc_X,Thigh_L_Acc_Y,Thigh_L_Acc_Z,Thigh_L_Gyr_X,Thigh_L_Gyr_Y,Thigh_L_Gyr_Z,Thigh_R_Acc_X,Thigh_R_Acc_Y,Thigh_R_Acc_Z,Thigh_R_Gyr_X,Thigh_R_Gyr_Y,Thigh_R_Gyr_Z,gpio_output
10.000000476837158,-0.15322890625,-4.805162731933594,-1.6639701538085936,65.38931297709924,-27.51145038167939,-17.022900763358777,-11.944672082519531,-3.7325603881835936,1.7884686401367187,54.54961832061068,58.83969465648855,66.91603053435115,0.0
10.010000467300415,-1.7597382202148437,-0.9313444458007812,1.0797849487304687,79.06870229007633,-1.1908396946564885,-24.30534351145038,-10.266336718749999,-3.4644098022460934,2.4684219116210935,62.97709923664122,52.76335877862596,61.908396946564885,1.0
10.020000696182251,-4.2880151733398435,3.5146880371093747,1.6352397338867186,59.12977099236641,-0.4580152671755725,-31.64885496183206,-11.535263598632811,-3.612850305175781,2.980781066894531,68.3969465648855,48.38167938931298,60.38167938931298,1.0
10.030001163482666,-3.1555577880859373,4.149151477050781,1.946485949707031,43.83206106870229,7.145038167938932,-23.81679389312977,-9.883264453125,-1.9680337646484374,1.8171990600585937,60.19847328244275,43.17557251908397,56.25954198473283,1.0
10.040000915527344,-1.3120225097656248,3.4356793823242184,1.1851298217773436,28.900763358778626,11.725190839694656,-17.6793893129771,-11.068394274902342,-1.9009961181640624,3.3303345092773435,58.99236641221374,43.51145038167939,52.79389312977099,1.0
10.0500009059906,-0.5363011718749999,1.7812860351562498,1.7453730102539062,30.458015267175572,31.221374045801525,-13.358778625954198,-10.472238061523436,-1.618480322265625,3.414131567382812,51.083969465648856,42.58015267175573,48.50381679389313,1.0
10.060000896453857,-0.181959326171875,1.5035586425781249,1.5466542724609373,24.65648854961832,41.29770992366412,-16.091603053435115,-13.845668200683592,-5.49708701171875,4.946420629882812,63.9236641221374,37.14503816793893,39.31297709923664,1.0
10.070001125335693,-0.033518823242187495,1.2641384765625,1.419761584472656,30.061068702290076,54.0,-16.03053435114504,-10.563217724609375,-3.6248213134765623,3.593696691894531,68.70229007633588,28.65648854961832,41.725190839694655,1.0
10.080000877380371,-0.8212111694335937,2.8371289672851563,0.09816226806640624,39.29770992366412,72.19847328244275,-13.83206106870229,-12.540828295898438,-2.511517541503906,4.388571643066406,27.862595419847327,26.519083969465647,35.770992366412216,1.0
10.090001106262207,-1.93451494140625,2.8227637573242186,-0.011971008300781249,29.083969465648856,86.74809160305344,-11.48091603053435,-9.60793126220703,-2.9759926635742184,2.5522189697265625,34.62595419847328,22.0,32.12213740458015,1.0
10.100000858306885,-6.265625744628906,2.2002713256835937,8.621520178222656,19.221374045801525,89.2824427480916,-13.893129770992367,-14.336479541015624,-6.617573388671874,5.717353564453124,31.572519083969464,13.282442748091603,34.85496183206107,1.0
10.110000848770142,-9.962273107910155,2.952050646972656,16.85996809082031,51.847328244274806,84.56488549618321,-1.4809160305343512,-11.652579479980469,-4.876988781738281,2.6431986328124997,60.94656488549618,-5.206106870229007,31.17557251908397,1.0
10.12000060081482,-11.288660827636718,8.075642199707032,12.69884560546875,72.53435114503817,75.58778625954199,8.83969465648855,-17.283741784667967,-5.774814404296874,7.048529687499999,47.83206106870229,-20.610687022900763,24.076335877862597,1.0
10.130001068115234,-9.368511096191405,3.9169139160156248,4.364629626464843,55.083969465648856,72.9618320610687,17.6793893129771,-16.436194396972656,-4.546588952636719,7.742848168945312,56.70229007633588,-49.17557251908397,10.274809160305344,1.0
10.140001058578491,-9.272743029785156,0.19632453613281248,-3.4715924072265625,12.290076335877863,71.72519083969466,5.893129770992366,-18.799271435546874,-2.47081611328125,6.351817004394531,46.961832061068705,-46.58015267175573,12.198473282442748,1.0
10.15000057220459,-14.489708447265624,-1.1923124267578125,1.4532804077148436,14.595419847328245,93.95419847328245,-10.442748091603054,-17.44894169921875,-0.296881005859375,5.025429284667968,38.85496183206107,-62.396946564885496,2.3206106870229006,1.0
10.160001039505005,-8.262389929199218,-14.087482568359373,-1.66636435546875,71.90839694656489,94.03053435114504,-6.015267175572519,-15.473725329589843,4.395754248046875,2.6767174560546874,14.473282442748092,-62.42748091603053,-3.5572519083969465,1.0
10.170000553131104,-9.246406811523437,-10.414777221679687,3.69664736328125,183.14503816793894,158.5648854961832,-4.778625954198473,-13.441048120117186,4.311957189941406,2.47081611328125,-5.755725190839694,-58.458015267175576,-0.2595419847328244,1.0
10.180367946624756,-9.210493786621093,-5.197811804199218,-1.1468225952148436,210.0916030534351,170.53435114503816,-34.900763358778626,-13.148955517578123,4.209006518554688,3.7517140014648436,-13.557251908396946,-52.18320610687023,2.122137404580153,1.0
10.190000772476196,-15.844826586914062,5.1140147460937495,2.8323405639648436,206.74809160305344,177.86259541984734,-45.74045801526717,-14.791377856445312,2.042254016113281,5.190629199218749,-40.458015267175576,-43.37404580152672,6.916030534351145,1.0
10.200000762939453,-11.401188305664062,0.41419688720703124,-1.0941501586914062,179.8320610687023,157.40458015267177,-37.41984732824427,-14.860809704589842,0.45489831542968745,4.244919543457031,-44.97709923664122,-43.9236641221374,6.137404580152672,1.0
10.21000075340271,-9.677363110351562,4.460397692871093,-0.19871873779296872,196.6412213740458,173.22137404580153,-28.65648854961832,-12.81376728515625,0.469263525390625,1.7573440185546874,-63.404580152671755,-34.12213740458015,3.8473282442748094,0.0
10.220000743865967,-5.549759448242187,-2.7581203125,-7.510610607910156,177.29770992366412,157.0229007633588,-30.366412213740457,-14.250288281249999,-2.3151930053710936,2.250549560546875,-99.95419847328245,-46.213740458015266,2.045801526717557,0.0
10.230000495910645,-13.347674255371093,7.184999182128906,1.7788918334960937,194.59541984732823,167.16030534351145,-29.84732824427481,-13.031639636230468,-4.917690209960937,-0.8499415893554687,-53.81679389312977,-62.87022900763359,-1.5267175572519085,0.0
10.240000486373901,-7.8170684204101555,4.357447021484375,-2.722207287597656,151.75572519083968,143.3587786259542,-30.198473282442748,-12.746729638671875,-5.125985754394531,-0.7062894897460937,-29.17557251908397,-82.51908396946565,-11.587786259541986,0.0
10.250000715255737,-11.192892761230468,7.747636572265624,0.5770026000976562,125.25190839694656,141.22137404580153,-32.58015267175573,-12.567164514160156,-6.268019946289062,0.565031591796875,-10.244274809160306,-90.67175572519083,-24.213740458015266,0.0
10.260000705718994,-10.946289990234375,9.904812268066406,0.5913678100585937,59.9236641221374,120.50381679389314,-39.465648854961835,-11.870451831054687,-4.687846850585937,-3.0262708984374997,8.01526717557252,-93.00763358778626,-26.977099236641223,0.0
10.27000117301941,-8.825027319335938,6.945579016113281,0.9840168823242187,4.6106870229007635,99.38931297709924,-42.045801526717554,-12.095506787109374,-6.528987927246093,1.1156979736328125,28.717557251908396,-93.83206106870229,-38.48854961832061,0.0
10.280000925064087,-8.63827958984375,4.685452648925781,2.2361843505859373,-25.572519083969464,86.50381679389314,-46.274809160305345,-10.412383020019531,-3.3877953491210935,1.2306196533203124,51.282442748091604,-112.06106870229007,-42.94656488549618,0.0
10.290000915527344,-8.341398583984375,-0.5817910034179687,1.3910311645507811,-29.419847328244273,76.51908396946565,-46.82442748091603,-11.513715783691406,-3.5601778686523438,0.7278373046875,77.64885496183206,-116.79389312977099,-48.412213740458014,0.0
10.300000667572021,-8.518569506835936,-2.0829554443359375,2.2744915771484373,-10.534351145038167,77.2824427480916,-50.80916030534351,-9.495403784179686,1.5179238525390624,1.2976572998046874,80.41221374045801,-120.16793893129771,-58.778625954198475,0.0
10.310001134872437,-7.513004809570312,-6.009446166992187,-0.411802685546875,25.267175572519083,79.09923664122137,-48.916030534351144,-9.660603698730467,2.1308394775390624,-2.128445275878906,69.46564885496183,-112.01526717557252,-61.603053435114504,0.0
10.320000886917114,-8.750807067871094,-0.7278373046875,1.1923124267578125,68.33587786259542,92.50381679389314,-49.12977099236641,-10.94868419189453,2.375048046875,-0.7637503295898437,65.19083969465649,-100.80916030534351,-57.66412213740458,0.0
10.330000877380371,-9.196128576660156,5.097255334472656,0.5793968017578125,90.94656488549619,102.51908396946565,-49.282442748091604,-8.66940421142578,4.525041137695312,-2.825157958984375,55.20610687022901,-94.9618320610687,-56.900763358778626,0.0
10.340000867843628,-11.190498559570312,7.204152795410156,0.48123453369140623,70.82442748091603,99.72519083969466,-51.343511450381676,-10.658985791015624,1.697488977050781,-1.6256629272460936,42.732824427480914,-81.63358778625954,-47.969465648854964,0.0
10.350000619888306,-10.716446630859375,8.090007409667969,-0.3495534423828125,23.755725190839694,87.61832061068702,-55.541984732824424,-8.686163623046875,2.7916391357421872,-2.518700146484375,38.12213740458015,-80.54961832061069,-44.19847328244275,0.0
10.360000610351562,-13.903129040527343,13.283030810546874,4.570530969238281,-16.33587786259542,83.61832061068702,-63.52671755725191,-8.856151940917968,1.3072341064453123,-2.0446482177734375,24.061068702290076,-68.93129770992367,-38.74809160305343,0.0
10.37000060081482,-8.327033374023436,6.086060620117187,0.6009446166992187,-89.23664122137404,47.69465648854962,-66.33587786259542,-9.481038574218749,0.6081272216796875,-1.5203180541992187,30.732824427480917,-71.29770992366412,-34.10687022900763,0.0
10.380000829696655,-7.994239343261718,-0.33758243408203126,-0.7134720947265625,-60.47328244274809,54.33587786259542,-59.099236641221374,-7.364564306640625,0.8834604125976562,-1.7621324218749999,26.68702290076336,-71.81679389312977,-35.770992366412216,0.0
10.390000581741333,-12.011709729003906,5.501875415039062,3.995922570800781,-42.97709923664122,63.541984732824424,-59.00763358778626,-8.520963708496094,0.6584054565429687,0.30885201416015623,28.18320610687023,-64.1526717557252,-35.221374045801525,0.0
10.40000057220459,-9.313444458007812,0.39743747558593745,-0.44532150878906246,-71.08396946564885,46.717557251908396,-56.01526717557252,-8.238447912597655,1.0702081420898437,0.3591302490234375,41.86259541984733,-71.12977099236642,-34.412213740458014,0.0
10.410000562667847,-9.026140258789061,0.10773907470703124,-0.258573779296875,-50.30534351145038,50.36641221374046,-51.25190839694657,-7.982268334960937,-0.062249243164062495,0.699106884765625,40.87022900763359,-72.47328244274809,-34.44274809160305,0.0
10.420000791549683,-8.578424548339843,-1.1109095703125,-0.46208092041015625,-39.61832061068702,52.900763358778626,-49.12977099236641,-7.129932543945312,1.2952630981445312,-0.3950432739257812,44.48854961832061,-79.6030534351145,-36.93129770992366,0.0
10.43000054359436,-14.791377856445312,8.29351455078125,2.461239306640625,-69.57251908396947,49.19083969465649,-56.80916030534351,-9.2320416015625,-1.4891934326171874,0.8499415893554687,47.847328244274806,-76.9618320610687,-33.41984732824427,0.0
10.440001010894775,-11.240776794433593,5.930437512207031,1.1875240234375,-101.2824427480916,37.80152671755725,-56.50381679389313,-8.588001354980468,0.7781155395507812,2.1068974609374997,57.465648854961835,-82.74809160305344,-30.53435114503817,0.0
10.450000524520874,-8.185775476074218,0.9097966308593749,-1.3287819213867187,-97.2824427480916,33.29770992366412,-49.87786259541985,-7.613561279296874,1.426944189453125,0.928950244140625,56.35114503816794,-89.58778625954199,-30.702290076335878,0.0
10.46000075340271,-14.166491223144531,7.505822204589843,2.1021090576171875,-92.2442748091603,42.396946564885496,-48.83969465648855,-8.8872765625,1.6328455322265625,2.003946789550781,53.86259541984733,-90.8854961832061,-28.137404580152673,0.0
10.470000743865967,-10.436325036621094,4.441244079589843,1.6017209106445311,-127.74045801526718,25.541984732824428,-44.13740458015267,-9.65342109375,1.2138602416992186,2.5354595581054684,60.47328244274809,-95.6793893129771,-25.267175572519083,0.0
10.480000495910645,-7.967903124999999,-1.35990654296875,-1.879448303222656,-101.37404580152672,28.091603053435115,-31.083969465648856,-9.950302099609374,-0.11731588134765625,2.9281086303710935,51.725190839694655,-97.40458015267176,-22.076335877862597,0.0
10.490000486373901,-12.801796276855468,4.204218115234375,2.4971523315429685,-83.26717557251908,41.31297709923664,-29.16030534351145,-10.46984385986328,0.0526724365234375,4.7022120605468745,62.274809160305345,-101.69465648854961,-20.015267175572518,0.0
10.500000476837158,-12.27746611328125,5.667075329589843,3.5242648437499997,-125.12977099236642,24.35114503816794,-30.198473282442748,-10.297461340332031,-0.8571241943359375,4.010287780761718,67.31297709923665,-104.58015267175573,-20.641221374045802,0.0
10.510000705718994,-9.897629663085937,1.1228805786132812,0.7254431030273437,-127.5114503816794,13.48091603053435,-24.15267175572519,-10.232817895507813,-0.09576806640624999,4.671087438964843,50.62595419847328,-111.38931297709924,-19.72519083969466,0.0
10.520000696182251,-12.988544006347656,3.2345664428710936,2.978386865234375,-121.1145038167939,15.297709923664122,-21.435114503816795,-9.95987890625,0.105344873046875,5.123591552734375,36.76335877862596,-105.90839694656489,-21.893129770992367,0.0
10.530000925064087,-11.417947717285156,2.1811177124023438,1.7310078002929687,-136.06106870229007,2.5343511450381677,-19.72519083969466,-9.10993731689453,0.41419688720703124,4.704606262207031,30.549618320610687,-103.63358778625954,-20.625954198473284,0.0
10.540000915527344,-8.238447912597655,-2.9041666137695312,-0.430956298828125,-110.27480916030534,-0.4732824427480916,-11.557251908396946,-8.86094034423828,0.12449848632812499,4.058171813964844,24.885496183206108,-106.51908396946565,-16.519083969465647,0.0
10.550001382827759,-8.750807067871094,-0.354341845703125,-0.22266075439453123,-86.03053435114504,-1.3740458015267176,-10.198473282442748,-8.801085302734375,-0.17238251953125,5.219359619140625,19.19083969465649,-102.62595419847328,-15.603053435114504,0.0
10.560000658035278,-9.0788126953125,-2.9089550170898435,1.484405029296875,-52.35114503816794,11.022900763358779,-7.862595419847328,-5.951985327148437,0.5315127685546874,3.9456443359374997,10.748091603053435,-91.5114503816794,-16.366412213740457,0.0
10.570000886917114,-8.214505895996094,-2.6815058593749996,2.2074539306640624,-3.633587786259542,28.0,-4.732824427480916,-4.4005426513671875,1.199495031738281,2.978386865234375,-2.8396946564885495,-83.1145038167939,-17.19083969465649,0.0
10.580000638961792,-8.489839086914062,-0.18435352783203124,1.4700398193359374,2.6259541984732824,31.572519083969464,-9.450381679389313,-4.3813890380859375,0.603338818359375,4.797980126953124,-8.488549618320612,-73.29770992366412,-16.595419847328245,0.0
10.590000629425049,-9.797073193359374,0.7781155395507812,1.9919757812499999,-0.2595419847328244,34.82442748091603,-12.366412213740459,-2.0350714111328125,1.9297265380859374,3.356670727539062,-29.770992366412212,-59.89312977099237,-20.65648854961832,0.0
10.600000619888306,-8.420407238769531,1.2473790649414063,0.9074024291992187,-4.778625954198473,34.58015267175573,-10.244274809160306,-3.1292215698242187,1.7310078002929687,2.971204260253906,-42.229007633587784,-44.6412213740458,-18.47328244274809,0.0
10.610000848770142,-8.760383874511719,2.971204260253906,1.005564697265625,-12.091603053435115,36.58015267175573,-9.648854961832061,-7.275978845214843,-1.199495031738281,4.405331054687499,-37.66412213740458,-32.30534351145038,-10.763358778625955,0.0
10.62000060081482,-8.650250598144531,2.389413256835937,0.7158662963867187,-8.320610687022901,35.93893129770992,-6.778625954198473,-4.228160131835938,0.5698199951171875,3.526659045410156,-40.10687022900763,-29.435114503816795,-13.84732824427481,0.0
10.630000829696655,-8.927977990722656,1.209071838378906,0.37828386230468747,4.1679389312977095,38.16793893129771,-1.3740458015267176,-6.955155822753905,-1.0773907470703123,3.5482068603515624,-39.55725190839695,-16.916030534351144,-10.778625954198473,0.0
10.640000581741333,-9.04050546875,1.2713210815429687,0.055066638183593745,14.259541984732824,39.74045801526717,-0.9923664122137404,-6.6271501953125,-1.5729904907226562,3.6008792968749996,-32.778625954198475,-14.076335877862595,-11.419847328244275,0.0
10.65000033378601,-10.797849487304687,2.5450363647460934,0.5506663818359374,10.580152671755725,39.87786259541985,-3.648854961832061,-5.250484240722656,0.2154781494140625,3.0526071166992184,-35.81679389312977,-10.01526717557252,-12.641221374045802,0.0
10.660001039505005,-11.674127294921874,3.1507693847656246,0.699106884765625,-3.7404580152671754,35.19083969465649,-6.442748091603053,-4.73094248046875,0.718260498046875,1.3479355346679687,-39.70992366412214,2.7938931297709924,-12.946564885496183,0.0
10.670000791549683,-10.89840595703125,1.3479355346679687,0.5363011718749999,-18.0,31.954198473282442,-5.435114503816794,-6.643909606933593,-1.1851298217773436,2.808398547363281,-40.06106870229008,16.9618320610687,-2.5801526717557253,0.0
10.68000078201294,-10.426748229980468,0.36152445068359373,0.8978256225585937,-12.427480916030534,30.82442748091603,-6.641221374045801,-6.572083557128906,-2.231395947265625,2.482787121582031,-34.80916030534351,19.81679389312977,0.3816793893129771,0.0
10.690000534057617,-11.889605444335936,1.7190367919921874,1.5969325073242187,-7.923664122137405,26.091603053435115,-8.01526717557252,-3.1100679565429687,-0.5219359619140624,-1.0127473022460938,-25.404580152671755,11.038167938931299,-4.534351145038168,0.0
10.700001001358032,-12.904746948242186,1.9225439331054686,2.568978381347656,-30.641221374045802,11.633587786259541,-8.625954198473282,-2.8036101440429686,1.01514150390625,0.6200982299804687,-33.98473282442748,36.76335877862596,-7.465648854961832,0.0
10.71000075340271,-11.29344923095703,-0.33758243408203126,3.2800562744140622,-10.320610687022901,12.396946564885496,-4.687022900763359,-5.406107348632812,-1.5801730957031248,1.3527239379882812,-38.79389312977099,52.76335877862596,0.44274809160305345,0.0
10.720000743865967,-13.053187451171874,3.0238766967773434,4.333505004882812,-18.53435114503817,6.244274809160306,-8.351145038167939,-6.60799658203125,-1.7956512451171873,1.1875240234375,-22.091603053435115,51.57251908396947,6.748091603053435,0.0
10.730000734329224,-12.526463085937499,3.1842882080078123,4.060566015625,-27.96946564885496,-10.870229007633588,-6.870229007633588,-5.221753820800781,-0.0718260498046875,1.5682020874023437,-21.923664122137403,57.3587786259542,5.603053435114504,0.0
10.74000096321106,-13.2926076171875,3.708618371582031,5.121197351074218,-28.793893129770993,-17.419847328244273,-3.1297709923664123,-5.463568188476562,-0.46686932373046874,2.4253262817382812,-36.35114503816794,66.04580152671755,2.2442748091603053,0.0
10.750000715255737,-12.935871569824219,2.770091320800781,5.9017070922851556,-35.57251908396947,-30.931297709923665,0.5190839694656488,-7.575254052734374,-2.2481553588867187,5.559336254882812,-47.7557251908397,71.83206106870229,2.595419847328244,0.0
10.760000944137573,-13.271059802246093,3.124433166503906,6.287173559570312,-42.10687022900763,-44.06106870229008,2.0916030534351147,-8.032546569824218,-1.5131354492187499,5.746083984375,-70.61068702290076,68.9618320610687,-2.6106870229007635,0.0
10.770001411437988,-14.166491223144531,2.2864625854492187,7.117961535644531,-40.61068702290076,-56.06106870229008,5.633587786259542,-2.5163059448242184,7.105990527343749,1.9225439331054686,-71.57251908396947,60.80916030534351,-15.282442748091603,0.0
10.780000925064087,-15.490484741210937,5.437231970214843,10.242394702148436,-47.603053435114504,-68.9618320610687,3.404580152671756,-3.447650390625,9.794678991699218,-3.172317199707031,-160.3206106870229,123.72519083969466,-15.954198473282442,0.0
10.790001153945923,-15.784971545410155,7.201758593749999,12.667720983886719,-84.16793893129771,-87.86259541984732,7.343511450381679,-10.338162768554687,4.716577270507813,-0.9792284790039062,-203.95419847328245,172.53435114503816,9.587786259541986,0.0
10.800000667572021,-14.585476513671875,3.1555577880859373,12.801796276855468,-63.267175572519086,-104.30534351145039,16.732824427480917,-4.467580297851562,8.372523205566406,-10.089165795898436,-209.26717557251908,141.38931297709922,23.480916030534353,0.0
10.810001134872437,-13.759476940917969,1.2282254516601563,10.462661254882812,-15.694656488549619,-114.8854961832061,26.061068702290076,-12.435483422851561,6.665457421875,-5.073313317871094,-280.7328244274809,204.12213740458014,22.53435114503817,0.0
10.820000886917114,-13.33091484375,-0.488417138671875,10.407594616699217,-17.52671755725191,-124.99236641221374,25.96946564885496,-18.681955554199217,-4.589684582519531,2.887407202148437,-250.7175572519084,203.25190839694656,37.343511450381676,0.0
10.83000111579895,-16.59900010986328,-0.3327940307617187,11.374852087402344,-16.946564885496183,-143.81679389312978,16.396946564885496,-11.125855114746093,-6.926425402832031,-3.8474820678710935,-190.01526717557252,156.35114503816794,38.25954198473283,0.0
10.840000867843628,-16.780959436035154,-0.48123453369140623,9.521740002441407,-1.816793893129771,-171.87786259541986,16.65648854961832,-9.842563024902343,-2.176329309082031,-3.8235400512695312,-192.53435114503816,146.74809160305344,29.297709923664122,0.0
10.850000619888306,-14.544775085449217,-2.094926452636719,6.3973068359375,30.045801526717558,-185.9236641221374,23.66412213740458,-13.390769885253906,-8.176198669433592,4.254496350097656,-171.09923664122138,134.54961832061068,32.961832061068705,0.0
10.860000848770142,-17.183185314941404,4.479551306152343,2.6815058593749996,23.480916030534353,-200.94656488549617,22.595419847328245,-11.846509814453125,-6.8210805297851556,-4.824316345214844,-132.2290076335878,89.72519083969466,39.02290076335878,0.0
10.870001077651978,-19.026720593261718,8.645462194824217,2.291250988769531,-8.045801526717558,-221.70992366412213,28.50381679389313,-12.799402075195312,-7.520187414550781,0.9744400756835937,-80.74809160305344,76.93129770992367,42.0,0.0
10.880000829696655,-19.32599580078125,6.533776330566406,-0.2657563842773437,-32.47328244274809,-232.94656488549617,43.02290076335878,-11.891999645996092,-8.13310303955078,3.4739866088867184,-35.32824427480916,62.85496183206107,48.13740458015267,0.0
10.890000820159912,-18.677167150878905,1.8650830932617186,-2.8730419921875,-46.33587786259542,-238.68702290076337,51.37404580152672,-9.97903251953125,-3.919308117675781,0.38307226562499996,3.4656488549618323,45.05343511450382,50.18320610687023,0.0
10.90000057220459,-17.820042956542967,2.6001030029296874,-1.24498486328125,-52.01526717557252,-234.10687022900763,49.7557251908397,-10.292672937011718,0.7733271362304687,-0.21787235107421873,-0.04580152671755725,48.42748091603053,52.50381679389313,0.0
10.910000801086426,-16.61815372314453,-0.1388636962890625,-3.2225954345703123,-50.19847328244275,-229.34351145038167,47.29770992366412,-7.678204724121093,2.109291662597656,-1.6160861206054686,-17.419847328244273,53.63358778625954,54.35114503816794,0.0
10.920000791549683,-13.642161059570311,0.833182177734375,-0.6464344482421874,-51.3587786259542,-217.16030534351145,38.19847328244275,-9.849745629882811,-1.2593500732421874,-1.2832920898437499,-29.129770992366414,66.51908396946565,60.229007633587784,0.0
10.93000054359436,-14.360421557617187,0.26336218261718747,-0.4429273071289062,-50.99236641221374,-204.74809160305344,31.435114503816795,-9.30147344970703,-0.603338818359375,-3.6679169433593746,-36.534351145038165,69.20610687022901,60.534351145038165,0.0
10.940000772476196,-13.218387365722656,1.0223241088867188,0.09337386474609374,-45.7557251908397,-190.27480916030535,27.297709923664122,-9.991003527832031,-0.8690952026367187,-1.8028338500976562,-57.12977099236641,83.96946564885496,63.06870229007634,0.0
10.950000762939453,-10.280701928710936,-0.11252747802734374,-0.373495458984375,-36.717557251908396,-179.74045801526717,30.442748091603054,-11.027692846679686,-2.8706477905273435,-0.9097966308593749,-49.11450381679389,91.25190839694656,66.3206106870229,0.0
10.96000075340271,-8.767566479492187,-0.5003881469726562,-0.45968671875,-19.297709923664122,-166.4732824427481,30.30534351145038,-11.40837091064453,-4.144363073730468,-1.5538368774414062,-46.2442748091603,98.16793893129771,69.3587786259542,0.0
10.970000743865967,-7.934384301757812,-1.455674609375,-0.3016694091796875,-12.122137404580153,-160.42748091603053,30.198473282442748,-10.156203442382813,-3.294421484375,-1.4413093994140624,-35.587786259541986,93.00763358778626,69.00763358778626,0.0
10.980000734329224,-9.373299499511718,-0.7709329345703124,-0.16519991455078123,-15.557251908396946,-154.50381679389312,27.96946564885496,-10.888829150390624,-3.7397429931640622,0.4261678955078125,-29.404580152671755,97.05343511450381,73.78625954198473,0.0
10.990000486373901,-8.291120349121094,0.46208092041015625,0.30885201416015623,-16.458015267175572,-146.41221374045801,27.557251908396946,-8.992621435546875,-2.013523596191406,-0.4070142822265625,-25.786259541984734,96.10687022900764,74.16793893129771,0.0
11.000000476837158,-7.299920861816406,0.12210428466796874,-0.7709329345703124,-22.80916030534351,-146.83969465648855,27.267175572519083,-10.97502041015625,-4.197035510253906,0.7733271362304687,-9.709923664122137,94.50381679389314,78.97709923664122,0.0
11.010000705718994,-6.500257507324219,-0.679953271484375,-0.13168109130859373,-29.587786259541986,-143.2824427480916,27.328244274809162,-9.17458076171875,-2.8754361938476563,0.469263525390625,-0.3511450381679389,88.90076335877863,77.63358778625954,0.0
11.020033121109009,-6.117185241699218,-0.6536170532226562,-1.956062756347656,-29.419847328244273,-138.13740458015266,26.458015267175572,-10.500968481445312,-6.45476767578125,2.5641899780273434,20.244274809160306,86.03053435114504,82.35114503816794,0.0
11.030001163482666,-4.347870214843749,-2.0925322509765625,-2.4684219116210935,-15.297709923664122,-120.13740458015268,24.702290076335878,-9.753977563476562,-3.1411925781249996,1.7477672119140624,51.29770992366412,69.14503816793894,77.64885496183206,0.0
11.040000915527344,-3.8187516479492185,-2.01112939453125,-2.636016027832031,-18.18320610687023,-110.01526717557252,16.290076335877863,-6.746860278320312,1.0989385620117187,-1.1731588134765625,33.770992366412216,63.69465648854962,69.1145038167939,0.0
11.05000114440918,-1.8459294799804686,-3.8379052612304685,-3.2561142578125,-21.954198473282442,-101.19083969465649,14.458015267175572,-10.407594616699217,-1.7597382202148437,1.37906015625,22.916030534351144,76.3206106870229,73.43511450381679,0.0
11.060000896453857,0.0143652099609375,-6.730100866699218,-3.5984850952148437,4.305343511450381,-74.99236641221374,9.740458015267176,-10.85291612548828,-4.632780212402343,4.527435339355469,48.82442748091603,70.21374045801527,71.34351145038168,0.0
11.070001363754272,-1.3766659545898436,-4.5585599609375,-1.908178723144531,10.67175572519084,-59.16030534351145,-6.656488549618321,-7.486668591308593,-3.4572271972656248,0.8930372192382812,56.13740458015267,53.64885496183206,63.11450381679389,0.0
11.080000877380371,-0.86191259765625,-5.05655390625,-1.0773907470703123,26.15267175572519,-44.10687022900763,-13.267175572519085,-9.469067565917967,-0.3687070556640625,0.5051765502929687,52.0763358778626,53.954198473282446,58.13740458015267,0.0
11.090000867843628,-0.239420166015625,-5.063736511230468,0.22026655273437498,52.42748091603053,-24.65648854961832,-15.648854961832061,-11.992556115722655,-5.260061047363281,3.845087866210937,42.67175572519084,62.51908396946565,57.11450381679389,0.0
11.100000858306885,-3.6104561035156246,-1.2569558715820313,2.3367408203125,67.66412213740458,-8.595419847328245,-20.625954198473284,-12.174515441894531,-8.068459594726562,4.735730883789063,84.85496183206106,52.18320610687023,41.6793893129771,0.0
11.110000610351562,-4.675875842285156,0.8906430175781249,2.549824768066406,71.49618320610686,-5.435114503816794,-22.045801526717558,-9.751583361816406,-5.042188696289062,0.6536170532226562,81.37404580152672,38.42748091603053,45.541984732824424,0.0
11.120000839233398,-3.2034418212890623,-0.08858546142578125,2.2673089721679687,71.54198473282443,-4.183206106870229,-16.82442748091603,-13.77144794921875,-6.011840368652344,5.870582470703124,92.29007633587786,36.412213740458014,40.961832061068705,0.0
11.130000829696655,-2.8706477905273435,0.7254431030273437,1.946485949707031,69.55725190839695,4.9465648854961835,-14.290076335877863,-8.724470849609375,-0.2537853759765625,3.1196447631835937,88.3969465648855,28.53435114503817,31.87786259541985,0.0
11.140000581741333,-4.666299035644531,2.3487118286132813,2.3151930053710936,59.404580152671755,7.893129770992366,-13.435114503816793,-9.495403784179686,-1.4053963745117186,2.511517541503906,60.85496183206107,25.206106870229007,25.572519083969464,0.0
11.15000057220459,-3.5146880371093747,1.458068811035156,1.924938134765625,61.80152671755725,17.31297709923664,-6.488549618320611,-9.955090502929687,-0.22026655273437498,2.50912333984375,45.282442748091604,21.6793893129771,20.15267175572519,0.0
11.160000324249268,-4.496310717773437,1.9991583862304687,1.6927005737304686,60.80916030534351,27.709923664122137,-2.50381679389313,-11.896788049316406,-2.9568390502929685,3.928884924316406,44.732824427480914,19.6793893129771,19.267175572519083,0.0
11.170000553131104,-5.068524914550781,2.370259643554687,1.649604943847656,52.44274809160305,35.98473282442748,0.7633587786259542,-10.989385620117186,-0.14125789794921875,0.6655880615234374,37.3587786259542,19.114503816793892,17.221374045801525,0.0
11.18000078201294,-5.480327600097656,3.076549133300781,1.5562310791015623,43.083969465648856,46.42748091603053,1.1603053435114503,-14.961366174316405,-6.423643054199219,5.255272644042968,46.74809160305343,17.404580152671755,14.198473282442748,0.0
11.190000772476196,-6.909665991210937,2.118868469238281,3.3542765258789062,35.404580152671755,54.412213740458014,1.4809160305343512,-11.949460485839843,-6.766013891601562,4.273649963378906,82.30534351145039,-7.267175572519084,23.83206106870229,0.0
11.200000762939453,-8.817844714355468,2.5570073730468748,12.650961572265624,49.80152671755725,52.16793893129771,5.435114503816794,-13.395558288574218,-7.299920861816406,1.0342951171875,88.27480916030534,-16.244274809160306,20.977099236641223,0.0
11.21000051498413,-14.628572143554686,9.150638745117186,21.71301485595703,81.8473282442748,46.50381679389313,23.572519083969464,-12.246341491699217,-5.892130285644531,-0.7254431030273437,111.64885496183206,-37.14503816793893,17.435114503816795,0.0
11.220000267028809,-6.457161877441406,4.534617944335937,10.307038146972655,83.29770992366412,30.412213740458014,46.70229007633588,-15.071499450683593,-5.334281298828125,1.7286135986328124,108.2442748091603,-38.25954198473283,17.801526717557252,0.0
11.230000257492065,-5.073313317871094,2.47081611328125,4.177881896972656,41.93893129770992,43.17557251908397,25.17557251908397,-15.60301221923828,-2.9448680419921875,2.5857377929687497,111.05343511450381,-55.465648854961835,16.427480916030536,0.0
11.240000486373901,-0.07422025146484375,-11.080365283203124,-4.474762902832031,26.442748091603054,54.045801526717554,11.969465648854962,-18.301277490234373,-3.189076611328125,-0.8116343627929687,87.38931297709924,-57.20610687022901,6.183206106870229,0.0
11.250000476837158,-5.655104321289063,-8.67658681640625,1.9800047729492187,89.89312977099236,113.43511450381679,-3.5114503816793894,-15.6293484375,2.9472622436523435,1.37906015625,67.09923664122137,-56.961832061068705,-0.015267175572519083,0.0
11.260000944137573,-8.671798413085938,-2.6240450195312497,7.589619262695312,144.25954198473283,134.21374045801528,-20.27480916030534,-13.64934366455078,6.768408093261718,1.2210428466796874,19.404580152671755,-43.12977099236641,-6.183206106870229,0.0
11.27000093460083,-11.693280908203125,5.331887097167969,2.35589443359375,149.5114503816794,152.51908396946564,-25.129770992366414,-14.26225928955078,6.375759020996093,3.323151904296875,-21.87786259541985,-31.328244274809162,-1.4809160305343512,0.0
11.280000925064087,-5.578489868164062,-0.086191259765625,-4.5968671875,133.87786259541986,159.40458015267177,-28.015267175572518,-15.464148522949218,2.5953145996093747,4.084508032226562,-23.14503816793893,-39.404580152671755,8.01526717557252,0.0
11.290001153945923,-10.886434948730468,-0.39264907226562495,3.497928625488281,168.0916030534351,181.09923664122138,-26.47328244274809,-14.444218615722656,3.057395520019531,4.1946413085937495,-46.030534351145036,-45.083969465648856,14.198473282442748,0.0
11.300000667572021,-7.1395093505859375,-4.4819455078125,-1.2641384765625,185.48091603053436,183.25190839694656,-21.801526717557252,-15.023615417480467,2.8275521606445313,4.80755693359375,-57.404580152671755,-40.85496183206107,18.717557251908396,0.0
11.310001134872437,-12.339715356445312,2.288856787109375,1.5658078857421873,202.44274809160305,194.67175572519085,-27.801526717557252,-16.103400366210938,-0.10295067138671875,4.359841223144531,-61.786259541984734,-55.31297709923664,20.47328244274809,0.0
11.320000648498535,-9.969455712890625,2.5330653564453125,0.201112939453125,192.03053435114504,182.36641221374046,-29.297709923664122,-13.929465258789062,-0.4860229370117187,1.9895815795898437,-62.3206106870229,-58.18320610687023,15.526717557251908,0.0
11.330000877380371,-12.399570397949217,9.169792358398437,3.318363500976562,180.74809160305344,174.0916030534351,-30.793893129770993,-12.018892333984374,-0.6296750366210937,3.1268273681640624,-52.74809160305343,-74.36641221374046,7.32824427480916,0.0
11.34000039100647,-10.443507641601562,7.730877160644531,0.7062894897460937,115.00763358778626,141.2824427480916,-38.51908396946565,-13.63019005126953,-2.2026655273437497,1.7669208251953124,-57.404580152671755,-84.35114503816794,6.67175572519084,0.0
11.350000619888306,-11.602301245117188,9.212887988281249,3.5314474487304683,63.847328244274806,120.6412213740458,-46.33587786259542,-13.555969799804688,-4.484339709472656,0.39264907226562495,-45.908396946564885,-98.25954198473282,-2.6717557251908395,0.0
11.360000610351562,-10.831368310546875,8.904035974121093,2.147598889160156,5.9541984732824424,98.76335877862596,-54.595419847328245,-14.374786767578124,-6.7803791015625,0.45010991210937495,-37.20610687022901,-103.8473282442748,-16.412213740458014,0.0
11.37000060081482,-9.387664709472656,3.967192150878906,0.11731588134765625,-30.778625954198475,82.25954198473282,-58.47328244274809,-13.05558165283203,-6.964732629394531,-0.1005564697265625,5.129770992366412,-114.73282442748092,-28.198473282442748,0.0
11.380000591278076,-9.583989245605467,1.350329736328125,0.3806780639648437,-30.50381679389313,78.90076335877863,-58.76335877862596,-12.950236779785156,-6.404489440917969,0.7254431030273437,26.259541984732824,-113.69465648854961,-41.9236641221374,0.0
11.390000820159912,-10.670956799316405,-0.5985504150390625,0.24181436767578124,-22.931297709923665,82.83969465648855,-60.74809160305343,-10.448296044921875,-4.3430818115234375,-0.23702596435546874,43.38931297709924,-123.20610687022901,-48.85496183206107,0.0
11.400001049041748,-9.95987890625,-2.9664158569335934,-0.40462008056640625,3.816793893129771,90.0,-59.17557251908397,-9.658209497070311,-0.5243301635742187,-2.133233679199219,50.62595419847328,-128.38167938931298,-55.32824427480916,0.0
11.410000801086426,-10.402806213378906,0.4165910888671875,0.8379705810546875,21.572519083969464,96.56488549618321,-61.63358778625954,-9.770736975097655,0.5339069702148437,-2.91134921875,53.64885496183206,-119.14503816793894,-60.93129770992366,0.0
11.420000553131104,-10.560823522949217,1.8818425048828125,0.055066638183593745,37.7557251908397,101.80152671755725,-62.900763358778626,-10.520122094726561,1.599326708984375,-1.7262193969726563,54.458015267175576,-107.55725190839695,-56.0,0.0
11.43000054359436,-11.161768139648437,2.1547814941406247,-0.9169792358398436,33.11450381679389,99.09923664122137,-63.45038167938932,-8.789114294433594,3.2824504760742186,-1.7788918334960937,38.42748091603053,-103.58778625954199,-53.06870229007634,0.0
11.440000534057617,-12.612654345703124,12.536039892578124,4.139574670410156,0.8854961832061069,90.65648854961832,-70.35114503816794,-10.103531005859374,1.8339584716796873,-3.0837317382812497,30.33587786259542,-92.38167938931298,-47.81679389312977,0.0
11.450000762939453,-8.765172277832031,7.196970190429687,-1.0462661254882812,-46.916030534351144,67.81679389312977,-71.37404580152672,-8.145074047851562,3.42849677734375,-3.361459130859375,16.50381679389313,-81.87786259541984,-47.64885496183206,0.0
11.46000075340271,-12.548010900878905,10.311826550292968,3.8379052612304685,-57.9236641221374,65.63358778625954,-69.06870229007633,-11.075576879882812,-1.3120225097656248,-1.1875240234375,14.366412213740459,-71.89312977099236,-41.099236641221374,0.0
11.470000505447388,-7.548917834472656,3.39018955078125,-1.0031704956054688,-81.48091603053435,45.43511450381679,-62.83969465648855,-8.971073620605468,0.239420166015625,-1.3215993164062498,29.31297709923664,-76.41221374045801,-45.38931297709924,0.0
11.480000495910645,-11.494562170410155,4.264073156738281,1.0271125122070313,-81.29770992366412,42.3206106870229,-56.68702290076336,-10.374075793457031,-1.9416975463867185,0.8499415893554687,38.47328244274809,-68.2442748091603,-43.83206106870229,0.0
11.490000486373901,-7.860164050292968,0.258573779296875,0.6081272216796875,-60.152671755725194,48.87022900763359,-48.42748091603053,-8.889670764160156,-0.9337386474609375,0.24181436767578124,53.74045801526717,-78.8854961832061,-47.98473282442748,0.0
11.500000715255737,-8.066065393066406,2.5953145996093747,2.104503259277344,-60.274809160305345,42.152671755725194,-48.54961832061068,-9.892841259765625,-1.4006079711914061,0.1867477294921875,66.41221374045801,-79.32824427480917,-49.282442748091604,0.0
11.510000705718994,-5.501875415039062,-4.491522314453125,-0.6440402465820312,-37.69465648854962,43.63358778625954,-41.86259541984733,-7.788338000488281,0.9983820922851562,0.4261678955078125,64.99236641221374,-82.62595419847328,-51.05343511450382,0.0
11.52000093460083,-11.214440576171874,4.7022120605468745,4.024652990722656,-40.274809160305345,41.541984732824424,-47.465648854961835,-8.607154968261717,1.0845733520507812,0.33039982910156246,72.58015267175573,-82.68702290076335,-50.778625954198475,0.0
11.530000925064087,-10.189722265624999,4.790797521972656,2.3918074584960936,-70.79389312977099,24.290076335877863,-48.76335877862596,-7.979874133300781,1.915361328125,0.16998831787109375,72.51908396946565,-86.70229007633588,-48.778625954198475,0.0
11.540000677108765,-13.1776859375,6.622361791992187,3.1004911499023438,-90.19847328244275,15.893129770992367,-44.67175572519084,-8.79150849609375,1.7381904052734374,0.6536170532226562,61.969465648854964,-84.09160305343511,-43.48091603053435,0.0
11.5500009059906,-8.89924757080078,1.3646949462890625,-0.00718260498046875,-90.67175572519083,9.893129770992367,-35.02290076335878,-7.747636572265624,2.8203695556640622,0.0718260498046875,59.31297709923664,-87.14503816793894,-40.30534351145038,0.0
11.560000896453857,-12.509703674316405,5.7700260009765625,4.331110803222656,-77.78625954198473,16.519083969465647,-32.87022900763359,-8.245630517578125,2.85388837890625,2.1452046874999997,50.717557251908396,-85.89312977099236,-33.74045801526717,0.0
11.570000886917114,-10.678139404296875,3.526659045410156,1.9009961181640624,-107.3587786259542,-4.183206106870229,-28.916030534351144,-9.083601098632812,0.08858546142578125,2.3511060302734372,48.70229007633588,-87.55725190839695,-29.83206106870229,0.0
11.580000638961792,-14.274230297851561,5.183446594238281,3.5960908935546874,-103.77099236641222,-5.419847328244275,-23.129770992366414,-9.9215716796875,-0.6416460449218749,3.787627026367187,47.908396946564885,-90.10687022900764,-25.267175572519083,0.0
11.590000629425049,-10.809820495605468,2.3487118286132813,1.2138602416992186,-115.5114503816794,-19.404580152671755,-14.961832061068701,-8.300697155761718,-0.7733271362304687,2.89219560546875,47.6793893129771,-97.6030534351145,-25.480916030534353,0.0
11.600000619888306,-11.942277880859374,0.5889736083984375,1.6711527587890624,-93.45038167938931,-17.34351145038168,-5.450381679389313,-10.046070166015625,0.40222587890625,3.5697546752929687,45.23664122137404,-105.31297709923665,-22.0,0.0
11.610000610351562,-9.035717065429687,-2.6671406494140624,0.10295067138671875,-66.6412213740458,-11.740458015267176,-0.3969465648854962,-9.758765966796874,-0.679953271484375,3.8570588745117185,42.18320610687023,-107.25190839694656,-20.3206106870229,0.0
11.62000060081482,-10.041281762695311,-2.528276953125,0.565031591796875,-39.38931297709924,-2.7022900763358777,-1.633587786259542,-11.326968054199218,-1.5538368774414062,5.805939025878906,42.18320610687023,-110.7175572519084,-20.99236641221374,0.0
11.630000829696655,-9.121908325195312,-2.770091320800781,0.3495534423828125,-13.709923664122137,7.694656488549619,-3.877862595419847,-9.801861596679688,-0.51714755859375,4.687846850585937,38.0,-114.70229007633588,-22.35114503816794,0.0
11.640001058578491,-8.63109698486328,-2.3535002319335936,0.6679822631835937,13.19083969465649,21.358778625954198,-6.732824427480916,-8.808267907714843,-1.5203180541992187,6.320692382812499,31.450381679389313,-111.26717557251908,-22.519083969465647,0.0
11.65000057220459,-9.859322436523437,2.6192566162109374,1.8028338500976562,-1.251908396946565,18.931297709923665,-13.129770992366412,-8.180987072753906,-0.047884033203124995,4.228160131835938,22.03053435114504,-106.3206106870229,-21.862595419847327,0.0
11.660000801086426,-9.208099584960937,1.62805712890625,2.157175695800781,6.763358778625954,28.793893129770993,-9.969465648854962,-5.588066674804687,1.0654197387695312,3.632003918457031,5.816793893129771,-100.3206106870229,-22.80916030534351,0.0
11.670000314712524,-8.588001354980468,3.5410242553710933,1.197100830078125,-9.038167938931299,30.732824427480917,-9.419847328244275,-6.87614716796875,-0.086191259765625,3.5051112304687497,-2.4580152671755724,-90.56488549618321,-21.221374045801525,0.0
11.68000078201294,-8.786720092773438,2.877830395507812,1.388636962890625,-25.206106870229007,33.404580152671755,-7.923664122137405,-5.928043310546875,0.7278373046875,3.4548329956054684,-12.106870229007633,-85.19083969465649,-21.862595419847327,0.0
11.690000534057617,-8.097190014648437,0.16519991455078123,0.39264907226562495,-17.709923664122137,38.56488549618321,-5.404580152671755,-7.524975817871093,-0.7781155395507812,4.197035510253906,-18.65648854961832,-70.01526717557252,-18.732824427480917,0.0
11.700001001358032,-7.730877160644531,-0.7158662963867187,0.4070142822265625,-10.045801526717558,46.717557251908396,-6.244274809160306,-7.893682873535155,-0.8044517578125,3.4668040039062498,-18.580152671755727,-66.62595419847328,-15.374045801526718,0.0
11.71000051498413,-8.91840118408203,-0.6488286499023437,0.6631938598632812,1.8625954198473282,52.01526717557252,-10.900763358778626,-7.491456994628906,-0.6871358764648438,3.763685009765625,-14.763358778625955,-58.80916030534351,-18.137404580152673,0.0
11.720000743865967,-9.830592016601562,-0.0526724365234375,0.7350199096679687,4.427480916030534,52.76335877862596,-13.282442748091603,-5.882553479003906,-0.29448680419921874,2.3415292236328122,-21.786259541984734,-48.51908396946565,-18.27480916030534,0.0
11.730000495910645,-10.826579907226561,1.005564697265625,0.8714894042968749,12.13740458015267,54.534351145038165,-13.648854961832061,-7.639897497558593,-1.5083470458984374,3.4620156005859375,-19.603053435114504,-36.83969465648855,-15.419847328244275,0.0
11.740000486373901,-11.54244620361328,2.9831752685546875,1.4125789794921875,9.877862595419847,55.69465648854962,-13.49618320610687,-6.658274816894531,-1.70467158203125,2.9640216552734375,-13.816793893129772,-35.770992366412216,-13.938931297709924,0.0
11.750000238418579,-11.080365283203124,2.059013427734375,0.6248866333007812,4.625954198473282,51.06870229007634,-12.183206106870228,-6.68461103515625,-1.3311761230468748,2.786850732421875,-8.183206106870228,-29.801526717557252,-13.709923664122137,0.0
11.760000944137573,-11.846509814453125,2.925714428710937,1.3192051147460937,-0.6870229007633588,49.41984732824427,-13.648854961832061,-5.667075329589843,-1.1420341918945311,2.961627453613281,-7.801526717557252,-23.862595419847327,-14.244274809160306,0.0
11.77000117301941,-11.9518546875,2.8275521606445313,2.068590234375,-19.16030534351145,42.595419847328245,-16.38167938931298,-6.004657763671875,-0.70868369140625,2.703053674316406,-2.6412213740458017,-17.389312977099237,-12.305343511450381,0.0
11.780000925064087,-11.022904443359375,2.85388837890625,2.4588451049804685,-30.12213740458015,33.93893129770992,-16.18320610687023,-4.355052819824219,-0.06464344482421874,1.8722656982421875,-5.450381679389313,-11.893129770992367,-11.32824427480916,0.0
11.790000915527344,-9.969455712890625,0.8954314208984374,1.70467158203125,-39.221374045801525,23.083969465648856,-13.374045801526718,-6.177040283203125,-0.8571241943359375,2.5043349365234375,-2.015267175572519,-5.6183206106870225,-6.778625954198473,0.0
11.800000667572021,-9.787496386718749,0.1867477294921875,2.3678654418945313,-21.81679389312977,24.778625954198475,-12.900763358778626,-4.874594580078124,-0.1867477294921875,2.2385785522460937,-4.5038167938931295,2.4885496183206106,-6.458015267175573,0.0
11.810000658035278,-9.349357482910156,-0.7110778930664062,3.172317199707031,-6.183206106870229,24.916030534351144,-13.740458015267176,-5.468356591796875,-1.3263877197265623,2.6288334228515624,0.48854961832061067,8.244274809160306,-4.641221374045801,0.0
11.820000648498535,-9.775525378417969,0.05985504150390625,3.7900212280273435,-0.07633587786259542,20.290076335877863,-18.412213740458014,-4.912901806640625,-1.1755530151367186,2.887407202148437,1.6946564885496183,14.274809160305344,-5.557251908396947,0.0
11.830000638961792,-9.483432775878907,-0.00239420166015625,4.04141240234375,9.129770992366412,16.85496183206107,-19.740458015267176,-5.511452221679687,-1.8555062866210936,2.9855694702148434,6.091603053435114,19.114503816793892,-4.854961832061068,0.0
11.840000629425049,-10.742782849121093,2.39420166015625,4.584896179199219,6.870229007633588,11.954198473282442,-22.595419847328245,-5.358223315429687,-1.7405846069335937,2.786850732421875,11.938931297709924,22.763358778625953,-5.603053435114504,0.0
11.850000619888306,-9.610325463867188,3.8762124877929685,5.284003063964843,-11.908396946564885,-3.9083969465648853,-21.358778625954198,-5.078101721191406,-1.2425906616210938,2.602497204589844,15.358778625954198,27.69465648854962,-7.129770992366412,0.0
11.860000371932983,-10.922347973632812,4.141968872070312,5.942408520507812,-16.366412213740457,-14.748091603053435,-17.633587786259543,-2.0446482177734375,1.8004396484374998,1.9129671264648436,0.44274809160305345,32.732824427480914,-11.709923664122137,0.0
11.87000036239624,-9.981426721191406,2.9951462768554684,7.467514978027343,-14.870229007633588,-25.0381679389313,-10.900763358778626,-3.536235852050781,1.0319009155273438,3.7612908081054686,-24.106870229007633,54.93129770992366,-11.664122137404581,0.0
11.880000591278076,-9.720458740234374,3.574543078613281,8.465897070312499,-12.030534351145038,-32.01526717557252,-7.816793893129771,-3.6152445068359373,0.2825157958984375,2.463633508300781,-41.786259541984734,58.47328244274809,-7.984732824427481,0.0
11.890000581741333,-10.58476553955078,5.023035083007812,8.777143286132812,-13.312977099236642,-45.9236641221374,-6.748091603053435,-2.5953145996093747,3.6559459350585937,2.308010400390625,-85.43511450381679,98.10687022900764,-15.221374045801527,0.0
11.90000057220459,-11.022904443359375,5.425260961914062,9.689334118652344,-35.25190839694657,-57.099236641221374,-2.8091603053435112,-0.7613561279296874,3.670311145019531,-1.6304513305664061,-128.6259541984733,112.3969465648855,-6.99236641221374,0.0
11.910000801086426,-11.391611499023437,3.0142998901367184,9.294290844726563,-34.38167938931298,-68.94656488549619,-2.687022900763359,-7.101202124023437,2.389413256835937,2.839523168945312,-148.9618320610687,145.1145038167939,-0.015267175572519083,0.0
11.920000791549683,-11.592724438476562,1.838746875,10.421959826660157,-33.267175572519086,-78.1526717557252,-1.4351145038167938,-3.900154504394531,5.195417602539062,-1.0630255371093749,-168.7175572519084,140.0,3.572519083969466,0.0
11.93000078201294,-11.623849060058593,1.4508862060546874,10.486603271484375,-25.603053435114504,-93.29770992366412,-3.7404580152671754,-13.328520642089844,2.2649147705078123,3.660734338378906,-194.2290076335878,181.14503816793894,7.1603053435114505,0.0
11.940000534057617,-12.310984936523436,-0.20829554443359374,11.58075343017578,-19.984732824427482,-107.74045801526718,-0.5801526717557252,-11.628637463378906,3.7397429931640622,1.7118541870117185,-191.95419847328245,164.18320610687022,12.992366412213741,0.0
11.950000524520874,-13.905523242187499,-0.28730419921875,10.465055456542968,-6.687022900763359,-127.40458015267176,1.4198473282442747,-15.435418103027343,0.0383072265625,2.35589443359375,-204.91603053435114,177.5114503816794,11.98473282442748,0.0
11.960000276565552,-14.97094298095703,-0.2537853759765625,10.735600244140624,14.564885496183207,-139.8320610687023,6.564885496183206,-8.283937744140625,-0.8116343627929687,-2.442085693359375,-173.14503816793894,152.793893129771,16.885496183206108,0.0
11.970000505447388,-13.824120385742187,-0.6943184814453125,8.173804467773436,43.25190839694657,-157.6793893129771,12.396946564885496,-13.536816186523437,-2.0470424194335934,3.8690298828125,-174.65648854961833,151.87786259541986,24.137404580152673,0.0
11.980000495910645,-12.758700646972656,-2.118868469238281,5.106832141113281,90.53435114503817,-164.6412213740458,23.251908396946565,-9.904812268066406,-3.258508459472656,0.833182177734375,-128.01526717557252,107.12977099236642,34.30534351145038,0.0
11.99000072479248,-15.006856005859374,3.459621398925781,3.4859576171874997,106.35114503816794,-166.41221374045801,24.549618320610687,-11.918335864257811,-7.058106494140625,-0.46208092041015625,-103.1145038167939,92.47328244274809,40.6412213740458,0.0
12.000000476837158,-18.983624963378904,8.003816149902343,2.0183119995117185,67.95419847328245,-178.33587786259542,32.42748091603053,-7.893682873535155,-7.467514978027343,-2.262520568847656,-65.95419847328245,67.87786259541984,41.770992366412216,0.0
12.010001182556152,-20.269311254882812,7.101202124023437,0.3854664672851562,39.51145038167939,-190.0916030534351,46.76335877862596,-11.039663854980468,-7.539341027832031,0.10295067138671875,-34.93129770992366,56.717557251908396,43.725190839694655,0.0
12.020000457763672,-19.481618908691406,4.278438366699218,0.22266075439453123,16.82442748091603,-195.00763358778627,62.213740458015266,-10.855310327148437,-6.141127258300781,0.22266075439453123,-12.213740458015268,53.7557251908397,38.961832061068705,0.0
12.030001163482666,-19.673155041503904,2.7341782958984373,0.19632453613281248,-1.83206106870229,-200.33587786259542,69.41984732824427,-11.276689819335937,-4.4819455078125,-0.15562310791015624,9.48091603053435,45.908396946564885,38.458015267175576,0.0
12.040000677108765,-18.313248498535156,2.1404162841796874,0.11252747802734374,-16.061068702290076,-198.0916030534351,69.86259541984732,-10.66856259765625,0.9409212524414062,-2.7269956909179687,-2.3053435114503817,42.56488549618321,38.25954198473283,0.0
12.0500009059906,-16.46492481689453,1.254561669921875,0.40222587890625,-31.69465648854962,-194.44274809160305,69.0381679389313,-10.493785876464843,0.3687070556640625,-2.4013842651367185,-22.549618320610687,52.13740458015267,42.48854961832061,0.0
12.060000658035278,-14.190433239746094,0.4572925170898437,0.9720458740234375,-46.93129770992366,-188.29007633587787,69.25190839694656,-10.83376251220703,-3.1507693847656246,0.430956298828125,-28.68702290076336,63.55725190839695,50.79389312977099,0.0
12.070000886917114,-12.887987536621093,-0.42377369384765623,1.209071838378906,-52.2442748091603,-180.03053435114504,68.93129770992367,-9.555258825683593,-2.418143676757812,-2.7078420776367187,-22.717557251908396,59.16030534351145,50.93129770992366,0.0
12.080000877380371,-11.525686791992188,-1.2306196533203124,1.4891934326171874,-47.57251908396947,-172.0763358778626,69.08396946564885,-11.092336291503905,-3.9336733276367184,-2.205059729003906,-28.83969465648855,68.91603053435115,53.9236641221374,0.0
12.090000629425049,-10.505756884765624,-1.6160861206054686,2.6958710693359373,-45.32824427480916,-166.74809160305344,68.70229007633588,-11.801019982910155,-4.453215087890625,-1.9584569580078124,-12.50381679389313,72.18320610687023,55.29770992366412,0.0
12.100000619888306,-10.89840595703125,-1.2521674682617188,2.6001030029296874,-44.33587786259542,-162.9618320610687,64.2442748091603,-10.615890161132812,-2.849099975585937,-2.1978771240234374,-13.679389312977099,77.43511450381679,55.57251908396947,0.0
12.110000610351562,-10.675745202636719,-0.17956512451171874,2.940079638671875,-40.33587786259542,-158.15267175572518,61.6793893129771,-10.615890161132812,-2.3511060302734372,-1.889025109863281,-4.824427480916031,78.29007633587786,58.50381679389313,0.0
12.12000060081482,-9.514557397460937,-1.6927005737304686,1.3742717529296875,-41.49618320610687,-156.06106870229007,59.267175572519086,-10.637437976074217,-0.622492431640625,-1.8435352783203125,-4.977099236641221,83.72519083969466,60.900763358778626,0.0
12.130000829696655,-9.758765966796874,-2.1643583007812497,0.46686932373046874,-51.954198473282446,-155.72519083969465,56.045801526717554,-11.396399902343749,0.8499415893554687,-0.9528922607421875,-0.5954198473282443,83.16030534351145,64.73282442748092,0.0
12.140000581741333,-8.537723120117187,-0.8499415893554687,1.1037269653320312,-51.70992366412214,-147.29770992366412,52.152671755725194,-11.219228979492186,-0.2537853759765625,0.23223756103515625,-6.0458015267175576,88.97709923664122,70.33587786259542,0.0
12.15000057220459,-8.075642199707032,-2.437297290039062,-0.4860229370117187,-45.37404580152672,-140.5648854961832,48.83969465648855,-11.901576452636718,-1.149216796875,0.05985504150390625,6.9465648854961835,84.83969465648855,73.63358778625954,0.0
12.160000801086426,-6.045359191894531,-4.783614916992187,0.01915361328125,-38.213740458015266,-132.91603053435114,43.45038167938932,-11.341333264160156,-1.668758557128906,1.3048399047851562,19.450381679389313,87.23664122137404,78.16793893129771,0.0
12.170000553131104,-5.655104321289063,-3.9983167724609374,-1.5729904907226562,-23.72519083969466,-117.45038167938931,36.18320610687023,-11.303026037597656,-2.252943762207031,0.6512228515624999,28.625954198473284,73.61832061068702,76.87022900763358,0.0
12.18000054359436,-3.411737365722656,-5.473144995117187,-2.1547814941406247,-1.3587786259541985,-100.91603053435115,28.137404580152673,-11.540052001953125,-5.082890124511718,3.4715924072265625,39.70992366412214,72.33587786259542,79.05343511450381,0.0
12.190000534057617,-2.5234885498046875,-6.461950280761719,-2.568978381347656,16.65648854961832,-81.6793893129771,19.46564885496183,-8.980650427246093,-3.1220389648437497,0.612915625,57.98473282442748,50.916030534351144,72.4885496183206,0.0
12.200000762939453,-1.714248388671875,-6.356605407714843,-2.205059729003906,36.13740458015267,-61.541984732824424,5.6183206106870225,-9.93354268798828,-0.20350714111328125,0.062249243164062495,54.44274809160305,46.56488549618321,67.1145038167939,0.0
12.21000075340271,-3.2130186279296873,-3.69664736328125,0.15322890625,36.6412213740458,-46.54961832061068,-7.511450381679389,-9.244012609863281,-0.5147533569335937,-0.28490999755859375,44.534351145038165,46.916030534351144,62.76335877862596,0.0
12.220000505447388,-1.3311761230468748,-5.147533569335937,0.5243301635742187,49.93893129770992,-36.18320610687023,-12.778625954198473,-10.716446630859375,-0.55545478515625,1.9752163696289062,49.48091603053435,51.51145038167939,62.595419847328245,0.0
12.230000495910645,-1.0175357055664063,-2.5378537597656248,1.35990654296875,82.16793893129771,-10.67175572519084,-15.145038167938932,-9.610325463867188,-1.9776105712890624,1.5490484741210937,41.38931297709924,50.13740458015267,59.725190839694655,0.0
12.240000486373901,-1.7334020019531249,1.0630255371093749,1.0007762939453124,89.96946564885496,-1.8015267175572518,-15.19083969465649,-10.984597216796875,-3.5913024902343746,4.271255761718749,58.67175572519084,45.083969465648856,56.93129770992366,0.0
12.250000476837158,-3.706224169921875,6.505045910644531,2.020706201171875,76.29007633587786,8.549618320610687,-13.221374045801527,-11.566388220214844,-2.7557261108398436,2.722207287597656,58.56488549618321,39.41984732824427,51.908396946564885,0.0
12.260000944137573,-2.2481553588867187,6.912060192871094,0.9888052856445312,50.58015267175573,10.15267175572519,-5.206106870229007,-11.923124267578125,-1.3766659545898436,4.209006518554688,52.0763358778626,43.80152671755725,47.343511450381676,0.0
12.270000457763672,0.023942016601562498,4.939238024902344,0.02633621826171875,26.946564885496183,19.480916030534353,0.4732824427480916,-10.43153663330078,-1.3718775512695311,2.2266075439453124,32.412213740458014,41.404580152671755,40.48854961832061,0.0
12.280000686645508,-0.5363011718749999,3.9360675292968748,0.11252747802734374,3.633587786259542,24.778625954198475,-1.5877862595419847,-15.600618017578125,-7.522581616210937,7.242460021972656,53.45038167938932,32.54961832061068,31.603053435114504,0.0
12.290000915527344,-2.7533319091796873,4.070142822265625,0.076614453125,1.8473282442748091,37.52671755725191,0.3816793893129771,-11.652579479980469,-4.460397692871093,4.548983154296875,82.47328244274809,18.763358778625953,36.274809160305345,0.0
12.300000667572021,-3.6272155151367187,5.111620544433594,-1.4628572143554686,-8.16793893129771,50.18320610687023,1.7404580152671756,-14.391546179199217,-5.1523219726562495,5.367800122070312,49.603053435114504,0.2900763358778626,29.572519083969464,0.0
12.310000896453857,-2.7724855224609373,3.6655227416992187,-3.4548329956054684,-38.12213740458015,57.86259541984733,2.4580152671755724,-12.828132495117186,-4.2688615600585935,4.805162731933594,83.43511450381679,-19.083969465648856,11.450381679389313,0.0
12.320000648498535,-3.7804444213867185,3.162740393066406,-3.4069489624023435,-64.77862595419847,71.78625954198473,-3.312977099236641,-14.64533155517578,-4.352658618164062,6.449979272460937,85.8473282442748,-43.221374045801525,19.19083969465649,0.0
12.330000877380371,-6.5768719604492185,-2.003946789550781,7.1203557373046875,-63.57251908396947,76.29007633587786,-4.427480916030534,-12.160150231933594,-3.0741549316406247,3.4644098022460934,54.06106870229008,-46.51908396946565,8.274809160305344,0.0
12.340000629425049,-2.722207287597656,-11.207257971191405,17.520767749023438,14.0,80.44274809160305,4.351145038167939,-14.966154577636718,-0.8259995727539062,5.552153649902343,58.51908396946565,-41.66412213740458,0.061068702290076333,0.0
12.350000619888306,-8.942343200683593,-7.819462622070312,19.309236389160155,155.1145038167939,106.03053435114504,6.977099236641221,-14.35802735595703,1.5945383056640625,2.89219560546875,47.786259541984734,-54.6412213740458,-0.030534351145038167,0.0
12.360000610351562,-1.6615759521484375,-3.744531396484375,2.147598889160156,229.26717557251908,115.58778625954199,5.66412213740458,-19.531897143554687,-2.750937707519531,3.5314474487304683,25.435114503816795,-59.89312977099237,7.114503816793893,0.0
12.37000060081482,-10.271125122070313,-2.1787235107421874,-8.113949426269532,264.03053435114504,158.6259541984733,-1.1145038167938932,-18.765752612304688,-1.9752163696289062,5.240907434082031,33.786259541984734,-57.98473282442748,8.610687022900763,0.0
12.380000829696655,-11.465831750488281,3.27526787109375,-4.608838195800781,287.3893129770992,179.16030534351145,1.9541984732824427,-14.34605634765625,0.7493851196289062,4.192247106933594,6.320610687022901,-44.229007633587784,1.5572519083969465,0.0
12.390000581741333,-18.569428076171874,11.602301245117188,6.349422802734375,319.19083969465646,213.63358778625954,20.412213740458014,-12.291831323242187,1.2808978881835937,3.248931652832031,-6.152671755725191,-43.23664122137404,1.3740458015267176,0.0
12.400001049041748,-14.204798449707031,6.7037646484375,1.7262193969726563,252.25954198473283,193.66412213740458,18.106870229007633,-10.31661495361328,3.3710359375,4.113238452148437,-19.419847328244273,-34.99236641221374,-1.2366412213740459,0.0
12.410000801086426,-17.95411824951172,11.947066284179687,3.6152445068359373,183.49618320610688,180.38167938931298,4.854961832061068,-11.429918725585937,0.25139117431640623,5.061342309570312,-43.725190839694655,-38.70229007633588,-2.763358778625954,0.0
12.420001029968262,-11.982979309082031,1.0941501586914062,-2.712630480957031,97.09923664122137,138.42748091603053,-9.450381679389313,-9.572018237304688,-0.16759411621093748,2.8131869506835936,-47.3587786259542,-39.083969465648856,-11.679389312977099,0.0
12.43000078201294,-12.27746611328125,2.4779987182617185,4.450820886230469,77.29770992366412,123.55725190839695,-19.740458015267176,-12.923900561523437,0.4285620971679687,1.0414777221679687,-93.52671755725191,-32.50381679389313,-11.419847328244275,0.0
12.440001010894775,-7.4699091796875,-4.9823336547851556,2.858676782226562,58.33587786259542,94.73282442748092,-34.99236641221374,-13.41950030517578,-1.426944189453125,-0.1484405029296875,-44.732824427480914,-73.61832061068702,-14.488549618320612,0.0
12.450000762939453,-10.886434948730468,-4.151545678710937,4.242525341796875,71.29770992366412,88.45801526717557,-48.30534351145038,-12.926294763183593,-2.250549560546875,-3.0621839233398433,-50.152671755725194,-89.87786259541984,-19.862595419847327,0.0
12.46000051498413,-11.116278308105468,1.9225439331054686,4.4196962646484375,55.11450381679389,78.16793893129771,-63.38931297709924,-15.002067602539062,-3.3399113159179685,-0.2825157958984375,-35.038167938931295,-93.92366412213741,-28.83969465648855,0.0
12.470000982284546,-10.27830772705078,-0.4381389038085937,1.0079588989257813,19.84732824427481,58.13740458015267,-75.61832061068702,-14.30056651611328,-1.5897499023437498,-1.120486376953125,-10.061068702290076,-106.56488549618321,-38.79389312977099,0.0
12.480000734329224,-12.447454431152343,-2.5809493896484375,0.8738836059570312,20.412213740458014,55.31297709923664,-81.17557251908397,-15.1313544921875,-1.4939818359375,-0.7972691528320313,25.541984732824428,-108.54961832061069,-37.66412213740458,0.0
12.490000486373901,-11.051634863281249,-2.0877438476562498,-0.3399766357421875,40.97709923664122,58.54961832061068,-84.30534351145039,-13.266271398925781,0.22026655273437498,-0.16041151123046873,27.51145038167939,-110.74809160305344,-38.35114503816794,0.0
12.500000476837158,-10.74517705078125,-0.6823474731445313,-1.4891934326171874,60.2442748091603,62.13740458015267,-84.80916030534351,-10.694898815917968,3.318363500976562,-1.2689268798828124,22.091603053435115,-102.79389312977099,-36.35114503816794,0.0
12.510000705718994,-10.541669909667968,-0.59376201171875,-1.1611878051757811,97.5114503816794,75.43511450381679,-79.78625954198473,-9.052476477050782,3.8953661010742184,-1.1276689819335937,24.290076335877863,-100.91603053435115,-27.17557251908397,0.0
12.52000093460083,-12.145785021972655,4.455609289550781,0.8762778076171874,93.66412213740458,80.18320610687023,-85.93893129770993,-9.277531433105468,2.3965958618164063,-0.565031591796875,22.16793893129771,-88.93129770992367,-16.564885496183205,0.0
12.530001163482666,-10.896011755371093,5.286397265624999,-1.4796166259765624,84.6412213740458,77.31297709923665,-88.16793893129771,-7.110778930664062,2.6192566162109374,-1.39821376953125,17.19083969465649,-88.94656488549619,-13.206106870229007,0.0
12.540000915527344,-12.76827745361328,12.121843005371092,1.2928688964843749,51.12977099236641,73.34351145038168,-94.76335877862596,-8.59278975830078,-0.316034619140625,-0.20829554443359374,16.519083969465647,-78.04580152671755,-7.938931297709924,0.0
12.55000114440918,-8.635885388183594,8.05648858642578,-2.147598889160156,10.549618320610687,55.16030534351145,-90.51908396946565,-7.922413293457031,-0.7829039428710937,-1.1707646118164061,27.221374045801525,-85.29770992366412,-9.129770992366412,0.0
12.560000896453857,-9.74200655517578,8.532934716796875,-0.679953271484375,-4.732824427480916,52.25954198473283,-84.80916030534351,-8.959102612304687,-2.1308394775390624,-0.3280056274414062,29.282442748091604,-81.22137404580153,-10.473282442748092,0.0
12.570000886917114,-11.080365283203124,10.824185705566405,1.9847931762695312,-30.076335877862597,49.17557251908397,-79.1145038167939,-10.541669909667968,-4.242525341796875,-0.5865794067382812,47.32824427480916,-85.08396946564885,-14.67175572519084,0.0
12.580000638961792,-7.287949853515625,3.687070556640625,-1.7980454467773437,-50.274809160305345,36.47328244274809,-71.22137404580153,-10.35492218017578,-3.6152445068359373,-0.6871358764648438,64.03053435114504,-88.83969465648855,-16.717557251908396,0.0
12.590000629425049,-5.80354482421875,1.8435352783203125,0.5099649536132812,-28.65648854961832,41.786259541984734,-62.01526717557252,-8.75320126953125,-0.086191259765625,0.5578489868164063,76.83969465648855,-92.77862595419847,-20.80916030534351,0.0
12.600000619888306,-11.049240661621093,6.792350109863281,4.146757275390625,-37.603053435114504,41.17557251908397,-63.83206106870229,-7.491456994628906,1.3215993164062498,0.016759411621093748,81.98473282442748,-93.2824427480916,-26.47328244274809,0.0
12.610000610351562,-7.378929516601562,2.5809493896484375,1.7501614135742187,-35.725190839694655,29.328244274809162,-52.01526717557252,-7.948749511718749,0.05027823486328125,0.07900865478515624,81.37404580152672,-94.27480916030534,-25.251908396946565,0.0
12.62000060081482,-11.571176623535155,8.099584216308592,8.403647827148436,-18.27480916030534,38.06106870229008,-48.01526717557252,-9.179369165039063,-1.484405029296875,1.2210428466796874,79.43511450381679,-90.93129770992367,-22.50381679389313,0.0
12.630000829696655,-7.915230688476562,4.278438366699218,3.871424084472656,-52.38167938931298,10.030534351145038,-47.343511450381676,-6.636727001953124,1.484405029296875,0.612915625,74.0,-93.70992366412214,-24.763358778625953,0.0
12.640000581741333,-12.399570397949217,10.120290417480469,5.0182466796875,-75.89312977099236,-1.7404580152671756,-45.80152671755725,-7.831433630371094,1.4053963745117186,1.465251416015625,64.6412213740458,-94.9618320610687,-22.03053435114504,0.0
12.65000057220459,-10.127473022460936,5.987898352050781,2.185906115722656,-108.7175572519084,-24.259541984732824,-38.18320610687023,-7.867346655273437,2.5378537597656248,2.051830822753906,63.786259541984734,-101.95419847328245,-20.885496183206108,0.0
12.660000801086426,-10.338162768554687,2.5953145996093747,5.643133312988281,-88.9618320610687,-27.129770992366414,-25.49618320610687,-10.228029492187499,0.5865794067382812,3.845087866210937,64.99236641221374,-105.52671755725191,-14.992366412213741,0.0
12.670000553131104,-8.765172277832031,-2.6384102294921874,3.5218706420898434,-61.19083969465649,-33.282442748091604,-14.259541984732824,-10.172962854003906,1.3718775512695311,4.876988781738281,72.8854961832061,-120.56488549618321,-15.145038167938932,0.0
12.68000078201294,-9.943119494628906,-0.8044517578125,5.406107348632812,-23.129770992366414,-28.580152671755727,-10.534351145038167,-9.64623848876953,1.0319009155273438,5.702988354492187,70.04580152671755,-134.0,-14.50381679389313,0.0
12.690000772476196,-10.04846436767578,0.19632453613281248,4.347870214843749,-2.045801526717557,-28.35114503816794,-7.557251908396947,-8.688557824707031,2.427720483398437,5.343858105468749,63.6793893129771,-132.18320610687022,-9.435114503816793,0.0
12.700000762939453,-10.058041174316406,-1.8818425048828125,1.9536685546875,27.541984732824428,-24.870229007633586,-3.3740458015267176,-7.280767248535156,3.2034418212890623,2.7174188842773437,55.80152671755725,-135.16030534351145,-5.038167938931298,0.0
12.71000051498413,-12.526463085937499,3.873818286132812,3.6727053466796873,35.02290076335878,-18.290076335877863,-7.32824427480916,-5.951985327148437,2.6431986328124997,3.1124621582031247,39.908396946564885,-136.85496183206106,-0.21374045801526717,0.0
12.720000505447388,-11.9518546875,4.508281726074219,3.347093920898437,10.82442748091603,-24.53435114503817,-9.297709923664122,-6.873752966308594,2.47081611328125,4.383783239746093,23.282442748091604,-134.04580152671755,4.33587786259542,0.0
12.730000734329224,-10.862492932128905,2.664746447753906,2.231395947265625,-2.2748091603053435,-26.015267175572518,-9.587786259541986,-7.1035963256835934,2.3343466186523436,3.5697546752929687,3.801526717557252,-130.35114503816794,9.007633587786259,0.0
12.74000072479248,-13.883975427246092,5.748478186035156,5.051765502929687,-20.366412213740457,-18.900763358778626,-16.65648854961832,-7.611167077636718,2.023100402832031,2.9472622436523435,-8.763358778625955,-123.69465648854961,12.381679389312977,0.0
12.750000476837158,-11.896788049316406,5.216965417480468,2.360682836914062,-66.2442748091603,-33.45038167938932,-20.549618320610687,-7.0844427124023435,2.9735984619140625,2.3774422485351563,-16.30534351145038,-121.09923664122137,12.534351145038167,0.0
12.760000467300415,-11.159373937988281,3.6727053466796873,2.166752502441406,-71.80152671755725,-29.603053435114504,-16.885496183206108,-6.792350109863281,2.123656872558594,2.906560815429687,-35.20610687022901,-115.17557251908397,14.442748091603054,0.0
12.77000117301941,-8.310273962402343,1.3910311645507811,1.1180921752929687,-76.38167938931298,-28.259541984732824,-14.366412213740459,-7.769184387207031,1.0845733520507812,4.833893151855468,-44.88549618320611,-107.54198473282443,15.358778625954198,0.0
12.780000686645508,-7.0102224609374995,0.7493851196289062,1.3910311645507811,-62.47328244274809,-15.022900763358779,-16.015267175572518,-8.130708837890625,0.4644751220703125,4.766855505371093,-53.954198473282446,-100.99236641221374,12.717557251908397,0.0
12.790001153945923,-5.288791467285156,0.5482721801757812,1.1611878051757811,-39.45038167938932,-2.687022900763359,-18.610687022900763,-7.168239770507812,0.6200982299804687,3.1411925781249996,-58.99236641221374,-92.97709923664122,7.847328244274809,0.0
12.800000667572021,-5.832275244140624,2.597708801269531,0.30885201416015623,-42.0763358778626,3.5572519083969465,-25.282442748091604,-5.2456958374023435,1.22583125,2.7629087158203123,-56.25954198473283,-87.46564885496183,4.213740458015267,0.0
12.810000658035278,-5.633556506347656,1.5322890624999999,-0.8259995727539062,-23.587786259541986,17.236641221374047,-21.893129770992367,-4.970362646484375,-0.38307226562499996,5.042188696289062,-58.656488549618324,-71.2824427480916,1.5877862595419847,0.0
12.820000886917114,-8.068459594726562,5.576095666503906,1.675941162109375,-17.49618320610687,37.725190839694655,-21.404580152671755,-4.8123453369140625,-1.0582371337890624,3.9049429077148434,-52.97709923664122,-67.72519083969466,2.1068702290076335,0.0
12.830000877380371,-9.251195214843749,5.422866760253906,1.4987702392578124,-17.87786259541985,43.49618320610687,-18.50381679389313,-4.4005426513671875,-1.4341267944335936,5.533000036621093,-51.7557251908397,-49.66412213740458,-0.33587786259541985,0.0
12.840000867843628,-9.464279162597656,6.354211206054687,2.6862942626953124,-25.34351145038168,49.02290076335878,-10.702290076335878,-4.438849877929687,-1.9512743530273435,4.673481640625,-46.47328244274809,-45.51145038167939,2.9923664122137406,0.0
12.850000858306885,-8.817844714355468,4.944026428222656,2.5330653564453125,-26.65648854961832,48.67175572519084,-5.694656488549619,-5.671863732910156,-2.147598889160156,5.5090580200195305,-39.63358778625954,-34.36641221374046,-1.1145038167938932,0.0
12.860000610351562,-10.386046801757812,5.949591125488281,4.029441394042968,-36.76335877862596,50.656488549618324,-4.5038167938931295,-2.6575638427734374,-0.047884033203124995,2.308010400390625,-34.83969465648855,-25.603053435114504,-8.732824427480915,0.0
12.870000839233398,-11.286266625976562,6.054935998535156,3.7804444213867185,-48.30534351145038,44.778625954198475,-3.450381679389313,-7.108384729003906,-3.3973721557617185,5.779602807617187,-28.33587786259542,-9.312977099236642,-9.938931297709924,0.0
12.880000591278076,-9.337386474609374,3.373430139160156,3.0693665283203124,-49.31297709923664,42.900763358778626,3.236641221374046,-6.811503723144531,-2.6408044311523438,5.228936425781249,-17.923664122137403,-8.82442748091603,-10.595419847328245,0.0
12.890001058578491,-9.660603698730467,2.8658593872070313,2.7437551025390623,-32.30534351145038,46.091603053435115,3.7557251908396947,-5.386953735351562,-2.1811177124023438,4.515464331054687,-9.84732824427481,-2.366412213740458,-22.061068702290076,0.0
12.90000057220459,-10.682927807617187,3.883395092773437,3.394977954101562,-43.02290076335878,44.54961832061068,1.1450381679389312,-5.872976672363281,-2.176329309082031,4.9416322265625,0.5801526717557252,2.4122137404580153,-24.83969465648855,0.0
12.910000562667847,-9.227253198242186,2.89219560546875,3.0142998901367184,-40.412213740458014,38.274809160305345,2.6412213740458017,-5.928043310546875,-1.7717092285156248,5.027823486328125,8.274809160305344,8.427480916030534,-27.938931297709924,0.0
12.920000791549683,-12.399570397949217,5.738901379394531,4.333505004882812,-44.47328244274809,40.47328244274809,-0.2595419847328244,-3.31357509765625,1.24498486328125,1.6256629272460936,7.694656488549619,13.877862595419847,-32.58015267175573,0.0
12.93000054359436,-9.931148486328125,4.431667272949219,3.009511486816406,-54.412213740458014,28.946564885496183,3.877862595419847,-3.9169139160156248,0.6607996582031249,4.204218115234375,-1.5572519083969465,29.83206106870229,-32.0763358778626,0.0
12.940000534057617,-9.909600671386718,5.4707507934570305,3.2704794677734372,-62.396946564885496,30.748091603053435,6.6106870229007635,-4.73094248046875,-0.40222587890625,3.337517114257812,-6.793893129770993,36.18320610687023,-24.213740458015266,0.0
12.950000524520874,-8.532934716796875,3.840299462890625,2.389413256835937,-64.76335877862596,27.358778625954198,9.435114503816793,-4.134786267089844,-0.0047884033203125,3.1699229980468746,-4.0,42.10687022900763,-23.419847328244273,0.0
12.96000051498413,-9.160215551757812,3.6104561035156246,2.24097275390625,-66.79389312977099,27.267175572519083,12.229007633587786,-3.7110125732421873,0.258573779296875,2.8945898071289062,-9.083969465648854,54.18320610687023,-24.65648854961832,0.0
12.970000505447388,-8.805873706054687,2.559401574707031,2.987963671875,-72.70229007633588,26.427480916030536,13.129770992366412,-4.771643908691406,0.21787235107421873,2.612074011230469,-6.015267175572519,65.98473282442748,-23.419847328244273,0.0
12.980000495910645,-7.920019091796875,1.47482822265625,4.311957189941406,-74.36641221374046,24.50381679389313,13.282442748091603,4.285620971679688,2.935291235351562,-4.814739538574218,-33.908396946564885,75.22137404580153,-39.786259541984734,0.0
12.990000486373901,-8.25520732421875,2.8227637573242186,3.6200329101562496,-71.32824427480917,27.404580152671755,15.48091603053435,0.7876923461914062,6.028599780273437,-1.4963760375976562,-71.23664122137404,125.49618320610686,-32.961832061068705,0.0
13.000000476837158,-7.800309008789062,4.304774584960938,3.0597897216796874,-96.30534351145039,29.587786259541986,16.564885496183205,5.592855078125,7.9272016967773435,-8.779537487792968,-112.59541984732824,156.44274809160305,-16.015267175572518,0.0
13.010000705718994,-6.141127258300781,1.47482822265625,1.1085153686523437,-80.22900763358778,33.343511450381676,20.53435114503817,-2.568978381347656,4.199429711914062,-1.149216796875,-118.62595419847328,188.12213740458014,-2.9923664122137406,0.0
13.020000696182251,-5.91846650390625,-0.8403647827148437,1.6065093139648436,-79.37404580152672,48.778625954198475,19.61832061068702,-1.4532804077148436,2.473210314941406,-2.8610709838867185,-129.3587786259542,203.00763358778627,12.931297709923664,0.0
13.030000925064087,-6.883329772949218,-4.149151477050781,2.252943762207031,-56.61068702290076,58.99236641221374,10.717557251908397,-7.529764221191406,0.8595183959960937,-1.8746598999023436,-107.08396946564885,220.94656488549617,25.51145038167939,0.0
13.040000677108765,-8.769960681152343,-7.137115148925781,2.9759926635742184,-46.62595419847328,66.7175572519084,-0.9770992366412213,-3.6367923217773437,4.714183068847656,-4.556165759277343,-108.2442748091603,219.49618320610688,26.519083969465647,0.0
13.05000114440918,-10.86009873046875,-6.813897924804687,3.9264907226562498,-22.82442748091603,65.61832061068702,-14.65648854961832,-8.633491186523438,6.1267620483398435,-0.086191259765625,-171.72519083969465,257.74045801526717,25.83206106870229,0.0
13.060000658035278,-14.353238952636717,-4.809951135253906,6.789955908203124,-7.6183206106870225,66.42748091603053,-27.068702290076335,-13.66849727783203,2.6791116577148437,7.79552060546875,-252.44274809160305,241.75572519083968,14.580152671755725,0.0
13.070000886917114,-18.729839587402342,-1.9584569580078124,7.879317663574218,10.274809160305344,52.97709923664122,-36.62595419847328,-30.24355537109375,-20.25734024658203,13.888763830566406,-315.9541984732824,254.0916030534351,-31.740458015267176,0.0
13.08000111579895,-19.627665209960938,-0.74699091796875,10.484209069824217,35.69465648854962,34.56488549618321,-32.93129770992366,-22.079327709960936,-20.79364141845703,9.957484704589843,-187.46564885496184,196.8091603053435,-68.25954198473282,0.0
13.090000629425049,-18.083405139160156,0.5817910034179687,11.614272253417967,66.9618320610687,7.0534351145038165,-29.786259541984734,-21.51429611816406,-11.815385192871092,14.113818786621094,-81.81679389312977,135.6030534351145,-53.725190839694655,0.0
13.100000619888306,-18.1193181640625,4.747701892089843,13.84806240234375,77.6030534351145,-18.610687022900763,-29.66412213740458,-9.356540087890625,-1.6639701538085936,6.4284314575195305,-14.687022900763358,84.62595419847328,7.480916030534351,0.0
13.110000848770142,-18.677167150878905,10.189722265624999,14.34605634765625,57.74045801526717,-50.656488549618324,-30.259541984732824,-8.779537487792968,-3.289633081054687,3.794809631347656,32.29007633587786,32.54961832061068,44.12213740458015,0.0
13.12000060081482,-16.625336328124998,5.700594152832031,13.623007446289062,38.19847328244275,-92.47328244274809,-14.931297709923664,-7.491456994628906,0.06464344482421874,1.0103531005859374,61.32824427480916,8.259541984732824,62.56488549618321,0.0
13.130000829696655,-17.860744384765624,5.109226342773437,16.03636271972656,26.30534351145038,-120.1526717557252,-0.9923664122137404,-4.944026428222656,1.924938134765625,0.8499415893554687,48.732824427480914,12.610687022900763,53.282442748091604,0.0
13.140001058578491,-17.43457648925781,3.2034418212890623,13.92467685546875,-2.9770992366412212,-156.83969465648855,15.206106870229007,-1.70467158203125,1.924938134765625,-4.352658618164062,16.610687022900763,35.770992366412216,34.80916030534351,0.0
13.150000810623169,-15.33486163330078,3.4093431640625,8.755595471191405,-35.099236641221374,-188.3969465648855,25.633587786259543,-0.8164227661132812,4.2329485351562495,-8.0828248046875,-24.977099236641223,79.49618320610686,22.82442748091603,0.0
13.160001277923584,-14.951789367675781,0.8714894042968749,3.938461730957031,-61.038167938931295,-212.74809160305344,29.740458015267176,-7.752424975585937,0.5027823486328125,-2.626439221191406,-46.94656488549618,108.50381679389314,24.977099236641223,0.0
13.170000791549683,-13.36203946533203,-1.3024457031249999,3.3255461059570313,-47.64885496183206,-224.18320610687022,29.435114503816795,-9.603142858886718,-1.9608511596679685,-1.4820108276367188,-66.3969465648855,119.14503816793894,31.480916030534353,0.0
13.180001020431519,-13.374010473632811,-1.8411410766601561,1.5083470458984374,-15.251908396946565,-224.53435114503816,35.31297709923664,-11.145008728027342,-4.513070129394531,-0.076614453125,-69.05343511450381,117.90839694656489,36.412213740458014,0.0
13.190000772476196,-12.854468713378905,-1.1420341918945311,-0.6488286499023437,13.740458015267176,-217.49618320610688,41.267175572519086,-13.110648291015623,-6.356605407714843,1.3311761230468748,-49.63358778625954,111.70992366412214,38.412213740458014,0.0
13.200001239776611,-13.685256689453125,0.028730419921875,-1.0797849487304687,27.587786259541986,-208.4732824427481,44.88549618320611,-13.383587280273437,-8.281543542480469,2.3726538452148436,-26.65648854961832,97.02290076335878,38.88549618320611,0.0
13.21000075340271,-13.66849727783203,-0.0143652099609375,-1.0007762939453124,27.770992366412212,-198.29007633587787,48.6412213740458,-13.912705847167969,-7.613561279296874,4.185064501953125,7.801526717557252,78.85496183206106,43.31297709923664,0.0
13.220000743865967,-12.966996191406249,-0.7158662963867187,-1.9871873779296874,20.870229007633586,-191.5114503816794,52.44274809160305,-12.19366905517578,-4.565742565917969,3.0885201416015624,20.48854961832061,66.53435114503817,47.02290076335878,0.0
13.230000734329224,-14.38436357421875,0.40462008056640625,-0.08858546142578125,10.01526717557252,-176.24427480916032,54.06106870229008,-11.329362255859374,-2.829946362304687,0.9002198242187499,39.17557251908397,54.13740458015267,50.51908396946565,0.0
13.24000072479248,-12.708422412109375,1.3862427612304686,0.06943184814453125,-3.5572519083969465,-168.15267175572518,51.49618320610687,-9.481038574218749,0.3687070556640625,-1.4772224243164063,42.50381679389313,45.52671755725191,50.30534351145038,0.0
13.250000715255737,-12.667720983886719,0.7637503295898437,1.5729904907226562,-18.061068702290076,-164.2290076335878,51.48091603053435,-9.698910925292969,2.463633508300781,-4.228160131835938,25.053435114503817,52.30534351145038,51.038167938931295,0.0
13.260000944137573,-11.678915698242188,1.5562310791015623,1.675941162109375,-34.12213740458015,-163.4198473282443,52.274809160305345,-10.828974108886719,-0.3184288208007812,-4.410119458007812,12.534351145038167,66.82442748091603,52.74809160305343,0.0
13.27000117301941,-13.182474340820312,1.6424223388671875,3.265691064453125,-37.83206106870229,-160.27480916030535,50.396946564885496,-9.473855969238281,1.4341267944335936,-4.697423657226563,-1.297709923664122,73.37404580152672,50.19847328244275,0.0
13.280001163482666,-11.959037292480469,-0.49320554199218747,2.602497204589844,-34.18320610687023,-161.0229007633588,51.29770992366412,-10.333374365234375,-0.1197100830078125,-3.768473413085937,-17.801526717557252,85.7557251908397,53.38931297709924,0.0
13.290001392364502,-9.70369932861328,-2.0446482177734375,2.3726538452148436,-31.358778625954198,-158.59541984732823,51.404580152671755,-8.075642199707032,1.62805712890625,-2.5641899780273434,-21.984732824427482,90.80916030534351,56.717557251908396,0.0
13.300000667572021,-9.773131176757811,-1.6017209106445311,0.612915625,-33.86259541984733,-154.83969465648855,46.58015267175573,-10.886434948730468,1.3287819213867187,-1.618480322265625,-28.18320610687023,96.79389312977099,65.45038167938931,0.0
13.310001134872437,-9.840168823242188,-1.465251416015625,0.8355763793945312,-23.81679389312977,-143.32824427480915,43.69465648854962,-10.826579907226561,0.7924807495117187,-1.3048399047851562,-36.045801526717554,97.23664122137404,70.56488549618321,0.0
13.320000886917114,-9.325415466308593,-1.7166425903320313,0.24181436767578124,-25.541984732824428,-139.45038167938932,40.61068702290076,-10.261548315429687,0.7302315063476562,-1.1109095703125,-31.480916030534353,87.43511450381679,73.48091603053435,0.0
13.330000877380371,-6.402095239257812,-3.0047230834960934,-0.9002198242187499,-22.82442748091603,-131.57251908396947,40.10687022900763,-11.121066711425781,-3.0047230834960934,1.1635820068359375,-26.198473282442748,90.51908396946565,78.1526717557252,0.0
13.340000867843628,-4.42448466796875,-4.132392065429687,-1.5753846923828123,4.625954198473282,-109.00763358778626,39.00763358778626,-11.145008728027342,-2.5163059448242184,-1.1013327636718748,-0.9770992366412213,73.3587786259542,73.96946564885496,0.0
13.350000858306885,-3.84987626953125,-2.6144682128906247,-2.511517541503906,18.671755725190838,-90.04580152671755,31.19083969465649,-10.158597644042969,-2.138022082519531,-0.38307226562499996,2.0,69.26717557251908,72.70229007633588,0.0
13.36000108718872,-2.1691467041015624,-4.0222587890625,-2.300827795410156,32.01526717557252,-71.14503816793894,27.404580152671755,-11.597512841796874,-6.888118176269531,3.632003918457031,27.068702290076335,72.61068702290076,70.16793893129771,0.0
13.370000839233398,-3.227383837890625,-2.2673089721679687,-1.5538368774414062,36.01526717557252,-50.01526717557252,13.557251908396946,-8.609549169921875,-6.904877587890625,-2.24097275390625,70.73282442748092,34.82442748091603,66.99236641221374,0.0
13.380000829696655,-4.034229797363281,0.076614453125,-0.93852705078125,27.69465648854962,-41.221374045801525,1.9389312977099236,-9.718064538574218,-0.7924807495117187,-0.36631285400390623,52.83969465648855,33.64885496183206,54.656488549618324,0.0
13.390000581741333,-0.55545478515625,-2.5330653564453125,-0.7565677246093749,33.221374045801525,-29.908396946564885,2.9770992366412212,-13.601459631347655,-2.023100402832031,1.22583125,50.70229007633588,35.48091603053435,52.58015267175573,0.0
13.40000033378601,-1.6927005737304686,-0.4429273071289062,0.6631938598632812,48.42748091603053,-5.251908396946565,-0.44274809160305345,-13.273454003906249,-0.6440402465820312,2.5905261962890624,48.58015267175573,36.13740458015267,45.81679389312977,0.0
13.410000562667847,-4.273649963378906,3.8043864379882812,1.5155296508789062,34.48854961832061,1.786259541984733,-4.549618320610687,-11.918335864257811,0.7230489013671875,1.649604943847656,35.31297709923664,33.70992366412214,39.43511450381679,0.0
13.420000791549683,-3.2537200561523436,3.2034418212890623,0.7326257080078125,24.641221374045802,7.770992366412214,-0.44274809160305345,-16.136919189453124,-7.886500268554687,11.037269653320312,64.51908396946565,29.114503816793892,34.534351145038165,0.0
13.43000078201294,-1.1133037719726562,0.9792284790039062,-0.8451531860351562,31.236641221374047,22.412213740458014,2.946564885496183,-11.37006368408203,-6.227318518066406,5.104437939453125,97.37404580152672,-3.954198473282443,28.85496183206107,0.0
13.440000772476196,-2.4875755249023435,4.309562988281249,0.14604630126953125,24.977099236641223,35.55725190839695,-3.0839694656488548,-10.730811840820312,-2.0350714111328125,-0.8810662109374999,79.2824427480916,-12.687022900763358,29.51145038167939,0.0
13.450000524520874,-3.447650390625,5.846640454101562,1.6615759521484375,-16.931297709923665,37.93893129770992,-4.122137404580153,-11.027692846679686,-1.4030021728515625,3.404554760742187,55.969465648854964,-11.709923664122137,13.419847328244275,0.0
13.46000051498413,-2.961627453613281,4.687846850585937,2.7748797241210936,-33.37404580152672,44.18320610687023,-0.2748091603053435,-11.812990991210937,-3.3159692993164063,4.127603662109375,47.93893129770992,-18.229007633587788,14.778625954198473,0.0
13.470000743865967,-4.048595007324218,4.61602080078125,3.394977954101562,-35.908396946564885,49.038167938931295,3.114503816793893,-11.022904443359375,-1.7190367919921874,2.9568390502929685,78.30534351145039,-25.61832061068702,15.251908396946565,0.0
13.480000495910645,-3.1172505615234374,3.4811692138671875,1.1156979736328125,-34.30534351145038,57.98473282442748,8.900763358778626,-17.439364892578123,-7.728482958984374,7.070077502441406,53.25190839694657,-37.51145038167939,11.83206106870229,0.0
13.49000072479248,-2.0781670410156248,-2.683900061035156,1.8267758666992187,-32.62595419847328,74.56488549618321,11.358778625954198,-11.44667813720703,-3.5051112304687497,3.294421484375,119.12977099236642,-52.06106870229008,16.641221374045802,0.0
13.500000476837158,-4.146757275390625,-4.525041137695312,9.593566052246093,-11.099236641221374,79.89312977099236,0.5190839694656488,-14.14733760986328,-2.0446482177734375,3.4715924072265625,109.40458015267176,-65.69465648854961,10.51908396946565,0.0
13.510000705718994,-4.924872814941406,-5.437231970214843,13.795389965820311,26.53435114503817,82.56488549618321,-1.297709923664122,-12.023680737304687,1.2234370483398436,2.806004345703125,104.27480916030534,-72.07633587786259,-3.0839694656488548,0.0
13.520000696182251,-4.6998178588867185,-2.308010400390625,13.491326354980467,76.56488549618321,80.53435114503817,-2.0,-11.745953344726562,4.572925170898437,1.687912170410156,76.74809160305344,-61.70992366412214,-7.938931297709924,0.0
13.530000925064087,-3.507505432128906,0.7924807495117187,4.153939880371094,101.61832061068702,84.94656488549619,0.07633587786259542,-13.709198706054687,2.6815058593749996,2.446874096679687,56.88549618320611,-63.37404580152672,-1.5877862595419847,0.0
13.540000915527344,-11.073182678222656,5.8226984375,-1.24498486328125,70.03053435114504,103.48091603053435,-18.65648854961832,-15.710751293945311,2.896984008789062,3.77326181640625,39.98473282442748,-62.091603053435115,-0.42748091603053434,0.0
13.5500009059906,-10.038887561035155,-3.1028853515624997,-0.11252747802734374,50.80916030534351,104.61068702290076,-18.793893129770993,-13.740323327636718,4.414907861328125,4.723759875488281,-16.16793893129771,-52.56488549618321,-1.5877862595419847,0.0
13.560000896453857,-4.295197778320312,-8.169016064453125,4.716577270507813,117.02290076335878,140.82442748091603,-11.98473282442748,-13.620613244628906,0.9337386474609375,5.643133312988281,-47.52671755725191,-53.083969465648856,-3.3587786259541983,0.0
13.570001125335693,-8.834604125976561,-3.763685009765625,2.5737667846679684,156.19847328244273,169.84732824427482,-29.938931297709924,-12.473790649414061,0.24660277099609373,4.601655590820312,-57.37404580152672,-39.31297709923664,-4.564885496183206,0.0
13.580072164535522,-14.128183996582031,4.290409374999999,5.221753820800781,135.1145038167939,159.6946564885496,-54.50381679389313,-12.164938635253906,-1.6903063720703124,4.101267443847656,-52.10687022900763,-39.69465648854962,-8.65648854961832,0.0
13.590000867843628,-5.219359619140625,-5.674257934570313,-7.206546997070312,156.8854961832061,149.4198473282443,-38.33587786259542,-11.635820068359374,-1.2904746948242187,2.6431986328124997,-49.66412213740458,-40.13740458015267,-9.236641221374045,0.0
13.600000381469727,-7.704540942382812,-4.455609289550781,-3.6176387084960937,249.70992366412213,195.9083969465649,-22.580152671755727,-11.350910070800781,-2.157175695800781,7.472303381347656,-20.65648854961832,-61.083969465648856,-19.84732824427481,0.0
13.61000108718872,-15.866374401855468,8.379705810546875,0.565031591796875,237.45038167938932,195.06870229007635,-36.6412213740458,-11.252747802734374,-1.0845733520507812,2.1356278808593747,-7.114503816793893,-73.12977099236642,-24.198473282442748,0.0
13.620000839233398,-8.307879760742187,2.157175695800781,-8.073247998046874,216.77862595419847,179.61832061068702,-18.99236641221374,-13.227964172363281,-2.3032219970703123,-0.296881005859375,-25.61832061068702,-85.55725190839695,-32.152671755725194,0.0
13.630001068115234,-11.322179650878905,6.950367419433594,-4.407725256347656,226.42748091603053,192.38167938931298,-9.664122137404581,-10.529698901367187,-1.7836802368164062,-0.7613561279296874,-18.671755725190838,-87.22137404580153,-39.17557251908397,0.0
13.640000581741333,-10.249577307128906,4.407725256347656,-6.234501123046875,172.41221374045801,173.08396946564886,-17.6793893129771,-12.030863342285155,-2.6671406494140624,-2.39420166015625,-6.99236641221374,-89.14503816793894,-45.45038167938932,0.0
13.65000033378601,-11.755530151367187,15.806519360351562,1.5418658691406248,123.34351145038168,165.98473282442748,-25.984732824427482,-13.972560888671874,-3.5290532470703124,-0.948103857421875,18.33587786259542,-92.04580152671755,-44.56488549618321,0.0
13.660000324249268,-8.520963708496094,10.608707556152343,-0.44532150878906246,44.3206106870229,135.70992366412213,-29.450381679389313,-12.198457458496094,-1.678335363769531,-0.852335791015625,22.427480916030536,-97.52671755725191,-48.99236641221374,0.0
13.670000553131104,-10.206481677246094,10.050858569335936,3.5625720703124997,-0.549618320610687,123.0381679389313,-35.74045801526717,-10.747571252441405,0.35673604736328124,-0.9959878906249999,43.55725190839695,-109.38931297709924,-51.00763358778626,0.0
13.68000078201294,-8.91840118408203,5.884947680664062,2.7054478759765623,-55.00763358778626,97.14503816793894,-44.25954198473283,-11.068394274902342,1.8339584716796873,-3.287238879394531,47.61832061068702,-110.67175572519083,-54.18320610687023,0.0
13.690000772476196,-9.22485899658203,2.6599580444335937,3.4931402221679684,-78.19847328244275,84.97709923664122,-51.404580152671755,-11.882422839355469,1.5514426757812498,-1.3096283081054687,49.98473282442748,-100.91603053435115,-53.63358778625954,0.0
13.700000524520874,-11.180921752929686,2.118868469238281,3.4739866088867184,-90.03053435114504,75.40458015267176,-59.6793893129771,-11.145008728027342,2.8323405639648436,-1.7621324218749999,40.458015267175576,-97.08396946564885,-56.01526717557252,0.0
13.710000276565552,-8.678981018066406,-1.4173673828125,-0.028730419921875,-88.04580152671755,66.12213740458016,-60.12213740458015,-11.276689819335937,1.6424223388671875,-1.2880804931640624,38.030534351145036,-96.16793893129771,-56.10687022900763,0.0
13.720000743865967,-13.263877197265625,1.8124106567382812,1.7334020019531249,-68.82442748091603,75.25190839694656,-61.7557251908397,-10.189722265624999,1.0749965454101562,-0.3327940307617187,36.01526717557252,-91.6030534351145,-53.98473282442748,0.0
13.730000495910645,-9.435548742675781,-2.5067291381835934,-1.6160861206054686,-57.02290076335878,77.14503816793894,-58.13740458015267,-9.361328491210937,1.8052280517578123,-0.7493851196289062,41.954198473282446,-96.94656488549619,-53.603053435114504,0.0
13.740000486373901,-14.765041638183593,12.138602416992187,6.8593877563476555,-69.96946564885496,86.93129770992367,-69.58778625954199,-10.084377392578125,1.2737152832031249,0.32561142578124996,44.76335877862596,-92.36641221374046,-48.274809160305345,0.0
13.750000476837158,-8.279149340820313,0.9169792358398436,-0.36152445068359373,-101.09923664122137,65.22137404580153,-66.99236641221374,-6.438008264160156,4.220977526855468,-0.7948749511718749,34.916030534351144,-97.61832061068702,-46.51908396946565,0.0
13.760000944137573,-9.89523546142578,-0.42377369384765623,0.25139117431640623,-96.18320610687023,57.87786259541985,-63.83206106870229,-9.088389501953124,1.1228805786132812,-0.43574470214843747,34.58015267175573,-92.99236641221374,-37.66412213740458,0.0
13.77000093460083,-9.382876306152344,-0.24660277099609373,0.45489831542968745,-72.38167938931298,61.19083969465649,-58.54961832061068,-8.039729174804688,2.1643583007812497,1.1659762084960936,29.31297709923664,-92.3969465648855,-35.20610687022901,0.0
13.780000686645508,-11.621454858398437,1.9225439331054686,3.220201232910156,-75.06870229007633,55.25190839694657,-55.17557251908397,-8.116343627929687,1.4006079711914061,0.9145850341796874,24.977099236641223,-91.16030534351145,-33.41984732824427,0.0
13.790000915527344,-9.490615380859374,-0.507570751953125,1.5849614990234373,-41.41984732824427,64.06106870229007,-46.045801526717554,-7.259219433593749,0.8762778076171874,0.6440402465820312,28.15267175572519,-95.86259541984732,-32.778625954198475,0.0
13.800000429153442,-12.23197628173828,4.977545251464844,6.586448767089843,-52.25954198473283,55.74045801526717,-49.80152671755725,-8.058882788085937,-1.3623007446289062,1.5490484741210937,28.18320610687023,-94.93129770992367,-30.763358778625953,0.0
13.810000896453857,-11.075576879882812,2.583343591308594,3.81156904296875,-75.81679389312977,34.2442748091603,-49.19083969465649,-9.579200842285156,-0.6392518432617187,3.1651345947265623,30.18320610687023,-94.16793893129771,-27.236641221374047,0.0
13.820000648498535,-14.812925671386719,9.6151138671875,6.382941625976562,-95.93893129770993,21.633587786259543,-49.61832061068702,-8.492233288574218,-0.6200982299804687,2.281674182128906,26.259541984732824,-96.38167938931298,-24.564885496183205,0.0
13.830000400543213,-11.001356628417968,6.026205578613281,3.1076737548828124,-137.45038167938932,-6.6106870229007635,-44.3206106870229,-8.374917407226562,0.21308394775390624,2.2577321655273437,22.50381679389313,-101.87786259541984,-23.435114503816795,0.0
13.840000629425049,-15.332467431640625,10.539275708007812,5.762843395996094,-150.01526717557252,-15.816793893129772,-37.12977099236641,-10.548852514648438,-1.7573440185546874,3.306392492675781,27.557251908396946,-103.5114503816794,-21.206106870229007,0.0
13.850000619888306,-10.769119067382812,5.327098693847656,2.6408044311523438,-175.6030534351145,-36.18320610687023,-24.717557251908396,-10.371681591796875,-1.4987702392578124,3.318363500976562,25.755725190839694,-109.3587786259542,-19.49618320610687,0.0
13.860000610351562,-10.39322940673828,0.201112939453125,2.0254946044921875,-147.45038167938932,-41.89312977099237,-8.778625954198473,-11.396399902343749,-1.697488977050781,4.8314989501953125,22.198473282442748,-111.22137404580153,-18.748091603053435,0.0
13.87000060081482,-9.251195214843749,-4.467580297851562,3.337517114257812,-89.63358778625954,-38.54961832061068,6.152671755725191,-11.341333264160156,-1.707065783691406,4.060566015625,30.213740458015266,-116.80916030534351,-19.770992366412212,0.0
13.880000591278076,-9.102754711914063,-6.979097839355468,3.3111808959960936,-18.213740458015266,-27.87786259541985,14.335877862595419,-11.17852755126953,-2.422932080078125,4.927267016601562,35.05343511450382,-122.36641221374046,-20.015267175572518,0.0
13.890000343322754,-12.650961572265624,-1.4030021728515625,3.1292215698242187,10.290076335877863,-20.12213740458015,8.610687022900763,-10.060435375976562,-2.0278888061523435,4.647145422363281,41.87786259541985,-124.03053435114504,-19.96946564885496,0.0
13.90000057220459,-9.90241806640625,-1.9488801513671874,0.8643067993164062,24.931297709923665,-16.33587786259542,5.068702290076335,-8.192958081054687,-0.3064578125,3.3399113159179685,37.3587786259542,-120.36641221374046,-21.633587786259543,0.0
13.910000324249268,-8.180987072753906,-1.005564697265625,0.055066638183593745,49.038167938931295,-2.519083969465649,0.6564885496183206,-6.928819604492187,-0.0047884033203125,2.8945898071289062,28.091603053435115,-113.57251908396947,-24.458015267175572,0.0
13.920001029968262,-9.09796630859375,1.5466542724609373,0.5913678100585937,43.02290076335878,11.083969465648854,-10.83969465648855,-6.921636999511718,-0.5865794067382812,3.6080619018554687,22.458015267175572,-103.52671755725191,-27.740458015267176,0.0
13.930000305175781,-9.97184991455078,3.9815573608398434,0.6823474731445313,25.755725190839694,17.16030534351145,-16.748091603053435,-6.007051965332031,1.1707646118164061,2.683900061035156,19.221374045801525,-87.6793893129771,-27.31297709923664,0.0
13.940000772476196,-10.371681591796875,4.754884497070313,0.7876923461914062,11.450381679389313,23.022900763358777,-15.282442748091603,-7.041347082519531,-0.4429273071289062,3.4548329956054684,10.748091603053435,-76.97709923664122,-22.549618320610687,0.0
13.950000524520874,-8.8489693359375,3.7804444213867185,-0.9337386474609375,10.473282442748092,27.328244274809162,-9.053435114503817,-5.154716174316406,0.354341845703125,2.8371289672851563,3.435114503816794,-69.63358778625954,-23.587786259541986,0.0
13.96000051498413,-8.552088330078124,2.5570073730468748,-1.438915197753906,3.282442748091603,36.79389312977099,-7.465648854961832,-5.343858105468749,-0.26336218261718747,3.3542765258789062,-1.450381679389313,-53.16030534351145,-21.72519083969466,0.0
13.970000743865967,-9.248801013183593,1.7334020019531249,-1.2042834350585936,-7.190839694656488,43.083969465648856,-11.34351145038168,-6.4092778442382805,-0.9097966308593749,3.9528269409179684,-1.1450381679389312,-43.9236641221374,-18.641221374045802,0.0
13.980000495910645,-10.479420666503906,2.461239306640625,-0.5817910034179687,-20.091603053435115,44.396946564885496,-15.557251908396946,-6.0333881835937495,-0.8307879760742187,3.373430139160156,-2.564885496183206,-38.80916030534351,-13.679389312977099,0.0
13.990000486373901,-10.223241088867187,1.0678139404296874,-1.0079588989257813,-19.61832061068702,46.33587786259542,-14.091603053435115,-6.854599353027344,-1.2425906616210938,3.4739866088867184,2.595419847328244,-33.45038167938932,-14.274809160305344,0.0
14.000000715255737,-10.716446630859375,1.4030021728515625,-1.0821791503906248,-17.893129770992367,52.16793893129771,-13.725190839694656,-5.576095666503906,-0.3711012573242187,2.5857377929687497,2.900763358778626,-28.061068702290076,-16.427480916030536,0.0
14.010000705718994,-11.173739147949219,1.1276689819335937,-0.8283937744140625,-27.46564885496183,53.80152671755725,-15.679389312977099,-6.093243225097656,-0.2609679809570312,2.959233251953125,4.152671755725191,-20.106870229007633,-12.977099236641221,0.0
14.020000457763672,-10.73799444580078,0.011971008300781249,-0.42377369384765623,-28.519083969465647,54.396946564885496,-17.908396946564885,-5.176263989257812,-0.10773907470703124,2.152387292480469,2.1526717557251906,-15.679389312977099,-12.091603053435115,0.0
14.030001163482666,-9.782707983398437,-1.3575123413085937,-0.3447650390625,-16.3206106870229,58.656488549618324,-19.374045801526716,-5.365405920410156,0.15562310791015624,2.2960393920898436,0.3969465648854962,-9.251908396946565,-9.053435114503817,0.0
14.040000677108765,-10.733206042480468,0.33758243408203126,1.0175357055664063,-10.183206106870228,62.29007633587786,-24.870229007633586,-4.673481640625,-0.07422025146484375,2.281674182128906,-2.4427480916030535,0.5190839694656488,-7.175572519083969,0.0
14.0500009059906,-10.97502041015625,0.5985504150390625,1.8028338500976562,-16.045801526717558,59.099236641221374,-27.6793893129771,-5.468356591796875,-0.46208092041015625,2.35589443359375,-1.3587786259541985,7.648854961832061,-3.450381679389313,0.0
14.060000658035278,-11.84890401611328,0.9959878906249999,2.863465185546875,-16.702290076335878,54.732824427480914,-28.83969465648855,-4.132392065429687,0.45010991210937495,1.9225439331054686,-1.6946564885496183,12.732824427480915,-2.8396946564885495,0.0
14.070000648498535,-9.813832604980469,-0.27293898925781246,2.269703173828125,-9.908396946564885,45.98473282442748,-26.12213740458015,-3.347093920898437,0.7326257080078125,1.6352397338867186,-9.84732824427481,26.702290076335878,-1.6641221374045803,0.0
14.080000638961792,-9.911994873046874,0.8786720092773437,3.1411925781249996,-8.198473282442748,41.16030534351145,-26.717557251908396,-2.8227637573242186,1.1109095703125,0.833182177734375,-13.32824427480916,32.61068702290076,0.33587786259541985,0.0
14.09000039100647,-10.68053360595703,2.583343591308594,4.517858532714843,-5.786259541984733,34.274809160305345,-27.83206106870229,-3.6679169433593746,0.6512228515624999,1.024718310546875,-20.83969465648855,51.12977099236641,3.5114503816793894,0.0
14.100000858306885,-10.04846436767578,2.0254946044921875,4.994304663085937,-6.641221374045801,24.931297709923665,-25.14503816793893,-4.3454760131835934,-0.10295067138671875,1.3551181396484375,-22.65648854961832,56.13740458015267,9.221374045801527,0.0
14.110000610351562,-9.327809667968749,1.1851298217773436,5.6574985229492185,8.076335877862595,18.748091603053435,-23.114503816793892,-4.963180041503906,-0.8882488159179687,1.24498486328125,-21.633587786259543,64.79389312977099,11.801526717557252,0.0
14.12000060081482,-9.545682019042967,1.5131354492187499,6.442796667480469,16.03053435114504,9.404580152671755,-21.52671755725191,-3.296815686035156,-0.49320554199218747,0.32561142578124996,-22.244274809160306,79.12977099236642,10.045801526717558,0.0
14.130000352859497,-8.513781103515624,0.5458779785156249,6.995857250976562,28.702290076335878,1.83206106870229,-18.99236641221374,-3.0885201416015624,-0.19632453613281248,-1.905784521484375,-18.519083969465647,85.46564885496183,9.633587786259541,0.0
14.140000581741333,-9.636661682128906,2.559401574707031,7.943961108398437,31.923664122137403,-5.480916030534351,-18.213740458015266,-5.473144995117187,-0.277727392578125,1.24498486328125,-15.206106870229007,92.8854961832061,12.885496183206106,0.0
14.15000057220459,-9.533711010742186,4.197035510253906,9.239224206542968,11.694656488549619,-25.69465648854962,-16.290076335877863,-7.410054138183593,0.39264907226562495,5.865794067382812,-33.465648854961835,84.36641221374046,13.511450381679388,0.0
14.160001039505005,-12.880804931640624,5.173869787597656,11.03248125,7.603053435114504,-47.23664122137404,-11.511450381679388,-9.952696301269532,-0.9576806640625,11.396399902343749,-73.40458015267176,67.23664122137404,7.8320610687022905,0.0
14.170000314712524,-13.302184423828125,4.879382983398437,10.79545528564453,-3.2213740458015265,-69.74045801526718,-4.961832061068702,-12.011709729003906,-7.2903440551757805,17.362750439453123,-97.77099236641222,89.09923664122137,0.16793893129770993,0.0
14.18000078201294,-14.11621298828125,3.727771984863281,10.230423693847655,-5.603053435114504,-90.03053435114504,-1.0229007633587786,-16.263811877441405,-8.566453540039062,8.700528833007812,-66.07633587786259,78.58015267175573,-14.030534351145038,0.0
14.190000534057617,-13.824120385742187,2.6886884643554687,10.072406384277343,-7.1603053435114505,-107.5114503816794,3.0229007633587788,-18.56703387451172,3.1364041748046874,5.066130712890625,-13.969465648854962,75.86259541984732,-8.366412213740459,0.0
14.200000524520874,-13.860033410644531,2.1404162841796874,8.9255837890625,-17.251908396946565,-125.14503816793894,8.061068702290076,-11.678915698242188,3.6942531616210936,3.277662072753906,-43.87786259541985,58.6412213740458,2.3053435114503817,0.0
14.210000276565552,-12.217611071777343,-0.08140285644531249,8.0062103515625,-6.99236641221374,-138.4885496183206,11.206106870229007,-8.686163623046875,3.287238879394531,0.6344634399414062,-59.14503816793893,77.16030534351145,9.068702290076336,0.0
14.220000505447388,-13.543998791503906,1.1228805786132812,7.864952453613281,-1.5114503816793894,-146.68702290076337,14.625954198473282,-3.1411925781249996,4.393360046386719,-1.6519991455078125,-95.63358778625954,97.02290076335878,6.122137404580153,0.0
14.230000495910645,-15.179238525390623,2.1356278808593747,5.293579870605469,-4.030534351145038,-161.86259541984734,18.748091603053435,-4.754884497070313,2.731784094238281,-3.143586779785156,-115.14503816793894,120.06106870229007,17.66412213740458,0.0
14.240000486373901,-15.789759948730469,3.0789433349609374,4.848258361816406,-16.763358778625953,-166.51908396946564,27.49618320610687,-5.406107348632812,1.678335363769531,-6.121973645019531,-136.87022900763358,120.85496183206106,27.083969465648856,0.0
14.250000715255737,-16.809689855957032,2.5450363647460934,2.940079638671875,-18.35114503816794,-178.85496183206106,35.45038167938932,-10.836156713867187,-0.9217676391601562,-3.1507693847656246,-136.94656488549617,143.34351145038167,33.45038167938932,0.0
14.260000705718994,-17.626112622070313,0.6272808349609375,1.35990654296875,5.770992366412214,-176.73282442748092,46.0,-4.69263525390625,3.9049429077148434,-9.622296472167967,-175.4351145038168,145.2824427480916,22.931297709923665,0.0
14.27000093460083,-19.814412939453124,1.1707646118164061,0.17238251953125,10.076335877862595,-179.7709923664122,47.87786259541985,-12.773065856933593,1.5753846923828123,-4.666299035644531,-209.34351145038167,181.74045801526717,12.274809160305344,0.0
14.280000925064087,-19.141642272949216,0.29448680419921874,0.3758896606445312,16.702290076335878,-179.16030534351145,50.36641221374046,-11.25514200439453,0.45489831542968745,-6.957550024414062,-230.7175572519084,177.81679389312978,12.01526717557252,0.0
14.290001153945923,-19.87426798095703,1.7812860351562498,-0.5698199951171875,6.290076335877862,-184.5801526717557,45.31297709923664,-19.57259857177734,-5.700594152832031,1.1444283935546875,-230.4732824427481,183.64885496183206,20.50381679389313,0.0
14.3000009059906,-17.57104598388672,0.055066638183593745,0.5410895751953124,11.557251908396946,-183.1145038167939,48.47328244274809,-16.34282053222656,-7.448361364746093,2.9089550170898435,-136.27480916030535,130.91603053435114,46.36641221374046,0.0
14.310000896453857,-17.879897998046875,1.0342951171875,0.8643067993164062,-6.33587786259542,-187.29770992366412,47.725190839694655,-14.204798449707031,-7.802703210449218,2.020706201171875,-92.56488549618321,112.90076335877863,58.458015267175576,0.0
14.320000648498535,-16.804901452636717,-0.5386953735351562,1.6328455322265625,-18.106870229007633,-187.1145038167939,50.6412213740458,-12.136208215332031,-7.48906279296875,3.1172505615234374,-35.099236641221374,89.90839694656489,71.81679389312977,0.0
14.330000877380371,-15.52639776611328,-0.16041151123046873,1.9800047729492187,-18.366412213740457,-184.90076335877862,48.030534351145036,-11.477802758789062,-7.503428002929687,0.5195417602539062,2.2748091603053435,77.6030534351145,74.45801526717557,0.0
14.340000629425049,-13.697227697753906,-0.7493851196289062,1.8028338500976562,-19.267175572519083,-188.06106870229007,48.70229007633588,-9.6917283203125,-3.1771056030273437,-1.9129671264648436,30.045801526717558,62.48854961832061,67.3587786259542,0.0
14.350000619888306,-13.237540979003905,0.49799394531249996,2.7964275390625,-23.16030534351145,-182.42748091603053,43.954198473282446,-9.064447485351561,0.1149216796875,-2.3487118286132813,20.931297709923665,68.79389312977099,66.0,0.0
14.360000610351562,-12.227187878417968,-0.201112939453125,1.8052280517578123,-29.908396946564885,-183.4351145038168,43.89312977099237,-10.429142431640624,-0.622492431640625,-1.3623007446289062,15.251908396946565,78.87022900763358,68.1526717557252,0.0
14.37000036239624,-10.97502041015625,-0.9121908325195311,1.7884686401367187,-29.0381679389313,-178.68702290076337,42.152671755725194,-9.708487731933593,1.7166425903320313,-2.5354595581054684,14.80916030534351,78.62595419847328,68.04580152671755,0.0
14.380000591278076,-8.054094384765625,-2.0183119995117185,0.8834604125976562,-19.297709923664122,-173.25190839694656,40.6412213740458,-10.101136804199218,2.6096798095703124,-3.2728736694335936,-6.656488549618321,90.04580152671755,72.4885496183206,0.0
14.390000581741333,-7.0844427124023435,-3.4572271972656248,-0.5291185668945312,-5.847328244274809,-159.84732824427482,39.099236641221374,-9.7683427734375,2.3151930053710936,-2.1116858642578125,-15.32824427480916,96.21374045801527,79.20610687022901,0.0
14.40000033378601,-5.437231970214843,-3.763685009765625,-0.9816226806640624,-0.6870229007633588,-150.06106870229007,33.55725190839695,-9.935936889648437,1.3551181396484375,-1.2880804931640624,-28.519083969465647,103.66412213740458,85.74045801526718,0.0
14.410000562667847,-6.490680700683593,-2.93050283203125,-0.38307226562499996,7.129770992366412,-136.03053435114504,27.17557251908397,-10.151415039062499,-0.07422025146484375,-1.867477294921875,-37.49618320610687,101.74045801526718,86.58015267175573,0.0
14.420000553131104,-3.5146880371093747,-4.584896179199219,-2.138022082519531,27.557251908396946,-121.61832061068702,25.251908396946565,-11.417947717285156,-2.1452046874999997,-0.17238251953125,-30.65648854961832,100.99236641221374,90.73282442748092,0.0
14.43000054359436,-4.074931225585937,-2.2649147705078123,-1.3215993164062498,35.43511450381679,-104.56488549618321,18.885496183206108,-9.758765966796874,-2.3367408203125,0.833182177734375,-27.419847328244273,101.05343511450381,88.18320610687023,0.0
14.440001010894775,-3.1196447631835937,-4.537012145996093,-2.602497204589844,52.61068702290076,-90.9618320610687,15.86259541984733,-10.263942517089843,-5.202600207519531,1.5275006591796874,-9.206106870229007,91.64885496183206,86.74809160305344,0.0
14.450000524520874,-3.5577836669921874,-2.2577321655273437,-2.35589443359375,62.18320610687023,-72.0,8.259541984732824,-10.441113439941406,-7.259219433593749,1.6448165405273436,17.6793893129771,78.54961832061069,84.82442748091603,0.0
14.46000075340271,-3.725377783203125,-1.659181750488281,-2.9927520751953125,56.412213740458014,-64.12213740458016,2.7938931297709924,-10.254365710449218,-5.008669873046875,2.3678654418945313,48.30534351145038,67.34351145038168,79.8473282442748,0.0
14.470000267028809,-3.0980969482421874,-0.9648632690429687,-2.47081611328125,57.37404580152672,-46.79389312977099,1.6488549618320612,-8.959102612304687,-3.744531396484375,1.0678139404296874,51.11450381679389,52.83969465648855,72.16793893129771,0.0
14.480000495910645,-2.427720483398437,-1.5562310791015623,-1.407790576171875,58.19847328244275,-33.00763358778626,-0.3969465648854962,-13.218387365722656,-8.726865051269531,7.345410693359375,83.49618320610686,50.61068702290076,64.7175572519084,0.0
14.490000486373901,-1.5227122558593749,-0.8595183959960937,-0.009576806640625,63.05343511450382,-14.885496183206106,-5.343511450381679,-9.519345800781249,-4.2497079467773435,2.480392919921875,100.56488549618321,33.38931297709924,56.916030534351144,0.0
14.500000476837158,-4.050989208984375,3.6272155151367187,1.1563994018554686,43.099236641221374,-11.618320610687023,-13.83206106870229,-10.488997473144531,-4.8123453369140625,4.802768530273437,98.51908396946565,32.732824427480914,48.0763358778626,0.0
14.510000467300415,-3.1483751831054687,4.7931917236328125,2.0183119995117185,36.58015267175573,-2.4580152671755724,-8.67175572519084,-10.242394702148436,-3.9552211425781247,1.5921441040039062,106.45801526717557,19.14503816793893,41.69465648854962,0.0
14.520000696182251,-3.3327287109375,7.529764221191406,2.0183119995117185,20.3206106870229,2.2595419847328246,-3.984732824427481,-11.717222924804688,-4.292803576660156,6.603208178710937,112.12213740458016,23.862595419847327,30.47328244274809,0.0
14.530000925064087,-3.1076737548828124,5.968744738769531,2.2361843505859373,-12.351145038167939,4.152671755725191,0.6412213740458015,-8.678981018066406,-3.706224169921875,3.794809631347656,93.86259541984732,10.625954198473282,20.625954198473284,0.0
14.540000677108765,-2.3415292236328122,3.77326181640625,1.6424223388671875,-28.916030534351144,13.83206106870229,1.4198473282442747,-16.086640954589843,-11.219228979492186,8.585607153320312,129.5114503816794,-5.770992366412214,9.267175572519085,0.0
14.5500009059906,-2.518700146484375,2.123656872558594,2.29843359375,-34.091603053435115,22.229007633587788,3.5572519083969465,-9.17458076171875,-6.931213806152344,5.432443566894531,166.83969465648855,-43.70992366412214,4.732824427480916,0.0
14.560000658035278,-4.3263223999023435,3.7397429931640622,3.2920272827148436,-20.977099236641223,34.70229007633588,8.091603053435115,-16.00523809814453,-11.556811413574218,8.82981572265625,158.68702290076337,-63.06870229007634,0.9770992366412213,0.0
14.570001125335693,-2.9448680419921875,2.3774422485351563,2.4971523315429685,-15.038167938931299,47.64885496183206,19.206106870229007,-13.460201733398437,-7.1586629638671875,5.279214660644531,166.04580152671755,-93.92366412213741,-15.664122137404581,0.0
14.580000638961792,-3.9815573608398434,4.920084411621094,3.0645781249999997,-11.49618320610687,64.03053435114504,20.778625954198475,-14.39633458251953,-3.0119056884765625,6.038176586914062,148.83969465648855,-117.08396946564885,-22.748091603053435,0.0
14.590000629425049,-4.438849877929687,4.723759875488281,3.1603461914062496,-36.56488549618321,67.98473282442748,24.732824427480917,-12.598289135742187,-0.36391865234375,2.4396914916992185,100.93129770992367,-121.05343511450381,-41.43511450381679,0.0
14.600000619888306,-4.857835168457031,1.9871873779296874,6.026205578613281,-55.25190839694657,73.83206106870229,23.84732824427481,-13.623007446289062,5.485116003417969,3.763685009765625,83.72519083969466,-117.77099236641222,-44.94656488549618,0.0
14.610000610351562,-5.276820458984375,-3.7517140014648436,7.474697583007812,-75.66412213740458,72.12213740458016,17.282442748091604,-16.038756921386717,4.6064439941406246,3.928884924316406,30.885496183206108,-117.14503816793894,-38.25954198473283,0.0
14.62000060081482,-5.6311623046875,-11.015721838378905,14.496891052246093,-27.480916030534353,68.41221374045801,14.82442748091603,-15.90947003173828,7.086836914062499,4.604049792480469,11.34351145038168,-111.41984732824427,-23.72519083969466,0.0
14.630000591278076,-3.404554760742187,-6.909665991210937,10.46984385986328,95.58778625954199,84.16793893129771,24.18320610687023,-15.684415075683592,8.180987072753906,4.431667272949219,-33.74045801526717,-105.25190839694656,-11.679389312977099,0.0
14.640000343322754,-1.9536685546875,-11.805808386230469,-5.485116003417969,156.3969465648855,119.25190839694656,20.47328244274809,-15.375563061523437,5.664681127929687,5.837063647460937,-74.54961832061069,-99.25190839694656,-5.755725190839694,0.0
14.65000033378601,-8.40125362548828,-11.89439384765625,-4.2880151733398435,232.793893129771,183.22137404580153,3.6793893129770994,-13.678074084472655,0.9600748657226562,5.542576843261719,-113.09923664122137,-83.20610687022901,-5.770992366412214,0.0
14.660000801086426,-10.005368737792969,-8.463502868652343,-0.3758896606445312,323.5419847328244,219.9236641221374,-2.33587786259542,-13.326126440429686,-3.047818713378906,5.011064074707031,-105.58778625954199,-76.47328244274809,-9.389312977099237,0.0
14.670000553131104,-16.692373974609374,1.838746875,3.7421371948242186,355.78625954198475,239.74045801526717,-4.1679389312977095,-13.381193078613281,-4.618415002441406,2.6695348510742187,-81.00763358778626,-68.68702290076335,-18.50381679389313,0.0
14.68000078201294,-17.67160245361328,10.91037696533203,0.028730419921875,282.5648854961832,211.49618320610688,-20.30534351145038,-14.578293908691405,-3.0238766967773434,2.655169641113281,-12.580152671755725,-50.33587786259542,-23.81679389312977,0.0
14.690000534057617,-16.620547924804686,17.956512451171875,4.390965844726562,163.7709923664122,177.6793893129771,-29.328244274809162,-13.108254089355468,0.8954314208984374,-5.683834741210937,-24.3206106870229,-82.03053435114504,-29.114503816793892,0.0
14.700000762939453,-4.115632653808594,7.541735229492187,-1.458068811035156,95.23664122137404,136.25954198473283,-23.16030534351145,-12.567164514160156,0.5578489868164063,-3.189076611328125,-69.66412213740458,-89.54198473282443,-41.32824427480916,0.0
14.71000051498413,-9.241618408203124,6.72291826171875,6.940790612792968,98.38167938931298,126.8854961832061,-31.129770992366414,-14.183250634765624,-1.7645266235351562,-2.767697119140625,-90.42748091603053,-88.1526717557252,-42.13740458015267,0.0
14.720000505447388,-8.47786807861328,1.3910311645507811,0.6296750366210937,78.44274809160305,96.58015267175573,-44.229007633587784,-16.780959436035154,-5.209782812499999,-1.62805712890625,-66.07633587786259,-92.53435114503817,-43.61832061068702,0.0
14.730000495910645,-12.342109558105468,4.4196962646484375,0.46686932373046874,55.099236641221374,89.25190839694656,-58.36641221374046,-15.512032556152343,-5.173869787597656,-2.4756045166015626,-14.80916030534351,-99.93893129770993,-44.67175572519084,0.0
14.740000486373901,-10.97502041015625,5.865794067382812,-1.599326708984375,15.48091603053435,73.40458015267176,-61.93893129770992,-17.396269262695313,-6.658274816894531,-1.189918225097656,21.083969465648856,-102.44274809160305,-44.595419847328245,0.0
14.750000476837158,-11.097124694824219,5.2648494506835934,-0.18914193115234373,8.412213740458014,74.93129770992367,-58.12213740458015,-13.766659545898436,-2.6623522460937497,-1.2904746948242187,48.534351145038165,-106.25954198473282,-49.969465648854964,0.0
14.760000705718994,-10.579977136230468,3.660734338378906,0.2059013427734375,-15.068702290076336,69.0381679389313,-62.595419847328245,-12.399570397949217,0.21068974609375,-1.149216796875,74.38167938931298,-101.55725190839695,-62.0763358778626,0.0
14.77000093460083,-10.627861169433594,-0.11252747802734374,-1.2761094848632812,-11.770992366412214,64.47328244274809,-64.44274809160305,-11.202469567871093,1.7094599853515624,-1.024718310546875,79.80152671755725,-92.35114503816794,-62.0,0.0
14.780000686645508,-10.266336718749999,-1.2904746948242187,-1.8650830932617186,24.091603053435115,75.12977099236642,-62.70229007633588,-9.2320416015625,3.2441432495117186,-2.0374656127929685,64.4885496183206,-88.2442748091603,-62.33587786259542,0.0
