timestamp,Thigh_L_Acc_X,Thigh_L_Acc_Y,Thigh_L_Acc_Z,Thigh_L_Gyr_X,Thigh_L_Gyr_Y,Thigh_L_Gyr_Z,Thigh_R_Acc_X,Thigh_R_Acc_Y,Thigh_R_Acc_Z,Thigh_R_Gyr_X,Thigh_R_Gyr_Y,Thigh_R_Gyr_Z,gpio_output
10.000000476837158,-6.58884296875,3.0837317382812497,1.3646949462890625,-35.465648854961835,39.41984732824427,10.900763358778626,-10.685322009277343,-0.5722141967773438,1.879448303222656,23.755725190839694,26.03053435114504,16.85496183206107,0.0
10.010000705718994,-6.756437084960937,2.7916391357421872,2.0446482177734375,-50.0,42.19847328244275,11.648854961832061,-9.86411083984375,-0.04548983154296875,1.4317325927734375,20.580152671755727,27.206106870229007,15.236641221374045,1.0
10.02000117301941,-6.3901242309570305,0.7326257080078125,2.3391350219726563,-59.51145038167939,44.01526717557252,11.648854961832061,-9.947907897949218,-0.4213794921875,1.3910311645507811,17.206106870229007,25.984732824427482,15.740458015267176,1.0
10.030000925064087,-5.753266589355468,-1.3623007446289062,3.699041564941406,-44.0,55.61832061068702,10.091603053435115,-9.974244116210937,-0.9361328491210937,1.3527239379882812,13.969465648854962,25.541984732824428,16.9618320610687,1.0
10.040000915527344,-5.7149593627929685,-1.7573440185546874,4.297591979980469,-29.46564885496183,60.83969465648855,6.366412213740458,-10.022128149414062,-1.2976572998046874,1.599326708984375,15.48091603053435,25.83206106870229,16.793893129770993,1.0
10.050000667572021,-6.459556079101562,-1.687912170410156,5.585672473144531,-16.427480916030536,65.95419847328245,2.0610687022900764,-9.787496386718749,-1.7549498168945312,1.5227122558593749,17.053435114503817,24.65648854961832,17.099236641221374,1.0
10.060000658035278,-5.403713146972656,-2.952050646972656,5.662286926269531,12.534351145038167,73.09923664122137,3.3740458015267176,-9.773131176757811,-2.0661960327148434,1.5873557006835937,20.625954198473284,24.0,15.84732824427481,1.0
10.070000886917114,-6.311115576171875,-1.2401964599609374,6.87614716796875,36.19847328244275,82.68702290076335,0.7786259541984732,-8.80347950439453,-1.455674609375,0.9959878906249999,17.893129770992367,26.0,13.938931297709924,1.0
10.080000638961792,-7.704540942382812,0.3016694091796875,7.860164050292968,42.6412213740458,82.4885496183206,0.22900763358778625,-10.848127722167968,-3.095702746582031,2.916137622070312,28.35114503816794,22.82442748091603,12.67175572519084,1.0
10.09000039100647,-7.675810522460937,0.3711012573242187,8.37012900390625,62.29007633587786,86.33587786259542,2.33587786259542,-9.86411083984375,-2.779668127441406,2.7820623291015623,36.045801526717554,24.38167938931298,12.351145038167939,1.0
10.100000858306885,-8.901641772460938,2.3127988037109373,8.920795385742187,64.87022900763358,81.64885496183206,2.045801526717557,-8.968679418945312,-1.0678139404296874,1.924938134765625,32.18320610687023,19.52671755725191,13.526717557251908,1.0
10.110000610351562,-9.720458740234374,3.0454245117187497,9.720458740234374,64.61068702290076,76.53435114503817,3.954198473282443,-8.422801440429687,-0.08858546142578125,0.852335791015625,16.65648854961832,20.091603053435115,6.595419847328245,1.0
10.120000839233398,-10.826579907226561,5.693411547851563,10.611101757812499,44.44274809160305,62.29007633587786,4.412213740458015,-7.694964135742187,1.6615759521484375,0.46208092041015625,1.3129770992366412,33.02290076335878,7.8320610687022905,1.0
10.130001068115234,-10.874463940429687,5.796362219238281,10.371681591796875,23.068702290076335,47.93893129770992,4.732824427480916,-9.074024291992187,0.9911994873046874,1.9488801513671874,-21.083969465648856,40.458015267175576,12.0,1.0
10.140000581741333,-10.488997473144531,4.862623571777344,8.63827958984375,-0.061068702290076333,32.99236641221374,2.885496183206107,-11.276689819335937,-0.22266075439453123,2.31758720703125,-16.625954198473284,42.656488549618324,14.80916030534351,1.0
10.150000810623169,-8.623914379882812,1.3192051147460937,4.146757275390625,-9.251908396946565,24.53435114503817,4.809160305343512,-9.457096557617186,0.41898529052734373,1.6519991455078125,-24.27480916030534,41.786259541984734,11.618320610687023,1.0
10.160000562667847,-9.014169250488282,0.507570751953125,2.645592834472656,-14.916030534351146,20.946564885496183,6.183206106870229,-10.50815108642578,-1.8243816650390623,1.6304513305664061,-38.396946564885496,36.916030534351144,13.694656488549619,1.0
10.17000126838684,-8.420407238769531,-1.3263877197265623,2.360682836914062,-8.381679389312977,26.68702290076336,7.435114503816794,-10.82179150390625,-2.8036101440429686,2.5139117431640625,-19.6793893129771,38.62595419847328,10.595419847328245,1.0
10.18000078201294,-9.260772021484375,-0.8786720092773437,3.299209887695312,4.152671755725191,29.221374045801525,6.366412213740458,-10.206481677246094,-1.905784521484375,1.1707646118164061,-21.435114503816795,29.64885496183206,7.190839694656488,1.0
10.190000772476196,-10.929530578613281,0.6344634399414062,5.4899044067382805,16.15267175572519,30.641221374045802,5.679389312977099,-10.87925234375,-3.0837317382812497,1.6112977172851561,-25.129770992366414,15.86259541984733,5.648854961832061,1.0
10.200000762939453,-11.980585107421874,1.879448303222656,6.358999609374999,20.748091603053435,26.793893129770993,3.7557251908396947,-11.343727465820312,-4.2880151733398435,2.2290017456054687,-10.396946564885496,16.641221374045802,5.526717557251908,1.0
10.21000075340271,-11.235988391113281,2.4779987182617185,4.690241052246093,23.404580152671755,22.50381679389313,2.2748091603053435,-10.888829150390624,-3.6080619018554687,1.5705962890624998,6.641221374045801,1.0687022900763359,1.9389312977099236,0.0
10.220000505447388,-10.723629235839843,3.5290532470703124,2.6527754394531247,18.412213740458014,22.16793893129771,0.2748091603053435,-10.450690246582031,-1.936909143066406,0.6584054565429687,-1.9236641221374047,-12.305343511450381,-0.9618320610687023,0.0
10.230000734329224,-10.27830772705078,4.426878869628906,2.109291662597656,2.1068702290076335,24.18320610687023,0.5648854961832062,-11.279084020996093,0.36391865234375,1.3479355346679687,-4.564885496183206,-15.435114503816793,-1.7251908396946565,0.0
10.240000486373901,-9.572018237304688,3.308786694335937,1.0486603271484374,-17.66412213740458,23.236641221374047,2.7938931297709924,-10.548852514648438,-0.45968671875,1.4724340209960938,-8.80916030534351,-17.72519083969466,-3.954198473282443,0.0
10.250000953674316,-8.635885388183594,2.2768857788085937,0.42377369384765623,-27.251908396946565,29.435114503816795,4.137404580152672,-10.864887133789061,0.031124621582031248,1.6807295654296874,-12.259541984732824,-23.61832061068702,-5.557251908396947,0.0
10.260000944137573,-7.115567333984375,0.9121908325195311,-0.36391865234375,-21.69465648854962,36.900763358778626,6.091603053435114,-12.409147204589843,-0.9121908325195311,1.189918225097656,-2.946564885496183,-30.83969465648855,-8.259541984732824,0.0
10.270000696182251,-5.793968017578124,0.6488286499023437,-0.5339069702148437,-15.969465648854962,43.81679389312977,7.465648854961832,-11.077971081542968,0.7781155395507812,1.936909143066406,-11.404580152671755,-37.725190839694655,-13.511450381679388,0.0
10.280001163482666,-6.758831286621094,0.33758243408203126,-0.5722141967773438,6.137404580152672,60.48854961832061,7.480916030534351,-11.566388220214844,1.5897499023437498,1.369483349609375,-25.099236641221374,-43.343511450381676,-15.450381679389313,0.0
10.290000677108765,-8.489839086914062,1.675941162109375,0.12210428466796874,7.893129770992366,67.5114503816794,7.603053435114504,-11.822567797851562,2.5474305664062498,1.5203180541992187,-20.931297709923665,-47.969465648854964,-16.38167938931298,0.0
10.300000667572021,-9.612719665527344,3.220201232910156,0.4381389038085937,3.6946564885496183,70.59541984732824,9.282442748091603,-12.145785021972655,2.2936451904296873,1.8100164550781248,-46.82442748091603,-56.54961832061068,-11.923664122137405,0.0
10.3100004196167,-10.184933862304687,2.8706477905273435,0.7948749511718749,-3.9083969465648853,72.54961832061069,12.01526717557252,-13.690045092773437,0.5363011718749999,3.88818349609375,-33.81679389312977,-70.33587786259542,-4.961832061068702,0.0
10.320000886917114,-10.175357055664062,1.5729904907226562,0.9528922607421875,-11.557251908396946,70.19847328244275,12.473282442748092,-14.013262316894531,1.3359645263671873,4.390965844726562,-29.267175572519083,-84.53435114503817,-3.5572519083969465,0.0
10.330000638961792,-10.414777221679687,0.5267243652343749,1.2641384765625,-10.198473282442748,71.81679389312977,10.687022900763358,-12.820949890136719,0.9050082275390624,2.1787235107421874,-27.480916030534353,-98.07633587786259,-1.6488549618320612,0.0
10.340001106262207,-10.970232006835937,0.8068459594726562,1.4221557861328125,-14.458015267175572,70.0,6.396946564885496,-12.916717956542968,0.22505495605468748,2.090138049316406,-24.0,-108.47328244274809,-1.465648854961832,0.0
10.350000858306885,-10.223241088867187,0.10773907470703124,1.438915197753906,-13.816793893129772,69.69465648854961,2.9770992366412212,-10.965443603515624,2.4899697265625,1.5682020874023437,-35.465648854961835,-117.93893129770993,-1.6793893129770991,0.0
10.360000610351562,-10.51533369140625,0.3399766357421875,1.2497732666015624,-16.50381679389313,68.8854961832061,-0.916030534351145,-12.04762275390625,1.697488977050781,1.209071838378906,-36.29007633587786,-120.47328244274809,1.8473282442748091,0.0
10.370001077651978,-9.854534033203125,0.105344873046875,0.488417138671875,-22.33587786259542,67.09923664122137,-3.3893129770992365,-10.809820495605468,1.944091748046875,1.3072341064453123,-39.954198473282446,-120.01526717557252,2.931297709923664,0.0
10.380000591278076,-10.39322940673828,0.9911994873046874,1.0773907470703123,-27.14503816793893,66.85496183206106,-6.9465648854961835,-10.12507882080078,3.3494881225585935,-0.8164227661132812,-46.091603053435115,-124.33587786259542,0.030534351145038167,0.0
10.390000820159912,-10.352527978515624,1.01514150390625,0.6775590698242188,-36.274809160305345,61.31297709923664,-7.526717557251908,-11.262324609375,1.8555062866210936,-0.22505495605468748,-58.01526717557252,-115.48091603053435,1.0229007633587786,0.0
10.400000810623169,-8.889670764160156,-0.8188169677734375,-0.3399766357421875,-28.610687022900763,62.595419847328245,-5.419847328244275,-9.70369932861328,2.1547814941406247,-1.5562310791015623,-64.8854961832061,-110.59541984732824,-1.4351145038167938,0.0
10.410000801086426,-9.725247143554688,0.5865794067382812,0.2609679809570312,-19.709923664122137,65.23664122137404,-6.793893129770993,-11.346121667480467,-1.3814543579101561,-4.46279189453125,-73.92366412213741,-104.77862595419847,-0.030534351145038167,0.0
10.420000553131104,-9.380482104492186,1.3335703247070312,0.19632453613281248,-24.65648854961832,62.67175572519084,-7.465648854961832,-9.89523546142578,0.63206923828125,-1.2282254516601563,-67.64885496183206,-96.79389312977099,-0.9465648854961832,0.0
10.43000078201294,-9.313444458007812,1.0821791503906248,0.12210428466796874,-22.68702290076336,61.9236641221374,-6.6106870229007635,-10.481814868164061,-0.2561795776367187,-0.9648632690429687,-57.57251908396947,-92.58015267175573,0.6870229007633588,0.0
10.440000772476196,-10.091559997558592,2.6048914062499997,0.6177040283203125,-21.14503816793893,60.48854961832061,-8.870229007633588,-9.234435803222656,0.43574470214843747,-1.9297265380859374,-59.29770992366412,-82.56488549618321,0.44274809160305345,0.0
10.450001001358032,-10.647014782714843,3.746925598144531,1.189918225097656,-36.213740458015266,55.099236641221374,-10.15267175572519,-9.926360083007811,-0.01915361328125,-1.7357962036132812,-45.29770992366412,-76.01526717557252,4.33587786259542,0.0
10.46000075340271,-10.599130749511717,2.094926452636719,1.1947066284179686,-37.02290076335878,51.465648854961835,-10.946564885496183,-9.279925634765624,1.8004396484374998,-2.674323254394531,-40.916030534351144,-67.80152671755725,4.900763358778626,0.0
10.470000505447388,-10.405200415039062,0.7637503295898437,0.9002198242187499,-27.251908396946565,49.70992366412214,-9.48091603053435,-9.169792358398437,1.4915876342773438,-2.2385785522460937,-42.717557251908396,-55.66412213740458,6.885496183206107,0.0
10.480000495910645,-10.43153663330078,0.39264907226562495,1.235408056640625,-17.46564885496183,50.12213740458015,-10.15267175572519,-10.187328063964843,-0.9050082275390624,-1.608903515625,-36.82442748091603,-52.16793893129771,7.251908396946565,0.0
10.49000072479248,-11.678915698242188,2.3439234252929686,1.39821376953125,-12.106870229007633,49.725190839694655,-12.793893129770993,-8.832209924316405,0.49320554199218747,-1.8914193115234375,-31.099236641221374,-47.23664122137404,2.015267175572519,0.0
10.500000476837158,-9.701305126953125,3.0334535034179684,1.1540052001953125,-18.442748091603054,44.74809160305343,-12.076335877862595,-8.212111694335936,-0.38307226562499996,-0.9337386474609375,-29.603053435114504,-36.97709923664122,-0.1984732824427481,0.0
10.510000705718994,-8.173804467773436,0.7876923461914062,-0.033518823242187495,-23.587786259541986,40.06106870229008,-9.83206106870229,-9.361328491210937,-1.458068811035156,-1.4700398193359374,-15.557251908396946,-29.755725190839694,4.33587786259542,0.0
10.52000093460083,-7.922413293457031,-0.04548983154296875,-0.14125789794921875,-15.251908396946565,38.87022900763359,-9.770992366412214,-10.256759912109374,-2.29843359375,0.3064578125,-3.5114503816793894,-28.33587786259542,4.3816793893129775,0.0
10.530000925064087,-9.928754284667969,1.7812860351562498,1.4245499877929686,-4.015267175572519,41.954198473282446,-12.793893129770993,-9.813832604980469,-3.6056677001953124,0.9696516723632812,8.198473282442748,-31.84732824427481,-4.091603053435114,0.0
10.540000915527344,-9.473855969238281,1.7334020019531249,1.0414777221679687,-6.244274809160306,37.404580152671755,-13.740458015267176,-8.674192614746094,-1.9512743530273435,0.9097966308593749,8.992366412213741,-34.091603053435115,-12.946564885496183,0.0
10.5500009059906,-9.543287817382812,2.118868469238281,0.7972691528320313,-17.099236641221374,31.450381679389313,-12.778625954198473,-8.549694128417968,-2.6479870361328124,1.8124106567382812,7.8320610687022905,-29.587786259541986,-16.03053435114504,0.0
10.560000896453857,-10.108319409179687,2.1356278808593747,1.0558429321289062,-15.801526717557252,30.778625954198475,-13.099236641221374,-10.12507882080078,-3.9839515624999997,2.829946362304687,28.519083969465647,-30.65648854961832,-16.213740458015266,0.0
10.570000648498535,-9.5384994140625,1.3910311645507811,0.9864110839843749,-8.244274809160306,28.870229007633586,-13.236641221374045,-10.129867224121092,-3.4332851806640625,2.482787121582031,31.84732824427481,-39.343511450381676,-18.870229007633586,0.0
10.580000877380371,-9.9981861328125,1.6639701538085936,0.737414111328125,-6.229007633587786,26.595419847328245,-13.786259541984732,-8.015787158203125,-0.5386953735351562,1.89620771484375,30.12213740458015,-39.954198473282446,-26.99236641221374,0.0
10.590000867843628,-9.974244116210937,1.9105729248046874,0.507570751953125,-5.221374045801527,27.328244274809162,-12.793893129770993,-9.880870251464843,-2.051830822753906,3.201047619628906,29.96946564885496,-34.97709923664122,-26.412213740458014,0.0
10.600000858306885,-10.005368737792969,2.080561242675781,0.316034619140625,-11.32824427480916,26.15267175572519,-11.725190839694656,-9.239224206542968,-1.4628572143554686,3.299209887695312,49.43511450381679,-44.0,-26.885496183206108,0.0
10.610000610351562,-10.244788903808594,1.9943699829101562,-0.06943184814453125,-7.099236641221374,25.81679389312977,-10.198473282442748,-7.5345526245117185,1.4413093994140624,2.9448680419921875,29.984732824427482,-42.80916030534351,-32.458015267175576,0.0
10.62000060081482,-9.706093530273437,1.3335703247070312,-0.25139117431640623,-7.343511450381679,27.297709923664122,-7.9541984732824424,-8.243236315917969,0.33039982910156246,3.8283284545898435,23.083969465648856,-40.0763358778626,-29.068702290076335,0.0
10.630000829696655,-10.627861169433594,2.6886884643554687,0.6464344482421874,-22.045801526717558,26.47328244274809,-9.969465648854962,-9.069235888671875,-1.5394716674804687,4.948814831542968,45.099236641221374,-50.56488549618321,-26.931297709923665,0.0
10.640000581741333,-11.405976708984374,2.8610709838867185,-0.16998831787109375,-21.129770992366414,24.595419847328245,-10.534351145038167,-8.98304462890625,1.5059528442382812,3.967192150878906,22.366412213740457,-42.045801526717554,-27.64885496183206,0.0
10.650000810623169,-10.223241088867187,2.195482922363281,-0.229843359375,-30.18320610687023,24.045801526717558,-8.748091603053435,-7.977479931640625,1.5897499023437498,3.4859576171874997,5.801526717557252,-35.404580152671755,-26.244274809160306,0.0
10.660000562667847,-9.37808790283203,1.4867992309570313,-0.031124621582031248,-34.99236641221374,24.106870229007633,-8.488549618320612,-8.731653454589843,0.5793968017578125,5.456385583496093,6.99236641221374,-35.49618320610687,-19.221374045801525,0.0
10.670000791549683,-9.445125549316407,1.1085153686523437,-0.06703764648437499,-32.58015267175573,23.31297709923664,-9.465648854961833,-9.586383447265625,0.6560112548828124,4.994304663085937,4.5038167938931295,-39.32824427480916,-16.198473282442748,0.0
10.68000078201294,-8.291120349121094,-1.6232687255859375,-0.8283937744140625,-19.61832061068702,23.572519083969464,-7.526717557251908,-8.070853796386718,1.6232687255859375,5.008669873046875,-4.183206106870229,-39.41984732824427,-16.641221374045802,0.0
10.690000772476196,-8.113949426269532,-1.1276689819335937,-0.1388636962890625,7.648854961832061,31.221374045801525,-7.083969465648855,-7.6279264892578125,1.687912170410156,3.8690298828125,-18.16793893129771,-27.557251908396946,-17.251908396946565,0.0
10.700000762939453,-9.679757312011718,0.34237083740234375,0.7493851196289062,15.725190839694656,36.82442748091603,-9.038167938931299,-9.074024291992187,0.04548983154296875,5.628768103027343,-22.16793893129771,-23.52671755725191,-12.946564885496183,0.0
10.71000051498413,-10.357316381835936,2.1643583007812497,1.2018892333984375,16.83969465648855,35.3587786259542,-9.450381679389313,-7.788338000488281,0.04548983154296875,3.670311145019531,-22.259541984732824,-24.091603053435115,-12.091603053435115,0.0
10.720000982284546,-11.077971081542968,3.1220389648437497,2.1547814941406247,10.305343511450381,31.603053435114504,-8.0,-9.600748657226562,-0.8643067993164062,4.872200378417968,-21.61832061068702,-21.61832061068702,-11.648854961832061,0.0
10.730000495910645,-10.036493359375,2.7150246826171873,2.360682836914062,6.152671755725191,26.3206106870229,-6.015267175572519,-7.41244833984375,-0.19393033447265623,3.366247534179687,-21.541984732824428,-19.34351145038168,-12.885496183206106,0.0
10.740000486373901,-10.333374365234375,1.687912170410156,1.235408056640625,3.3893129770992365,19.267175572519083,-3.6946564885496183,-9.37808790283203,-0.9959878906249999,4.378994836425781,-21.297709923664122,-18.290076335877863,-13.908396946564885,0.0
10.750000715255737,-9.179369165039063,1.4413093994140624,1.1037269653320312,4.67175572519084,16.0,-2.8396946564885495,-6.392518432617187,0.14125789794921875,2.7533319091796873,-27.72519083969466,-18.564885496183205,-15.725190839694656,0.0
10.760000944137573,-10.692504614257812,3.3111808959960936,1.5490484741210937,-8.763358778625955,11.648854961832061,-4.900763358778626,-6.069301208496094,0.17477672119140625,1.6065093139648436,-33.05343511450382,-12.15267175572519,-14.916030534351146,0.0
10.770000696182251,-9.811438403320311,1.4413093994140624,0.7733271362304687,-7.541984732824427,7.755725190839694,-3.2977099236641223,-8.197746484375,-1.6998831787109374,3.785232824707031,-34.30534351145038,-1.2213740458015268,-12.427480916030534,0.0
10.780000925064087,-9.792284790039062,1.2306196533203124,1.0438719238281249,-6.290076335877862,7.175572519083969,-4.305343511450381,-7.644685900878906,-2.269703173828125,3.0358477050781247,-30.442748091603054,0.2900763358778626,-10.01526717557252,0.0
10.790001153945923,-10.067617980957031,1.3000515014648437,0.9600748657226562,-2.015267175572519,5.603053435114504,-6.229007633587786,-8.437166650390624,-2.844311572265625,3.622427111816406,-12.122137404580153,-4.366412213740458,-12.442748091603054,0.0
10.8000009059906,-9.593566052246093,0.9840168823242187,0.6081272216796875,-1.4961832061068703,4.763358778625954,-5.862595419847328,-8.003816149902343,-2.6599580444335937,4.3263223999023435,-2.6412213740458017,-3.954198473282443,-14.641221374045802,0.0
10.810000658035278,-9.550470422363281,1.1707646118164061,0.5339069702148437,0.2595419847328244,4.870229007633588,-5.633587786259542,-7.611167077636718,-2.6695348510742187,3.67749375,3.099236641221374,-0.4580152671755725,-15.465648854961833,0.0
10.820000410079956,-9.53131680908203,1.455674609375,0.4285620971679687,-0.6717557251908397,5.679389312977099,-5.526717557251908,-7.436390356445312,-2.1739351074218747,3.900154504394531,12.625954198473282,0.8091603053435115,-14.992366412213741,0.0
10.830000877380371,-9.34696328125,1.5658078857421873,0.4261678955078125,-1.6641221374045803,6.076335877862595,-4.656488549618321,-7.283161450195312,-1.944091748046875,3.5003228271484375,18.68702290076336,1.8015267175572518,-13.908396946564885,0.0
10.840000867843628,-9.311050256347656,1.6304513305664061,0.49799394531249996,-2.595419847328244,6.519083969465649,-4.5038167938931295,-7.304709265136719,-1.6424223388671875,3.1292215698242187,24.366412213740457,3.786259541984733,-11.618320610687023,0.0
10.850000619888306,-9.574412438964844,1.5586252807617187,0.45010991210937495,-3.954198473282443,6.1679389312977095,-4.366412213740458,-7.117961535644531,-1.3742717529296875,2.806004345703125,29.46564885496183,5.770992366412214,-10.641221374045802,0.0
10.860000610351562,-9.366116894531249,1.2976572998046874,0.3711012573242187,-3.984732824427481,5.847328244274809,-4.213740458015267,-6.967126831054687,-1.2521674682617188,2.499546533203125,33.954198473282446,8.091603053435115,-8.900763358778626,0.0
10.870001077651978,-9.387664709472656,1.1061211669921875,0.5410895751953124,-2.8244274809160306,6.137404580152672,-3.877862595419847,-6.682216833496093,-1.2018892333984375,2.43250888671875,36.74809160305343,10.961832061068701,-8.458015267175572,0.0
10.880000591278076,-9.715670336914062,1.2306196533203124,0.7110778930664062,-2.4580152671755724,6.015267175572519,-4.198473282442748,-6.251260534667968,-0.7757213378906249,2.128445275878906,35.267175572519086,17.770992366412212,-8.320610687022901,0.0
10.890000820159912,-9.485826977539062,1.0941501586914062,0.9840168823242187,-1.3129770992366412,4.33587786259542,-3.954198473282443,-7.728482958984374,-2.7150246826171873,2.1787235107421874,35.541984732824424,22.0,-6.2748091603053435,0.0
10.900000810623169,-9.603142858886718,1.0199299072265624,1.4101847778320311,2.1374045801526718,2.9618320610687023,-4.244274809160306,-7.52737001953125,-1.7573440185546874,3.718195178222656,49.66412213740458,18.80916030534351,-4.458015267175573,0.0
10.910000801086426,-9.928754284667969,1.0558429321289062,1.848323681640625,6.259541984732825,0.22900763358778625,-3.8625954198473282,-7.556100439453124,-1.0702081420898437,3.6918589599609373,47.20610687022901,19.480916030534353,-7.862595419847328,0.0
10.920001029968262,-9.7683427734375,1.1061211669921875,2.231395947265625,10.061068702290076,-3.068702290076336,-3.7099236641221376,-7.228094812011718,-0.09337386474609374,4.058171813964844,41.02290076335878,20.68702290076336,-9.022900763358779,0.0
10.93000054359436,-9.698910925292969,1.0845733520507812,2.4492682983398435,15.022900763358779,-5.145038167938932,-3.2519083969465647,-7.256825231933593,1.2952630981445312,4.503493322753906,23.893129770992367,35.465648854961835,-9.694656488549619,0.0
10.940000772476196,-9.749189160156249,2.0566192260742184,2.9544448486328125,16.15267175572519,-7.923664122137405,-3.099236641221374,-7.841010437011718,0.6847416748046875,4.378994836425781,8.900763358778626,42.13740458015267,-6.885496183206107,0.0
10.950000524520874,-9.950302099609374,2.6982652709960937,3.1172505615234374,15.893129770992367,-13.618320610687023,-2.7022900763358777,-8.616731774902343,1.455674609375,4.050989208984375,-0.5190839694656488,45.847328244274806,-4.488549618320611,0.0
10.96000075340271,-10.388441003417968,2.8203695556640622,3.1268273681640624,19.34351145038168,-18.671755725190838,-0.9618320610687023,-7.951143713378905,3.4907460205078125,4.192247106933594,-21.282442748091604,49.3587786259542,-5.755725190839694,0.0
10.970000267028809,-10.441113439941406,3.414131567382812,3.5338416503906247,20.916030534351144,-23.69465648854962,3.068702290076336,-10.232817895507813,2.0159177978515626,5.295974072265625,-41.80152671755725,62.091603053435115,-0.916030534351145,0.0
10.980000495910645,-10.637437976074217,3.0310593017578125,3.9743747558593747,19.541984732824428,-30.85496183206107,7.236641221374046,-11.537657800292967,-0.47644613037109373,4.209006518554688,-41.74045801526717,56.48854961832061,3.282442748091603,0.0
10.99000096321106,-11.226411584472656,4.223371728515625,4.453215087890625,22.748091603053435,-39.099236641221374,10.67175572519084,-10.809820495605468,-1.4341267944335936,3.450044592285156,-46.88549618320611,63.61832061068702,2.900763358778626,0.0
11.000000476837158,-11.444283935546874,4.649539624023437,4.802768530273437,7.206106870229007,-51.786259541984734,15.099236641221374,-12.351686364746094,-4.244919543457031,3.708618371582031,-50.99236641221374,65.48091603053435,3.8625954198473282,0.0
11.010000944137573,-11.324573852539062,3.6846763549804686,3.3590649291992185,-6.473282442748092,-66.35114503816794,16.564885496183205,-13.038822241210937,-4.608838195800781,1.8818425048828125,-21.83206106870229,52.50381679389313,2.9160305343511452,0.0
11.02000093460083,-11.384428894042967,2.2864625854492187,2.978386865234375,-14.778625954198473,-77.83206106870229,19.480916030534353,-12.152967626953124,-3.9360675292968748,3.181894006347656,1.4961832061068703,48.70229007633588,1.5877862595419847,0.0
11.030001163482666,-11.434707128906249,-1.2713210815429687,2.4301146850585935,-13.49618320610687,-84.68702290076335,21.267175572519083,-9.878476049804688,-2.578555187988281,1.8507178833007811,0.9923664122137404,47.74045801526717,2.351145038167939,0.0
11.040001153945923,-13.546392993164062,-1.9608511596679685,4.225765930175781,-7.190839694656488,-92.3206106870229,18.106870229007633,-9.464279162597656,-1.7022773803710936,2.0781670410156248,18.580152671755727,42.80916030534351,4.015267175572519,0.0
11.0500009059906,-14.867992309570312,-4.1946413085937495,5.351040710449219,-0.48854961832061067,-103.66412213740458,11.572519083969466,-9.765948571777344,0.229843359375,1.649604943847656,23.34351145038168,40.16793893129771,3.8473282442748094,0.0
11.060000658035278,-16.376339355468748,-3.801992236328125,6.8210805297851556,16.427480916030536,-113.37404580152672,3.3282442748091605,-8.12113203125,2.4851813232421875,1.24498486328125,9.694656488549619,45.11450381679389,3.068702290076336,0.0
11.070000648498535,-16.08185255126953,-3.794809631347656,6.6343328002929685,21.17557251908397,-130.42748091603053,-6.259541984732825,-9.526528405761718,0.9145850341796874,1.0582371337890624,-0.5954198473282443,52.76335877862596,9.206106870229007,0.0
11.080000638961792,-15.71793389892578,-1.637633935546875,6.579266162109374,25.81679389312977,-143.6946564885496,-16.65648854961832,-10.366893188476562,-0.3591302490234375,-0.3758896606445312,2.427480916030534,52.76335877862596,12.244274809160306,0.0
11.090000629425049,-14.293383911132812,-1.707065783691406,3.890577697753906,29.389312977099237,-158.54961832061068,-23.52671755725191,-9.181763366699219,0.7589619262695312,-0.08140285644531249,-6.122137404580153,60.045801526717554,10.198473282442748,0.0
11.100000619888306,-13.520056774902343,-0.2561795776367187,2.418143676757812,19.984732824427482,-168.77862595419847,-25.358778625954198,-10.881646545410156,-1.458068811035156,1.3215993164062498,-6.0,63.12977099236641,14.274809160305344,0.0
11.11000108718872,-13.424288708496093,-0.031124621582031248,0.8188169677734375,17.984732824427482,-174.15267175572518,-25.954198473282442,-9.34696328125,-1.2761094848632812,0.47884033203125,-2.1526717557251906,55.3587786259542,11.801526717557252,0.0
11.12000060081482,-12.090718383789062,0.4572925170898437,0.8714894042968749,23.83206106870229,-173.06870229007635,-22.885496183206108,-8.59997236328125,0.25139117431640623,0.2537853759765625,-17.404580152671755,64.82442748091603,9.84732824427481,0.0
11.130000352859497,-11.17852755126953,-0.32082302246093747,0.22744915771484372,19.129770992366414,-170.68702290076337,-16.610687022900763,-10.606313354492187,-2.511517541503906,0.7733271362304687,-14.687022900763358,67.38931297709924,13.49618320610687,0.0
11.140000581741333,-10.443507641601562,-1.8148048583984373,-0.4908113403320312,31.206106870229007,-165.9083969465649,-13.251908396946565,-8.901641772460938,-1.3551181396484375,-0.7709329345703124,-14.748091603053435,62.961832061068705,10.885496183206106,0.0
11.150000810623169,-10.414777221679687,-1.2210428466796874,-1.197100830078125,40.18320610687023,-157.64885496183206,-8.763358778625955,-10.9175595703125,-2.2673089721679687,0.7062894897460937,-16.702290076335878,68.36641221374046,11.938931297709924,0.0
11.160000562667847,-10.412383020019531,-0.3495534423828125,-1.915361328125,36.74809160305343,-147.06870229007635,-8.534351145038167,-9.95987890625,-2.403778466796875,0.18914193115234373,-15.648854961832061,65.87786259541984,10.229007633587786,0.0
11.170001029968262,-10.733206042480468,0.8786720092773437,-1.656787548828125,38.396946564885496,-135.7709923664122,-10.793893129770993,-10.869675537109375,-3.191470812988281,1.3024457031249999,-10.870229007633588,64.44274809160305,12.610687022900763,0.0
11.180000305175781,-10.08677159423828,-0.2346317626953125,-1.6807295654296874,30.0,-125.80152671755725,-10.442748091603054,-9.962273107910155,-1.8339584716796873,1.1276689819335937,-3.6030534351145036,56.67175572519084,10.946564885496183,0.0
11.190000534057617,-10.180145458984374,0.7565677246093749,-1.2689268798828124,25.358778625954198,-114.09160305343511,-13.709923664122137,-10.211270080566406,-1.3048399047851562,2.2577321655273437,-5.297709923664122,57.80152671755725,11.603053435114504,0.0
11.200000524520874,-9.502586389160156,0.21068974609375,-0.9193734375,14.916030534351146,-104.29007633587786,-12.732824427480915,-10.24000050048828,-3.8139632446289062,1.7836802368164062,2.6106870229007635,52.54961832061068,15.221374045801527,0.0
11.21000051498413,-9.380482104492186,0.47884033203125,-0.603338818359375,11.312977099236642,-93.74045801526718,-13.48091603053435,-9.883264453125,-2.3822306518554686,1.37906015625,8.534351145038167,42.62595419847328,13.007633587786259,0.0
11.220000505447388,-9.344569079589844,0.5363011718749999,-0.30885201416015623,6.549618320610687,-87.12977099236642,-11.17557251908397,-7.773972790527344,-1.1013327636718748,-0.29927520751953124,-3.954198473282443,42.87022900763359,10.870229007633588,0.0
11.230000495910645,-8.90643017578125,0.6775590698242188,-0.20350714111328125,3.480916030534351,-77.23664122137404,-5.893129770992366,-10.041281762695311,-2.6288334228515624,1.5801730957031248,-6.213740458015267,46.87022900763359,14.931297709923664,0.0
11.240000486373901,-8.322244970703125,0.97683427734375,0.239420166015625,0.9465648854961832,-69.86259541984732,-4.0458015267175576,-10.206481677246094,-4.024652990722656,1.7429788085937499,9.236641221374045,41.404580152671755,14.564885496183207,0.0
11.250000476837158,-8.544905725097657,0.7900865478515624,-0.14125789794921875,0.3053435114503817,-66.83969465648855,-2.6412213740458017,-10.654197387695312,-3.632003918457031,2.4588451049804685,12.65648854961832,31.81679389312977,15.114503816793894,0.0
11.260000944137573,-6.955155822753905,0.5099649536132812,-0.43574470214843747,7.114503816793893,-58.900763358778626,4.0,-9.555258825683593,-2.5761609863281247,-1.8363526733398436,15.19083969465649,33.00763358778626,12.259541984732824,0.0
11.270000696182251,-7.153874560546875,1.4891934326171874,-0.02633621826171875,3.66412213740458,-51.45038167938932,6.0,-9.543287817382812,-1.2665326782226562,0.9241618408203125,11.358778625954198,35.969465648854964,13.236641221374045,0.0
11.280000686645508,-7.536946826171874,2.81558115234375,-0.09816226806640624,-6.061068702290076,-49.83206106870229,7.129770992366412,-7.867346655273437,0.06943184814453125,-0.5770026000976562,6.244274809160306,38.25954198473283,14.366412213740459,0.0
11.290000677108765,-7.390900524902343,0.9744400756835937,-0.20829554443359374,-9.541984732824428,-46.916030534351144,13.755725190839694,-9.674968908691406,-1.448492004394531,-0.0047884033203125,4.137404580152672,44.030534351145036,19.801526717557252,0.0
11.300000667572021,-7.110778930664062,-0.086191259765625,0.3280056274414062,0.48854961832061067,-37.541984732824424,18.15267175572519,-11.085153686523437,-2.473210314941406,0.19153613281249998,22.38167938931298,42.62595419847328,22.564885496183205,0.0
11.310000658035278,-7.486668591308593,0.30885201416015623,0.38786066894531246,7.786259541984733,-30.0,18.427480916030536,-10.654197387695312,-2.2457611572265623,-0.21308394775390624,49.29770992366412,39.969465648854964,20.213740458015266,0.0
11.320000886917114,-7.520187414550781,0.30885201416015623,0.14604630126953125,9.603053435114504,-26.366412213740457,20.50381679389313,-11.099518896484375,-3.2417490478515623,0.5602431884765625,37.64885496183206,37.48091603053435,20.85496183206107,0.0
11.330000638961792,-6.756437084960937,-0.718260498046875,-0.09816226806640624,13.236641221374045,-18.99236641221374,24.091603053435115,-9.576806640625,-1.9225439331054686,-0.34237083740234375,40.80916030534351,29.923664122137403,19.557251908396946,0.0
11.340000629425049,-6.512228515625,-1.2593500732421874,0.2753331909179687,19.00763358778626,-10.473282442748092,23.61832061068702,-10.412383020019531,-1.608903515625,0.16998831787109375,48.2442748091603,32.70229007633588,19.46564885496183,0.0
11.350000619888306,-6.062118603515625,-1.6065093139648436,0.13168109130859373,26.412213740458014,0.12213740458015267,23.17557251908397,-9.629479077148437,-1.1276689819335937,0.17956512451171874,47.083969465648856,32.01526717557252,19.480916030534353,0.0
11.360000610351562,-6.8593877563476555,-0.5291185668945312,2.1404162841796874,29.893129770992367,9.923664122137405,18.015267175572518,-9.694122521972655,-0.3064578125,0.679953271484375,52.83969465648855,33.69465648854962,19.114503816793892,0.0
11.370001077651978,-7.50821640625,-0.0526724365234375,2.511517541503906,26.625954198473284,12.396946564885496,13.206106870229007,-10.065223779296874,-1.0702081420898437,0.9983820922851562,56.79389312977099,34.778625954198475,19.64885496183206,0.0
11.380000829696655,-6.105214233398437,-1.0989385620117187,2.7269956909179687,31.96946564885496,18.900763358778626,10.67175572519084,-9.9981861328125,-0.9002198242187499,1.2689268798828124,58.091603053435115,34.42748091603053,18.259541984732824,0.0
11.390000820159912,-6.5577183471679685,0.6153098266601562,3.4620156005859375,24.85496183206107,22.85496183206107,3.6030534351145036,-9.394847314453125,-0.5985504150390625,1.0295067138671874,56.13740458015267,34.0,15.526717557251908,0.0
11.40000057220459,-6.833051538085937,1.8914193115234375,4.129997863769531,16.229007633587788,24.16793893129771,-0.0916030534351145,-9.612719665527344,-0.8188169677734375,0.5865794067382812,53.603053435114504,31.435114503816795,14.106870229007633,0.0
11.410000801086426,-7.706935144042968,3.201047619628906,4.944026428222656,-1.2213740458015268,21.541984732824428,-1.1603053435114503,-9.452308154296874,-1.5945383056640625,1.85790048828125,56.44274809160305,29.14503816793893,13.86259541984733,0.0
11.420000553131104,-7.024587670898437,2.2361843505859373,4.96078583984375,-3.8931297709923665,23.66412213740458,0.3816793893129771,-9.842563024902343,-1.8746598999023436,1.5753846923828123,59.63358778625954,29.801526717557252,10.992366412213741,0.0
11.430000305175781,-6.519411120605469,1.9919757812499999,5.044582897949218,-8.931297709923664,25.801526717557252,0.6106870229007634,-9.64623848876953,-1.1372457885742187,1.3910311645507811,57.87786259541985,27.61832061068702,7.267175572519084,0.0
11.440000772476196,-5.106832141113281,-0.5147533569335937,4.465186096191406,-5.419847328244275,28.244274809160306,2.381679389312977,-9.842563024902343,-0.28969840087890625,1.3407529296874998,53.29770992366412,27.81679389312977,5.465648854961832,0.0
11.450000524520874,-3.921702319335937,-1.4963760375976562,4.848258361816406,19.541984732824428,41.49618320610687,2.6106870229007635,-10.0748005859375,-0.21308394775390624,1.6735469604492186,40.12213740458015,29.14503816793893,6.122137404580153,0.0
11.46000051498413,-5.078101721191406,-0.4477157104492187,5.8083332275390624,36.0,52.62595419847328,-1.633587786259542,-9.356540087890625,0.8786720092773437,0.74699091796875,38.44274809160305,34.38167938931298,4.473282442748092,0.0
11.470000743865967,-6.275202551269531,0.9720458740234375,6.282385156249999,48.412213740458014,58.229007633587784,-4.244274809160306,-9.150638745117186,2.138022082519531,0.5961562133789062,22.442748091603054,40.25954198473283,4.961832061068702,0.0
11.480001211166382,-6.926425402832031,1.9823989746093749,5.9017070922851556,48.6412213740458,60.412213740458014,-3.3587786259541983,-9.469067565917967,1.6831237670898436,1.0654197387695312,0.9923664122137404,47.70992366412214,8.885496183206106,0.0
11.49000072479248,-7.419630944824219,2.2840683837890623,5.875370874023437,52.61068702290076,63.908396946564885,-0.8244274809160306,-9.82580361328125,-0.29448680419921874,2.152387292480469,-3.8473282442748094,48.900763358778626,13.923664122137405,0.0
11.500000953674316,-8.33182177734375,2.8275521606445313,6.342240197753906,50.94656488549618,61.61832061068702,-0.2748091603053435,-9.011775048828124,0.8834604125976562,1.3455413330078123,-5.435114503816794,47.725190839694655,10.717557251908397,0.0
11.510000944137573,-8.528146313476562,2.8107927490234372,5.9591679321289055,53.847328244274806,60.80916030534351,5.755725190839694,-9.718064538574218,-0.16041151123046873,1.4628572143554686,-23.114503816793892,50.35114503816794,13.740458015267176,0.0
11.52000093460083,-9.830592016601562,3.873818286132812,5.552153649902343,36.916030534351144,58.412213740458014,5.816793893129771,-10.797849487304687,-1.0319009155273438,1.8124106567382812,-19.893129770992367,48.3206106870229,15.801526717557252,0.0
11.530000686645508,-9.562441430664062,3.1100679565429687,4.077325427246094,22.0,54.595419847328245,6.106870229007634,-9.478644372558593,-0.44532150878906246,2.0278888061523435,-28.48854961832061,44.2442748091603,15.450381679389313,0.0
11.540001153945923,-10.929530578613281,3.1699229980468746,3.7325603881835936,10.305343511450381,52.54961832061068,9.129770992366412,-11.03248125,-2.5330653564453125,1.8076222534179687,-25.389312977099237,42.458015267175576,16.946564885496183,0.0
11.5500009059906,-12.797007873535156,3.687070556640625,4.065354418945312,-3.877862595419847,49.69465648854962,11.725190839694656,-11.334150659179686,-3.2345664428710936,1.2856862915039062,-12.80916030534351,39.86259541984733,10.80916030534351,0.0
11.560000658035278,-13.76426534423828,3.028665100097656,5.398924743652343,-5.114503816793893,46.30534351145038,18.38167938931298,-10.929530578613281,-3.0358477050781247,0.3447650390625,-27.114503816793892,20.076335877862597,13.297709923664122,0.0
11.570000886917114,-13.723563916015625,2.3391350219726563,7.551312036132812,-0.6106870229007634,44.79389312977099,23.435114503816795,-10.886434948730468,-3.447650390625,-0.11013327636718749,-13.435114503816793,21.84732824427481,13.816793893129772,0.0
11.580000638961792,-14.276624499511717,3.0885201416015624,7.716511950683593,-5.938931297709924,38.42748091603053,18.82442748091603,-10.989385620117186,-3.3399113159179685,0.41419688720703124,-4.656488549618321,12.870229007633588,14.412213740458014,0.0
11.590000629425049,-12.483367456054687,2.916137622070312,3.7158009765625,-25.572519083969464,28.595419847328245,11.068702290076336,-11.142614526367186,-3.7229835815429686,1.8746598999023436,8.778625954198473,2.564885496183206,13.206106870229007,0.0
11.600000619888306,-10.228029492187499,0.82360537109375,0.7781155395507812,-44.38167938931298,24.595419847328245,5.099236641221374,-9.488221179199218,-1.917755529785156,0.8403647827148437,5.801526717557252,-12.15267175572519,11.419847328244275,0.0
11.610000610351562,-8.628702783203124,-1.8243816650390623,0.7661445312499999,-40.916030534351144,30.580152671755727,4.595419847328245,-9.967061511230469,0.842758984375,3.1100679565429687,1.83206106870229,-15.068702290076336,3.83206106870229,0.0
11.620000839233398,-6.497863305664062,-3.3877953491210935,0.5913678100585937,-22.977099236641223,40.900763358778626,3.5267175572519083,-10.08677159423828,-0.09337386474609374,2.5354595581054684,-2.0763358778625953,-23.297709923664122,1.9694656488549618,0.0
11.630000829696655,-5.4515971801757805,-3.327940307617187,0.4860229370117187,-2.4732824427480917,52.50381679389313,-1.4351145038167938,-10.982203015136719,0.3016694091796875,2.2074539306640624,-19.709923664122137,-24.290076335877863,-1.099236641221374,0.0
11.640000581741333,-6.524199523925781,-1.4125789794921875,0.5315127685546874,8.870229007633588,62.44274809160305,-6.458015267175573,-10.539275708007812,-1.3072341064453123,2.2864625854492187,-12.106870229007633,-34.51908396946565,-5.709923664122138,0.0
11.650000810623169,-5.578489868164062,-3.1747114013671873,-1.9895815795898437,30.625954198473284,69.31297709923665,-5.969465648854962,-11.274295617675781,0.24181436767578124,1.429338391113281,-3.4198473282442747,-43.45038167938932,-11.709923664122137,0.0
11.660000324249268,-8.604760766601562,1.0271125122070313,-0.031124621582031248,48.458015267175576,87.14503816793894,-11.053435114503817,-11.477802758789062,0.5123591552734374,2.559401574707031,-16.717557251908396,-50.51908396946565,-14.061068702290076,0.0
11.670000791549683,-9.042899670410156,2.6312276245117188,-0.6177040283203125,41.587786259541986,90.53435114503817,-9.725190839694656,-12.751518041992187,-1.3407529296874998,3.246537451171875,-21.282442748091604,-63.70992366412214,-13.618320610687023,0.0
11.68000054359436,-9.816226806640625,2.942473840332031,0.02154781494140625,36.6412213740458,92.79389312977099,-5.603053435114504,-11.891999645996092,0.40222587890625,1.9488801513671874,-26.0,-80.09160305343511,-15.725190839694656,0.0
11.690000534057617,-11.832144604492187,5.628768103027343,1.446097802734375,20.38167938931298,93.69465648854961,-4.580152671755725,-11.784260571289062,1.1659762084960936,2.0087351928710935,-26.33587786259542,-85.34351145038168,-14.732824427480915,0.0
11.700000286102295,-11.645396875,5.4779333984375,2.291250988769531,-7.694656488549619,86.13740458015268,-2.3206106870229006,-12.105083593749999,1.9728221679687499,0.55545478515625,-30.366412213740457,-93.26717557251908,-13.17557251908397,0.0
11.71000051498413,-10.211270080566406,2.73896669921875,2.3223756103515623,-28.732824427480917,74.80916030534351,-1.099236641221374,-12.167332836914062,3.1196447631835937,0.8834604125976562,-42.045801526717554,-97.45038167938931,-8.82442748091603,0.0
11.720000505447388,-10.062829577636718,0.1149216796875,2.6336218261718747,-27.0381679389313,70.70229007633588,-2.4885496183206106,-12.69884560546875,1.7980454467773437,1.4820108276367188,-40.29007633587786,-105.22137404580153,-3.267175572519084,0.0
11.730000734329224,-10.678139404296875,0.9457096557617187,3.210624426269531,-24.12213740458015,66.41221374045801,-8.442748091603054,-11.841721411132811,2.2744915771484373,0.18435352783203124,-41.69465648854962,-107.63358778625954,-2.6717557251908395,0.0
11.740000486373901,-9.473855969238281,-1.0390835205078124,1.8411410766601561,-21.84732824427481,57.541984732824424,-7.908396946564886,-12.442666027832031,1.1875240234375,0.28490999755859375,-39.49618320610687,-112.59541984732824,-1.099236641221374,0.0
11.750000476837158,-10.103531005859374,0.0718260498046875,1.599326708984375,-9.206106870229007,58.3206106870229,-9.572519083969466,-12.081141577148436,1.1276689819335937,1.0127473022460938,-38.36641221374046,-109.02290076335878,-1.5114503816793894,0.0
11.760000944137573,-11.305420239257812,2.770091320800781,2.50912333984375,-15.908396946564885,52.961832061068705,-11.603053435114504,-10.996568225097656,1.2904746948242187,-0.34237083740234375,-36.88549618320611,-111.41984732824427,-5.175572519083969,0.0
11.770000696182251,-10.465055456542968,2.454056701660156,1.235408056640625,-22.27480916030534,44.76335877862596,-9.694656488549619,-11.259930407714844,0.6631938598632812,-0.24660277099609373,-40.091603053435115,-103.22137404580153,-3.9236641221374047,0.0
11.780000925064087,-10.340556970214843,2.0781670410156248,1.9416975463867185,-21.374045801526716,43.725190839694655,-7.786259541984733,-10.115502014160155,1.189918225097656,-1.0702081420898437,-36.19847328244275,-102.50381679389314,-6.244274809160306,0.0
11.790000677108765,-10.43153663330078,3.6846763549804686,1.1085153686523437,-26.03053435114504,38.961832061068705,-7.00763358778626,-10.69968721923828,0.40222587890625,-0.39264907226562495,-33.89312977099237,-94.29007633587786,-4.8396946564885495,0.0
11.8000009059906,-9.957484704589843,3.3303345092773435,0.8355763793945312,-37.00763358778626,36.412213740458014,-6.793893129770993,-9.052476477050782,1.5251064575195312,-2.6695348510742187,-29.34351145038168,-89.86259541984732,-6.122137404580153,0.0
11.810000658035278,-11.006145031738281,4.92247861328125,1.3072341064453123,-46.56488549618321,33.19083969465649,-7.282442748091603,-10.249577307128906,0.6631938598632812,-1.0917559570312498,-29.709923664122137,-80.03053435114504,-1.4045801526717556,0.0
11.820000886917114,-9.074024291992187,1.697488977050781,-0.076614453125,-58.213740458015266,25.72519083969466,-4.1679389312977095,-8.935160595703124,1.599326708984375,-2.50912333984375,-28.65648854961832,-75.87786259541984,-2.9770992366412212,0.0
11.830000400543213,-9.205705383300781,0.6536170532226562,0.02633621826171875,-40.0,28.80916030534351,-2.16793893129771,-10.302249743652343,0.2561795776367187,-1.4101847778320311,-33.908396946564885,-62.778625954198475,-0.6717557251908397,0.0
11.840001106262207,-9.220070593261719,0.47884033203125,-0.00239420166015625,-37.099236641221374,29.633587786259543,-2.6717557251908395,-10.836156713867187,-0.833182177734375,-1.1923124267578125,-19.251908396946565,-60.58015267175573,1.1755725190839694,0.0
11.850000619888306,-9.440337145996093,0.316034619140625,0.16519991455078123,-24.412213740458014,30.82442748091603,-5.32824427480916,-9.452308154296874,1.419761584472656,-0.9648632690429687,-20.213740458015266,-57.908396946564885,-1.6488549618320612,0.0
11.860000610351562,-9.334992272949219,0.4908113403320312,0.4836287353515625,-20.549618320610687,33.12977099236641,-5.847328244274809,-9.706093530273437,-0.5770026000976562,0.17956512451171874,-22.519083969465647,-51.6793893129771,-1.5419847328244274,0.0
11.87000060081482,-10.137049829101562,0.9983820922851562,0.7685387329101562,-19.64885496183206,33.61832061068702,-9.725190839694656,-9.631873278808593,-0.9361328491210937,-0.0718260498046875,-4.916030534351145,-52.01526717557252,-1.4045801526717556,0.0
11.880000829696655,-9.739612353515625,0.612915625,0.3064578125,-11.86259541984733,34.0,-10.748091603053435,-8.066065393066406,0.6584054565429687,-1.2425906616210938,-10.229007633587786,-47.83206106870229,-6.3816793893129775,0.0
11.890000343322754,-9.313444458007812,0.05027823486328125,0.06464344482421874,-5.862595419847328,35.98473282442748,-9.251908396946565,-9.038111267089842,-1.5011644409179687,1.2904746948242187,-12.045801526717558,-41.43511450381679,-5.083969465648855,0.0
11.900001049041748,-10.874463940429687,0.7565677246093749,0.5027823486328125,10.67175572519084,43.63358778625954,-12.076335877862595,-9.622296472167967,-1.8698714965820311,1.5945383056640625,11.083969465648854,-43.587786259541986,-4.8396946564885495,0.0
11.910000801086426,-9.445125549316407,0.12689268798828124,0.39264907226562495,20.748091603053435,45.00763358778626,-12.65648854961832,-8.786720092773438,-0.5147533569335937,1.4030021728515625,11.129770992366412,-46.76335877862596,-11.267175572519085,0.0
11.920000791549683,-9.670180505371093,1.6448165405273436,0.5195417602539062,24.259541984732824,48.412213740458014,-15.770992366412214,-8.712499841308594,-1.608903515625,1.5682020874023437,12.122137404580153,-40.36641221374046,-12.473282442748092,0.0
11.93000054359436,-9.490615380859374,2.6216508178710938,0.7062894897460937,12.030534351145038,46.16793893129771,-19.129770992366414,-9.787496386718749,-2.1619640991210938,2.109291662597656,22.198473282442748,-42.44274809160305,-11.98473282442748,0.0
11.940000772476196,-9.801861596679688,3.0526071166992184,0.70868369140625,8.580152671755725,43.6793893129771,-20.106870229007633,-8.702923034667968,-0.0909796630859375,1.9752163696289062,21.068702290076335,-47.00763358778626,-16.137404580152673,0.0
11.950000524520874,-9.612719665527344,3.632003918457031,0.5602431884765625,2.4427480916030535,41.6793893129771,-17.893129770992367,-7.594407666015624,0.7517793212890624,2.2553379638671873,13.954198473282442,-38.595419847328245,-18.061068702290076,0.0
11.960000276565552,-10.242394702148436,3.356670727539062,0.8212111694335937,-5.175572519083969,41.49618320610687,-14.793893129770993,-10.433930834960936,-1.5179238525390624,3.4763808105468748,17.46564885496183,-35.603053435114504,-14.229007633587786,0.0
11.970000743865967,-8.461108666992187,3.0023288818359375,1.5203180541992187,-13.48091603053435,34.030534351145036,-10.564885496183207,-9.636661682128906,-0.5722141967773438,3.1938650146484373,28.458015267175572,-44.412213740458014,-16.213740458015266,0.0
11.980000495910645,-10.529698901367187,3.507505432128906,0.8164227661132812,-30.48854961832061,27.34351145038168,-10.229007633587786,-9.794678991699218,0.7493851196289062,2.5378537597656248,22.290076335877863,-43.52671755725191,-19.16030534351145,0.0
11.99000072479248,-10.297461340332031,1.6208745239257811,0.9121908325195311,-30.595419847328245,23.419847328244273,-6.473282442748092,-8.942343200683593,0.3902548706054687,3.0214824951171875,10.702290076335878,-37.98473282442748,-18.519083969465647,0.0
12.000000238418579,-10.307038146972655,1.6472107421875,1.6472107421875,-29.267175572519083,22.50381679389313,-6.5038167938931295,-10.560823522949217,-1.2713210815429687,4.309562988281249,27.328244274809162,-39.80152671755725,-13.34351145038168,0.0
12.010000705718994,-10.386046801757812,0.9121908325195311,1.5969325073242187,-24.442748091603054,17.801526717557252,-6.916030534351145,-10.536881506347656,-0.6823474731445313,4.180276098632812,36.35114503816794,-51.9236641221374,-13.694656488549619,0.0
12.02000117301941,-10.409988818359375,0.6368576416015624,1.4987702392578124,-16.793893129770993,14.106870229007633,-6.809160305343512,-8.616731774902343,1.484405029296875,3.2609026611328122,19.31297709923664,-45.343511450381676,-18.3206106870229,0.0
12.030000925064087,-10.194510668945313,0.9026140258789062,1.7764976318359373,-14.305343511450381,12.534351145038167,-5.862595419847328,-9.14824454345703,-0.4333505004882812,3.402160559082031,11.786259541984732,-41.9236641221374,-15.84732824427481,0.0
12.040001153945923,-10.007762939453125,1.22583125,1.7214309936523438,-9.86259541984733,10.16793893129771,-6.030534351145038,-9.442731347656249,-0.43574470214843747,4.364629626464843,19.786259541984734,-47.465648854961835,-14.854961832061068,0.0
12.0500009059906,-9.734823950195311,1.0845733520507812,1.2665326782226562,-1.7404580152671756,7.083969465648855,-4.305343511450381,-8.245630517578125,1.24498486328125,2.70065947265625,12.458015267175572,-42.534351145038165,-16.702290076335878,0.0
12.060000896453857,-9.890447058105469,1.8148048583984373,1.2832920898437499,0.015267175572519083,6.977099236641221,-3.068702290076336,-7.654262707519531,1.7980454467773437,2.683900061035156,-3.145038167938931,-32.47328244274809,-16.27480916030534,0.0
12.070000886917114,-9.87608184814453,2.346317626953125,1.1372457885742187,-3.2213740458015265,6.213740458015267,-1.5267175572519085,-8.724470849609375,0.009576806640625,3.907337109375,-3.816793893129771,-29.221374045801525,-10.900763358778626,0.0
12.080000638961792,-9.612719665527344,1.7118541870117185,0.8020575561523438,-3.83206106870229,4.717557251908397,-0.549618320610687,-9.088389501953124,-0.7685387329101562,4.429273071289062,-4.290076335877862,-29.297709923664122,-9.694656488549619,0.0
12.090000629425049,-9.651026892089844,1.0845733520507812,0.3711012573242187,-2.3969465648854964,2.7022900763358777,-0.42748091603053434,-8.078036401367187,0.2705447875976562,2.473210314941406,-0.7786259541984732,-31.022900763358777,-12.305343511450381,0.0
12.100001096725464,-9.634267480468749,0.8068459594726562,0.3711012573242187,1.0381679389312977,3.2061068702290076,-1.4961832061068703,-8.195352282714843,-0.08379705810546874,2.770091320800781,-2.8396946564885495,-28.732824427480917,-13.053435114503817,0.0
12.1100013256073,-9.490615380859374,0.6200982299804687,0.3447650390625,3.053435114503817,3.6946564885496183,-2.351145038167939,-8.580818749999999,-0.08379705810546874,3.9169139160156248,-2.5343511450381677,-27.557251908396946,-12.687022900763358,0.0
12.120000839233398,-9.423577734375,0.7134720947265625,0.19393033447265623,6.793893129770993,4.961832061068702,-3.2519083969465647,-6.313509777832031,0.9959878906249999,1.2856862915039062,-12.641221374045802,-25.572519083969464,-14.229007633587786,0.0
12.130000829696655,-8.997409838867187,-0.5602431884765625,-0.34715924072265625,14.198473282442748,5.877862595419847,-1.7251908396946565,-6.272808349609375,1.0726023437499999,2.01112939453125,-20.549618320610687,-16.50381679389313,-11.465648854961833,0.0
12.140000581741333,-8.738836059570312,-0.6057330200195312,-0.5865794067382812,29.480916030534353,11.053435114503817,-2.9923664122137406,-8.01818135986328,-0.9193734375,3.047818713378906,-16.50381679389313,-10.51908396946565,-7.068702290076335,0.0
12.150001287460327,-9.093177905273437,0.32561142578124996,-0.009576806640625,37.908396946564885,17.6793893129771,-6.213740458015267,-7.410054138183593,-0.38307226562499996,2.602497204589844,-11.603053435114504,-10.045801526717558,-7.267175572519084,0.0
12.160000801086426,-10.16338604736328,2.212242333984375,0.5602431884765625,36.152671755725194,20.793893129770993,-7.969465648854962,-7.64229169921875,-1.2641384765625,2.6719290527343746,-7.435114503816794,-5.221374045801527,-7.6183206106870225,0.0
12.170000791549683,-11.0707884765625,3.4715924072265625,0.7541735229492187,20.916030534351144,18.793893129770993,-6.931297709923665,-7.575254052734374,-1.448492004394531,2.592920397949219,0.0,-3.435114503816794,-7.9541984732824424,0.0
12.18000054359436,-9.871293444824218,4.388571643066406,1.1372457885742187,6.290076335877862,15.541984732824428,-5.206106870229007,-7.503428002929687,-1.3048399047851562,2.786850732421875,4.458015267175573,-0.9770992366412213,-7.862595419847328,0.0
12.190000772476196,-8.825027319335938,2.664746447753906,0.70868369140625,-5.236641221374046,11.114503816793894,-2.8091603053435112,-8.075642199707032,-1.4700398193359374,2.858676782226562,10.335877862595419,0.9312977099236641,-6.916030534351145,0.0
12.200000762939453,-9.459490759277344,2.27927998046875,0.5051765502929687,-21.572519083969464,4.106870229007634,-2.1068702290076335,-7.8338278320312495,-1.0941501586914062,2.5857377929687497,14.076335877862595,1.4961832061068703,-6.519083969465649,0.0
12.21000075340271,-9.150638745117186,0.5530605834960938,0.5602431884765625,-11.664122137404581,5.358778625954199,-3.2519083969465647,-7.6087728759765625,-0.948103857421875,2.748543505859375,15.84732824427481,5.251908396946565,-4.3816793893129775,0.0
12.220000505447388,-9.275137231445312,0.2705447875976562,0.6368576416015624,-10.274809160305344,6.106870229007634,-4.793893129770993,-7.639897497558593,-0.469263525390625,2.7174188842773437,19.541984732824428,7.114503816793893,-2.8702290076335877,0.0
12.230000495910645,-9.95987890625,0.7302315063476562,0.9552864624023437,-4.396946564885496,6.870229007633588,-7.114503816793893,-7.570465649414062,-0.39983167724609375,2.7054478759765623,20.47328244274809,10.732824427480915,-0.9923664122137404,0.0
12.240000486373901,-9.737218151855469,0.5889736083984375,0.9816226806640624,0.6412213740458015,6.916030534351145,-7.603053435114504,-7.3669585083007805,-0.3184288208007812,2.5330653564453125,20.519083969465647,13.938931297709924,0.7938931297709924,0.0
12.250000476837158,-9.651026892089844,0.8834604125976562,1.2306196533203124,3.4198473282442747,6.931297709923665,-7.435114503816794,-7.723694555664062,-0.19153613281249998,2.7820623291015623,24.106870229007633,15.770992366412214,2.381679389312977,0.0
12.260000944137573,-9.804255798339844,1.1324573852539062,1.4532804077148436,7.099236641221374,6.183206106870229,-7.32824427480916,-7.644685900878906,-0.09337386474609374,2.9568390502929685,26.732824427480917,18.763358778625953,2.946564885496183,0.0
12.270000696182251,-9.682151513671874,1.3455413330078123,1.6352397338867186,10.15267175572519,5.404580152671755,-5.908396946564886,-7.6087728759765625,-0.3280056274414062,3.1675287963867187,26.412213740458014,21.46564885496183,3.1297709923664123,0.0
12.280000925064087,-9.60793126220703,1.8818425048828125,1.5705962890624998,10.610687022900763,5.358778625954199,-4.931297709923665,-6.830657336425781,1.1468225952148436,3.038241906738281,21.129770992366414,24.900763358778626,1.4961832061068703,0.0
12.290000677108765,-9.828197814941406,2.463633508300781,1.9847931762695312,7.679389312977099,5.175572519083969,-4.33587786259542,-7.9463553100585935,0.3495534423828125,3.806780639648437,21.587786259541986,24.47328244274809,2.732824427480916,0.0
12.300000667572021,-9.90241806640625,2.7198130859375,2.0087351928710935,3.5114503816793894,3.7709923664122136,-4.549618320610687,-8.32463917236328,0.16759411621093748,4.5968671875,15.206106870229007,22.65648854961832,2.0916030534351147,0.0
12.310000896453857,-9.708487731933593,2.592920397949219,2.1739351074218747,0.3969465648854962,1.4809160305343512,-4.793893129770993,-10.081983190917969,-0.6560112548828124,6.430825659179687,8.335877862595419,21.938931297709924,-0.4580152671755725,0.0
12.320000648498535,-9.787496386718749,2.971204260253906,2.817975354003906,-3.2213740458015265,-0.9923664122137404,-5.32824427480916,-10.395623608398436,-0.51714755859375,7.077260107421875,1.3740458015267176,25.068702290076335,-3.1908396946564888,0.0
12.330000638961792,-9.622296472167967,3.0597897216796874,3.0166940917968748,-5.358778625954199,-5.984732824427481,-4.748091603053435,-10.287884533691406,-0.4477157104492187,5.377376928710937,-7.4961832061068705,24.412213740458014,-6.702290076335878,0.0
12.34000039100647,-10.019733947753906,3.421314172363281,3.220201232910156,-5.480916030534351,-10.16793893129771,-4.656488549618321,-10.845733520507812,0.13646949462890623,4.525041137695312,-12.641221374045802,26.33587786259542,-10.183206106870228,0.0
12.350000619888306,-9.746794958496093,3.902548706054687,3.4955344238281247,-4.9465648854961835,-15.145038167938932,-1.3740458015267176,-11.401188305664062,1.2952630981445312,5.913678100585937,-28.38167938931298,28.53435114503817,-10.82442748091603,0.0
12.360000371932983,-10.122684619140625,4.264073156738281,3.4572271972656248,-6.931297709923665,-20.625954198473284,0.8549618320610687,-11.566388220214844,0.37828386230468747,5.664681127929687,-40.045801526717554,28.38167938931298,-8.931297709923664,0.0
12.37000060081482,-9.907206469726562,3.9528269409179684,3.778050219726562,-8.381679389312977,-27.51145038167939,2.9160305343511452,-11.722011328125,-0.9720458740234375,4.903325,-36.12213740458015,22.045801526717558,-7.648854961832061,0.0
12.380000352859497,-10.479420666503906,5.030217687988281,4.173093493652344,-8.320610687022901,-35.083969465648856,5.129770992366412,-10.144232434082031,0.36152445068359373,4.199429711914062,-39.51145038167939,24.366412213740457,-11.068702290076336,0.0
12.390001058578491,-10.764330664062498,5.109226342773437,4.879382983398437,-24.30534351145038,-46.274809160305345,11.038167938931299,-7.168239770507812,0.5027823486328125,3.8474820678710935,-45.954198473282446,31.557251908396946,-12.687022900763358,0.0
12.400001049041748,-9.962273107910155,3.718195178222656,2.96881005859375,-35.80152671755725,-56.70229007633588,17.00763358778626,-9.081206896972656,-0.6943184814453125,3.73495458984375,-44.61068702290076,33.80152671755725,-7.786259541984733,0.0
12.410001277923584,-9.504980590820312,1.944091748046875,1.656787548828125,-41.16030534351145,-63.19083969465649,19.358778625954198,-8.590395556640624,-1.1827356201171875,2.3870190551757813,-38.396946564885496,25.419847328244273,-2.564885496183206,0.0
12.420000791549683,-9.289502441406249,0.9792284790039062,1.4724340209960938,-38.88549618320611,-67.57251908396947,19.6793893129771,-5.894524487304687,0.7996633544921875,1.0486603271484374,-22.229007633587788,19.404580152671755,-2.5801526717557253,0.0
12.430000305175781,-10.319009155273436,-1.199495031738281,1.898601916503906,-46.35114503816794,-72.91603053435115,19.450381679389313,-4.920084411621094,1.0390835205078124,0.967257470703125,-28.35114503816794,28.259541984732824,-1.8473282442748091,0.0
12.440001010894775,-11.298237634277344,-3.3016040893554686,2.626439221191406,-41.80152671755725,-76.13740458015268,17.87786259541985,-7.292738256835937,-1.3455413330078123,2.2673089721679687,-25.46564885496183,32.94656488549618,4.748091603053435,0.0
12.450001001358032,-13.01727442626953,-3.3590649291992185,4.53940634765625,-31.923664122137403,-79.48091603053435,11.893129770992367,-8.52335791015625,-2.142810485839844,2.6144682128906247,-19.435114503816795,30.85496183206107,6.213740458015267,0.0
12.460000991821289,-14.164097021484373,-3.7517140014648436,5.717353564453124,-15.664122137404581,-89.93893129770993,7.557251908396947,-7.740453967285156,-2.35589443359375,-0.35194764404296874,-14.366412213740459,27.908396946564885,2.030534351145038,0.0
12.470000982284546,-15.610194824218748,-2.0350714111328125,7.721300354003906,4.152671755725191,-98.76335877862596,2.717557251908397,-9.018957653808593,-1.7501614135742187,1.5777788940429687,-13.618320610687023,37.43511450381679,-0.04580152671755725,0.0
12.480000495910645,-16.610971118164063,1.024718310546875,9.30147344970703,6.2748091603053435,-112.97709923664122,-2.6106870229007635,-10.196904870605469,-3.268085266113281,1.4245499877929686,-11.740458015267176,40.94656488549618,1.251908396946565,0.0
12.490000486373901,-15.720328100585936,0.842758984375,8.769960681152343,11.98473282442748,-132.73282442748092,-5.679389312977099,-10.929530578613281,-3.105279553222656,0.8547299926757812,-3.450381679389313,42.396946564885496,-2.4732824427480917,0.0
12.500000238418579,-15.306131213378904,2.398990063476562,7.644685900878906,7.938931297709924,-151.75572519083968,-8.244274809160306,-9.878476049804688,-2.592920397949219,1.180341418457031,-13.923664122137405,48.29007633587786,-8.610687022900763,0.0
12.510001182556152,-13.903129040527343,2.001552587890625,5.9376201171875,-7.8320610687022905,-169.2824427480916,-10.610687022900763,-10.20887587890625,-2.5737667846679684,1.5490484741210937,-11.679389312977099,57.38931297709924,-8.427480916030534,0.0
12.520001411437988,-12.445060229492187,-0.25139117431640623,3.8379052612304685,-23.00763358778626,-185.45038167938932,-14.885496183206106,-10.381258398437499,-2.683900061035156,2.0087351928710935,1.4809160305343512,55.83206106870229,-8.305343511450381,0.0
12.530000448226929,-12.550405102539061,-1.5897499023437498,1.5035586425781249,-26.931297709923665,-193.80152671755727,-16.259541984732824,-9.5384994140625,-1.659181750488281,1.656787548828125,11.938931297709924,51.221374045801525,-9.877862595419847,0.0
12.540000677108765,-12.366051574707031,-2.360682836914062,0.6440402465820312,-11.587786259541986,-193.25190839694656,-16.885496183206108,-9.380482104492186,-1.5562310791015623,2.1212626708984375,11.022900763358779,54.51908396946565,-9.312977099236642,0.0
12.550000667572021,-11.939883679199218,-3.6056677001953124,-0.488417138671875,11.618320610687023,-187.70992366412213,-11.587786259541986,-10.153809240722655,-1.2880804931640624,2.7054478759765623,19.709923664122137,49.74045801526717,-6.213740458015267,0.0
12.560000658035278,-11.077971081542968,-4.3430818115234375,-0.8930372192382812,45.14503816793893,-178.73282442748092,-6.473282442748092,-7.656656909179687,0.6967126831054687,0.7876923461914062,6.488549618320611,49.37404580152672,-6.458015267175573,0.0
12.570000648498535,-11.59990704345703,-3.4811692138671875,-0.8738836059570312,68.29007633587786,-166.74809160305344,-2.5801526717557253,-10.134655627441406,-1.0797849487304687,1.5442600708007812,1.2213740458015268,53.725190839694655,1.8931297709923665,0.0
12.580000638961792,-11.501744775390625,-1.9416975463867185,-1.5777788940429687,75.22137404580153,-155.54198473282443,-2.183206106870229,-9.969455712890625,-0.5027823486328125,1.1324573852539062,3.66412213740458,48.94656488549618,6.290076335877862,0.0
12.590000629425049,-12.818555688476561,-0.258573779296875,-0.9193734375,74.67175572519083,-144.6412213740458,-3.49618320610687,-9.737218151855469,-1.4006079711914061,0.842758984375,-3.0229007633587788,56.0,9.16030534351145,0.0
12.600000381469727,-11.305420239257812,0.7422025146484375,-1.1563994018554686,69.05343511450381,-132.3206106870229,-2.366412213740458,-10.228029492187499,-2.5809493896484375,1.01514150390625,8.51908396946565,53.954198473282446,11.32824427480916,0.0
12.610000371932983,-9.82580361328125,1.0917559570312498,-1.218648645019531,59.786259541984734,-122.61068702290076,-2.7022900763358777,-9.05965908203125,-1.5969325073242187,-0.3399766357421875,10.931297709923664,56.97709923664122,8.473282442748092,0.0
12.62000060081482,-9.540893615722656,2.013523596191406,-0.39983167724609375,50.74809160305343,-106.27480916030534,0.4580152671755725,-9.751583361816406,-3.4332851806640625,-0.4525041137695312,9.938931297709924,62.85496183206107,10.229007633587786,0.0
12.630000829696655,-9.045293872070312,1.0534487304687499,-0.8020575561523438,38.51908396946565,-96.85496183206106,4.106870229007634,-10.319009155273436,-4.3071687866210935,0.27293898925781246,24.412213740458014,60.70229007633588,11.954198473282442,0.0
12.640000343322754,-7.601590270996093,-0.1771709228515625,-0.5219359619140624,43.954198473282446,-82.82442748091603,7.343511450381679,-8.657433203124999,-2.7748797241210936,-1.3814543579101561,28.0,61.25190839694657,9.297709923664122,0.0
12.650000810623169,-8.418013037109375,1.9967641845703124,0.9145850341796874,35.465648854961835,-69.23664122137404,6.519083969465649,-9.97903251953125,-2.3391350219726563,0.22026655273437498,30.15267175572519,64.35114503816794,12.458015267175572,0.0
12.660000562667847,-8.279149340820313,1.3311761230468748,0.6703764648437499,20.259541984732824,-65.74045801526718,7.648854961832061,-10.369287390136718,-1.8602946899414061,0.7422025146484375,43.25190839694657,64.51908396946565,14.900763358778626,0.0
12.670000791549683,-6.643909606933593,-0.5363011718749999,0.4261678955078125,22.99236641221374,-56.06106870229008,9.84732824427481,-9.734823950195311,-0.3854664672851562,0.16519991455078123,38.58015267175573,63.86259541984733,15.236641221374045,0.0
12.68000054359436,-7.194575988769531,-0.5530605834960938,0.5339069702148437,26.442748091603054,-45.6793893129771,9.740458015267176,-11.441889733886718,-2.4660277099609376,1.3527239379882812,44.396946564885496,64.18320610687023,20.641221374045802,0.0
12.690000534057617,-5.348646508789062,-1.235408056640625,-0.4860229370117187,29.14503816793893,-39.49618320610687,8.641221374045802,-10.273519323730468,-0.7852981445312499,0.6177040283203125,51.221374045801525,55.61832061068702,21.068702290076335,0.0
12.700000524520874,-5.178658190917968,-0.6823474731445313,-0.22026655273437498,33.74045801526717,-29.786259541984734,6.152671755725191,-9.658209497070311,0.9145850341796874,0.229843359375,39.64885496183206,58.12213740458015,21.389312977099237,0.0
12.71000051498413,-6.5768719604492185,1.180341418457031,0.6967126831054687,25.267175572519083,-19.755725190839694,5.083969465648855,-9.533711010742186,0.584185205078125,1.120486376953125,36.42748091603053,59.83206106870229,25.114503816793892,0.0
12.720000743865967,-8.21690009765625,1.7741034301757812,1.0726023437499999,12.610687022900763,-15.755725190839694,4.656488549618321,-11.037269653320312,-1.8507178833007811,1.5059528442382812,38.458015267175576,52.732824427480914,29.770992366412212,0.0
12.730000495910645,-5.97592734375,0.38307226562499996,0.5219359619140624,11.068702290076336,-14.396946564885496,8.580152671755725,-10.232817895507813,-1.5035586425781249,0.181959326171875,46.778625954198475,45.81679389312977,24.99236641221374,0.0
12.740000486373901,-5.516240625,-1.0558429321289062,-0.24660277099609373,14.900763358778626,-5.267175572519084,9.374045801526718,-9.950302099609374,-1.2976572998046874,0.18435352783203124,37.908396946564885,40.19847328244275,24.80916030534351,0.0
12.750000238418579,-3.9719805541992184,-1.4341267944335936,-0.16998831787109375,16.442748091603054,4.6106870229007635,7.3893129770992365,-8.942343200683593,0.6967126831054687,1.1731588134765625,21.19083969465649,40.595419847328245,22.244274809160306,0.0
12.760000944137573,-4.359841223144531,-1.0342951171875,0.19153613281249998,10.442748091603054,11.16030534351145,2.732824427480916,-9.3852705078125,0.105344873046875,1.3814543579101561,22.106870229007633,40.35114503816794,22.82442748091603,0.0
12.770000696182251,-5.432443566894531,0.24899697265624998,2.4684219116210935,15.114503816793894,24.732824427480917,-4.442748091603053,-10.24000050048828,-1.4724340209960938,1.7884686401367187,28.48854961832061,34.68702290076336,23.236641221374047,0.0
12.780001163482666,-6.021417175292968,1.7788918334960937,3.0358477050781247,-4.931297709923665,19.267175572519083,-10.381679389312977,-10.117896215820313,-1.1563994018554686,2.1547814941406247,28.732824427480917,30.076335877862597,19.770992366412212,0.0
12.790000677108765,-6.366182214355469,2.5665841796874997,3.833116857910156,-14.320610687022901,21.633587786259543,-9.572519083969466,-10.081983190917969,-1.3766659545898436,2.166752502441406,22.15267175572519,27.34351145038168,16.641221374045802,0.0
12.800000667572021,-6.241683728027343,3.3686417358398435,4.144363073730468,-27.0381679389313,23.709923664122137,-8.244274809160306,-9.928754284667969,-1.5945383056640625,2.195482922363281,20.30534351145038,23.358778625954198,15.17557251908397,0.0
12.810000658035278,-6.373364819335937,3.373430139160156,4.594472985839843,-39.404580152671755,23.64885496183206,-8.183206106870228,-9.406818322753905,-1.235408056640625,1.7764976318359373,18.99236641221374,25.328244274809162,12.366412213740459,0.0
12.820000886917114,-6.155492468261718,2.1021090576171875,4.896142395019531,-45.083969465648856,24.870229007633586,-6.412213740458015,-8.37012900390625,-1.35990654296875,0.5099649536132812,20.259541984732824,23.328244274809162,11.770992366412214,0.0
12.830000638961792,-4.6255976074218745,-1.005564697265625,4.690241052246093,-33.14503816793893,30.259541984732824,-4.641221374045801,-9.533711010742186,-2.059013427734375,1.1731588134765625,27.709923664122137,24.53435114503817,8.900763358778626,0.0
12.840000629425049,-5.252878442382812,-1.455674609375,5.597643481445312,-14.870229007633588,40.458015267175576,-7.3893129770992365,-9.169792358398437,-1.0702081420898437,0.3016694091796875,26.748091603053435,27.16030534351145,9.679389312977099,0.0
12.850000619888306,-6.277596752929687,-0.24899697265624998,5.973533142089844,-9.007633587786259,45.404580152671755,-10.83969465648855,-9.543287817382812,-0.411802685546875,0.40462008056640625,7.206106870229007,27.114503816793892,9.34351145038168,0.0
12.860000848770142,-6.062118603515625,-1.5322890624999999,5.743689782714843,-1.5267175572519085,49.25190839694657,-11.419847328244275,-10.09395419921875,-1.149216796875,1.3407529296874998,7.908396946564886,31.84732824427481,13.633587786259541,0.0
12.87000060081482,-6.234501123046875,-2.379836450195312,5.990292553710937,31.053435114503817,59.16030534351145,-11.389312977099237,-10.491391674804687,-1.9393033447265624,1.4891934326171874,18.412213740458014,36.97709923664122,12.045801526717558,0.0
12.880000352859497,-7.134720947265625,-1.0845733520507812,5.453991381835937,54.732824427480914,67.57251908396947,-14.16793893129771,-9.995791931152343,-1.209071838378906,1.8938135131835936,14.931297709923664,32.6412213740458,9.86259541984733,0.0
12.890001058578491,-7.244854223632812,-1.005564697265625,4.048595007324218,63.93893129770992,70.91603053435115,-15.068702290076336,-9.45470235595703,-0.2346317626953125,1.6041151123046875,10.51908396946565,32.79389312977099,8.992366412213741,0.0
12.90000057220459,-8.341398583984375,1.0127473022460938,4.728548278808593,69.72519083969466,77.34351145038168,-16.82442748091603,-8.722076647949219,1.235408056640625,0.42377369384765623,-6.748091603053435,34.152671755725194,9.450381679389313,0.0
12.910000801086426,-9.370905297851563,1.5227122558593749,5.446808776855469,65.69465648854961,75.52671755725191,-14.854961832061068,-9.900023864746093,-0.5027823486328125,2.437297290039062,-8.534351145038167,39.51145038167939,15.206106870229007,0.0
12.920000314712524,-10.66856259765625,2.3032219970703123,7.127538342285156,73.92366412213741,75.95419847328245,-10.625954198473282,-10.66137999267578,-1.7573440185546874,2.1116858642578125,-2.885496183206107,37.69465648854962,16.0,0.0
12.930001020431519,-11.590330236816406,2.959233251953125,7.019799267578125,70.58015267175573,67.52671755725191,-5.114503816793893,-10.386046801757812,-1.4820108276367188,1.5538368774414062,-4.763358778625954,33.11450381679389,12.091603053435115,0.0
12.940001010894775,-12.605471740722656,4.197035510253906,7.991845141601562,68.8854961832061,62.19847328244275,2.717557251908397,-9.919177478027343,-1.4628572143554686,1.1085153686523437,-12.625954198473282,30.30534351145038,11.312977099236642,0.0
12.950001001358032,-14.528015673828124,6.672640026855468,9.888052856445311,52.56488549618321,49.847328244274806,8.67175572519084,-11.049240661621093,-3.1172505615234374,2.3965958618164063,-10.534351145038167,28.38167938931298,11.389312977099237,0.0
12.96000051498413,-14.489708447265624,5.865794067382812,8.990227233886719,31.053435114503817,33.29770992366412,13.267175572519085,-10.651803186035156,-4.149151477050781,1.7405846069335937,9.435114503816793,27.557251908396946,3.3282442748091605,0.0
12.970000743865967,-11.73398233642578,3.1316157714843746,5.674257934570313,12.259541984732824,13.969465648854962,15.877862595419847,-11.034875451660156,-4.651933825683593,1.89620771484375,20.549618320610687,7.435114503816794,6.67175572519084,0.0
12.980001211166382,-11.81777939453125,1.8602946899414061,4.458003491210937,4.015267175572519,15.755725190839694,11.770992366412214,-10.93671318359375,-3.5721488769531247,1.7166425903320313,22.076335877862597,-5.175572519083969,4.778625954198473,0.0
12.990000486373901,-10.606313354492187,4.821922143554687,2.243366955566406,-30.396946564885496,7.755725190839694,3.404580152671756,-9.533711010742186,-1.1276689819335937,1.0438719238281249,12.793893129770993,-11.923664122137405,6.229007633587786,0.0
13.000000953674316,-7.486668591308593,1.5729904907226562,-0.7613561279296874,-42.83969465648855,9.038167938931299,6.1679389312977095,-9.380482104492186,0.948103857421875,2.6312276245117188,6.320610687022901,-19.587786259541986,1.1908396946564885,0.0
13.010000467300415,-6.449979272460937,1.5969325073242187,0.5458779785156249,-32.29007633587786,24.412213740458014,5.022900763358779,-10.20169327392578,-0.41898529052734373,1.7525556152343749,-3.480916030534351,-21.236641221374047,1.1603053435114503,0.0
13.02000093460083,-5.571307263183593,-0.01915361328125,-1.0893617553710937,-31.69465648854962,28.946564885496183,5.297709923664122,-10.75714805908203,-0.07422025146484375,0.8714894042968749,-2.0763358778625953,-26.931297709923665,-1.83206106870229,0.0
13.030000686645508,-5.7508723876953125,-1.005564697265625,0.16519991455078123,-12.625954198473282,48.44274809160305,5.480916030534351,-11.540052001953125,-1.2593500732421874,2.9951462768554684,-25.206106870229007,-34.595419847328245,-2.6717557251908395,0.0
13.040001153945923,-6.579266162109374,0.5913678100585937,0.33758243408203126,0.030534351145038167,63.98473282442748,2.7786259541984735,-11.939883679199218,-2.492363928222656,2.806004345703125,-10.030534351145038,-42.87022900763359,-9.282442748091603,0.0
13.050000667572021,-3.19865341796875,-1.4772224243164063,-2.0278888061523435,13.19083969465649,66.76335877862596,8.564885496183207,-11.317391247558593,-0.36631285400390623,1.4987702392578124,-4.854961832061068,-51.29770992366412,-15.954198473282442,0.0
13.060000658035278,-6.330269189453125,1.7621324218749999,-0.3806780639648437,34.0,91.37404580152672,7.679389312977099,-12.887987536621093,-0.5243301635742187,2.4061726684570313,-30.85496183206107,-62.030534351145036,-17.282442748091604,0.0
13.070000648498535,-9.423577734375,3.746925598144531,-0.22026655273437498,26.106870229007633,96.47328244274809,9.083969465648854,-13.426682910156249,-0.023942016601562498,2.0254946044921875,-12.351145038167939,-63.7557251908397,-18.916030534351144,0.0
13.080000638961792,-11.176133349609374,4.218583325195312,2.0470424194335934,16.259541984732824,98.6412213740458,13.541984732824428,-16.282965490722656,-0.9911994873046874,1.9871873779296874,-26.9618320610687,-86.44274809160305,-13.465648854961833,0.0
13.090000629425049,-11.1474029296875,3.9408559326171875,1.707065783691406,11.206106870229007,99.89312977099236,14.366412213740459,-15.29655440673828,2.166752502441406,3.2561142578125,-22.916030534351144,-92.27480916030534,-12.0,0.0
13.100000381469727,-10.467449658203124,2.2002713256835937,2.3630770385742186,-4.442748091603053,92.83969465648855,15.923664122137405,-14.54956348876953,2.319981408691406,3.7014357666015623,-27.740458015267176,-103.43511450381679,-7.480916030534351,0.0
13.110000610351562,-11.487379565429686,2.2194249389648437,3.0813375366210938,-18.50381679389313,86.0,11.358778625954198,-12.880804931640624,3.0813375366210938,2.729389892578125,-21.282442748091604,-109.41984732824427,-4.366412213740458,0.0
13.12000060081482,-11.082759484863281,0.5315127685546874,3.0597897216796874,-24.12213740458015,76.83969465648855,8.229007633587786,-13.721169714355469,2.059013427734375,3.3016040893554686,-41.57251908396947,-117.89312977099236,1.7251908396946565,0.0
13.130000829696655,-11.135431921386719,-0.6081272216796875,2.04943662109375,-27.46564885496183,69.92366412213741,3.8931297709923665,-12.014103930664062,2.27927998046875,1.6615759521484375,-26.0,-122.04580152671755,2.7938931297709924,0.0
13.140000820159912,-10.864887133789061,-0.8786720092773437,1.5275006591796874,-19.984732824427482,67.66412213740458,-1.633587786259542,-11.346121667480467,2.2002713256835937,0.8092401611328125,-36.68702290076336,-121.46564885496183,4.259541984732825,0.0
13.150000810623169,-10.74517705078125,0.3711012573242187,1.5538368774414062,-23.053435114503817,63.05343511450382,-6.106870229007634,-9.727641345214844,2.7916391357421872,-0.3591302490234375,-36.12213740458015,-122.44274809160305,1.9541984732824427,0.0
13.160000801086426,-10.39322940673828,0.01915361328125,0.6105214233398437,-22.412213740458014,56.778625954198475,-7.129770992366412,-10.704475622558594,1.24498486328125,-0.009576806640625,-39.29770992366412,-116.62595419847328,2.183206106870229,0.0
13.17000126838684,-9.931148486328125,-0.852335791015625,1.0821791503906248,-11.86259541984733,59.267175572519086,-7.511450381679389,-9.526528405761718,1.3359645263671873,-0.11731588134765625,-47.45038167938932,-111.20610687022901,-1.8015267175572518,0.0
13.180001020431519,-11.44667813720703,2.5522189697265625,1.4604630126953124,-14.290076335877863,59.29770992366412,-10.687022900763358,-9.234435803222656,0.5099649536132812,-1.5658078857421873,-43.847328244274806,-104.83969465648855,-0.7175572519083969,0.0
13.190000772476196,-10.429142431640624,2.7078420776367187,0.239420166015625,-27.16030534351145,52.152671755725194,-10.82442748091603,-10.117896215820313,-0.6847416748046875,-2.6695348510742187,-46.80916030534351,-94.79389312977099,0.5801526717557252,0.0
13.200000762939453,-9.244012609863281,1.1228805786132812,-0.45010991210937495,-26.885496183206108,50.0,-8.122137404580153,-9.131485131835937,1.6711527587890624,-2.5713725830078125,-36.18320610687023,-90.7175572519084,1.1145038167938932,0.0
13.210000991821289,-8.91840118408203,0.4213794921875,0.5099649536132812,-16.778625954198475,52.48854961832061,-8.931297709923664,-10.412383020019531,0.7038952880859375,-1.8339584716796873,-26.564885496183205,-80.19847328244275,6.427480916030534,0.0
13.220000743865967,-9.528922607421874,0.7206546997070312,1.89620771484375,-11.19083969465649,53.603053435114504,-11.603053435114504,-9.124302526855468,2.3056161987304686,-2.7054478759765623,-28.458015267175572,-74.73282442748092,6.748091603053435,0.0
13.230000495910645,-8.465897070312499,1.3527239379882812,1.4604630126953124,-11.17557251908397,47.770992366412216,-12.274809160305344,-10.122684619140625,1.139639990234375,-2.3295582153320313,-25.129770992366414,-62.2442748091603,10.50381679389313,0.0
13.240000486373901,-11.001356628417968,3.8043864379882812,2.5905261962890624,-16.076335877862597,46.30534351145038,-15.145038167938932,-9.995791931152343,1.2928688964843749,-1.8555062866210936,-24.0,-56.656488549618324,11.053435114503817,0.0
13.250000715255737,-9.85692823486328,2.2026655273437497,1.2928688964843749,-22.259541984732824,37.16030534351145,-13.404580152671755,-8.0062103515625,1.7214309936523438,-1.7717092285156248,-29.480916030534353,-48.396946564885496,9.404580152671755,0.0
13.260000705718994,-9.976638317871092,1.2138602416992186,1.4030021728515625,-16.259541984732824,36.25954198473283,-11.511450381679388,-9.251195214843749,-0.967257470703125,-0.39743747558593745,-28.610687022900763,-41.25190839694657,14.564885496183207,0.0
13.270000696182251,-8.882488159179687,-1.0390835205078124,0.9002198242187499,2.885496183206107,36.74809160305343,-10.732824427480915,-9.332598071289063,-1.4915876342773438,-0.6631938598632812,-7.282442748091603,-38.87022900763359,13.16030534351145,0.0
13.280000925064087,-10.66856259765625,2.109291662597656,1.5059528442382812,6.244274809160306,35.3587786259542,-13.404580152671755,-8.152256652832031,0.12449848632812499,-0.4860229370117187,-4.748091603053435,-35.404580152671755,7.099236641221374,0.0
13.290000677108765,-10.168174450683592,2.109291662597656,1.3575123413085937,1.3435114503816794,33.099236641221374,-13.114503816793894,-7.070077502441406,-1.197100830078125,0.4908113403320312,-8.427480916030534,-31.114503816793892,6.488549618320611,0.0
13.300000667572021,-9.325415466308593,1.484405029296875,1.0726023437499999,7.3893129770992365,35.343511450381676,-11.358778625954198,-9.215282189941405,-3.938461730957031,1.8770541015625,1.9236641221374047,-32.656488549618324,8.717557251908397,0.0
13.310000896453857,-10.08677159423828,2.0566192260742184,0.5578489868164063,2.1068702290076335,32.3206106870229,-12.427480916030534,-9.2320416015625,-2.96881005859375,2.7724855224609373,25.862595419847327,-39.16030534351145,4.595419847328245,0.0
13.320000648498535,-10.268730920410155,2.3223756103515623,0.7062894897460937,9.526717557251908,35.12977099236641,-13.007633587786259,-7.869740856933594,-0.7685387329101562,1.6711527587890624,20.671755725190838,-42.36641221374046,-2.9160305343511452,0.0
13.330000400543213,-9.65342109375,2.2194249389648437,0.6392518432617187,12.748091603053435,39.25190839694657,-10.427480916030534,-8.243236315917969,-0.928950244140625,3.2130186279296873,21.0381679389313,-38.36641221374046,-4.488549618320611,0.0
13.340000629425049,-10.237606298828124,2.923320227050781,0.9816226806640624,7.32824427480916,42.412213740458014,-11.541984732824428,-9.112331518554686,-1.209071838378906,3.0933085449218747,30.061068702290076,-44.74809160305343,-4.900763358778626,0.0
13.350000619888306,-9.363722692871093,2.3439234252929686,0.5626373901367188,0.916030534351145,39.51145038167939,-11.32824427480916,-8.750807067871094,1.9656395629882812,3.1196447631835937,20.30534351145038,-49.05343511450382,-8.076335877862595,0.0
13.360000371932983,-9.200916979980468,1.2210428466796874,0.0143652099609375,-10.106870229007633,34.85496183206107,-9.98473282442748,-9.679757312011718,0.7326257080078125,4.376600634765625,16.015267175572518,-46.916030534351144,-3.816793893129771,0.0
13.370001077651978,-9.370905297851563,0.8044517578125,0.5434837768554687,-1.8015267175572518,38.18320610687023,-10.702290076335878,-9.787496386718749,1.1156979736328125,3.9360675292968748,16.671755725190838,-52.916030534351144,-0.8396946564885496,0.0
13.380000829696655,-8.939948999023438,0.016759411621093748,0.08140285644531249,6.763358778625954,36.87022900763359,-11.312977099236642,-7.742848168945312,3.766079211425781,2.693476867675781,-0.13740458015267176,-48.3206106870229,-4.106870229007634,0.0
13.390000820159912,-8.396465222167969,1.8148048583984373,0.3495534423828125,4.0,36.10687022900763,-12.80916030534351,-9.1554271484375,0.6703764648437499,4.017470385742187,-8.793893129770993,-43.16030534351145,2.0763358778625953,0.0
13.400000810623169,-10.754753857421875,2.2649147705078123,0.5363011718749999,-3.7557251908396947,34.045801526717554,-16.061068702290076,-8.827421520996094,1.6903063720703124,2.73896669921875,-2.4122137404580153,-45.847328244274806,1.4961832061068703,0.0
13.410001039505005,-10.69968721923828,2.463633508300781,0.8020575561523438,-3.7709923664122136,27.862595419847327,-15.251908396946565,-8.327033374023436,1.7788918334960937,2.8993782104492185,-23.328244274809162,-40.54961832061068,0.4122137404580153,0.0
13.420000553131104,-9.95987890625,2.272097375488281,1.1707646118164061,-4.106870229007634,25.938931297709924,-13.053435114503817,-10.366893188476562,-1.2401964599609374,4.115632653808594,-18.091603053435115,-41.17557251908397,3.49618320610687,0.0
13.43000054359436,-10.364498986816406,2.6192566162109374,1.1252747802734375,-1.1755725190839694,22.03053435114504,-11.251908396946565,-10.747571252441405,-1.350329736328125,3.35188232421875,-6.900763358778626,-44.717557251908396,1.2061068702290076,0.0
13.440000772476196,-10.73799444580078,3.318363500976562,0.7781155395507812,5.404580152671755,18.85496183206107,-7.603053435114504,-9.409212524414063,-0.11013327636718749,3.294421484375,-16.076335877862597,-37.404580152671755,-4.2748091603053435,0.0
13.450000762939453,-10.694898815917968,3.7134067749023436,0.9337386474609375,-0.6106870229007634,17.740458015267176,-3.145038167938931,-9.811438403320311,-2.3415292236328122,4.299986181640625,-5.1603053435114505,-35.63358778625954,-3.1603053435114505,0.0
13.46000051498413,-10.230423693847655,2.5665841796874997,0.852335791015625,-2.2748091603053435,14.274809160305344,-2.564885496183206,-9.701305126953125,-1.2904746948242187,4.182670300292968,6.305343511450381,-36.88549618320611,-3.2213740458015265,0.0
13.470000743865967,-9.804255798339844,2.157175695800781,0.9528922607421875,3.480916030534351,12.381679389312977,-2.427480916030534,-7.503428002929687,0.8786720092773437,2.0183119995117185,0.8396946564885496,-37.29770992366412,-9.893129770992367,0.0
13.480000734329224,-9.236830004882812,2.3319524169921872,1.0271125122070313,2.6259541984732824,11.587786259541986,-2.6106870229007635,-8.609549169921875,-0.23223756103515625,3.7301661865234372,-3.801526717557252,-25.34351145038168,-8.473282442748092,0.0
13.49000096321106,-9.272743029785156,2.47081611328125,1.0702081420898437,2.198473282442748,10.351145038167939,-2.6717557251908395,-10.101136804199218,-1.467645617675781,5.068524914550781,2.1374045801526718,-23.740458015267176,-7.3893129770992365,0.0
13.500000476837158,-9.270348828125,1.8746598999023436,0.8738836059570312,7.221374045801527,7.862595419847328,-2.717557251908397,-9.342174877929686,-0.40940848388671874,4.007893579101562,6.595419847328245,-24.106870229007633,-9.389312977099237,0.0
13.510001182556152,-9.564835632324218,1.707065783691406,0.8954314208984374,12.564885496183207,7.3893129770992365,-3.1297709923664123,-8.825027319335938,0.19393033447265623,3.478775012207031,4.854961832061068,-20.137404580152673,-14.15267175572519,0.0
13.52000093460083,-9.706093530273437,1.7669208251953124,0.928950244140625,13.374045801526718,7.129770992366412,-3.404580152671756,-8.489839086914062,-0.47165772705078124,3.6200329101562496,2.6259541984732824,-13.206106870229007,-17.16030534351145,0.0
13.530000686645508,-9.957484704589843,2.0781670410156248,0.7972691528320313,13.770992366412214,6.427480916030534,-4.213740458015267,-7.216123803710937,0.6009446166992187,3.4356793823242184,-3.5114503816793894,-5.358778625954199,-18.870229007633586,0.0
13.540001153945923,-10.122684619140625,2.4157494750976563,0.9552864624023437,10.229007633587786,5.0534351145038165,-5.221374045801527,-8.113949426269532,-0.8283937744140625,3.725377783203125,-1.8473282442748091,0.5801526717557252,-15.923664122137405,0.0
13.5500009059906,-10.146626635742187,2.2290017456054687,0.9720458740234375,8.763358778625955,2.4732824427480917,-6.488549618320611,-9.006986645507812,-1.3215993164062498,4.00310517578125,9.16030534351145,-1.1297709923664123,-15.022900763358779,0.0
13.560000658035278,-10.084377392578125,1.6903063720703124,0.8978256225585937,12.366412213740459,0.2900763358778626,-6.916030534351145,-8.221688500976562,-0.5674257934570313,3.5314474487304683,12.183206106870228,0.07633587786259542,-18.580152671755727,0.0
13.570000648498535,-9.785102185058593,1.2665326782226562,0.8020575561523438,12.870229007633588,-0.015267175572519083,-6.351145038167939,-7.714117749023437,-0.7278373046875,3.299209887695312,17.129770992366414,2.7022900763358777,-21.267175572519083,0.0
13.580000877380371,-9.662997900390625,1.1563994018554686,0.5793968017578125,13.34351145038168,-0.42748091603053434,-6.8396946564885495,-7.589619262695312,-0.7326257080078125,3.258508459472656,21.480916030534353,5.022900763358779,-22.625954198473284,0.0
13.590000867843628,-9.598354455566406,0.9792284790039062,0.612915625,15.16030534351145,-0.7480916030534351,-7.145038167938932,-7.438784558105469,-0.4644751220703125,3.39018955078125,24.99236641221374,6.1679389312977095,-22.549618320610687,0.0
13.600000619888306,-9.473855969238281,0.9888052856445312,0.5195417602539062,16.610687022900763,-0.916030534351145,-8.274809160305344,-7.340622290039062,-0.11252747802734374,3.1268273681640624,26.977099236641223,7.877862595419847,-22.244274809160306,0.0
13.610000371932983,-9.526528405761718,1.0869675537109373,0.43574470214843747,17.31297709923664,-0.8091603053435115,-9.694656488549619,-7.156268762207031,0.21308394775390624,2.8419173706054686,26.748091603053435,10.687022900763358,-21.16030534351145,0.0
13.620000839233398,-9.672574707031249,1.4317325927734375,0.4165910888671875,16.549618320610687,-0.3816793893129771,-10.854961832061068,-7.1203557373046875,0.4429273071289062,2.7078420776367187,25.129770992366414,13.389312977099237,-20.076335877862597,0.0
13.630001306533813,-9.442731347656249,1.39821376953125,0.28012159423828126,15.908396946564885,-0.3511450381679389,-11.145038167938932,-8.046911779785155,0.11013327636718749,3.7110125732421873,27.435114503816795,17.52671755725191,-17.31297709923664,0.0
13.640000820159912,-9.363722692871093,1.599326708984375,0.45968671875,16.259541984732824,0.6259541984732825,-11.908396946564885,-7.7763669921875,0.10295067138671875,2.6671406494140624,25.801526717557252,18.595419847328245,-17.0381679389313,0.0
13.650001049041748,-9.598354455566406,2.3630770385742186,0.5746083984375,13.083969465648854,0.8244274809160306,-12.244274809160306,-7.254431030273437,0.42377369384765623,2.360682836914062,23.00763358778626,20.977099236641223,-17.61832061068702,0.0
13.660000801086426,-9.576806640625,2.4492682983398435,0.6105214233398437,9.053435114503817,0.8549618320610687,-12.213740458015268,-8.06367119140625,-0.411802685546875,2.7820623291015623,23.740458015267176,24.946564885496183,-16.717557251908396,0.0
13.670001029968262,-9.811438403320311,3.6367923217773437,0.8690952026367187,1.297709923664122,1.2213740458015268,-12.396946564885496,-8.010998754882811,-0.12689268798828124,2.616862414550781,24.65648854961832,25.893129770992367,-16.717557251908396,0.0
13.68000078201294,-8.927977990722656,3.3111808959960936,0.7589619262695312,-10.65648854961832,-1.5267175572519085,-10.183206106870228,-7.903259680175781,0.4333505004882812,2.6719290527343746,21.404580152671755,29.19083969465649,-17.022900763358777,0.0
13.690000534057617,-8.813056311035156,2.786850732421875,1.005564697265625,-20.061068702290076,-0.4122137404580153,-10.122137404580153,-6.457161877441406,1.4030021728515625,1.7118541870117185,6.625954198473282,35.29770992366412,-18.625954198473284,0.0
13.700000762939453,-10.608707556152343,3.3638533325195312,1.149216796875,-30.885496183206108,-0.24427480916030533,-11.465648854961833,-8.810662109374999,0.40222587890625,3.6152445068359373,2.3053435114503817,43.221374045801525,-15.145038167938932,0.0
13.71000051498413,-9.0788126953125,2.1691467041015624,0.5506663818359374,-36.35114503816794,-4.793893129770993,-10.549618320610687,-9.622296472167967,-0.21308394775390624,3.77326181640625,-0.6106870229007634,45.221374045801525,-13.16030534351145,0.0
13.720000743865967,-10.036493359375,2.6791116577148437,1.9393033447265624,-40.412213740458014,-2.6106870229007635,-12.396946564885496,-9.550470422363281,-0.13168109130859373,3.7158009765625,-5.129770992366412,44.44274809160305,-15.251908396946565,0.0
13.730000734329224,-10.216058483886718,1.6807295654296874,1.1133037719726562,-39.49618320610687,-7.129770992366412,-11.099236641221374,-9.176974963378905,1.0726023437499999,5.1523219726562495,-14.992366412213741,46.2442748091603,-18.091603053435115,0.0
13.740000247955322,-8.882488159179687,0.19871873779296872,1.4939818359375,-32.13740458015267,-7.114503816793893,-9.16030534351145,-10.232817895507813,0.6464344482421874,6.368576416015625,-33.587786259541986,46.88549618320611,-20.3206106870229,0.0
13.750000953674316,-9.507374792480467,1.5801730957031248,2.319981408691406,-17.17557251908397,-0.9618320610687023,-11.557251908396946,-13.129801904296874,-2.2768857788085937,10.742782849121093,-31.053435114503817,28.061068702290076,-19.541984732824428,0.0
13.760000944137573,-10.182539660644531,3.066972326660156,2.521094348144531,-24.33587786259542,-6.213740458015267,-11.923664122137405,-13.383587280273437,-1.9823989746093749,10.311826550292968,-16.519083969465647,27.00763358778626,-19.267175572519083,0.0
13.77000093460083,-10.24718310546875,2.7940333374023436,2.6336218261718747,-21.633587786259543,-10.259541984732824,-9.435114503816793,-11.149797131347656,-1.1851298217773436,7.68059892578125,-13.587786259541986,15.16030534351145,-20.641221374045802,0.0
13.780000925064087,-9.991003527832031,2.3367408203125,2.9640216552734375,-19.51145038167939,-13.709923664122137,-6.748091603053435,-10.084377392578125,-0.19153613281249998,7.3861121215820305,-6.488549618320611,6.793893129770993,-19.862595419847327,0.0
13.790000915527344,-9.847351428222655,1.9991583862304687,3.0119056884765625,-17.31297709923664,-18.458015267175572,-5.648854961832061,-9.143456140136719,1.1540052001953125,5.820304235839844,-4.320610687022901,0.15267175572519084,-18.83969465648855,0.0
13.8000009059906,-9.82580361328125,2.042254016113281,3.1962592163085937,-13.603053435114504,-23.068702290076335,-5.038167938931298,-8.135497241210937,1.8555062866210936,4.151545678710937,-15.694656488549619,7.7251908396946565,-16.793893129770993,0.0
13.810000896453857,-11.654973681640625,4.446032482910156,4.592078784179687,-24.519083969465647,-28.778625954198475,-4.152671755725191,-8.145074047851562,1.5658078857421873,3.7205893798828122,-21.221374045801525,17.69465648854962,-11.374045801526718,0.0
13.820000648498535,-10.77630167236328,3.5960908935546874,4.484339709472656,-31.46564885496183,-45.343511450381676,2.4732824427480917,-7.582436657714843,1.6017209106445311,1.6519991455078125,-28.610687022900763,19.72519083969466,-7.083969465648855,0.0
13.830000638961792,-10.771513269042968,2.47081611328125,4.912901806640625,-28.885496183206108,-54.88549618320611,8.748091603053435,-7.785943798828124,0.7829039428710937,2.6958710693359373,-20.65648854961832,16.366412213740457,-1.9236641221374047,0.0
13.840000867843628,-11.401188305664062,1.7645266235351562,4.6639048339843745,-25.740458015267176,-65.41984732824427,10.412213740458014,-7.5537062377929685,0.2609679809570312,1.4820108276367188,-14.885496183206106,16.763358778625953,0.9007633587786259,0.0
13.850000858306885,-11.801019982910155,1.9129671264648436,5.015852478027344,-31.64885496183206,-78.25954198473282,8.51908396946565,-6.366182214355469,-0.16280571289062498,0.8834604125976562,-18.412213740458014,19.801526717557252,-0.6717557251908397,0.0
13.860000848770142,-11.166556542968749,-0.09816226806640624,3.9935283691406247,-31.221374045801525,-88.56488549618321,8.244274809160306,-8.039729174804688,-1.16837041015625,2.7246014892578123,-19.87786259541985,27.17557251908397,-0.15267175572519084,0.0
13.870001077651978,-11.652579479980469,-0.6248866333007812,4.149151477050781,-30.778625954198475,-95.32824427480917,3.7404580152671754,-7.5537062377929685,-1.0079588989257813,1.467645617675781,-29.435114503816795,35.87786259541985,-0.8091603053435115,0.0
13.880000829696655,-11.003750830078124,-2.3367408203125,4.604049792480469,-28.198473282442748,-105.54198473282443,-1.4809160305343512,-7.766790185546874,-0.7038952880859375,0.8475473876953125,-34.6412213740458,44.16793893129771,-2.3053435114503817,0.0
13.890001058578491,-12.610260144042968,-1.39821376953125,6.148309863281249,-22.778625954198475,-111.43511450381679,-8.274809160305344,-9.679757312011718,-2.4061726684570313,2.1356278808593747,-41.083969465648856,54.213740458015266,1.3435114503816794,0.0
13.900000810623169,-12.15536182861328,-2.446874096679687,6.909665991210937,-10.610687022900763,-122.12213740458016,-12.458015267175572,-9.629479077148437,-3.392583752441406,0.16998831787109375,-12.488549618320612,43.80152671755725,3.0076335877862594,0.0
13.910001277923584,-13.479355346679686,-1.2042834350585936,7.520187414550781,14.549618320610687,-132.36641221374046,-15.419847328244275,-10.115502014160155,-2.4205378784179685,2.27927998046875,-16.16793893129771,55.267175572519086,-4.091603053435114,0.0
13.920000553131104,-13.613430639648437,-0.5698199951171875,7.754819177246094,29.267175572519083,-142.77862595419847,-15.404580152671755,-11.022904443359375,-3.756502404785156,2.243366955566406,-10.80916030534351,55.00763358778626,-6.870229007633588,0.0
13.93000078201294,-14.743493823242186,0.8690952026367187,7.343016491699219,34.778625954198475,-155.46564885496184,-17.83206106870229,-11.010933435058593,-3.2537200561523436,2.7533319091796873,1.3129770992366412,55.64885496183206,-10.458015267175572,0.0
13.940000772476196,-13.869610217285155,2.0973206542968748,5.710170959472656,28.519083969465647,-169.9083969465649,-17.61832061068702,-9.509768994140625,-2.6886884643554687,0.7661445312499999,-4.67175572519084,55.099236641221374,-15.740458015267176,0.0
13.950000762939453,-13.673285681152343,2.6599580444335937,3.3303345092773435,9.297709923664122,-183.31297709923663,-15.877862595419847,-8.743624462890624,-0.6823474731445313,2.281674182128906,2.9618320610687023,58.732824427480914,-12.580152671755725,0.0
13.96000051498413,-13.345280053710937,0.8379705810546875,1.8291700683593748,-2.931297709923664,-193.5267175572519,-11.419847328244275,-10.565611926269531,-1.8315642700195311,3.438073583984375,9.877862595419847,55.00763358778626,-6.931297709923665,0.0
13.970000743865967,-12.785036865234375,-0.2705447875976562,0.5243301635742187,1.5725190839694656,-192.70229007633588,-4.748091603053435,-9.720458740234374,-0.8906430175781249,2.896984008789062,13.694656488549619,50.595419847328245,-6.290076335877862,0.0
13.980000734329224,-13.019668627929686,-0.8810662109374999,0.023942016601562498,16.85496183206107,-185.32824427480915,2.3969465648854964,-10.122684619140625,-1.3623007446289062,2.731784094238281,16.580152671755727,46.229007633587784,-4.183206106870229,0.0
13.99000072479248,-12.531251489257812,-1.4437036010742186,-0.4644751220703125,34.58015267175573,-173.61832061068702,8.80916030534351,-9.299079248046874,-0.19153613281249998,1.7788918334960937,13.465648854961833,41.64885496183206,-4.916030534351145,0.0
14.000000476837158,-11.188104357910156,-0.8595183959960937,-1.3718775512695311,50.458015267175576,-158.0,14.305343511450381,-9.698910925292969,-0.36391865234375,1.7884686401367187,-0.6412213740458015,50.29007633587786,-0.061068702290076333,0.0
14.010000944137573,-10.934318981933593,-0.22266075439453123,-1.7597382202148437,44.900763358778626,-143.40458015267177,16.564885496183205,-10.87206973876953,-1.7405846069335937,2.1547814941406247,-10.641221374045802,48.152671755725194,4.885496183206107,0.0
14.02000093460083,-9.94072529296875,1.3192051147460937,-0.9409212524414062,41.587786259541986,-129.23664122137404,15.374045801526718,-9.540893615722656,-1.2306196533203124,-0.09576806640624999,-2.6106870229007635,44.06106870229008,4.809160305343512,0.0
14.030000925064087,-9.141061938476563,2.2649147705078123,-0.8667010009765624,35.52671755725191,-109.70992366412214,15.49618320610687,-9.126696728515624,-1.8459294799804686,-0.01915361328125,-15.48091603053435,51.282442748091604,6.412213740458015,0.0
14.040001153945923,-8.365340600585936,2.2768857788085937,-0.9217676391601562,16.137404580152673,-97.95419847328245,15.083969465648854,-10.520122094726561,-3.380612744140625,0.9409212524414062,-4.396946564885496,50.58015267175573,9.297709923664122,0.0
14.0500009059906,-6.766013891601562,0.3806780639648437,-0.612915625,14.854961832061068,-83.55725190839695,16.977099236641223,-9.636661682128906,-1.5131354492187499,0.5985504150390625,-7.633587786259542,50.213740458015266,6.748091603053435,0.0
14.060000896453857,-7.762001782226562,1.599326708984375,0.6584054565429687,7.435114503816794,-66.54961832061069,15.664122137404581,-9.497797985839844,-3.356670727539062,-0.6488286499023437,-11.465648854961833,54.595419847328245,7.221374045801527,0.0
14.070000886917114,-7.723694555664062,1.2641384765625,0.8810662109374999,-9.068702290076336,-59.98473282442748,16.427480916030536,-10.694898815917968,-3.2704794677734372,0.062249243164062495,0.916030534351145,49.541984732824424,9.206106870229007,0.0
14.080000877380371,-6.476315490722656,-0.7541735229492187,0.6081272216796875,-4.259541984732825,-51.37404580152672,18.870229007633586,-9.119514123535156,-0.8714894042968749,-0.7829039428710937,-4.625954198473282,53.25190839694657,6.015267175572519,0.0
14.090000867843628,-8.05648858642578,0.7637503295898437,1.9752163696289062,-1.2213740458015268,-35.725190839694655,18.045801526717558,-10.321403356933594,-1.0103531005859374,0.17956512451171874,-6.412213740458015,56.44274809160305,10.13740458015267,0.0
14.100000619888306,-8.40843623046875,1.0319009155273438,1.446097802734375,-7.419847328244275,-30.48854961832061,16.015267175572518,-11.180921752929686,-2.5641899780273434,0.70868369140625,6.732824427480916,50.62595419847328,14.778625954198473,0.0
14.11000108718872,-7.730877160644531,0.6775590698242188,1.4915876342773438,-5.083969465648855,-23.84732824427481,15.404580152671755,-10.711658227539061,-0.9050082275390624,0.49799394531249996,7.862595419847328,51.908396946564885,15.435114503816793,0.0
14.120000839233398,-6.533776330566406,-0.1771709228515625,0.9337386474609375,-2.4885496183206106,-16.03053435114504,17.557251908396946,-10.28549033203125,0.737414111328125,0.7972691528320313,-4.641221374045801,54.01526717557252,18.213740458015266,0.0
14.130000829696655,-7.726088757324218,1.6352397338867186,1.199495031738281,-16.977099236641223,-12.290076335877863,15.053435114503817,-10.395623608398436,-1.5634136840820312,0.9576806640625,1.1450381679389312,48.900763358778626,23.0381679389313,0.0
14.140000820159912,-7.031770275878906,0.7876923461914062,0.9097966308593749,-15.007633587786259,-5.3893129770992365,15.618320610687023,-10.378864196777343,-2.224213342285156,1.0606313354492187,4.290076335877862,46.961832061068705,24.717557251908396,0.0
14.150001049041748,-5.779602807617187,-0.59376201171875,0.30406361083984373,-16.03053435114504,-1.4351145038167938,18.259541984732824,-9.018957653808593,-0.5434837768554687,0.8786720092773437,3.4656488549618323,42.152671755725194,21.938931297709924,0.0
14.160000801086426,-6.6151791870117185,0.9911994873046874,0.55545478515625,-20.9618320610687,5.847328244274809,18.03053435114504,-9.1554271484375,0.7302315063476562,0.4572925170898437,8.580152671755725,45.14503816793893,22.458015267175572,0.0
14.170001029968262,-7.029376074218749,1.5251064575195312,1.39821376953125,-27.0381679389313,13.740458015267176,17.72519083969466,-9.507374792480467,-0.45968671875,0.33518823242187495,-0.7786259541984732,50.778625954198475,24.870229007633586,0.0
14.18000078201294,-5.410895751953125,-1.1755530151367186,0.7206546997070312,-26.259541984732824,19.419847328244273,18.85496183206107,-10.213664282226562,-2.3630770385742186,-0.3399766357421875,-1.5114503816793894,44.97709923664122,27.251908396946565,0.0
14.190000534057617,-5.4707507934570305,-1.426944189453125,0.8978256225585937,-20.53435114503817,27.938931297709924,15.206106870229007,-11.202469567871093,-4.062960217285156,1.01514150390625,17.786259541984734,40.0,24.213740458015266,0.0
14.200000524520874,-6.414066247558593,-0.39264907226562495,1.8363526733398436,-21.862595419847327,33.52671755725191,10.274809160305344,-9.277531433105468,-1.7645266235351562,1.0845733520507812,23.068702290076335,32.656488549618324,23.358778625954198,0.0
14.21000075340271,-6.026205578613281,-0.5722141967773438,1.9512743530273435,-27.053435114503817,33.954198473282446,6.748091603053435,-9.665392102050781,-1.668758557128906,0.4381389038085937,14.65648854961832,31.740458015267176,21.633587786259543,0.0
14.220000743865967,-6.53138212890625,0.14125789794921875,3.4069489624023435,-39.89312977099237,37.66412213740458,3.2977099236641223,-9.392453112792968,-0.7996633544921875,1.4796166259765624,20.015267175572518,33.099236641221374,22.076335877862597,0.0
14.230000734329224,-6.6702458251953125,0.36152445068359373,3.9408559326171875,-42.06106870229008,38.19847328244275,0.6564885496183206,-9.598354455566406,-1.149216796875,1.448492004394531,21.251908396946565,33.57251908396947,22.900763358778626,0.0
14.24000096321106,-7.048529687499999,0.6847416748046875,4.989516259765625,-43.19083969465649,39.64885496183206,-0.0,-8.95670841064453,-0.6392518432617187,1.47482822265625,14.67175572519084,31.954198473282442,22.82442748091603,0.0
14.250000953674316,-6.337451794433593,-1.4700398193359374,5.6574985229492185,-21.984732824427482,49.63358778625954,3.0229007633587788,-9.560047229003906,-1.3838485595703125,1.3742717529296875,12.229007633587786,32.274809160305345,22.427480916030536,0.0
14.260001182556152,-5.181052392578125,-2.3247698120117186,4.891353991699218,-2.198473282442748,55.954198473282446,1.6030534351145038,-9.885658654785155,-3.1316157714843746,2.099714855957031,19.83206106870229,33.847328244274806,20.015267175572518,0.0
14.270000696182251,-6.078878015136718,-1.5921441040039062,5.635950708007812,17.435114503816795,64.07633587786259,-2.427480916030534,-8.382100012207031,-1.9752163696289062,1.3024457031249999,15.526717557251908,37.541984732824424,16.33587786259542,0.0
14.280000925064087,-7.900865478515625,0.6775590698242188,7.165845568847656,20.916030534351144,68.8854961832061,-7.038167938931298,-8.872911352539061,-2.291250988769531,1.4891934326171874,6.641221374045801,38.0,14.610687022900763,0.0
14.290000677108765,-7.285555651855469,-0.565031591796875,6.938396411132812,22.80916030534351,66.80916030534351,-6.809160305343512,-8.894459167480468,-2.123656872558594,1.3670891479492187,6.183206106870229,44.2442748091603,14.748091603053435,0.0
14.300000667572021,-7.752424975585937,-0.1771709228515625,7.678204724121093,35.43511450381679,69.69465648854961,-6.229007633587786,-8.298302954101562,-0.33039982910156246,-0.4525041137695312,-8.045801526717558,51.847328244274806,19.938931297709924,0.0
14.310000658035278,-8.798691101074219,0.5602431884765625,7.805097412109374,32.01526717557252,65.40458015267176,-6.549618320610687,-8.595183959960938,-0.21787235107421873,1.0127473022460938,-21.51145038167939,57.19083969465649,15.221374045801527,0.0
14.320000648498535,-9.265560424804686,-0.031124621582031248,7.788338000488281,36.0763358778626,63.847328244274806,-6.580152671755725,-8.793902697753905,0.3327940307617187,0.612915625,-11.648854961832061,66.97709923664122,14.351145038167939,0.0
14.330000877380371,-10.20169327392578,0.37828386230468747,7.426813549804687,33.49618320610687,56.42748091603053,-8.946564885496183,-9.871293444824218,-0.40222587890625,1.5466542724609373,-24.38167938931298,66.93129770992367,15.221374045801527,0.0
14.340000867843628,-10.228029492187499,-0.2154781494140625,7.8721350585937495,39.63358778625954,51.81679389312977,-7.450381679389313,-9.370905297851563,0.023942016601562498,1.6256629272460936,-23.770992366412212,66.80916030534351,14.549618320610687,0.0
14.350000858306885,-11.477802758789062,0.9121908325195311,8.231265307617187,41.3587786259542,41.74045801526717,-6.900763358778626,-11.61906065673828,-2.3965958618164063,2.6695348510742187,-23.587786259541986,61.87786259541985,18.33587786259542,0.0
14.36000108718872,-10.505756884765624,0.19632453613281248,7.498639599609374,46.80916030534351,35.69465648854962,-2.8244274809160306,-11.427524523925781,-2.499546533203125,2.233790148925781,-19.87786259541985,55.05343511450382,16.732824427480917,0.0
14.370001077651978,-10.800243688964843,1.1133037719726562,6.890512377929687,46.06106870229008,28.870229007633586,-2.946564885496183,-11.81059678955078,-3.83072265625,2.7557261108398436,-14.030534351145038,47.267175572519086,15.038167938931299,0.0
14.380000591278076,-9.270348828125,1.917755529785156,4.908113403320312,42.0763358778626,22.366412213740457,-2.7480916030534353,-11.832144604492187,-4.046200805664062,2.8467057739257813,1.618320610687023,41.221374045801525,9.221374045801527,0.0
14.390000820159912,-9.923965881347655,3.0813375366210938,2.1739351074218747,40.94656488549618,20.38167938931298,-2.16793893129771,-11.243170996093749,-3.1364041748046874,1.0917559570312498,4.351145038167939,24.580152671755727,15.923664122137405,0.0
14.400000810623169,-11.77228956298828,5.3007624755859375,1.7621324218749999,11.022900763358779,21.236641221374047,0.8244274809160306,-10.685322009277343,-2.729389892578125,1.2928688964843749,10.580152671755725,14.290076335877863,11.770992366412214,0.0
14.410000801086426,-10.014945544433592,1.5825672973632812,2.4109610717773435,9.236641221374045,25.83206106870229,7.877862595419847,-11.33175645751953,-2.6527754394531247,1.675941162109375,9.007633587786259,2.9160305343511452,12.01526717557252,0.0
14.420000553131104,-10.149020837402343,0.023942016601562498,4.144363073730468,14.732824427480915,31.633587786259543,9.450381679389313,-9.181763366699219,-1.1923124267578125,0.0430956298828125,16.213740458015266,1.9389312977099236,11.603053435114504,0.0
14.43000054359436,-9.871293444824218,0.8786720092773437,4.872200378417968,18.9618320610687,33.725190839694655,7.038167938931298,-10.541669909667968,-1.2904746948242187,0.9457096557617187,10.65648854961832,-7.068702290076335,6.2748091603053435,0.0
14.440000772476196,-9.821015209960937,2.5905261962890624,3.8570588745117185,15.740458015267176,33.343511450381676,4.687022900763359,-10.079588989257813,-0.5889736083984375,0.05027823486328125,8.83969465648855,-10.610687022900763,6.412213740458015,0.0
14.450000762939453,-9.260772021484375,3.9552211425781247,2.511517541503906,5.877862595419847,34.88549618320611,3.969465648854962,-9.713276135253906,0.296881005859375,-0.430956298828125,1.3740458015267176,-13.099236641221374,4.656488549618321,0.0
14.46000075340271,-9.488221179199218,4.774038110351563,1.908178723144531,-14.51908396946565,34.656488549618324,4.793893129770993,-10.065223779296874,0.12449848632812499,-0.277727392578125,-7.312977099236641,-15.587786259541986,4.030534351145038,0.0
14.470000743865967,-8.257601525878906,0.09816226806640624,-0.0718260498046875,-17.51145038167939,42.152671755725194,9.038167938931299,-10.807426293945312,-0.2346317626953125,0.27293898925781246,-12.16793893129771,-15.923664122137405,4.106870229007634,0.0
14.480000495910645,-7.192181787109375,0.1771709228515625,0.25139117431640623,2.50381679389313,59.74045801526717,9.267175572519085,-11.609483850097655,-2.128445275878906,1.5275006591796874,-8.946564885496183,-20.33587786259542,3.3587786259541983,0.0
14.49000072479248,-7.876923461914062,1.8435352783203125,-0.29448680419921874,-2.16793893129771,64.65648854961832,6.030534351145038,-11.686098303222655,-0.9864110839843749,1.8267758666992187,-3.312977099236641,-32.83969465648855,-2.366412213740458,0.0
14.500000476837158,-8.027758166503906,2.142810485839844,-0.25139117431640623,-4.015267175572519,71.87786259541984,8.259541984732824,-11.329362255859374,-0.44053310546874996,1.7884686401367187,-11.129770992366412,-38.80916030534351,-5.404580152671755,0.0
14.510000944137573,-8.585607153320312,2.5617957763671875,-0.24660277099609373,-12.961832061068701,76.87022900763358,9.877862595419847,-11.243170996093749,0.5099649536132812,1.8507178833007811,-18.412213740458014,-51.05343511450382,-6.656488549618321,0.0
14.52000117301941,-9.86411083984375,3.277662072753906,0.4070142822265625,-19.17557251908397,81.98473282442748,10.961832061068701,-12.73715283203125,-0.6344634399414062,3.768473413085937,-19.083969465648856,-61.267175572519086,-5.114503816793893,0.0
14.530000925064087,-10.747571252441405,2.789244934082031,0.8164227661132812,-32.732824427480914,81.22137404580153,12.061068702290076,-12.715605017089842,-0.47165772705078124,3.265691064453125,-21.587786259541986,-75.38931297709924,-5.480916030534351,0.0
14.540000915527344,-9.018957653808593,-0.9576806640625,0.6344634399414062,-27.16030534351145,83.31297709923665,15.49618320610687,-11.40837091064453,0.8690952026367187,3.402160559082031,-13.16030534351145,-88.36641221374046,-7.4961832061068705,0.0
14.5500009059906,-9.081206896972656,-2.39420166015625,0.70868369140625,-12.900763358778626,89.19083969465649,13.98473282442748,-11.56159981689453,0.6536170532226562,4.132392065429687,-27.083969465648856,-105.41984732824427,-5.343511450381679,0.0
14.560000896453857,-10.290278735351562,-1.6256629272460936,2.2074539306640624,0.4580152671755725,95.26717557251908,8.793893129770993,-10.330980163574218,2.059013427734375,4.019864587402344,-21.96946564885496,-117.95419847328245,-6.0458015267175576,0.0
14.570000648498535,-8.985438830566405,-2.142810485839844,1.5538368774414062,5.648854961832061,90.85496183206106,5.175572519083969,-11.010933435058593,0.4525041137695312,2.205059729003906,-27.34351145038168,-124.73282442748092,-3.786259541984733,0.0
14.580000400543213,-10.71884083251953,-0.36152445068359373,2.051830822753906,8.412213740458014,92.4885496183206,-0.0,-10.110713610839843,0.6153098266601562,2.2601263671875,-36.961832061068705,-133.6030534351145,-4.488549618320611,0.0
14.59000039100647,-11.173739147949219,1.2689268798828124,2.5522189697265625,4.870229007633588,87.6030534351145,-4.854961832061068,-9.957484704589843,2.3032219970703123,0.8738836059570312,-30.091603053435115,-138.53435114503816,-9.236641221374045,0.0
14.600000858306885,-11.650185278320311,2.602497204589844,2.1691467041015624,-9.236641221374045,75.45038167938931,-8.442748091603054,-12.435483422851561,0.9600748657226562,-0.13407529296874998,-32.06106870229008,-134.1679389312977,-9.969465648854962,0.0
14.61000108718872,-10.826579907226561,1.7621324218749999,2.032677209472656,-15.465648854961833,69.14503816793894,-9.022900763358779,-12.208034265136718,0.28730419921875,-0.1388636962890625,-46.595419847328245,-131.25190839694656,-13.618320610687023,0.0
14.620000839233398,-11.274295617675781,2.863465185546875,1.5227122558593749,-24.99236641221374,61.41984732824427,-10.229007633587786,-10.407594616699217,1.6017209106445311,-1.8100164550781248,-61.64885496183206,-130.04580152671755,-22.15267175572519,0.0
14.630001068115234,-11.121066711425781,3.1220389648437497,0.9217676391601562,-35.80152671755725,51.29770992366412,-9.374045801526718,-12.483367456054687,1.1851298217773436,-1.7310078002929687,-51.17557251908397,-119.3587786259542,-22.229007633587788,0.0
14.640000820159912,-11.080365283203124,2.5570073730468748,1.1180921752929687,-36.595419847328245,49.12977099236641,-8.061068702290076,-13.651737866210937,-0.842758984375,-2.375048046875,-39.87786259541985,-112.44274809160305,-18.916030534351144,0.0
14.650001049041748,-9.967061511230469,2.4109610717773435,0.5243301635742187,-38.97709923664122,43.69465648854962,-5.7251908396946565,-11.324573852539062,1.3527239379882812,-2.729389892578125,-38.595419847328245,-106.45801526717557,-21.068702290076335,0.0
14.660000801086426,-10.151415039062499,3.0262708984374997,0.51714755859375,-45.31297709923664,37.45038167938932,-6.305343511450381,-11.568782421875,1.0965443603515623,-2.5713725830078125,-28.27480916030534,-99.83206106870229,-16.641221374045802,0.0
14.670001029968262,-9.495403784179686,3.105279553222656,0.9193734375,-55.57251908396947,30.793893129770993,-7.557251908396947,-11.149797131347656,2.0446482177734375,-2.0302830078125,-25.31297709923664,-82.21374045801527,-12.625954198473282,0.0
14.68000054359436,-9.60793126220703,2.389413256835937,0.9792284790039062,-54.274809160305345,28.38167938931298,-5.4961832061068705,-10.647014782714843,2.2026655273437497,-1.2952630981445312,-18.793893129770993,-75.63358778625954,-8.412213740458014,0.0
14.690000772476196,-9.279925634765624,0.9816226806640624,0.70868369140625,-42.152671755725194,27.740458015267176,-4.3816793893129775,-8.343792785644531,3.191470812988281,-3.737348791503906,-28.458015267175572,-62.12213740458015,-9.34351145038168,0.0
14.700000286102295,-10.539275708007812,1.6831237670898436,1.1851298217773436,-36.458015267175576,27.66412213740458,-3.9389312977099236,-9.516951599121093,0.86191259765625,-0.9648632690429687,-27.251908396946565,-48.25954198473283,-5.129770992366412,0.0
14.710000991821289,-9.873687646484374,0.5267243652343749,1.1611878051757811,-24.198473282442748,27.297709923664122,-4.213740458015267,-8.94473740234375,-0.14125789794921875,-1.5394716674804687,-10.992366412213741,-44.229007633587784,-5.8320610687022905,0.0
14.720000743865967,-9.677363110351562,0.3064578125,0.8475473876953125,-13.221374045801527,26.244274809160306,-4.351145038167939,-8.657433203124999,0.27293898925781246,-1.5059528442382812,-13.86259541984733,-38.0763358778626,-8.305343511450381,0.0
14.730000972747803,-10.405200415039062,1.7094599853515624,1.1875240234375,-9.49618320610687,26.48854961832061,-6.458015267175573,-7.577648254394531,-0.7422025146484375,0.17956512451171874,-10.641221374045802,-27.251908396946565,-7.603053435114504,0.0
14.74000096321106,-9.433154541015625,1.1516109985351561,1.0007762939453124,-4.366412213740458,27.129770992366414,-7.465648854961832,-7.6470801025390625,-1.6543933471679686,-0.08379705810546874,-5.32824427480916,-22.793893129770993,-4.534351145038168,0.0
14.750000476837158,-9.605537060546874,1.446097802734375,0.7158662963867187,-4.259541984732825,24.12213740458015,-7.587786259541985,-9.588777648925781,-2.418143676757812,1.8052280517578123,14.183206106870228,-16.977099236641223,-2.6412213740458017,0.0
14.760001182556152,-9.696516723632811,0.8954314208984374,0.44532150878906246,2.4122137404580153,23.740458015267176,-7.3893129770992365,-8.949525805664061,-2.099714855957031,2.480392919921875,25.923664122137403,-23.34351145038168,-8.13740458015267,0.0
14.77000093460083,-9.282319836425781,-0.05027823486328125,-0.08858546142578125,18.900763358778626,25.893129770992367,-6.900763358778626,-9.631873278808593,-2.233790148925781,1.898601916503906,34.99236641221374,-30.137404580152673,-13.755725190839694,0.0
14.780001163482666,-8.434772448730468,0.14125789794921875,-0.15322890625,19.206106870229007,24.290076335877863,-7.038167938931298,-8.690952026367187,-1.2425906616210938,1.5705962890624998,39.603053435114504,-35.20610687022901,-21.206106870229007,0.0
14.790000915527344,-9.516951599121093,0.9002198242187499,0.143652099609375,32.67175572519084,32.48854961832061,-8.961832061068701,-8.113949426269532,-0.9241618408203125,2.4396914916992185,33.31297709923664,-31.00763358778626,-23.709923664122137,0.0
