timestamp,Thigh_L_Acc_X,Thigh_L_Acc_Y,Thigh_L_Acc_Z,Thigh_L_Gyr_X,Thigh_L_Gyr_Y,Thigh_L_Gyr_Z,Thigh_R_Acc_X,Thigh_R_Acc_Y,Thigh_R_Acc_Z,Thigh_R_Gyr_X,Thigh_R_Gyr_Y,Thigh_R_Gyr_Z,gpio_output
10.000000476837158,-5.288791467285156,0.24181436767578124,2.01112939453125,-21.572519083969464,32.61068702290076,14.351145038167939,-9.976638317871092,-1.1947066284179686,0.5674257934570313,-6.534351145038168,29.083969465648856,21.61832061068702,0.0
10.010000944137573,-5.195417602539062,0.316034619140625,2.3487118286132813,-31.81679389312977,36.99236641221374,11.770992366412214,-9.739612353515625,-1.2569558715820313,0.8451531860351562,-7.694656488549619,28.793893129770993,21.17557251908397,1.0
10.020000696182251,-3.584119885253906,-1.5897499023437498,2.070984436035156,-24.732824427480917,46.2442748091603,12.244274809160306,-9.435548742675781,-1.8914193115234375,0.5530605834960938,-6.259541984732825,26.458015267175572,20.16793893129771,1.0
10.030001163482666,-6.399701037597656,0.8930372192382812,4.036623999023437,-35.465648854961835,54.56488549618321,3.5267175572519083,-9.753977563476562,-2.2290017456054687,1.199495031738281,-2.8244274809160306,26.748091603053435,19.72519083969466,1.0
10.040000915527344,-5.501875415039062,-0.8762778076171874,3.5960908935546874,-38.778625954198475,53.64885496183206,2.50381679389313,-9.526528405761718,-2.4444798950195312,1.6903063720703124,-0.7022900763358778,25.00763358778626,18.9618320610687,1.0
10.0500009059906,-5.827486840820312,-1.5251064575195312,5.724536169433593,-29.19083969465649,59.9236641221374,1.0381679389312977,-9.198522778320312,-2.147598889160156,1.946485949707031,3.572519083969466,23.87786259541985,17.81679389312977,1.0
10.060000658035278,-5.5832782714843745,-2.0757728393554684,5.95677373046875,-9.297709923664122,65.34351145038168,0.6564885496183206,-8.896853369140624,-2.099714855957031,1.9943699829101562,5.603053435114504,23.450381679389313,16.27480916030534,1.0
10.070001363754272,-5.815515832519531,-1.5466542724609373,7.098807922363281,14.01526717557252,73.09923664122137,0.2900763358778626,-8.719682446289061,-2.3439234252929686,2.2457611572265623,5.801526717557252,20.748091603053435,16.625954198473284,1.0
10.080000877380371,-7.551312036132812,-0.4213794921875,9.196128576660156,25.6793893129771,75.96946564885496,1.5725190839694656,-8.116343627929687,-1.6998831787109374,2.152387292480469,8.091603053435115,21.786259541984734,17.572519083969464,1.0
10.090001106262207,-9.284714038085937,2.1883003173828124,11.96382569580078,47.49618320610687,71.49618320610686,9.465648854961833,-8.32463917236328,-1.6424223388671875,2.4253262817382812,-0.8549618320610687,25.221374045801525,17.984732824427482,1.0
10.100000858306885,-9.809044201660155,3.785232824707031,12.945448376464842,66.90076335877863,68.97709923664122,23.587786259541986,-9.270348828125,-2.379836450195312,3.0885201416015624,0.183206106870229,27.51145038167939,17.984732824427482,1.0
10.11000108718872,-11.020510241699219,4.355052819824219,13.678074084472655,70.30534351145039,53.74045801526717,32.10687022900763,-8.43956085205078,-1.5275006591796874,2.703053674316406,-6.458015267175573,31.572519083969464,19.31297709923664,1.0
10.120000839233398,-11.343727465820312,3.9456443359374997,12.011709729003906,71.49618320610686,42.56488549618321,39.06870229007634,-9.208099584960937,-2.0566192260742184,2.7581203125,-20.80916030534351,45.32824427480916,16.793893129770993,1.0
10.130001068115234,-11.298237634277344,4.632780212402343,6.347028601074219,44.87022900763359,24.0,37.969465648854964,-10.041281762695311,-3.6008792968749996,2.250549560546875,-20.045801526717558,53.83206106870229,17.984732824427482,1.0
10.140000820159912,-11.075576879882812,5.434837768554687,1.2713210815429687,15.007633587786259,16.259541984732824,40.595419847328245,-9.440337145996093,-1.35990654296875,4.611232397460937,20.931297709923665,48.61068702290076,24.99236641221374,1.0
10.150000810623169,-10.678139404296875,5.013458276367187,-1.5538368774414062,-26.50381679389313,16.85496183206107,41.786259541984734,-10.01733974609375,-3.84987626953125,-0.19393033447265623,8.366412213740459,48.06106870229008,21.954198473282442,1.0
10.160000562667847,-9.196128576660156,1.3096283081054687,1.8914193115234375,-47.43511450381679,22.396946564885496,37.14503816793893,-10.335768566894531,-3.3686417358398435,0.9433154541015625,19.16030534351145,41.57251908396947,20.442748091603054,1.0
10.170000791549683,-11.801019982910155,-2.5641899780273434,8.544905725097657,-66.29007633587786,16.82442748091603,26.549618320610687,-9.361328491210937,-1.1420341918945311,0.01915361328125,12.80916030534351,40.0763358778626,22.198473282442748,1.0
10.18000078201294,-8.712499841308594,-5.983109948730468,7.694964135742187,-50.01526717557252,16.213740458015266,16.702290076335878,-9.473855969238281,-0.9959878906249999,-0.46208092041015625,18.427480916030536,37.81679389312977,14.259541984732824,1.0
10.190000772476196,-6.830657336425781,-5.355829113769531,1.6543933471679686,-31.87786259541985,20.442748091603054,1.0229007633587786,-9.775525378417969,0.4836287353515625,-0.24899697265624998,28.702290076335878,35.43511450381679,11.648854961832061,1.0
10.200001001358032,-6.3973068359375,-7.187393383789062,0.4740519287109375,-0.549618320610687,31.572519083969464,-4.656488549618321,-9.730035546875,2.568978381347656,-0.5698199951171875,17.709923664122137,28.65648854961832,7.8320610687022905,1.0
10.210000991821289,-6.526593725585937,-5.1714755859374995,0.10773907470703124,45.9236641221374,50.51908396946565,-7.694656488549619,-10.386046801757812,3.69664736328125,-0.24899697265624998,-5.755725190839694,24.870229007633586,8.488549618320612,0.0
10.220000743865967,-8.544905725097657,-0.24899697265624998,0.9552864624023437,69.8473282442748,61.29770992366412,-17.541984732824428,-11.767501159667969,2.760514514160156,0.6775590698242188,-6.870229007633588,22.564885496183205,12.67175572519084,0.0
10.230000734329224,-9.272743029785156,4.094084838867187,0.32082302246093747,71.64885496183206,56.99236641221374,-19.541984732824428,-13.242329382324218,2.059013427734375,1.0869675537109373,-11.389312977099237,11.450381679389313,13.893129770992367,0.0
10.24000072479248,-8.664615808105468,5.935225915527344,-0.7158662963867187,87.8473282442748,69.26717557251908,-13.221374045801527,-15.00925020751953,0.7661445312499999,2.032677209472656,-21.786259541984734,1.3587786259541985,15.725190839694656,0.0
10.250000715255737,-10.826579907226561,9.0788126953125,-0.16998831787109375,64.07633587786259,69.61832061068702,-12.51908396946565,-13.91031164550781,1.7214309936523438,1.6304513305664061,-29.236641221374047,-11.236641221374045,13.801526717557252,0.0
10.260000944137573,-11.508927380371093,10.714052429199219,0.699106884765625,31.801526717557252,67.29770992366412,-3.7709923664122136,-14.10903038330078,1.7334020019531249,1.867477294921875,-33.61832061068702,-22.229007633587788,14.931297709923664,0.0
10.270001411437988,-11.499350573730467,10.36210478515625,0.7637503295898437,-2.015267175572519,63.23664122137404,4.290076335877862,-13.527239379882811,2.0781670410156248,1.7525556152343749,-40.76335877862596,-30.610687022900763,13.404580152671755,0.0
10.280001163482666,-9.718064538574218,7.129932543945312,0.3447650390625,-27.61832061068702,58.82442748091603,11.236641221374045,-13.182474340820312,0.5003881469726562,1.8770541015625,-47.06870229007634,-40.62595419847328,14.458015267175572,0.0
10.290001153945923,-10.426748229980468,4.8889597900390624,0.9097966308593749,-42.79389312977099,58.16793893129771,13.129770992366412,-12.97896719970703,0.33518823242187495,3.0980969482421874,-41.80152671755725,-50.18320610687023,11.465648854961833,0.0
10.3000009059906,-9.682151513671874,1.9967641845703124,0.4908113403320312,-45.9236641221374,56.29007633587786,14.045801526717558,-11.872846032714843,0.74699091796875,1.7764976318359373,-37.954198473282446,-60.76335877862596,5.465648854961832,0.0
10.310000896453857,-9.4618849609375,0.36152445068359373,0.9840168823242187,-37.38931297709924,60.778625954198475,12.244274809160306,-12.42351241455078,-0.2609679809570312,1.7118541870117185,-46.68702290076336,-68.87022900763358,3.053435114503817,0.0
10.320000648498535,-9.289502441406249,-0.9050082275390624,1.0175357055664063,-29.954198473282442,64.19847328244275,5.755725190839694,-12.873622326660156,-1.68551796875,1.8148048583984373,-22.83969465648855,-76.22900763358778,-0.04580152671755725,0.0
10.330000877380371,-9.519345800781249,-1.9393033447265624,0.5626373901367188,-18.748091603053435,67.17557251908397,-0.7022900763358778,-12.53843409423828,-0.076614453125,1.197100830078125,-11.465648854961833,-90.62595419847328,-7.3893129770992365,0.0
10.340000629425049,-9.53131680908203,-1.7549498168945312,0.5770026000976562,-0.6259541984732825,75.90839694656489,-7.1603053435114505,-11.621454858398437,0.24899697265624998,0.9840168823242187,-18.946564885496183,-91.92366412213741,-12.076335877862595,0.0
10.350000858306885,-10.955866796875,0.3280056274414062,1.5873557006835937,0.366412213740458,78.56488549618321,-14.793893129770993,-11.010933435058593,1.3072341064453123,0.19632453613281248,-12.687022900763358,-95.96946564885496,-16.946564885496183,0.0
10.360000848770142,-9.572018237304688,-0.430956298828125,0.6943184814453125,7.480916030534351,79.74045801526718,-17.129770992366414,-10.721235034179687,1.235408056640625,-0.009576806640625,-18.35114503816794,-93.02290076335878,-17.374045801526716,0.0
10.370001077651978,-10.216058483886718,1.2401964599609374,1.2018892333984375,7.694656488549619,80.91603053435115,-21.053435114503817,-10.029310754394531,2.3511060302734372,-1.2737152832031249,-15.221374045801527,-95.52671755725191,-19.66412213740458,0.0
10.380001306533813,-9.490615380859374,1.2904746948242187,0.4070142822265625,8.320610687022901,78.27480916030534,-21.954198473282442,-10.137049829101562,2.231395947265625,-0.9361328491210937,-20.366412213740457,-86.3969465648855,-17.297709923664122,0.0
10.390000581741333,-10.39322940673828,2.5474305664062498,1.3048399047851562,7.938931297709924,77.78625954198473,-22.366412213740457,-9.380482104492186,2.829946362304687,-1.5873557006835937,-19.81679389312977,-84.44274809160305,-16.412213740458014,0.0
10.400001049041748,-10.182539660644531,3.2513258544921873,1.3024457031249999,4.809160305343512,72.87022900763358,-21.053435114503817,-9.425971936035156,2.50912333984375,-1.6615759521484375,-30.519083969465647,-72.62595419847328,-13.664122137404581,0.0
10.410000801086426,-9.737218151855469,3.229778039550781,1.4628572143554686,-2.2900763358778624,67.38931297709924,-17.31297709923664,-9.447519750976562,0.6440402465820312,-1.7597382202148437,-28.80916030534351,-69.77099236641222,-10.030534351145038,0.0
10.420000314712524,-10.618284362792968,3.8570588745117185,1.9321207397460936,-14.183206106870228,59.52671755725191,-18.0,-8.480262280273436,1.4101847778320311,-2.748543505859375,-24.12213740458015,-66.21374045801527,-9.251908396946565,0.0
10.43000054359436,-8.8489693359375,1.9728221679687499,1.8411410766601561,-18.48854961832061,51.74045801526717,-14.335877862595419,-8.55448253173828,1.2737152832031249,-0.9983820922851562,-27.908396946564885,-57.9236641221374,-6.549618320610687,0.0
10.440001010894775,-9.414000927734374,2.2864625854492187,2.3127988037109373,-15.282442748091603,48.19847328244275,-13.19083969465649,-9.100360510253905,0.016759411621093748,0.7781155395507812,-18.671755725190838,-54.62595419847328,-2.519083969465649,0.0
10.450000762939453,-10.273519323730468,1.656787548828125,2.6240450195312497,-15.465648854961833,42.12213740458015,-13.374045801526718,-8.315062365722655,-0.10295067138671875,-1.3623007446289062,-5.435114503816794,-56.10687022900763,-4.259541984732825,0.0
10.460000991821289,-9.1554271484375,0.45968671875,1.8363526733398436,-13.511450381679388,34.67175572519084,-10.717557251908397,-7.520187414550781,0.22266075439453123,-0.7757213378906249,-10.381679389312977,-51.05343511450382,-5.572519083969466,0.0
10.470000743865967,-9.631873278808593,0.6775590698242188,1.9608511596679685,-9.038167938931299,33.83206106870229,-11.114503816793894,-8.32463917236328,-0.4213794921875,0.5434837768554687,-1.3893129770992367,-46.16793893129771,-1.816793893129771,0.0
10.480000972747803,-11.722011328125,3.2321722412109373,3.5769372802734374,-2.8091603053435112,34.13740458015267,-14.702290076335878,-9.076418493652342,-1.8770541015625,0.2346317626953125,10.427480916030534,-49.404580152671755,-1.3740458015267176,0.0
10.49000072479248,-10.046070166015625,2.1308394775390624,2.35589443359375,-8.687022900763358,24.778625954198475,-12.67175572519084,-7.649474304199218,0.18914193115234373,-1.5777788940429687,14.793893129770993,-51.099236641221374,-7.709923664122138,0.0
10.500000715255737,-10.62307276611328,3.1004911499023438,2.0829554443359375,-4.67175572519084,24.610687022900763,-10.320610687022901,-8.379705810546875,-0.622492431640625,0.8667010009765624,10.244274809160306,-44.68702290076336,-6.534351145038168,0.0
10.510000944137573,-9.813832604980469,2.8993782104492185,2.157175695800781,-10.229007633587786,23.633587786259543,-8.473282442748092,-9.53131680908203,-2.463633508300781,0.3016694091796875,21.96946564885496,-46.54961832061068,-4.458015267175573,0.0
10.520114421844482,-10.424354028320312,3.404554760742187,2.422932080078125,-13.938931297709924,21.19083969465649,-9.16030534351145,-8.94473740234375,-1.6711527587890624,-0.28969840087890625,27.251908396946565,-51.31297709923664,-9.267175572519085,0.0
10.530000925064087,-9.382876306152344,1.9105729248046874,1.956062756347656,-14.534351145038167,18.717557251908396,-7.32824427480916,-7.936778503417968,0.28490999755859375,1.5394716674804687,20.366412213740457,-45.3587786259542,-12.67175572519084,0.0
10.540000677108765,-9.095572106933593,1.0749965454101562,2.013523596191406,-10.549618320610687,21.0381679389313,-6.33587786259542,-10.529698901367187,-1.9919757812499999,1.66636435546875,29.358778625954198,-42.87022900763359,-10.030534351145038,0.0
10.5500009059906,-8.080430603027343,1.180341418457031,2.1619640991210938,-10.763358778625955,19.893129770992367,-7.206106870229007,-9.550470422363281,-1.2306196533203124,1.5825672973632812,36.93129770992366,-49.05343511450382,-14.13740458015267,0.0
10.560000658035278,-9.785102185058593,2.482787121582031,1.8028338500976562,-16.977099236641223,17.450381679389313,-8.274809160305344,-8.346186987304687,0.7852981445312499,0.7565677246093749,28.732824427480917,-46.778625954198475,-19.64885496183206,0.0
10.570000886917114,-8.911218579101561,0.8020575561523438,1.216254443359375,-11.648854961832061,17.435114503816795,-4.2748091603053435,-8.805873706054687,0.10295067138671875,2.461239306640625,16.47328244274809,-36.42748091603053,-17.389312977099237,0.0
10.580000877380371,-10.242394702148436,1.9943699829101562,1.7621324218749999,-6.824427480916031,20.12213740458015,-4.67175572519084,-9.710881933593749,-0.7038952880859375,3.1459809814453124,22.625954198473284,-36.94656488549618,-15.572519083969466,0.0
10.590000867843628,-9.586383447265625,1.2234370483398436,0.5770026000976562,-2.9770992366412212,18.045801526717558,-4.351145038167939,-9.83777462158203,-0.9624690673828125,2.4205378784179685,26.580152671755727,-40.961832061068705,-16.38167938931298,0.0
10.600000858306885,-9.296685046386719,0.9983820922851562,0.9816226806640624,10.442748091603054,23.022900763358777,-2.5801526717557253,-9.617508068847656,0.35673604736328124,2.418143676757812,30.732824427480917,-42.396946564885496,-19.17557251908397,0.0
10.610000610351562,-9.2320416015625,1.7429788085937499,0.7445967163085937,14.244274809160306,26.15267175572519,-3.480916030534351,-8.219294299316406,1.7429788085937499,2.2290017456054687,17.83206106870229,-39.52671755725191,-21.740458015267176,0.0
10.62000060081482,-9.935936889648437,2.8107927490234372,1.1516109985351561,6.091603053435114,27.49618320610687,-4.8396946564885495,-8.169016064453125,1.5705962890624998,2.9855694702148434,15.038167938931299,-32.88549618320611,-19.541984732824428,0.0
10.630000829696655,-10.230423693847655,3.1866824096679687,1.3263877197265623,-5.6183206106870225,26.427480916030536,-4.717557251908397,-9.612719665527344,0.18435352783203124,2.7533319091796873,2.931297709923664,-35.64885496183206,-14.641221374045802,0.0
10.640000581741333,-10.436325036621094,3.902548706054687,1.697488977050781,-16.213740458015266,24.015267175572518,-5.709923664122138,-9.332598071289063,1.1085153686523437,2.5809493896484375,16.091603053435115,-37.587786259541986,-14.13740458015267,0.0
10.650001049041748,-10.702081420898438,2.7246014892578123,0.9959878906249999,-23.16030534351145,19.17557251908397,-4.549618320610687,-10.345345373535155,0.5267243652343749,3.3303345092773435,6.122137404580153,-36.67175572519084,-13.755725190839694,0.0
10.660001039505005,-9.026140258789061,0.2561795776367187,0.2059013427734375,-22.0,17.083969465648856,-2.0610687022900764,-10.242394702148436,-0.2059013427734375,4.273649963378906,-1.1603053435114503,-36.48854961832061,-13.603053435114504,0.0
10.670000553131104,-8.13310303955078,-0.5434837768554687,0.2346317626953125,-7.770992366412214,20.12213740458015,-1.0381679389312977,-9.162609753417968,0.51714755859375,3.8043864379882812,-9.755725190839694,-36.94656488549618,-14.564885496183207,0.0
10.680001020431519,-9.617508068847656,-0.3806780639648437,0.8738836059570312,2.6259541984732824,25.786259541984734,-3.4656488549618323,-7.297526660156249,1.2569558715820313,2.128445275878906,-22.748091603053435,-31.69465648854962,-15.48091603053435,0.0
10.690000534057617,-9.847351428222655,0.8092401611328125,1.2210428466796874,6.213740458015267,27.740458015267176,-4.458015267175573,-7.247248425292969,1.2018892333984375,2.3774422485351563,-33.587786259541986,-25.954198473282442,-13.099236641221374,0.0
10.700000524520874,-9.950302099609374,1.2282254516601563,1.1635820068359375,6.2748091603053435,27.34351145038168,-6.1679389312977095,-9.380482104492186,-1.0199299072265624,4.163516687011718,-30.3206106870229,-23.633587786259543,-9.114503816793894,0.0
10.71000051498413,-10.002974536132811,1.659181750488281,1.1923124267578125,4.748091603053435,26.366412213740457,-7.129770992366412,-8.219294299316406,-0.36152445068359373,2.8371289672851563,-28.53435114503817,-27.34351145038168,-11.435114503816793,0.0
10.720000505447388,-11.010933435058593,2.607285607910156,0.9552864624023437,-1.9389312977099236,23.6793893129771,-8.473282442748092,-8.590395556640624,-0.842758984375,2.817975354003906,-27.16030534351145,-23.984732824427482,-10.961832061068701,0.0
10.730000495910645,-9.394847314453125,1.7573440185546874,1.2593500732421874,-4.67175572519084,20.717557251908396,-7.633587786259542,-8.738836059570312,-1.1180921752929687,2.77727392578125,-20.290076335877863,-25.66412213740458,-13.801526717557252,0.0
10.740000486373901,-9.557653027343749,0.6823474731445313,-0.0143652099609375,1.5267175572519085,19.053435114503817,-5.6183206106870225,-8.520963708496094,-2.1978771240234374,2.578555187988281,-18.702290076335878,-26.916030534351144,-12.335877862595419,0.0
10.750000715255737,-10.127473022460936,0.8714894042968749,0.13407529296874998,7.923664122137405,23.114503816793892,-8.13740458015267,-8.164227661132813,-1.618480322265625,1.6735469604492186,-9.923664122137405,-27.61832061068702,-15.679389312977099,0.0
10.760000705718994,-9.698910925292969,2.2744915771484373,1.2042834350585936,4.824427480916031,23.770992366412212,-10.549618320610687,-8.501810095214843,-0.9720458740234375,2.3965958618164063,-6.396946564885496,-24.85496183206107,-17.297709923664122,0.0
10.770000696182251,-10.558429321289061,2.839523168945312,0.6009446166992187,-3.0381679389312977,21.84732824427481,-11.83206106870229,-7.860164050292968,-1.1109095703125,2.281674182128906,-8.030534351145038,-20.38167938931298,-17.603053435114504,0.0
10.780000686645508,-10.24000050048828,2.6312276245117188,0.3184288208007812,-11.34351145038168,17.603053435114504,-10.427480916030534,-8.856151940917968,-1.1707646118164061,2.6527754394531247,-4.900763358778626,-15.312977099236642,-15.465648854961833,0.0
10.790001153945923,-10.876858142089842,2.8467057739257813,0.7685387329101562,-8.213740458015268,19.083969465648856,-10.931297709923664,-8.149862451171874,-0.143652099609375,1.5442600708007812,-4.717557251908397,-14.687022900763358,-16.213740458015266,0.0
10.800000667572021,-10.771513269042968,3.5338416503906247,1.3910311645507811,-11.435114503816793,19.46564885496183,-11.801526717557252,-7.908048083496094,-1.13006318359375,1.4628572143554686,-6.793893129770993,-6.427480916030534,-14.992366412213741,0.0
10.810000896453857,-8.544905725097657,0.948103857421875,0.8834604125976562,-10.65648854961832,16.65648854961832,-8.900763358778626,-8.097190014648437,-0.44532150878906246,2.2601263671875,-2.1526717557251906,-2.4732824427480917,-14.01526717557252,0.0
10.820000648498535,-8.916006982421875,0.4836287353515625,0.6967126831054687,-6.977099236641221,14.366412213740459,-8.793893129770993,-8.767566479492187,-1.0438719238281249,2.5857377929687497,1.984732824427481,-1.6030534351145038,-14.305343511450381,0.0
10.830000877380371,-10.216058483886718,1.6807295654296874,1.4053963745117186,-2.2900763358778624,13.664122137404581,-10.351145038167939,-8.815450512695312,-1.4101847778320311,2.990357873535156,6.290076335877862,1.9083969465648856,-14.992366412213741,0.0
10.840000629425049,-9.82580361328125,1.1444283935546875,1.85790048828125,14.076335877862595,16.82442748091603,-10.213740458015268,-8.650250598144531,-1.5370774658203123,3.1771056030273437,11.236641221374045,3.2977099236641223,-16.625954198473284,0.0
10.850000619888306,-10.769119067382812,1.707065783691406,1.956062756347656,21.14503816793893,16.717557251908396,-10.427480916030534,-8.465897070312499,-1.4867992309570313,3.3399113159179685,16.3206106870229,4.015267175572519,-17.587786259541986,0.0
10.860000610351562,-11.171344946289063,1.5897499023437498,1.7022773803710936,26.717557251908396,13.541984732824428,-10.977099236641221,-8.322244970703125,-1.5298948608398437,3.1842882080078123,20.33587786259542,6.396946564885496,-17.61832061068702,0.0
10.87000060081482,-9.6151138671875,1.0366893188476562,1.35990654296875,29.709923664122137,7.786259541984733,-9.34351145038168,-8.197746484375,-1.3120225097656248,2.530671154785156,26.30534351145038,8.67175572519084,-17.328244274809162,0.0
10.880000591278076,-9.303867651367186,1.9584569580078124,2.272097375488281,30.671755725190838,5.511450381679389,-10.01526717557252,-8.032546569824218,-0.7709329345703124,2.1787235107421874,31.96946564885496,11.221374045801527,-16.977099236641223,0.0
10.890000581741333,-10.31661495361328,3.3303345092773435,2.748543505859375,16.702290076335878,-2.6259541984732824,-10.732824427480915,-8.135497241210937,-0.24660277099609373,1.908178723144531,37.11450381679389,13.98473282442748,-16.641221374045802,0.0
10.90000057220459,-10.101136804199218,2.2074539306640624,2.8131869506835936,19.236641221374047,-10.091603053435115,-7.4961832061068705,-8.013392956542969,0.37828386230468747,1.848323681640625,36.732824427480914,17.83206106870229,-16.916030534351144,0.0
10.910000801086426,-9.282319836425781,1.0917559570312498,2.9640216552734375,38.229007633587784,-11.725190839694656,-4.442748091603053,-7.884106066894531,0.4070142822265625,1.8842367065429686,32.2442748091603,26.48854961832061,-16.68702290076336,0.0
10.920001029968262,-9.397241516113281,1.5777788940429687,3.1364041748046874,41.6793893129771,-15.49618320610687,-3.877862595419847,-9.852139831542969,-0.7326257080078125,2.980781066894531,44.58015267175573,30.641221374045802,-14.412213740458014,0.0
10.93000078201294,-9.665392102050781,1.9680337646484374,3.3973721557617185,47.80152671755725,-20.015267175572518,-4.259541984732825,-8.832209924316405,0.9816226806640624,1.6927005737304686,45.41984732824427,30.27480916030534,-16.213740458015266,0.0
10.940001010894775,-10.184933862304687,2.9496564453125,3.919308117675781,50.61068702290076,-24.65648854961832,-3.0839694656488548,-8.116343627929687,2.3367408203125,1.7334020019531249,37.465648854961835,38.229007633587784,-15.511450381679388,0.0
10.950000762939453,-10.927136376953124,5.123591552734375,4.46279189453125,31.068702290076335,-37.74045801526717,-1.450381679389313,-9.09796630859375,1.5227122558593749,3.375824340820312,28.244274809160306,40.030534351145036,-11.007633587786259,0.0
10.960000991821289,-11.317391247558593,5.954379528808594,6.224924316406249,21.51145038167939,-49.31297709923664,4.244274809160306,-10.153809240722655,0.737414111328125,4.254496350097656,20.366412213740457,39.038167938931295,-8.396946564885496,0.0
10.970000743865967,-11.48498536376953,6.591237170410156,6.696582043457031,10.946564885496183,-62.82442748091603,10.763358778625955,-9.737218151855469,1.697488977050781,3.737348791503906,21.00763358778626,41.63358778625954,-9.694656488549619,0.0
10.980000734329224,-10.670956799316405,5.66946953125,5.054159704589844,-2.8091603053435112,-77.32824427480917,15.389312977099237,-10.654197387695312,1.3551181396484375,4.742913488769531,2.2442748091603053,40.396946564885496,-6.870229007633588,0.0
10.99000072479248,-10.134655627441406,3.3877953491210935,4.151545678710937,-13.282442748091603,-87.96946564885496,17.450381679389313,-10.972626208496093,-0.1005564697265625,6.593631372070312,-5.083969465648855,27.572519083969464,-6.824427480916031,0.0
11.000000715255737,-10.721235034179687,0.8690952026367187,3.919308117675781,-24.48854961832061,-100.16793893129771,14.335877862595419,-10.749965454101561,-0.9265560424804687,5.616797094726562,-3.83206106870229,30.198473282442748,-8.83969465648855,0.0
11.010000705718994,-10.072406384277343,-2.2864625854492187,3.794809631347656,-14.290076335877863,-107.83206106870229,11.740458015267176,-9.215282189941405,0.277727392578125,3.5194764404296874,-3.816793893129771,36.18320610687023,-11.740458015267176,0.0
11.02000093460083,-11.757924353027343,-0.1149216796875,5.463568188476562,-6.641221374045801,-114.56488549618321,3.099236641221374,-8.827421520996094,0.8667010009765624,1.9776105712890624,-10.549618320610687,26.366412213740457,-12.687022900763358,0.0
11.030000925064087,-13.819331982421874,1.0295067138671874,8.12113203125,-1.8015267175572518,-124.53435114503817,0.1984732824427481,-8.844180932617187,0.5219359619140624,1.1563994018554686,-17.404580152671755,24.35114503816794,-8.473282442748092,0.0
11.040000915527344,-14.700398193359375,1.0654197387695312,9.540893615722656,7.847328244274809,-136.3053435114504,4.366412213740458,-9.054870678710937,0.28730419921875,1.1851298217773436,-20.80916030534351,26.290076335877863,-5.4961832061068705,0.0
11.05000114440918,-15.593435412597655,2.89219560546875,10.395623608398436,16.65648854961832,-151.75572519083968,8.564885496183207,-9.0788126953125,0.25139117431640623,1.7525556152343749,-20.396946564885496,28.3206106870229,-3.6030534351145036,0.0
11.060000896453857,-15.44978331298828,2.281674182128906,9.466673364257812,11.068702290076336,-170.19847328244273,10.473282442748092,-8.51617530517578,-1.0462661254882812,1.5634136840820312,-25.51145038167939,27.84732824427481,-3.786259541984733,0.0
11.070001125335693,-15.133748693847656,3.9695863525390624,8.32463917236328,-7.236641221374046,-189.72519083969465,5.190839694656488,-9.787496386718749,-1.4053963745117186,1.9129671264648436,-28.061068702290076,30.732824427480917,-4.931297709923665,0.0
11.080000877380371,-13.500903161621093,2.712630480957031,5.317521887207031,-41.63358778625954,-211.05343511450383,-0.15267175572519084,-9.129090930175781,-1.1420341918945311,2.212242333984375,-30.671755725190838,39.57251908396947,-6.366412213740458,0.0
11.090001106262207,-13.271059802246093,1.5490484741210937,2.31758720703125,-65.25190839694656,-223.64885496183206,-2.9923664122137406,-9.45470235595703,-1.6136919189453125,1.9895815795898437,-41.603053435114504,41.43511450381679,-4.931297709923665,0.0
11.100001096725464,-11.240776794433593,-1.0007762939453124,0.9265560424804687,-61.48091603053435,-225.0229007633588,-3.3435114503816794,-10.900800158691405,-3.478775012207031,3.679887951660156,-34.74809160305343,40.38167938931298,-2.717557251908397,0.0
11.110000848770142,-10.924742175292968,-3.268085266113281,-0.8667010009765624,-23.297709923664122,-209.3740458015267,2.4885496183206106,-9.112331518554686,-2.2744915771484373,1.8435352783203125,-22.519083969465647,27.6793893129771,-9.17557251908397,0.0
11.12000060081482,-9.900023864746093,-3.4668040039062498,-1.924938134765625,16.48854961832061,-191.1145038167939,8.870229007633588,-9.368511096191405,-1.3623007446289062,2.6719290527343746,-28.595419847328245,36.56488549618321,-10.122137404580153,0.0
11.130000829696655,-9.382876306152344,-2.1499930908203124,-2.2673089721679687,37.11450381679389,-168.10687022900763,13.694656488549619,-10.670956799316405,-3.6822821533203123,3.421314172363281,-24.18320610687023,34.33587786259542,-2.9160305343511452,0.0
11.140000581741333,-9.10993731689453,-1.7860744384765623,-2.8850130004882812,49.02290076335878,-148.36641221374046,12.412213740458014,-10.749965454101561,-3.5984850952148437,2.2457611572265623,-10.580152671755725,24.931297709923665,-1.282442748091603,0.0
11.15000057220459,-10.091559997558592,0.13407529296874998,-1.3646949462890625,54.900763358778626,-126.07633587786259,10.625954198473282,-8.951920007324219,-2.427720483398437,1.20667763671875,-14.595419847328245,23.19083969465649,-3.7557251908396947,0.0
11.160000562667847,-9.358934289550781,1.5634136840820312,-1.3000515014648437,43.49618320610687,-111.89312977099236,9.465648854961833,-10.129867224121092,-4.115632653808594,1.3215993164062498,-12.82442748091603,26.076335877862597,0.6412213740458015,0.0
11.170000553131104,-9.402029919433593,2.123656872558594,-0.3064578125,28.931297709923665,-96.45801526717557,8.534351145038167,-9.9981861328125,-4.8889597900390624,1.0989385620117187,-4.6106870229007635,22.641221374045802,2.427480916030534,0.0
11.18000078201294,-9.45470235595703,1.5442600708007812,0.3758896606445312,12.0,-85.81679389312977,8.412213740458014,-9.866505041503906,-3.9719805541992184,0.46686932373046874,7.709923664122138,20.015267175572518,0.1984732824427481,0.0
11.190000534057617,-8.358157995605469,0.63206923828125,0.5722141967773438,10.580152671755725,-72.10687022900764,11.969465648854962,-8.813056311035156,-2.1356278808593747,-0.9983820922851562,1.816793893129771,22.83969465648855,-3.8931297709923665,0.0
11.200000762939453,-8.432378247070313,1.0678139404296874,1.2976572998046874,5.374045801526718,-58.68702290076336,13.32824427480916,-9.320627062988281,-2.212242333984375,0.0718260498046875,-3.4198473282442747,29.801526717557252,0.8854961832061069,0.0
11.210000276565552,-7.161057165527343,0.5698199951171875,1.0797849487304687,-1.3435114503816794,-51.25190839694657,14.091603053435115,-10.421959826660157,-2.4444798950195312,0.8116343627929687,5.755725190839694,31.435114503816795,5.679389312977099,0.0
11.220000505447388,-7.8553756469726554,0.40462008056640625,2.0566192260742184,-3.8625954198473282,-43.51145038167939,12.229007633587786,-10.381258398437499,-2.042254016113281,0.9313444458007812,13.282442748091603,32.70229007633588,6.061068702290076,0.0
11.230000257492065,-9.950302099609374,1.6903063720703124,2.224213342285156,-7.770992366412214,-36.2442748091603,10.763358778625955,-10.345345373535155,-1.2497732666015624,-0.5506663818359374,13.587786259541986,35.083969465648856,5.7251908396946565,0.0
11.240000247955322,-8.82263311767578,1.2617442749023438,1.9680337646484374,-20.53435114503817,-36.6412213740458,11.679389312977099,-9.813832604980469,0.49320554199218747,-0.2825157958984375,7.679389312977099,39.19083969465649,8.763358778625955,0.0
11.250000476837158,-7.570465649414062,0.430956298828125,1.5322890624999999,-21.419847328244273,-30.091603053435115,13.633587786259541,-9.375693701171874,1.924938134765625,0.32561142578124996,-5.190839694656488,43.74045801526717,12.549618320610687,0.0
11.260000705718994,-6.883329772949218,0.040701428222656245,0.584185205078125,-19.603053435114504,-20.549618320610687,14.091603053435115,-10.989385620117186,-0.9169792358398436,1.1444283935546875,-6.793893129770993,50.47328244274809,19.862595419847327,0.0
11.270000457763672,-5.286397265624999,-0.7948749511718749,0.05746083984375,-11.038167938931299,-9.389312977099237,14.51908396946565,-9.947907897949218,-2.2744915771484373,1.484405029296875,1.6488549618320612,44.68702290076336,22.53435114503817,0.0
11.280000686645508,-4.8698061767578125,-1.687912170410156,-0.3136404174804687,3.2061068702290076,3.0229007633587788,14.931297709923664,-11.10191309814453,-2.6791116577148437,1.3670891479492187,16.9618320610687,45.86259541984733,22.18320610687023,0.0
11.290000915527344,-5.832275244140624,-0.239420166015625,0.39264907226562495,6.3816793893129775,16.946564885496183,13.770992366412214,-9.983820922851562,-1.1827356201171875,0.8882488159179687,12.15267175572519,44.80916030534351,20.595419847328245,0.0
11.300000429153442,-6.004657763671875,0.7709329345703124,0.8044517578125,-9.419847328244275,22.259541984732824,11.404580152671755,-10.242394702148436,-1.3168109130859373,1.3096283081054687,13.267175572519085,48.10687022900763,24.137404580152673,0.0
11.310000896453857,-6.248866333007812,0.8547299926757812,1.668758557128906,-20.702290076335878,30.442748091603054,10.106870229007633,-10.026916552734374,-2.080561242675781,0.74699091796875,22.061068702290076,39.343511450381676,24.15267175572519,0.0
11.320000648498535,-6.026205578613281,1.1875240234375,1.879448303222656,-24.580152671755727,35.20610687022901,8.534351145038167,-9.775525378417969,-1.0845733520507812,0.718260498046875,20.9618320610687,39.61832061068702,22.076335877862597,0.0
11.33000111579895,-5.829881042480468,1.4341267944335936,2.683900061035156,-34.30534351145038,40.152671755725194,8.106870229007633,-9.038111267089842,-0.03591302490234375,0.7852981445312499,13.572519083969466,39.41984732824427,22.717557251908396,0.0
11.340000629425049,-5.837063647460937,1.1013327636718748,3.5027170288085934,-45.603053435114504,43.587786259541986,5.572519083969466,-9.478644372558593,-0.4525041137695312,1.3144167114257812,9.541984732824428,39.908396946564885,25.267175572519083,0.0
11.350000619888306,-5.576095666503906,0.0909796630859375,3.5003228271484375,-52.82442748091603,46.51908396946565,3.7557251908396947,-9.157821350097656,0.26815058593749996,1.9536685546875,-2.015267175572519,39.19083969465649,25.801526717557252,0.0
11.360000610351562,-5.521029028320312,-0.507570751953125,4.122815258789062,-43.83206106870229,56.87022900763359,2.4122137404580153,-9.04050546875,-0.040701428222656245,1.5466542724609373,-0.8396946564885496,39.80152671755725,26.595419847328245,0.0
11.37000060081482,-4.872200378417968,-1.0223241088867188,4.060566015625,-39.603053435114504,62.54961832061068,-2.0916030534351147,-9.648632690429688,-0.7565677246093749,2.645592834472656,-5.32824427480916,36.656488549618324,27.81679389312977,0.0
11.380000591278076,-5.3007624755859375,-1.6711527587890624,5.082890124511718,-26.595419847328245,70.87022900763358,-5.32824427480916,-10.338162768554687,-2.1739351074218747,2.8419173706054686,-3.404580152671756,30.076335877862597,29.114503816793892,0.0
11.390000581741333,-5.8083332275390624,-0.8643067993164062,5.57370146484375,-15.83206106870229,77.8473282442748,-8.793893129770993,-10.311826550292968,-1.9488801513671874,2.980781066894531,-1.6641221374045803,27.221374045801525,27.64885496183206,0.0
11.400001049041748,-5.4515971801757805,-1.1180921752929687,4.879382983398437,-4.229007633587786,82.94656488549619,-9.32824427480916,-9.751583361816406,-1.7190367919921874,2.779668127441406,-4.0458015267175576,25.740458015267176,26.290076335877863,0.0
11.410000562667847,-5.858611462402344,-1.467645617675781,4.129997863769531,10.732824427480915,90.58015267175573,-9.465648854961833,-7.886500268554687,0.9097966308593749,2.281674182128906,-13.526717557251908,30.68702290076336,24.68702290076336,0.0
11.420000791549683,-7.295132458496093,-0.9409212524414062,5.231330627441406,17.51145038167939,90.29007633587786,-11.450381679389313,-7.651868505859374,1.0175357055664063,1.2210428466796874,-35.9236641221374,32.87022900763359,27.557251908396946,0.0
11.43000078201294,-7.972691528320312,-0.2609679809570312,9.469067565917967,30.82442748091603,90.16793893129771,-10.122137404580153,-7.876923461914062,-0.3495534423828125,1.4915876342773438,-48.030534351145036,40.900763358778626,32.595419847328245,0.0
11.440000772476196,-9.169792358398437,0.5051765502929687,11.123460913085937,37.74045801526717,83.00763358778626,-10.274809160305344,-9.794678991699218,-2.5139117431640625,3.5625720703124997,-37.74045801526717,39.6793893129771,34.42748091603053,0.0
11.450000524520874,-9.950302099609374,1.9201497314453124,6.725312463378906,41.725190839694655,74.82442748091603,-9.099236641221374,-9.3086560546875,-1.5562310791015623,2.442085693359375,-31.251908396946565,38.961832061068705,30.045801526717558,0.0
11.46000075340271,-12.490550061035156,6.093243225097656,3.8690298828125,29.129770992366414,72.50381679389314,-6.198473282442748,-9.763554370117188,-1.695094775390625,1.6903063720703124,-63.80152671755725,39.23664122137404,26.778625954198475,0.0
11.470000505447388,-14.197615844726561,7.532158422851562,3.1842882080078123,4.6106870229007635,70.44274809160305,5.022900763358779,-11.590330236816406,-3.8235400512695312,2.7820623291015623,-52.36641221374046,40.36641221374046,20.045801526717558,0.0
11.480000734329224,-14.669273571777342,5.772420202636718,4.745307690429687,-11.068702290076336,69.89312977099236,14.885496183206106,-11.911153259277343,-4.472368701171875,1.5370774658203123,-46.2442748091603,32.61068702290076,15.450381679389313,0.0
11.490000486373901,-14.755464831542968,4.790797521972656,3.8666356811523435,-34.396946564885496,62.61068702290076,11.923664122137405,-11.961431494140625,-2.6695348510742187,2.712630480957031,-62.42748091603053,15.374045801526718,19.236641221374047,0.0
11.500000715255737,-13.61103643798828,3.9360675292968748,2.2768857788085937,-58.656488549618324,59.14503816793893,6.5038167938931295,-12.662932580566405,-3.5625720703124997,3.6846763549804686,-50.33587786259542,2.519083969465649,16.82442748091603,0.0
11.510000705718994,-9.813832604980469,-0.9888052856445312,-1.484405029296875,-62.85496183206107,58.732824427480914,7.801526717557252,-11.650185278320311,-2.138022082519531,3.897760302734375,-38.79389312977099,-2.0916030534351147,15.816793893129772,0.0
11.520000696182251,-8.315062365722655,-1.7501614135742187,-0.277727392578125,-34.29007633587786,75.98473282442748,8.687022900763358,-12.66053837890625,-2.7437551025390623,3.794809631347656,-31.389312977099237,-16.946564885496183,10.702290076335878,0.0
11.530000925064087,-9.380482104492186,0.19153613281249998,0.5506663818359374,-25.87786259541985,82.09160305343511,8.366412213740459,-13.2926076171875,-1.1516109985351561,4.599261389160156,-46.656488549618324,-26.076335877862597,8.259541984732824,0.0
11.540000438690186,-8.494627490234375,-0.3806780639648437,0.6703764648437499,-14.50381679389313,86.67175572519083,13.221374045801527,-10.86009873046875,1.3575123413085937,2.8275521606445313,-51.23664122137404,-35.25190839694657,5.358778625954199,0.0
11.550000667572021,-9.727641345214844,1.8291700683593748,0.6560112548828124,-11.145038167938932,93.23664122137404,14.183206106870228,-13.414711901855467,-1.5298948608398437,5.272032055664062,-39.89312977099237,-52.74809160305343,10.335877862595419,0.0
11.560000658035278,-8.8872765625,0.6344634399414062,-0.05027823486328125,-7.038167938931298,96.61068702290076,12.992366412213741,-12.39238779296875,0.0047884033203125,3.308786694335937,-31.954198473282442,-63.80152671755725,8.854961832061068,0.0
11.570000648498535,-10.658985791015624,1.7764976318359373,0.63206923828125,-11.114503816793894,99.22137404580153,8.610687022900763,-12.11705460205078,-0.03591302490234375,2.7437551025390623,-31.328244274809162,-66.12213740458016,10.687022900763358,0.0
11.580000638961792,-9.593566052246093,-0.11252747802734374,0.5770026000976562,-16.12213740458015,96.41221374045801,7.267175572519084,-12.69166300048828,-0.22744915771484372,1.3646949462890625,-30.977099236641223,-78.3969465648855,7.557251908396947,0.0
11.590000629425049,-10.20887587890625,0.2537853759765625,2.1906945190429687,-14.274809160305344,98.18320610687023,1.6641221374045803,-11.168950744628905,1.4173673828125,0.6009446166992187,-26.35114503816794,-90.2442748091603,5.404580152671755,0.0
11.600000381469727,-9.172186560058593,-1.7429788085937499,2.5139117431640625,-11.374045801526718,95.32824427480917,0.061068702290076333,-12.682086193847656,0.28730419921875,1.8507178833007811,-27.00763358778626,-97.09923664122137,6.061068702290076,0.0
11.610000610351562,-9.773131176757811,-0.8810662109374999,2.8898014038085935,-2.6717557251908395,92.67175572519083,-5.526717557251908,-11.286266625976562,1.599326708984375,1.1540052001953125,-21.16030534351145,-96.47328244274809,3.3282442748091605,0.0
11.62000060081482,-8.927977990722656,-1.0845733520507812,3.143586779785156,6.595419847328245,88.90076335877863,-7.145038167938932,-9.03332286376953,3.536235852050781,-1.0007762939453124,-33.69465648854962,-93.22137404580153,-2.7480916030534353,0.0
11.630000829696655,-10.603919152832031,1.455674609375,2.4301146850585935,10.15267175572519,85.1145038167939,-9.801526717557252,-10.199299072265624,2.3487118286132813,-0.3758896606445312,-36.06106870229008,-86.21374045801527,-1.83206106870229,0.0
11.640000581741333,-10.137049829101562,2.0470424194335934,1.5035586425781249,12.412213740458014,79.77099236641222,-8.091603053435115,-8.765172277832031,3.2920272827148436,-1.2378022583007813,-38.717557251908396,-76.59541984732824,-3.1297709923664123,0.0
11.65000057220459,-10.369287390136718,4.062960217285156,1.5227122558593749,6.442748091603053,73.77099236641222,-5.984732824427481,-9.732429748535155,1.5418658691406248,-1.16837041015625,-48.56488549618321,-69.78625954198473,1.633587786259542,0.0
11.660000562667847,-9.849745629882811,3.3710359375,0.7637503295898437,-6.320610687022901,64.54961832061069,-4.366412213740458,-9.303867651367186,2.9185318237304685,-0.9265560424804687,-33.45038167938932,-57.64885496183206,3.7251908396946565,0.0
11.670000791549683,-9.935936889648437,2.636016027832031,0.9576806640625,-9.48091603053435,61.20610687022901,-3.480916030534351,-7.972691528320312,2.8754361938476563,-0.8307879760742187,-46.595419847328245,-46.48854961832061,7.877862595419847,0.0
11.68000078201294,-9.957484704589843,3.7134067749023436,1.7453730102539062,-19.603053435114504,54.54961832061068,-2.9770992366412212,-8.659827404785156,1.3623007446289062,-1.1611878051757811,-41.221374045801525,-36.229007633587784,11.801526717557252,0.0
11.690000295639038,-10.421959826660157,3.801992236328125,0.622492431640625,-30.82442748091603,45.66412213740458,-3.3893129770992365,-8.367734802246094,1.7262193969726563,-1.218648645019531,-35.282442748091604,-31.923664122137403,11.84732824427481,0.0
11.700000762939453,-10.800243688964843,1.4820108276367188,1.1468225952148436,-30.47328244274809,43.725190839694655,-2.122137404580153,-9.636661682128906,-0.39264907226562495,-0.12449848632812499,-44.68702290076336,-26.015267175572518,11.603053435114504,0.0
11.71000075340271,-8.358157995605469,-1.2761094848632812,0.17238251953125,-17.572519083969464,40.47328244274809,1.1908396946564885,-8.801085302734375,0.28730419921875,-1.5322890624999999,-37.282442748091604,-18.80916030534351,8.82442748091603,0.0
11.720000505447388,-10.321403356933594,0.2657563842773437,0.8595183959960937,-6.213740458015267,45.465648854961835,-2.549618320610687,-8.793902697753905,-1.2306196533203124,0.181959326171875,-43.25190839694657,-13.572519083969466,9.679389312977099,0.0
11.730000495910645,-10.359710583496094,0.2753331909179687,1.1707646118164061,-6.702290076335878,45.52671755725191,-4.366412213740458,-8.968679418945312,-2.379836450195312,0.21787235107421873,-29.435114503816795,-14.83969465648855,10.061068702290076,0.0
11.740000486373901,-10.058041174316406,1.6232687255859375,0.5602431884765625,1.3129770992366412,44.68702290076336,-6.2748091603053435,-9.220070593261719,-2.4564509033203126,0.8355763793945312,-19.404580152671755,-15.374045801526718,7.587786259541985,0.0
11.750000715255737,-9.205705383300781,2.032677209472656,0.507570751953125,-0.8091603053435115,43.221374045801525,-6.183206106870229,-9.14824454345703,-2.408566870117187,1.0726023437499999,-9.98473282442748,-15.419847328244275,3.0229007633587788,0.0
11.760000467300415,-9.05965908203125,1.3527239379882812,-0.21787235107421873,0.366412213740458,41.267175572519086,-4.900763358778626,-10.611101757812499,-3.0119056884765625,0.8858546142578124,12.900763358778626,-21.114503816793892,-0.22900763358778625,0.0
11.77000117301941,-8.540117321777343,-0.8714894042968749,0.2346317626953125,19.984732824427482,44.82442748091603,-2.9770992366412212,-9.13627353515625,-2.8730419921875,1.4604630126953124,9.633587786259541,-24.366412213740457,-8.51908396946565,0.0
11.780000925064087,-10.888829150390624,1.675941162109375,1.2234370483398436,26.458015267175572,49.099236641221374,-4.9465648854961835,-8.465897070312499,-1.7166425903320313,1.8100164550781248,22.946564885496183,-24.458015267175572,-13.374045801526718,0.0
11.790000915527344,-11.056423266601563,2.920926025390625,0.9864110839843749,10.748091603053435,41.17557251908397,-6.625954198473282,-9.418789331054686,-3.095702746582031,1.6136919189453125,30.427480916030536,-30.610687022900763,-14.183206106870228,0.0
11.8000009059906,-12.785036865234375,5.102043737792968,1.9656395629882812,-3.2213740458015265,34.56488549618321,-8.15267175572519,-10.115502014160155,-2.712630480957031,1.7334020019531249,43.25190839694657,-36.83969465648855,-18.015267175572518,0.0
11.810000896453857,-10.510545288085936,2.308010400390625,0.6392518432617187,-15.740458015267176,23.480916030534353,-5.709923664122138,-8.781931689453124,-0.7038952880859375,0.9002198242187499,43.19083969465649,-38.51908396946565,-23.96946564885496,0.0
11.820000886917114,-10.235212097167969,1.0271125122070313,1.0223241088867188,-10.351145038167939,21.83206106870229,-2.8091603053435112,-7.766790185546874,-0.033518823242187495,1.637633935546875,36.534351145038165,-35.70992366412214,-25.66412213740458,0.0
11.830000638961792,-10.110713610839843,0.833182177734375,0.7829039428710937,-11.17557251908397,18.045801526717558,-2.564885496183206,-9.60793126220703,-2.3056161987304686,2.2840683837890623,47.038167938931295,-32.717557251908396,-21.984732824427482,0.0
11.840000629425049,-10.050858569335936,0.32561142578124996,0.39743747558593745,-0.061068702290076333,17.404580152671755,-3.572519083969466,-9.404424121093749,-0.5913678100585937,2.645592834472656,51.725190839694655,-38.58015267175573,-24.15267175572519,0.0
11.850000619888306,-9.76116016845703,0.4908113403320312,0.0718260498046875,4.534351145038168,16.244274809160306,-4.8396946564885495,-8.535328918457031,0.59376201171875,1.9009961181640624,43.89312977099237,-36.656488549618324,-28.53435114503817,0.0
11.860000371932983,-9.892841259765625,1.4030021728515625,0.1197100830078125,1.2061068702290076,15.740458015267176,-6.290076335877862,-9.030928662109375,0.3854664672851562,2.559401574707031,40.778625954198475,-26.213740458015266,-25.862595419847327,0.0
11.87000060081482,-9.718064538574218,1.4006079711914061,0.4213794921875,-0.366412213740458,14.580152671755725,-7.038167938931298,-10.065223779296874,-0.3950432739257812,3.5529952636718747,48.97709923664122,-24.99236641221374,-22.900763358778626,0.0
11.880000591278076,-9.471461767578125,0.35673604736328124,0.2920926025390625,8.580152671755725,13.206106870229007,-5.572519083969466,-10.041281762695311,0.25139117431640623,2.8131869506835936,45.9236641221374,-28.015267175572518,-23.938931297709924,0.0
11.890000343322754,-11.183315954589844,2.1260510742187497,1.0845733520507812,17.129770992366414,16.748091603053435,-5.709923664122138,-9.368511096191405,0.6871358764648438,2.061407629394531,38.56488549618321,-24.671755725190838,-26.106870229007633,0.0
11.90000033378601,-9.701305126953125,1.0295067138671874,-0.02633621826171875,18.366412213740457,12.534351145038167,-1.6488549618320612,-7.9655089233398435,0.9911994873046874,1.8626888916015625,25.96946564885496,-21.572519083969464,-26.519083969465647,0.0
11.910000562667847,-9.794678991699218,1.656787548828125,0.430956298828125,14.610687022900763,12.091603053435115,-1.297709923664122,-8.480262280273436,1.0965443603515623,2.118868469238281,26.15267175572519,-14.274809160305344,-23.96946564885496,0.0
11.920000791549683,-9.861716638183593,1.3575123413085937,0.040701428222656245,12.961832061068701,8.992366412213741,-2.122137404580153,-9.995791931152343,-0.04548983154296875,3.268085266113281,23.068702290076335,-11.98473282442748,-19.587786259541986,0.0
11.93000054359436,-9.708487731933593,0.8259995727539062,0.3854664672851562,18.33587786259542,8.0,-3.969465648854962,-9.076418493652342,0.93852705078125,2.5737667846679684,21.862595419847327,-14.076335877862595,-20.412213740458014,0.0
11.940000534057617,-9.674968908691406,0.9265560424804687,0.4836287353515625,24.33587786259542,6.625954198473282,-4.702290076335878,-8.643067993164061,-1.0893617553710937,2.133233679199219,21.14503816793893,-10.992366412213741,-19.52671755725191,0.0
11.950000524520874,-9.945513696289062,1.0223241088867188,0.7062894897460937,29.893129770992367,5.206106870229007,-4.534351145038168,-9.287108239746093,1.1755530151367186,2.5330653564453125,15.083969465648854,-9.923664122137405,-20.580152671755727,0.0
11.96000075340271,-9.8449572265625,1.3192051147460937,0.86191259765625,35.17557251908397,4.213740458015267,-4.977099236641221,-9.564835632324218,0.6057330200195312,2.916137622070312,11.32824427480916,-5.709923664122138,-19.282442748091604,0.0
11.970000505447388,-9.176974963378905,0.258573779296875,0.4477157104492187,42.36641221374046,2.8396946564885495,-3.6946564885496183,-9.947907897949218,0.34715924072265625,2.7269956909179687,12.198473282442748,-8.0,-18.290076335877863,0.0
11.980000257492065,-10.429142431640624,1.6400281372070311,1.0773907470703123,55.43511450381679,8.366412213740459,-7.0534351145038165,-11.303026037597656,-0.7781155395507812,3.5314474487304683,18.427480916030536,-11.145038167938932,-16.778625954198475,0.0
11.990000486373901,-10.627861169433594,3.394977954101562,1.3215993164062498,54.88549618320611,9.19083969465649,-8.381679389312977,-10.39322940673828,-1.956062756347656,2.980781066894531,26.641221374045802,-19.480916030534353,-18.015267175572518,0.0
12.000000476837158,-9.016563452148437,1.3527239379882812,-0.30885201416015623,50.47328244274809,4.0,-4.488549618320611,-9.6151138671875,-1.5753846923828123,2.9855694702148434,40.213740458015266,-25.17557251908397,-19.893129770992367,0.0
12.010000705718994,-10.175357055664062,3.4165257690429685,-0.023942016601562498,44.44274809160305,3.633587786259542,-4.885496183206107,-9.203311181640624,-0.5003881469726562,2.6719290527343746,39.51145038167939,-24.885496183206108,-23.14503816793893,0.0
12.020000696182251,-9.591171850585937,2.5354595581054684,-0.40940848388671874,30.68702290076336,1.8625954198473282,-4.427480916030534,-9.176974963378905,-0.2561795776367187,2.8107927490234372,34.778625954198475,-22.793893129770993,-23.267175572519083,0.0
12.030000925064087,-9.418789331054686,1.924938134765625,-0.23223756103515625,30.931297709923665,4.854961832061068,-4.091603053435114,-8.245630517578125,3.0406361083984375,2.9927520751953125,25.358778625954198,-16.916030534351144,-23.49618320610687,0.0
12.040000915527344,-9.279925634765624,2.4971523315429685,-0.24899697265624998,19.206106870229007,5.66412213740458,-3.877862595419847,-8.40125362548828,1.1540052001953125,2.2098481323242187,10.15267175572519,-8.244274809160306,-18.458015267175572,0.0
12.0500009059906,-9.567229833984374,2.482787121582031,-0.33039982910156246,9.297709923664122,5.877862595419847,-5.267175572519084,-9.969455712890625,-0.37828386230468747,2.6216508178710938,18.12213740458015,-11.587786259541986,-13.038167938931299,0.0
12.060000658035278,-9.65342109375,2.023100402832031,-0.4261678955078125,4.99236641221374,5.022900763358779,-6.305343511450381,-9.279925634765624,-0.2537853759765625,2.5522189697265625,16.702290076335878,-9.526717557251908,-15.389312977099237,0.0
12.070001125335693,-9.5001921875,1.4604630126953124,-0.2442085693359375,3.0381679389312977,5.32824427480916,-5.236641221374046,-9.619902270507811,-1.3910311645507811,3.3590649291992185,24.015267175572518,-9.893129770992367,-16.213740458015266,0.0
12.080000638961792,-9.773131176757811,1.3575123413085937,-0.1197100830078125,3.969465648854962,6.656488549618321,-5.129770992366412,-9.220070593261719,-1.656787548828125,2.612074011230469,31.00763358778626,-16.15267175572519,-18.68702290076336,0.0
12.090000629425049,-9.490615380859374,0.8643067993164062,-0.06703764648437499,6.396946564885496,8.51908396946565,-4.67175572519084,-8.303091357421874,-0.928950244140625,2.4061726684570313,36.68702290076336,-19.984732824427482,-20.290076335877863,0.0
12.100000619888306,-9.734823950195311,0.9744400756835937,0.14125789794921875,6.702290076335878,9.84732824427481,-5.236641221374046,-8.322244970703125,-0.6392518432617187,1.9608511596679685,32.19847328244275,-18.16793893129771,-21.435114503816795,0.0
12.110000610351562,-9.624690673828125,1.2114660400390624,0.39264907226562495,5.648854961832061,11.587786259541986,-7.022900763358779,-7.455543969726562,0.37828386230468747,1.7741034301757812,25.923664122137403,-12.229007633587786,-20.3206106870229,0.0
12.120000839233398,-9.674968908691406,1.6448165405273436,0.63206923828125,-0.030534351145038167,12.16793893129771,-8.229007633587786,-7.1778165771484375,1.419761584472656,1.0319009155273438,19.358778625954198,-8.488549618320612,-17.801526717557252,0.0
12.130000829696655,-10.038887561035155,1.7549498168945312,0.7996633544921875,-3.267175572519084,12.0,-8.717557251908397,-8.870517150878905,0.3136404174804687,1.956062756347656,17.862595419847327,-3.7404580152671754,-13.221374045801527,0.0
12.140000581741333,-9.955090502929687,1.6424223388671875,0.622492431640625,-4.595419847328245,11.083969465648854,-8.320610687022901,-8.942343200683593,-0.09337386474609374,2.73896669921875,13.633587786259541,1.5725190839694656,-12.01526717557252,0.0
12.15000057220459,-9.792284790039062,1.3048399047851562,0.7110778930664062,-5.786259541984733,10.641221374045802,-8.0,-8.652644799804687,-0.41419688720703124,3.1483751831054687,13.618320610687023,3.2977099236641223,-12.51908396946565,0.0
12.160000562667847,-9.648632690429688,1.1252747802734375,0.6440402465820312,-5.282442748091603,10.0,-8.458015267175572,-8.166621862792969,-0.622492431640625,2.863465185546875,14.305343511450381,2.015267175572519,-13.801526717557252,0.0
12.170000791549683,-9.521740002441407,1.1156979736328125,0.7350199096679687,-2.366412213740458,10.183206106870228,-9.389312977099237,-9.507374792480467,-0.47165772705078124,3.5410242553710933,15.526717557251908,4.33587786259542,-13.86259541984733,0.0
12.18000078201294,-9.265560424804686,1.426944189453125,0.9528922607421875,-1.3893129770992367,10.335877862595419,-9.877862595419847,-9.114725720214842,-0.05746083984375,3.306392492675781,8.977099236641221,6.396946564885496,-14.900763358778626,0.0
12.190000534057617,-9.330203869628905,1.8363526733398436,1.3072341064453123,-2.16793893129771,10.076335877862595,-10.610687022900763,-8.001421948242188,0.4477157104492187,2.760514514160156,-3.877862595419847,11.755725190839694,-15.801526717557252,0.0
12.200001001358032,-9.287108239746093,2.1356278808593747,1.407790576171875,-7.114503816793893,7.877862595419847,-12.122137404580153,-8.645462194824217,-0.8475473876953125,3.1459809814453124,-6.732824427480916,15.572519083969466,-13.251908396946565,0.0
12.21000051498413,-9.560047229003906,2.080561242675781,2.032677209472656,-7.404580152671755,6.229007633587786,-11.587786259541986,-8.655039001464843,-0.6177040283203125,3.191470812988281,-4.152671755725191,15.374045801526718,-11.98473282442748,0.0
12.220000505447388,-9.619902270507811,1.956062756347656,2.1883003173828124,-5.419847328244275,3.0381679389312977,-10.13740458015267,-8.118737829589843,-0.4070142822265625,2.7198130859375,-5.343511450381679,17.862595419847327,-12.320610687022901,0.0
12.230000257492065,-9.536105212402344,1.9393033447265624,2.272097375488281,-3.7404580152671754,1.2671755725190839,-8.488549618320612,-7.44357296142578,0.16759411621093748,1.5753846923828123,-4.519083969465649,23.0381679389313,-13.053435114503817,0.0
12.240000486373901,-9.866505041503906,2.0542250244140625,2.3127988037109373,-4.351145038167939,-0.9923664122137404,-6.198473282442748,-6.756437084960937,0.08858546142578125,1.5394716674804687,0.4580152671755725,26.137404580152673,-12.16793893129771,0.0
12.250000476837158,-10.000580334472655,1.9656395629882812,2.4444798950195312,-4.1679389312977095,-3.1603053435114505,-4.916030534351145,-7.747636572265624,0.488417138671875,1.5658078857421873,5.114503816793893,26.290076335877863,-10.931297709923664,0.0
12.260000467300415,-10.261548315429687,2.2170307373046874,2.5426421630859375,-3.7557251908396947,-6.0458015267175576,-4.580152671755725,-7.7787611938476555,0.4333505004882812,2.437297290039062,-5.190839694656488,30.50381679389313,-9.816793893129772,0.0
12.270000696182251,-10.192116467285155,2.2194249389648437,2.849099975585937,-7.206106870229007,-9.068702290076336,-3.572519083969466,-8.865728747558594,0.4955997436523437,2.6384102294921874,-10.335877862595419,36.38167938931298,-7.587786259541985,0.0
12.280000925064087,-10.328585961914062,2.2170307373046874,3.1483751831054687,-9.251908396946565,-13.48091603053435,-2.8091603053435112,-8.686163623046875,0.2609679809570312,2.952050646972656,-18.137404580152673,43.9236641221374,-5.083969465648855,0.0
12.290000915527344,-10.180145458984374,1.8914193115234375,3.0358477050781247,-10.534351145038167,-17.984732824427482,-1.5267175572519085,-10.12507882080078,-0.6296750366210937,2.521094348144531,-12.198473282442748,42.74809160305343,-0.42748091603053434,0.0
12.300000667572021,-10.378864196777343,1.7262193969726563,3.0119056884765625,-7.3893129770992365,-22.580152671755727,-1.4045801526717556,-9.617508068847656,0.9241618408203125,3.7038299682617186,-11.083969465648854,43.099236641221374,-1.1603053435114503,0.0
12.310000896453857,-10.32379755859375,1.3838485595703125,2.7365724975585937,-2.366412213740458,-27.740458015267176,-0.6412213740458015,-10.450690246582031,-0.11013327636718749,4.450820886230469,-18.82442748091603,48.47328244274809,-2.0610687022900764,0.0
12.320000648498535,-10.347739575195313,1.1085153686523437,2.9089550170898435,1.1450381679389312,-31.96946564885496,0.15267175572519084,-11.717222924804688,-2.4253262817382812,4.386177441406249,-14.564885496183207,43.43511450381679,-1.8931297709923665,0.0
12.330000877380371,-10.941501586914061,1.149216796875,3.1675287963867187,11.893129770992367,-36.916030534351144,0.9007633587786259,-10.536881506347656,-1.5298948608398437,2.454056701660156,-11.068702290076336,40.38167938931298,-4.458015267175573,0.0
12.340000629425049,-12.808978881835937,4.759672900390624,4.132392065429687,8.427480916030534,-42.6412213740458,0.6259541984732825,-9.710881933593749,-1.599326708984375,2.221819140625,-9.893129770992367,41.48091603053435,-4.519083969465649,0.0
12.350000619888306,-12.452242834472656,4.465186096191406,3.284844677734375,-13.557251908396946,-57.83206106870229,2.564885496183206,-9.679757312011718,-2.1068974609374997,2.0470424194335934,-10.580152671755725,42.534351145038165,-0.6106870229007634,0.0
12.360000610351562,-12.605471740722656,1.7669208251953124,3.881000891113281,-17.251908396946565,-69.86259541984732,6.427480916030534,-9.023746057128905,-0.5985504150390625,0.6943184814453125,-0.04580152671755725,36.48854961832061,1.3587786259541985,0.0
12.370000839233398,-12.612654345703124,-0.35673604736328124,3.900154504394531,-8.65648854961832,-79.32824427480917,8.198473282442748,-8.315062365722655,0.6847416748046875,0.9528922607421875,-10.122137404580153,46.80916030534351,3.312977099236641,0.0
12.380000352859497,-13.3692220703125,-0.3591302490234375,5.104437939453125,-10.854961832061068,-86.97709923664122,5.816793893129771,-9.619902270507811,-1.1037269653320312,0.7757213378906249,-7.984732824427481,49.49618320610687,9.19083969465649,0.0
12.390000581741333,-12.717999218749998,-2.863465185546875,5.0182466796875,-7.7251908396946565,-102.90076335877863,2.595419847328244,-9.045293872070312,-0.21308394775390624,-0.3591302490234375,-2.198473282442748,47.7557251908397,8.564885496183207,0.0
12.40000057220459,-13.218387365722656,-3.9504327392578125,5.80354482421875,16.702290076335878,-114.2442748091603,-1.5572519083969465,-8.916006982421875,-0.04548983154296875,-0.06703764648437499,-10.045801526717558,56.88549618320611,9.17557251908397,0.0
12.410000801086426,-13.084312072753905,-1.944091748046875,6.4475850708007805,17.34351145038168,-131.3740458015267,-9.267175572519085,-9.90241806640625,-2.288856787109375,1.714248388671875,-3.282442748091603,58.70229007633588,12.335877862595419,0.0
12.420000791549683,-13.314155432128905,-0.4070142822265625,6.358999609374999,13.938931297709924,-145.14503816793894,-14.793893129770993,-9.627084875488281,-0.8020575561523438,0.7110778930664062,6.015267175572519,55.14503816793893,8.51908396946565,0.0
12.43000054359436,-12.476184851074217,-0.5434837768554687,4.733336682128906,13.908396946564885,-160.01526717557252,-14.854961832061068,-8.935160595703124,0.40940848388671874,1.1037269653320312,-5.175572519083969,64.36641221374046,7.603053435114504,0.0
12.440000534057617,-11.508927380371093,-0.21308394775390624,4.352658618164062,2.0610687022900764,-172.29007633587787,-14.564885496183207,-9.82580361328125,-1.1611878051757811,1.659181750488281,-4.412213740458015,62.48854961832061,10.274809160305344,0.0
12.450000524520874,-10.505756884765624,-0.63206923828125,2.157175695800781,4.625954198473282,-182.3969465648855,-15.389312977099237,-9.220070593261719,-0.5458779785156249,1.4317325927734375,-2.9160305343511452,61.05343511450382,9.221374045801527,0.0
12.46000075340271,-11.042058056640624,-0.9648632690429687,1.448492004394531,11.435114503816793,-181.00763358778627,-14.854961832061068,-10.187328063964843,-1.8938135131835936,1.6208745239257811,-3.9389312977099236,59.25190839694657,7.648854961832061,0.0
12.470000505447388,-11.267113012695312,-1.5227122558593749,0.584185205078125,23.435114503816795,-176.91603053435114,-11.648854961832061,-9.70369932861328,-1.707065783691406,1.2641384765625,0.4580152671755725,56.36641221374046,4.870229007633588,0.0
12.480000495910645,-11.681309899902343,-1.43652099609375,0.35673604736328124,40.85496183206107,-168.87022900763358,-8.15267175572519,-9.830592016601562,-1.7214309936523438,1.1372457885742187,-4.793893129770993,55.969465648854964,3.9236641221374047,0.0
12.490000486373901,-11.176133349609374,-1.7118541870117185,-1.2210428466796874,51.81679389312977,-159.6793893129771,-3.1297709923664123,-10.82179150390625,-3.4069489624023435,1.2401964599609374,2.3206106870229006,52.42748091603053,5.679389312977099,0.0
12.500000476837158,-11.204863769531249,-1.3287819213867187,-1.8722656982421875,61.31297709923664,-147.61832061068702,-1.2366412213740459,-10.153809240722655,-1.7836802368164062,0.6679822631835937,5.175572519083969,45.37404580152672,2.7480916030534353,0.0
12.510000944137573,-11.812990991210937,0.2346317626953125,-0.8667010009765624,59.11450381679389,-135.63358778625954,-0.6259541984732825,-11.137826123046874,-2.50912333984375,1.1875240234375,5.068702290076335,46.38167938931298,4.99236641221374,0.0
12.520000696182251,-11.427524523925781,1.139639990234375,-0.9911994873046874,53.267175572519086,-122.03053435114504,-1.0229007633587786,-10.831368310546875,-3.323151904296875,1.22583125,8.854961832061068,39.221374045801525,6.137404580152672,0.0
12.530000925064087,-11.135431921386719,0.8044517578125,-1.2497732666015624,44.01526717557252,-111.2824427480916,-2.946564885496183,-10.206481677246094,-3.1483751831054687,-0.031124621582031248,13.419847328244275,33.19083969465649,4.320610687022901,0.0
12.540000677108765,-10.596736547851561,1.429338391113281,-0.26815058593749996,35.282442748091604,-98.21374045801527,-2.763358778625954,-8.683769421386717,-1.5466542724609373,-0.22266075439453123,7.358778625954199,31.49618320610687,3.7557251908396947,0.0
12.550000667572021,-9.78031378173828,1.6160861206054686,-0.35194764404296874,16.442748091603054,-91.12977099236642,-1.1603053435114503,-9.533711010742186,-2.147598889160156,0.34715924072265625,-1.5419847328244274,34.091603053435115,7.587786259541985,0.0
12.560000658035278,-8.59997236328125,0.5386953735351562,-0.3687070556640625,10.687022900763358,-79.41984732824427,2.366412213740458,-11.135431921386719,-3.797203833007812,1.16837041015625,6.625954198473282,30.83969465648855,10.931297709923664,0.0
12.570000886917114,-9.6917283203125,1.1731588134765625,0.29448680419921874,5.694656488549619,-68.9618320610687,2.3053435114503817,-9.974244116210937,-3.1124621582031247,0.03591302490234375,11.32824427480916,23.480916030534353,9.435114503816793,0.0
12.580000400543213,-8.621520178222656,1.005564697265625,0.35673604736328124,-1.6793893129770991,-63.267175572519086,4.1679389312977095,-10.714052429199219,-2.6192566162109374,1.3120225097656248,20.16793893129771,19.0381679389313,7.404580152671755,0.0
12.590000629425049,-6.675034228515624,0.229843359375,0.40940848388671874,-2.1526717557251906,-53.83206106870229,7.068702290076335,-9.284714038085937,-1.7166425903320313,0.2657563842773437,10.381679389312977,21.740458015267176,6.015267175572519,0.0
12.600000619888306,-6.715735656738281,1.3144167114257812,0.5961562133789062,-4.213740458015267,-45.404580152671755,8.045801526717558,-8.82981572265625,-0.7038952880859375,0.9313444458007812,6.549618320610687,20.412213740458014,7.282442748091603,0.0
12.610000610351562,-7.4962453979492185,2.3822306518554686,1.158793603515625,-13.786259541984732,-40.18320610687023,6.931297709923665,-7.972691528320312,0.2920926025390625,-0.34237083740234375,-2.2900763358778624,20.27480916030534,7.3893129770992365,0.0
12.62000060081482,-7.077260107421875,1.3335703247070312,0.8762778076171874,-20.732824427480917,-36.33587786259542,10.061068702290076,-9.672574707031249,0.7302315063476562,-0.4525041137695312,-2.1526717557251906,26.916030534351144,10.244274809160306,0.0
12.630000591278076,-7.003039855957031,0.7733271362304687,1.465251416015625,-15.572519083969466,-22.977099236641223,15.282442748091603,-9.387664709472656,-0.1292868896484375,0.6200982299804687,-12.946564885496183,28.03053435114504,13.435114503816793,0.0
12.640000820159912,-6.828263134765624,0.45968671875,0.967257470703125,-9.98473282442748,-15.86259541984733,16.977099236641223,-9.935936889648437,-1.1444283935546875,1.448492004394531,-8.091603053435115,27.66412213740458,15.236641221374045,0.0
12.65000057220459,-5.635950708007812,-1.4508862060546874,1.0319009155273438,7.480916030534351,-4.076335877862595,20.244274809160306,-11.192892761230468,-2.664746447753906,0.7038952880859375,-3.2977099236641223,24.366412213740457,15.358778625954198,0.0
12.660000562667847,-6.246472131347656,-0.43574470214843747,1.6903063720703124,4.900763358778626,1.083969465648855,16.16793893129771,-11.039663854980468,-2.9568390502929685,2.114080065917969,5.4961832061068705,22.38167938931298,14.610687022900763,0.0
12.670000791549683,-6.4284314575195305,-0.5027823486328125,2.104503259277344,0.9618320610687023,4.0,15.129770992366412,-9.85692823486328,-1.7405846069335937,0.9744400756835937,12.045801526717558,11.419847328244275,11.206106870229007,0.0
12.68000078201294,-6.009446166992187,0.35194764404296874,2.5450363647460934,1.251908396946565,7.770992366412214,13.114503816793894,-10.12507882080078,-1.3239935180664062,0.488417138671875,10.442748091603054,9.725190839694656,10.198473282442748,0.0
12.690000534057617,-6.4834980957031245,2.3535002319335936,2.6384102294921874,-11.908396946564885,9.450381679389313,11.17557251908397,-9.323021264648437,-0.028730419921875,0.12449848632812499,6.030534351145038,9.419847328244275,9.007633587786259,0.0
12.700000762939453,-6.48589229736328,2.9568390502929685,2.789244934082031,-24.412213740458014,10.65648854961832,11.114503816793894,-9.593566052246093,-0.009576806640625,-0.05746083984375,7.679389312977099,11.34351145038168,9.83206106870229,0.0
12.71000051498413,-6.763619689941406,2.8754361938476563,3.105279553222656,-36.045801526717554,11.450381679389313,11.206106870229007,-9.677363110351562,0.0047884033203125,-0.14125789794921875,4.473282442748092,13.526717557251908,10.549618320610687,0.0
12.720000505447388,-6.598419775390624,1.4939818359375,3.0526071166992184,-45.06870229007634,12.778625954198473,12.091603053435115,-9.967061511230469,-0.507570751953125,-0.1771709228515625,5.786259541984733,15.236641221374045,11.358778625954198,0.0
12.730000495910645,-6.495469104003906,0.37828386230468747,3.5769372802734374,-47.57251908396947,16.015267175572518,11.34351145038168,-9.943119494628906,-0.737414111328125,0.34237083740234375,2.8091603053435112,15.801526717557252,11.404580152671755,0.0
12.740000247955322,-4.7955859252929685,-2.3487118286132813,3.3782185424804685,-31.801526717557252,22.595419847328245,12.045801526717558,-9.926360083007811,-1.0869675537109373,0.5961562133789062,-0.6564885496183206,13.633587786259541,11.603053435114504,0.0
12.750000715255737,-6.282385156249999,-1.4987702392578124,5.013458276367187,-17.206106870229007,33.63358778625954,7.1603053435114505,-9.847351428222655,-1.5275006591796874,0.7781155395507812,-0.12213740458015267,13.755725190839694,11.557251908396946,0.0
12.760000705718994,-6.251260534667968,-0.6560112548828124,4.656722229003906,-12.0,33.11450381679389,4.961832061068702,-10.146626635742187,-2.1978771240234374,0.7613561279296874,0.8396946564885496,11.969465648854962,12.229007633587786,0.0
12.770000457763672,-7.467514978027343,-0.3112462158203125,5.614402893066406,-5.786259541984733,36.83969465648855,4.366412213740458,-9.852139831542969,-1.6998831787109374,1.158793603515625,3.83206106870229,11.816793893129772,12.580152671755725,0.0
12.780000925064087,-6.653486413574218,-0.4477157104492187,4.972756848144531,7.00763358778626,41.52671755725191,6.625954198473282,-9.543287817382812,-0.9193734375,0.6057330200195312,1.8778625954198473,10.885496183206106,12.580152671755725,0.0
12.790000915527344,-7.094019519042968,-0.00718260498046875,4.984727856445312,22.85496183206107,49.45038167938932,7.938931297709924,-10.172962854003906,-0.9888052856445312,1.0199299072265624,0.6564885496183206,11.068702290076336,14.320610687022901,0.0
12.8000009059906,-8.650250598144531,1.6041151123046875,6.050147595214844,27.206106870229007,52.091603053435115,7.862595419847328,-9.969455712890625,-1.3144167114257812,1.8243816650390623,-2.2442748091603053,13.709923664122137,14.51908396946565,0.0
12.810000658035278,-10.429142431640624,1.5203180541992187,7.678204724121093,27.419847328244273,48.76335877862596,11.618320610687023,-9.9981861328125,-1.7477672119140624,1.0534487304687499,-1.9083969465648856,12.213740458015268,14.51908396946565,0.0
12.820000648498535,-10.053252770996092,0.6967126831054687,7.970297326660156,37.64885496183206,43.221374045801525,18.35114503816794,-9.80665,-1.4508862060546874,0.4740519287109375,-2.7022900763358777,12.488549618320612,13.770992366412214,0.0
12.830000877380371,-11.180921752929686,0.5243301635742187,10.098742602539062,39.786259541984734,37.25190839694657,20.244274809160306,-9.923965881347655,-1.3215993164062498,0.5123591552734374,-5.00763358778626,11.679389312977099,13.679389312977099,0.0
12.840000629425049,-13.192051147460937,2.3032219970703123,11.362881079101562,38.3206106870229,23.282442748091604,22.900763358778626,-10.019733947753906,-1.16837041015625,0.19632453613281248,-2.351145038167939,13.923664122137405,14.351145038167939,0.0
12.850000619888306,-9.327809667968749,3.0406361083984375,4.374206433105469,21.557251908396946,10.931297709923664,24.3206106870229,-8.91840118408203,0.16280571289062498,-0.3136404174804687,-12.381679389312977,14.091603053435115,13.893129770992367,0.0
12.860000371932983,-8.01818135986328,4.2329485351562495,-3.469198205566406,-18.33587786259542,10.488549618320612,15.389312977099237,-9.595960253906249,-0.033518823242187495,1.0965443603515623,-18.18320610687023,20.427480916030536,16.412213740458014,0.0
12.87000060081482,-8.547299926757812,2.4588451049804685,-3.778050219726562,-42.916030534351144,23.66412213740458,13.17557251908397,-8.779537487792968,0.19871873779296872,0.05027823486328125,-23.251908396946565,21.633587786259543,17.938931297709924,0.0
12.880000591278076,-10.63025537109375,-0.2657563842773437,1.1827356201171875,-24.748091603053435,42.961832061068705,18.916030534351144,-9.074024291992187,0.4740519287109375,0.4836287353515625,-33.908396946564885,21.450381679389313,19.19083969465649,0.0
12.890000581741333,-10.261548315429687,0.8259995727539062,2.0829554443359375,-35.954198473282446,38.29007633587786,19.19083969465649,-10.072406384277343,-1.5586252807617187,1.7525556152343749,-41.80152671755725,21.236641221374047,22.931297709923665,0.0
12.900001049041748,-8.882488159179687,-2.281674182128906,2.480392919921875,-13.32824427480916,45.14503816793893,22.549618320610687,-11.049240661621093,-3.143586779785156,2.3918074584960936,-38.61068702290076,13.694656488549619,23.099236641221374,0.0
12.910000562667847,-9.809044201660155,-1.946485949707031,3.6296097167968746,10.13740458015267,58.534351145038165,16.946564885496183,-11.58075343017578,-3.801992236328125,3.794809631347656,-32.47328244274809,4.67175572519084,19.16030534351145,0.0
12.920000314712524,-10.864887133789061,1.6112977172851561,2.91134921875,15.435114503816793,64.45801526717557,10.198473282442748,-11.152191333007812,-3.2704794677734372,3.0741549316406247,-26.198473282442748,-3.969465648854962,16.885496183206108,0.0
12.93000054359436,-7.9272016967773435,-0.8690952026367187,1.4006079711914061,14.67175572519084,61.41984732824427,13.694656488549619,-10.424354028320312,-2.1260510742187497,2.559401574707031,-15.938931297709924,-16.778625954198475,16.396946564885496,0.0
12.940000772476196,-9.102754711914063,1.024718310546875,2.7940333374023436,16.259541984732824,73.7557251908397,9.206106870229007,-11.473014355468749,-1.3144167114257812,3.3159692993164063,-19.022900763358777,-25.358778625954198,11.908396946564885,0.0
12.950000762939453,-10.357316381835936,3.2728736694335936,3.5865140869140624,1.2671755725190839,69.22137404580153,6.0,-11.674127294921874,0.27293898925781246,0.430956298828125,-15.19083969465649,-29.31297709923664,8.885496183206106,0.0
12.96000075340271,-9.631873278808593,3.430890979003906,2.4971523315429685,-13.32824427480916,62.961832061068705,7.6183206106870225,-12.696451403808593,1.1061211669921875,1.6831237670898436,-21.17557251908397,-34.06106870229008,7.633587786259542,0.0
12.970000505447388,-9.744400756835937,3.0119056884765625,2.4684219116210935,-18.977099236641223,62.35114503816794,9.221374045801527,-13.460201733398437,0.4740519287109375,2.27927998046875,-8.51908396946565,-38.961832061068705,7.4961832061068705,0.0
12.980000734329224,-8.834604125976561,1.687912170410156,1.7788918334960937,-19.16030534351145,58.595419847328245,10.687022900763358,-13.469778540039062,0.679953271484375,0.4740519287109375,-0.6717557251908397,-50.42748091603053,6.137404580152672,0.0
12.990000486373901,-9.184157568359375,0.7757213378906249,1.9632453613281249,-13.129770992366412,58.74809160305343,10.702290076335878,-12.763489050292968,1.1037269653320312,-0.33039982910156246,-6.473282442748092,-52.36641221374046,5.923664122137405,0.0
13.000000476837158,-8.010998754882811,-0.2154781494140625,1.956062756347656,-1.83206106870229,60.396946564885496,11.068702290076336,-12.406753002929687,1.3215993164062498,0.7852981445312499,0.3053435114503817,-54.97709923664122,7.312977099236641,0.0
13.010000705718994,-9.200916979980468,0.4740519287109375,2.3151930053710936,9.083969465648854,63.64885496183206,7.068702290076335,-12.42351241455078,1.1061211669921875,-0.0430956298828125,-2.198473282442748,-62.778625954198475,5.419847328244275,0.0
13.02000093460083,-9.72285294189453,2.1260510742187497,1.7118541870117185,2.9770992366412212,59.3587786259542,3.5877862595419847,-10.9175595703125,3.1866824096679687,0.1580173095703125,-13.465648854961833,-59.16030534351145,2.50381679389313,0.0
13.030001401901245,-9.5001921875,1.0223241088867188,1.218648645019531,3.404580152671756,60.62595419847328,4.305343511450381,-11.25514200439453,1.0917559570312498,0.1149216796875,-28.641221374045802,-56.06106870229008,3.435114503816794,0.0
13.040000915527344,-10.242394702148436,2.001552587890625,1.85790048828125,2.0,60.82442748091603,1.7404580152671756,-10.960655200195312,0.15562310791015624,-0.3854664672851562,-16.580152671755727,-54.62595419847328,1.9083969465648856,0.0
13.05000114440918,-9.617508068847656,2.7724855224609373,1.139639990234375,-2.2900763358778624,56.916030534351144,1.1297709923664123,-10.067617980957031,1.2473790649414063,-0.8475473876953125,-19.022900763358777,-53.19083969465649,-1.3129770992366412,0.0
13.060000658035278,-8.896853369140624,0.4836287353515625,-0.09816226806640624,0.2748091603053435,56.0,3.7557251908396947,-9.545682019042967,1.7357962036132812,-0.1388636962890625,-29.282442748091604,-44.274809160305345,-2.351145038167939,0.0
13.070001125335693,-9.311050256347656,0.6177040283203125,0.9983820922851562,11.007633587786259,63.19083969465649,1.633587786259542,-10.05564697265625,0.36391865234375,0.3758896606445312,-22.366412213740457,-39.7557251908397,-0.7175572519083969,0.0
13.080000638961792,-10.046070166015625,1.5179238525390624,0.7589619262695312,9.770992366412214,61.587786259541986,-2.732824427480916,-10.180145458984374,-0.9409212524414062,-0.23702596435546874,-8.106870229007633,-41.23664122137404,-1.0229007633587786,0.0
13.090000629425049,-9.557653027343749,0.15562310791015624,0.26336218261718747,15.48091603053435,61.6793893129771,-3.312977099236641,-9.406818322753905,0.23702596435546874,-0.7398083129882812,-1.8625954198473282,-41.786259541984734,-2.763358778625954,0.0
13.100000619888306,-10.302249743652343,1.0941501586914062,0.5219359619140624,21.52671755725191,66.19847328244275,-5.526717557251908,-8.961496813964843,1.5873557006835937,-1.388636962890625,0.7786259541984732,-32.70229007633588,-4.595419847328245,0.0
13.110000848770142,-11.094730493164063,2.549824768066406,1.3263877197265623,8.213740458015268,62.0,-9.221374045801527,-8.463502868652343,3.1794998046874996,-0.033518823242187495,-14.213740458015268,-25.96946564885496,-4.67175572519084,0.0
13.12000060081482,-10.644620581054687,2.214636535644531,0.7565677246093749,4.076335877862595,59.587786259541986,-9.32824427480916,-8.796296899414061,1.9919757812499999,-0.9504980590820312,-29.893129770992367,-25.709923664122137,-1.8625954198473282,0.0
13.130000591278076,-9.674968908691406,1.3311761230468748,0.718260498046875,1.7404580152671756,56.70229007633588,-10.473282442748092,-9.22485899658203,0.27293898925781246,-1.350329736328125,-19.770992366412212,-24.732824427480917,0.48854961832061067,0.0
13.140000343322754,-10.907982763671875,2.825157958984375,1.39821376953125,-0.21374045801526717,56.412213740458014,-14.259541984732824,-9.9981861328125,-1.5394716674804687,0.11252747802734374,-15.145038167938932,-25.786259541984734,-0.8549618320610687,0.0
13.15000057220459,-10.429142431640624,2.1619640991210938,0.5243301635742187,-11.511450381679388,49.282442748091604,-15.068702290076336,-10.031704956054687,-2.0063409912109376,0.7493851196289062,3.2519083969465647,-29.61832061068702,-3.6793893129770994,0.0
13.160001039505005,-9.643844287109374,0.718260498046875,0.6344634399414062,-5.267175572519084,48.01526717557252,-13.587786259541986,-10.115502014160155,-1.2761094848632812,1.0079588989257813,12.51908396946565,-32.213740458015266,-7.679389312977099,0.0
13.170000553131104,-9.950302099609374,1.6711527587890624,1.659181750488281,4.396946564885496,52.54961832061068,-13.954198473282442,-8.834604125976561,0.13407529296874998,1.2928688964843749,7.786259541984733,-34.82442748091603,-12.732824427480915,0.0
13.180001020431519,-10.096348400878906,3.399766357421875,1.5801730957031248,-4.534351145038168,49.6793893129771,-14.854961832061068,-9.3086560546875,-1.3335703247070312,1.7094599853515624,7.7251908396946565,-35.00763358778626,-11.587786259541986,0.0
13.190000772476196,-9.60793126220703,2.849099975585937,0.8307879760742187,-16.290076335877863,44.045801526717554,-14.091603053435115,-10.225635290527343,-2.365471240234375,2.0302830078125,23.404580152671755,-39.55725190839695,-10.045801526717558,0.0
13.200001001358032,-10.311826550292968,3.8570588745117185,1.908178723144531,-22.870229007633586,45.20610687022901,-15.938931297709924,-10.299855541992187,-0.7158662963867187,2.3247698120117186,32.16793893129771,-48.01526717557252,-14.67175572519084,0.0
13.21000051498413,-9.212887988281249,1.7645266235351562,1.0941501586914062,-33.64885496183206,37.17557251908397,-13.282442748091603,-8.920795385742187,0.5219359619140624,1.6735469604492186,19.435114503816795,-48.01526717557252,-20.717557251908396,0.0
13.220000505447388,-9.97903251953125,2.3630770385742186,1.5514426757812498,-44.30534351145038,33.587786259541986,-12.732824427480915,-9.696516723632811,-1.0582371337890624,2.262520568847656,18.33587786259542,-47.66412213740458,-18.33587786259542,0.0
13.230000495910645,-9.87608184814453,1.2401964599609374,1.5897499023437498,-43.23664122137404,31.251908396946565,-12.580152671755725,-9.85692823486328,-0.6105214233398437,2.1619640991210938,29.557251908396946,-52.56488549618321,-18.610687022900763,0.0
13.240000486373901,-9.797073193359374,0.7493851196289062,1.5586252807617187,-31.908396946564885,30.16793893129771,-10.65648854961832,-9.150638745117186,1.37906015625,1.6711527587890624,23.251908396946565,-54.70229007633588,-22.900763358778626,0.0
13.250000476837158,-9.03332286376953,-0.5578489868164063,0.8858546142578124,-21.923664122137403,30.0,-8.65648854961832,-10.196904870605469,-0.7972691528320313,2.2170307373046874,23.557251908396946,-50.35114503816794,-19.69465648854962,0.0
13.260000705718994,-9.631873278808593,0.6512228515624999,0.5339069702148437,-11.007633587786259,29.954198473282442,-9.206106870229007,-10.299855541992187,0.047884033203124995,2.4349030883789062,33.603053435114504,-55.61832061068702,-19.34351145038168,0.0
13.270000696182251,-8.616731774902343,-0.33518823242187495,0.8307879760742187,-0.15267175572519084,29.587786259541986,-9.251908396946565,-8.17859287109375,1.4987702392578124,1.4101847778320311,24.137404580152673,-53.25190839694657,-22.53435114503817,0.0
13.280000925064087,-9.9981861328125,0.7924807495117187,1.8219874633789062,8.687022900763358,33.343511450381676,-9.98473282442748,-9.65342109375,-0.11731588134765625,2.0254946044921875,23.297709923664122,-47.17557251908397,-17.69465648854962,0.0
13.290001153945923,-9.457096557617186,0.16998831787109375,0.7350199096679687,15.938931297709924,30.65648854961832,-11.022900763358779,-9.892841259765625,0.277727392578125,2.109291662597656,30.412213740458014,-49.770992366412216,-16.27480916030534,0.0
13.3000009059906,-10.000580334472655,0.16041151123046873,1.1037269653320312,27.46564885496183,32.80916030534351,-11.725190839694656,-8.415618835449218,1.8339584716796873,1.005564697265625,21.923664122137403,-48.38167938931298,-18.366412213740457,0.0
13.310000896453857,-9.9215716796875,1.4628572143554686,0.7517793212890624,30.870229007633586,33.80152671755725,-12.01526717557252,-8.525752111816406,1.62805712890625,1.2880804931640624,12.564885496183207,-37.16030534351145,-16.396946564885496,0.0
13.320000648498535,-10.359710583496094,2.3582886352539063,0.7422025146484375,26.12213740458015,32.0,-11.450381679389313,-9.402029919433593,0.32082302246093747,1.5011644409179687,12.366412213740459,-35.908396946564885,-11.908396946564885,0.0
13.330000877380371,-11.494562170410155,3.361459130859375,1.0630255371093749,24.244274809160306,31.022900763358777,-9.16030534351145,-8.760383874511719,0.4572925170898437,1.37906015625,15.877862595419847,-39.41984732824427,-11.923664122137405,0.0
13.340000629425049,-10.103531005859374,2.5737667846679684,-0.49799394531249996,15.389312977099237,23.84732824427481,-4.458015267175573,-8.772354882812499,0.24181436767578124,1.5083470458984374,12.305343511450381,-38.61068702290076,-12.763358778625955,0.0
13.350000619888306,-10.517727893066406,2.142810485839844,-0.30406361083984373,5.648854961832061,21.938931297709924,-4.183206106870229,-8.635885388183594,0.3711012573242187,1.618480322265625,12.320610687022901,-34.12213740458015,-11.893129770992367,0.0
13.360000610351562,-10.05564697265625,1.2928688964843749,0.47884033203125,10.351145038167939,25.81679389312977,-7.419847328244275,-7.884106066894531,1.2689268798828124,1.5059528442382812,6.809160305343512,-31.52671755725191,-11.114503816793894,0.0
13.37000060081482,-8.427589843749999,-0.8451531860351562,-0.3136404174804687,7.709923664122138,23.66412213740458,-7.709923664122138,-9.591171850585937,0.016759411621093748,2.2361843505859373,7.282442748091603,-25.862595419847327,-6.442748091603053,0.0
13.380000829696655,-7.668627917480468,-1.0678139404296874,-0.2059013427734375,23.923664122137403,25.954198473282442,-8.946564885496183,-10.577582934570312,-1.5179238525390624,2.999934680175781,13.618320610687023,-28.870229007633586,-3.9389312977099236,0.0
13.390000820159912,-9.045293872070312,-0.8475473876953125,0.373495458984375,38.29007633587786,29.69465648854962,-12.259541984732824,-9.907206469726562,-1.177947216796875,2.6048914062499997,21.419847328244273,-35.66412213740458,-7.786259541984733,0.0
13.400001287460327,-9.624690673828125,0.5961562133789062,1.16837041015625,44.48854961832061,30.83969465648855,-13.068702290076336,-8.10197841796875,-0.43574470214843747,1.5586252807617187,15.86259541984733,-36.0763358778626,-12.870229007633588,0.0
13.410000801086426,-9.928754284667969,2.7269956909179687,1.5179238525390624,41.25190839694657,29.51145038167939,-13.206106870229007,-7.948749511718749,0.3495534423828125,2.2074539306640624,15.221374045801527,-26.50381679389313,-13.664122137404581,0.0
13.420000791549683,-11.051634863281249,4.357447021484375,2.3487118286132813,27.14503816793893,26.259541984732824,-12.885496183206106,-7.771578588867187,-0.584185205078125,1.9919757812499999,5.755725190839694,-25.206106870229007,-11.603053435114504,0.0
13.43000078201294,-11.066000073242186,5.432443566894531,2.0350714111328125,6.656488549618321,15.98473282442748,-9.465648854961833,-9.634267480468749,-1.005564697265625,3.603273498535156,16.610687022900763,-22.68702290076336,-8.717557251908397,0.0
13.440000772476196,-10.805032092285156,4.568136767578125,1.9895815795898437,5.786259541984733,12.961832061068701,-5.908396946564886,-8.786720092773438,-0.4381389038085937,3.6056677001953124,10.213740458015268,-21.709923664122137,-11.007633587786259,0.0
13.450000762939453,-9.756371765136718,2.6982652709960937,1.20667763671875,-11.129770992366412,5.312977099236641,-1.4045801526717556,-9.730035546875,-1.139639990234375,3.545812658691406,21.053435114503817,-22.244274809160306,-11.709923664122137,0.0
13.46000075340271,-10.134655627441406,1.608903515625,1.3670891479492187,-6.122137404580153,5.343511450381679,-1.9389312977099236,-8.949525805664061,-1.5394716674804687,2.674323254394531,13.770992366412214,-23.52671755725191,-14.335877862595419,0.0
13.470000505447388,-9.777919580078125,0.9026140258789062,1.2808978881835937,-5.358778625954199,5.679389312977099,-3.6793893129770994,-8.532934716796875,-1.20667763671875,2.2457611572265623,15.312977099236642,-23.19083969465649,-16.12213740458015,0.0
13.480000495910645,-9.572018237304688,0.8714894042968749,0.9145850341796874,-5.526717557251908,4.687022900763359,-5.114503816793893,-7.9104422851562495,-0.7589619262695312,2.3822306518554686,12.259541984732824,-22.15267175572519,-16.625954198473284,0.0
13.49000072479248,-9.404424121093749,1.1444283935546875,1.1037269653320312,-4.229007633587786,5.572519083969466,-6.687022900763359,-7.173028173828125,1.465251416015625,1.1923124267578125,6.122137404580153,-15.877862595419847,-17.740458015267176,0.0
13.500000715255737,-9.821015209960937,1.6256629272460936,1.2904746948242187,-6.244274809160306,5.419847328244275,-7.3893129770992365,-8.51617530517578,-0.3136404174804687,2.3822306518554686,-3.786259541984733,-6.106870229007634,-13.664122137404581,0.0
13.510000705718994,-9.65342109375,1.5179238525390624,1.5658078857421873,-8.091603053435115,5.114503816793893,-7.603053435114504,-8.307879760742187,-0.12210428466796874,2.205059729003906,-1.2366412213740459,-5.877862595419847,-12.580152671755725,0.0
13.520000696182251,-10.213664282226562,1.7214309936523438,1.3335703247070312,-5.908396946564886,2.717557251908397,-6.824427480916031,-8.461108666992187,-0.26336218261718747,2.0542250244140625,-1.1145038167938932,-3.9083969465648853,-13.129770992366412,0.0
13.530000925064087,-9.744400756835937,1.6543933471679686,1.3263877197265623,-3.1908396946564888,2.8244274809160306,-5.984732824427481,-8.444349255371094,-0.3327940307617187,2.2864625854492187,-1.2671755725190839,0.9770992366412213,-14.183206106870228,0.0
13.540000438690186,-9.739612353515625,1.6711527587890624,1.2306196533203124,-3.3740458015267176,2.5343511450381677,-4.931297709923665,-8.350975390624999,-0.43574470214843747,2.346317626953125,-0.07633587786259542,3.618320610687023,-14.106870229007633,0.0
13.5500009059906,-9.564835632324218,1.37906015625,1.1635820068359375,-2.122137404580153,2.122137404580153,-5.587786259541985,-8.420407238769531,-0.39264907226562495,2.1164742675781247,1.618320610687023,5.969465648854962,-13.374045801526718,0.0
13.5600004196167,-9.495403784179686,1.2330138549804688,0.9744400756835937,-1.7251908396946565,2.198473282442748,-6.366412213740458,-8.212111694335936,-0.17238251953125,1.9201497314453124,3.9389312977099236,8.51908396946565,-12.473282442748092,0.0
13.570001125335693,-9.536105212402344,1.158793603515625,1.0582371337890624,0.7175572519083969,2.0763358778625953,-7.557251908396947,-8.176198669433592,-0.08858546142578125,1.7812860351562498,6.427480916030534,11.526717557251908,-11.755725190839694,0.0
13.580000638961792,-9.572018237304688,1.177947216796875,1.1372457885742187,2.198473282442748,2.3053435114503817,-8.091603053435115,-8.147468249511718,0.18435352783203124,1.7788918334960937,7.8320610687022905,14.854961832061068,-10.854961832061068,0.0
13.590000629425049,-9.375693701171874,1.2593500732421874,1.1013327636718748,3.7099236641221376,2.2595419847328246,-8.198473282442748,-8.015787158203125,0.97683427734375,2.0566192260742184,5.679389312977099,17.893129770992367,-10.717557251908397,0.0
13.600000381469727,-9.473855969238281,1.6424223388671875,1.0869675537109373,4.656488549618321,1.7709923664122138,-7.908396946564886,-7.666233715820312,0.8690952026367187,2.1978771240234374,2.4885496183206106,19.19083969465649,-10.244274809160306,0.0
13.610000848770142,-9.720458740234374,1.5131354492187499,1.0199299072265624,6.641221374045801,1.0534351145038168,-7.022900763358779,-9.253589416503905,-0.09576806640624999,4.115632653808594,0.32061068702290074,19.862595419847327,-10.305343511450381,0.0
13.62000060081482,-9.852139831542969,1.6160861206054686,0.8882488159179687,8.83969465648855,-0.2595419847328244,-6.427480916030534,-7.7787611938476555,0.02154781494140625,3.028665100097656,-15.755725190839694,29.114503816793892,-13.32824427480916,0.0
13.630000829696655,-9.775525378417969,1.8602946899414061,1.149216796875,3.3282442748091605,-1.3893129770992367,-6.244274809160306,-8.726865051269531,-0.32561142578124996,2.712630480957031,-16.519083969465647,36.44274809160305,-11.007633587786259,0.0
13.640000581741333,-10.05564697265625,2.114080065917969,1.218648645019531,-1.1908396946564885,-3.8473282442748094,-6.213740458015267,-8.997409838867187,-0.9816226806640624,2.8203695556640622,-12.65648854961832,33.63358778625954,-7.206106870229007,0.0
13.65000033378601,-10.129867224121092,1.9201497314453124,1.2114660400390624,-2.1526717557251906,-6.6106870229007635,-6.351145038167939,-8.394071020507813,-0.6272808349609375,1.1061211669921875,-8.320610687022901,31.72519083969466,-4.198473282442748,0.0
13.660000562667847,-9.950302099609374,1.7741034301757812,1.6208745239257811,-2.0763358778625953,-8.961832061068701,-5.7251908396946565,-8.748412866210938,0.2657563842773437,1.1133037719726562,-0.6412213740458015,33.51145038167939,-2.7786259541984735,0.0
13.670000553131104,-9.866505041503906,1.8435352783203125,2.2649147705078123,-1.5267175572519085,-12.580152671755725,-4.900763358778626,-8.741230261230468,1.2330138549804688,1.7094599853515624,-2.595419847328244,38.412213740458014,-0.8396946564885496,0.0
13.68000078201294,-10.134655627441406,2.1116858642578125,2.722207287597656,-2.16793893129771,-16.564885496183205,-4.061068702290076,-10.031704956054687,0.0909796630859375,2.4851813232421875,-3.984732824427481,41.038167938931295,4.687022900763359,0.0
13.690000534057617,-10.058041174316406,1.3551181396484375,3.239354846191406,3.0839694656488548,-22.366412213740457,-3.3282442748091605,-11.18571015625,-0.3232172241210937,3.6679169433593746,0.0,38.961832061068705,6.67175572519084,0.0
13.700001001358032,-10.656591589355468,1.2282254516601563,3.3494881225585935,14.549618320610687,-29.46564885496183,-2.2290076335877864,-10.481814868164061,0.0383072265625,3.1794998046874996,-4.137404580152672,36.68702290076336,0.9618320610687023,0.0
13.710038423538208,-10.817003100585938,0.7781155395507812,3.6463691284179687,26.870229007633586,-33.74045801526717,-0.2748091603053435,-9.354145886230468,-0.3184288208007812,3.3255461059570313,-13.114503816793894,41.02290076335878,-3.053435114503817,0.0
13.720000743865967,-11.666944689941406,1.3215993164062498,4.611232397460937,32.80916030534351,-39.48091603053435,3.5877862595419847,-10.788272680664061,-2.4971523315429685,3.134009973144531,-12.885496183206106,39.12977099236641,-2.6106870229007635,0.0
13.730000495910645,-12.126631408691406,2.1164742675781247,5.643133312988281,40.44274809160305,-47.23664122137404,7.709923664122138,-9.64623848876953,-2.1212626708984375,2.655169641113281,-5.633587786259542,34.732824427480914,-3.572519083969466,0.0
13.740000486373901,-12.983755603027342,4.127603662109375,6.871358764648437,28.290076335877863,-64.35114503816794,12.534351145038167,-9.648632690429688,-1.678335363769531,0.7302315063476562,-5.541984732824427,32.045801526717554,-4.137404580152672,0.0
13.750000476837158,-13.402740893554686,4.675875842285156,6.6319385986328125,15.679389312977099,-80.7175572519084,17.0381679389313,-9.244012609863281,-0.7589619262695312,1.149216796875,-7.6183206106870225,36.2442748091603,-2.519083969465649,0.0
13.760000944137573,-13.338097448730467,3.3303345092773435,5.504269616699219,-11.32824427480916,-99.72519083969466,16.9618320610687,-9.320627062988281,-0.2442085693359375,1.3670891479492187,-10.778625954198473,33.98473282442748,0.15267175572519084,0.0
13.77000117301941,-14.264653491210936,2.748543505859375,6.368576416015625,-39.70992366412214,-120.82442748091603,10.580152671755725,-9.337386474609374,-0.0047884033203125,0.7805097412109374,-11.572519083969466,34.47328244274809,1.3282442748091603,0.0
13.780000925064087,-13.244723583984374,-0.1292868896484375,7.307103466796875,-48.70229007633588,-139.55725190839695,8.198473282442748,-8.226476904296874,1.649604943847656,-0.02633621826171875,-23.72519083969466,36.30534351145038,-0.24427480916030533,0.0
13.790001153945923,-12.682086193847656,-1.0845733520507812,6.682216833496093,-45.6793893129771,-156.85496183206106,5.190839694656488,-9.809044201660155,0.15083470458984374,1.369483349609375,-30.213740458015266,43.343511450381676,3.6793893129770994,0.0
13.8000009059906,-12.152967626953124,-0.842758984375,5.4899044067382805,-40.97709923664122,-168.24427480916032,1.7251908396946565,-10.137049829101562,-1.0654197387695312,1.5897499023437498,-23.328244274809162,38.48854961832061,3.954198473282443,0.0
13.810001134872437,-12.490550061035156,-0.7541735229492187,4.6255976074218745,-23.83206106870229,-175.05343511450383,-0.21374045801526717,-9.294290844726563,-0.7661445312499999,1.43652099609375,-27.572519083969464,42.50381679389313,0.3816793893129771,0.0
13.820000648498535,-12.181698046874999,-0.040701428222656245,2.664746447753906,-13.435114503816793,-179.14503816793894,2.381679389312977,-9.490615380859374,-2.588131994628906,2.7269956909179687,-24.412213740458014,40.74809160305343,0.6259541984732825,0.0
13.830000877380371,-11.899182250976562,-0.7493851196289062,1.5682020874023437,-3.618320610687023,-180.54961832061068,2.8702290076335877,-10.685322009277343,-4.034229797363281,2.5570073730468748,-12.67175572519084,34.62595419847328,-1.3435114503816794,0.0
13.840000867843628,-11.786654772949218,-0.7637503295898437,0.7900865478515624,10.320610687022901,-178.35114503816794,5.343511450381679,-8.717288244628906,-2.166752502441406,1.5418658691406248,-9.709923664122137,27.862595419847327,-7.984732824427481,0.0
13.850000619888306,-11.626243261718749,0.1484405029296875,-0.1197100830078125,14.67175572519084,-172.76335877862596,8.961832061068701,-9.674968908691406,-2.3487118286132813,1.9680337646484374,-11.908396946564885,35.52671755725191,-6.8396946564885495,0.0
13.860000610351562,-11.401188305664062,-0.26336218261718747,-0.28730419921875,12.900763358778626,-166.06106870229007,13.236641221374045,-9.586383447265625,-3.3446997192382812,1.9488801513671874,-7.236641221374046,28.48854961832061,-4.290076335877862,0.0
13.870000839233398,-10.97502041015625,-0.6560112548828124,-0.9935936889648437,20.65648854961832,-156.33587786259542,15.48091603053435,-9.753977563476562,-2.6671406494140624,1.5777788940429687,4.442748091603053,24.03053435114504,-5.801526717557252,0.0
13.880000591278076,-11.508927380371093,-0.08140285644531249,-1.2856862915039062,27.236641221374047,-142.15267175572518,16.916030534351144,-8.339004382324218,-0.6153098266601562,0.9169792358398436,-1.0076335877862594,24.85496183206107,-7.450381679389313,0.0
13.890000820159912,-10.046070166015625,0.5363011718749999,-0.8403647827148437,24.931297709923665,-128.99236641221373,15.725190839694656,-9.904812268066406,-1.465251416015625,0.9935936889648437,-8.442748091603054,30.35114503816794,-4.0458015267175576,0.0
13.90000057220459,-9.813832604980469,0.5219359619140624,-0.9265560424804687,10.01526717557252,-120.30534351145039,12.992366412213741,-10.824185705566405,-3.1100679565429687,1.1420341918945311,-2.0916030534351147,26.549618320610687,-0.7022900763358778,0.0
13.910000801086426,-9.22485899658203,-0.9097966308593749,-0.6727706665039062,14.0,-107.61832061068702,10.870229007633588,-9.708487731933593,-1.9321207397460936,1.0917559570312498,6.67175572519084,25.938931297709924,-3.1755725190839694,0.0
13.920001029968262,-9.56962403564453,0.24899697265624998,0.2154781494140625,9.083969465648854,-95.14503816793894,7.770992366412214,-8.597578161621094,-0.4644751220703125,0.0718260498046875,-2.595419847328244,30.213740458015266,-4.351145038167939,0.0
13.930001020431519,-9.425971936035156,0.18914193115234373,0.4955997436523437,1.9541984732824427,-88.58015267175573,8.732824427480915,-9.241618408203124,-2.1787235107421874,0.1197100830078125,-7.251908396946565,35.43511450381679,0.8091603053435115,0.0
13.940001010894775,-8.05648858642578,-0.5817910034179687,1.0414777221679687,6.305343511450381,-79.05343511450381,11.022900763358779,-11.058817468261719,-3.248931652832031,1.5682020874023437,3.816793893129771,33.11450381679389,5.038167938931298,0.0
13.950000524520874,-8.987833032226561,0.38786066894531246,1.898601916503906,9.679389312977099,-70.22900763358778,8.916030534351146,-10.405200415039062,-2.43250888671875,-0.08858546142578125,11.251908396946565,28.625954198473284,3.404580152671756,0.0
13.96000075340271,-8.367734802246094,0.7637503295898437,1.39821376953125,3.404580152671756,-67.52671755725191,9.511450381679388,-9.777919580078125,-0.86191259765625,-1.0103531005859374,9.786259541984732,34.54961832061068,2.213740458015267,0.0
13.970000743865967,-7.922413293457031,0.6177040283203125,1.254561669921875,-0.7786259541984732,-60.091603053435115,10.106870229007633,-9.87608184814453,-1.0726023437499999,0.4165910888671875,4.213740458015267,39.32824427480916,7.267175572519084,0.0
13.980000495910645,-7.3837179199218745,0.0,0.8355763793945312,-1.4961832061068703,-53.63358778625954,9.465648854961833,-10.75714805908203,-2.403778466796875,-0.0143652099609375,14.854961832061068,39.02290076335878,10.458015267175572,0.0
13.990000486373901,-7.388506323242187,-0.24181436767578124,0.737414111328125,-0.5648854961832062,-45.282442748091604,7.374045801526718,-10.259154113769531,-0.9074024291992187,-0.7422025146484375,17.19083969465649,37.83206106870229,9.450381679389313,0.0
14.000000476837158,-7.788338000488281,0.7709329345703124,0.9983820922851562,-7.190839694656488,-38.19847328244275,6.442748091603053,-9.311050256347656,0.3806780639648437,-1.2210428466796874,15.267175572519085,40.30534351145038,9.633587786259541,0.0
14.010159969329834,-6.6319385986328125,0.10773907470703124,0.24181436767578124,-13.725190839694656,-31.633587786259543,8.473282442748092,-9.279925634765624,1.637633935546875,-0.689530078125,-0.33587786259541985,44.045801526717554,11.251908396946565,0.0
14.02000093460083,-6.110002636718749,-0.8810662109374999,0.00718260498046875,-10.961832061068701,-19.541984732824428,9.709923664122137,-11.109095703125,-1.24498486328125,1.0582371337890624,-4.870229007633588,50.18320610687023,18.80916030534351,0.0
14.030001163482666,-5.178658190917968,-1.3766659545898436,-0.316034619140625,4.534351145038168,-2.33587786259542,8.992366412213741,-10.05564697265625,-2.7437551025390623,1.6328455322265625,6.9465648854961835,40.44274809160305,18.549618320610687,0.0
14.040000915527344,-5.68862314453125,-1.22583125,-0.5123591552734374,8.15267175572519,6.687022900763359,3.1297709923664123,-10.216058483886718,-1.9752163696289062,1.0199299072265624,21.923664122137403,31.633587786259543,14.290076335877863,0.0
14.050001382827759,-6.138733056640625,0.062249243164062495,0.7781155395507812,12.396946564885496,20.885496183206108,0.04580152671755725,-9.90241806640625,-1.675941162109375,0.8092401611328125,16.778625954198475,30.0,12.320610687022901,0.0
14.060000658035278,-6.37815322265625,1.0438719238281249,1.1013327636718748,-13.770992366412214,17.557251908396946,-3.8931297709923665,-10.189722265624999,-1.1372457885742187,0.8307879760742187,19.923664122137403,26.35114503816794,12.992366412213741,0.0
14.070001363754272,-6.442796667480469,0.9720458740234375,2.4061726684570313,-18.015267175572518,24.671755725190838,-5.969465648854962,-9.727641345214844,-0.26815058593749996,0.6200982299804687,13.679389312977099,25.31297709923664,12.870229007633588,0.0
14.080000877380371,-6.500257507324219,1.1851298217773436,3.21780703125,-22.85496183206107,27.64885496183206,-6.717557251908397,-9.390058911132812,0.3399766357421875,0.4836287353515625,11.755725190839694,25.862595419847327,14.229007633587786,0.0
14.090000867843628,-6.921636999511718,1.2114660400390624,3.88818349609375,-27.633587786259543,30.27480916030534,-6.458015267175573,-9.483432775878907,0.354341845703125,0.7685387329101562,5.511450381679389,27.84732824427481,16.15267175572519,0.0
14.100000858306885,-6.536170532226562,0.40462008056640625,3.9504327392578125,-26.27480916030534,33.80152671755725,-4.870229007633588,-9.794678991699218,-0.047884033203124995,1.3623007446289062,0.8091603053435115,28.610687022900763,16.885496183206108,0.0
14.110000848770142,-5.760449194335937,-0.7805097412109374,4.182670300292968,-8.106870229007633,45.25190839694657,-2.2900763358778624,-9.888052856445311,-1.0965443603515623,1.7573440185546874,-5.297709923664122,27.129770992366414,17.541984732824428,0.0
14.120000839233398,-5.930437512207031,0.02154781494140625,3.957615344238281,3.816793893129771,52.900763358778626,-3.877862595419847,-10.189722265624999,-1.4891934326171874,2.1547814941406247,-11.312977099236642,24.396946564885496,17.46564885496183,0.0
14.130000591278076,-7.173028173828125,0.948103857421875,4.580107775878906,3.404580152671756,58.61068702290076,-5.984732824427481,-9.849745629882811,-1.9393033447265624,2.133233679199219,-14.50381679389313,20.778625954198475,17.297709923664122,0.0
14.140000820159912,-6.746860278320312,0.32082302246093747,4.781220715332031,13.740458015267176,64.70229007633588,-2.2748091603053435,-9.730035546875,-2.43250888671875,1.8435352783203125,-14.030534351145038,17.236641221374047,18.290076335877863,0.0
14.150000810623169,-8.073247998046874,1.3431471313476562,6.959944226074218,28.427480916030536,71.05343511450381,1.1755725190839694,-9.624690673828125,-2.1452046874999997,2.1691467041015624,-13.526717557251908,13.114503816793894,18.244274809160306,0.0
14.160001039505005,-10.864887133789061,4.189852905273438,10.36210478515625,36.83969465648855,68.0,5.786259541984733,-9.677363110351562,-2.1978771240234374,1.9847931762695312,-13.877862595419847,10.16793893129771,17.267175572519083,0.0
14.170000791549683,-10.194510668945313,3.593696691894531,10.120290417480469,43.786259541984734,58.61068702290076,17.31297709923664,-9.861716638183593,-1.6903063720703124,2.166752502441406,-18.85496183206107,6.916030534351145,16.290076335877863,0.0
14.180001020431519,-10.488997473144531,4.73094248046875,9.394847314453125,40.534351145038165,51.465648854961835,21.52671755725191,-9.516951599121093,-1.3527239379882812,2.7437551025390623,-23.541984732824428,2.198473282442748,15.86259541984733,0.0
14.190000295639038,-10.582371337890624,6.081272216796875,4.537012145996093,9.129770992366412,37.61832061068702,22.610687022900763,-10.077194787597655,-1.4006079711914061,2.4301146850585935,-22.702290076335878,-1.5114503816793894,16.870229007633586,0.0
14.200001239776611,-8.616731774902343,4.00310517578125,0.06943184814453125,-21.954198473282442,33.404580152671755,25.709923664122137,-10.235212097167969,-1.4772224243164063,2.195482922363281,-25.099236641221374,-5.114503816793893,16.366412213740457,0.0
14.21000075340271,-8.540117321777343,1.2497732666015624,-0.2705447875976562,-44.0,37.57251908396947,24.625954198473284,-9.79946739501953,-0.5746083984375,2.1619640991210938,-27.068702290076335,-7.267175572519084,15.465648854961833,0.0
14.220000505447388,-9.176974963378905,2.142810485839844,2.288856787109375,-78.80916030534351,28.442748091603054,19.419847328244273,-10.79545528564453,-0.6607996582031249,1.9871873779296874,-29.96946564885496,-8.381679389312977,14.183206106870228,0.0
14.230000495910645,-9.042899670410156,-3.687070556640625,4.077325427246094,-62.01526717557252,33.16030534351145,21.46564885496183,-11.394005700683593,-0.3399766357421875,1.89620771484375,-41.083969465648856,-10.580152671755725,13.145038167938932,0.0
14.240000486373901,-9.229647399902344,-4.678270043945313,5.882553479003906,-34.274809160305345,37.38931297709924,14.229007633587786,-11.935095275878906,-0.5147533569335937,2.2361843505859373,-45.19083969465649,-11.465648854961833,12.595419847328245,0.0
14.250000476837158,-9.04050546875,-4.855440966796874,5.2265422241210935,-11.48091603053435,40.67175572519084,3.435114503816794,-12.152967626953124,-0.842758984375,2.3870190551757813,-45.221374045801525,-12.335877862595419,12.564885496183207,0.0
14.260000944137573,-9.047688073730468,-3.7397429931640622,2.1883003173828124,-5.068702290076335,43.541984732824424,-9.801526717557252,-12.708422412109375,-1.6807295654296874,3.2609026611328122,-41.86259541984733,-17.16030534351145,13.618320610687023,0.0
14.270000696182251,-8.954314208984375,-3.612850305175781,1.0534487304687499,9.297709923664122,50.030534351145036,-15.587786259541986,-12.332532751464843,-1.2234370483398436,3.5529952636718747,-36.961832061068705,-22.33587786259542,12.687022900763358,0.0
14.280000686645508,-9.603142858886718,-1.465251416015625,1.687912170410156,26.82442748091603,58.36641221374046,-16.076335877862597,-12.907141149902342,-2.27927998046875,3.1771056030273437,-28.259541984732824,-27.81679389312977,13.17557251908397,0.0
14.290001153945923,-8.334215979003906,-0.9145850341796874,-0.105344873046875,45.61832061068702,63.16030534351145,-11.725190839694656,-12.026074938964843,-1.35990654296875,2.5354595581054684,-18.244274809160306,-31.328244274809162,13.236641221374045,0.0
14.300000667572021,-9.382876306152344,2.8275521606445313,0.411802685546875,64.16793893129771,76.2442748091603,-8.01526717557252,-11.623849060058593,-0.6823474731445313,1.6065093139648436,-9.145038167938932,-36.67175572519084,13.908396946564885,0.0
14.310000896453857,-10.785878479003905,5.95677373046875,0.488417138671875,51.52671755725191,76.2442748091603,-5.511450381679389,-9.734823950195311,0.9145850341796874,2.042254016113281,-5.541984732824427,-41.770992366412216,13.633587786259541,0.0
14.320000648498535,-10.350133776855468,6.411672045898437,0.2346317626953125,39.00763358778626,75.54198473282443,2.2748091603053435,-9.835380419921874,-0.16280571289062498,0.6464344482421874,-16.763358778625953,-43.14503816793893,17.572519083969464,0.0
14.330000877380371,-10.417171423339843,5.801150622558594,0.5746083984375,18.519083969465647,74.45801526717557,10.061068702290076,-10.54645831298828,0.7230489013671875,0.2753331909179687,-1.618320610687023,-41.64885496183206,20.3206106870229,0.0
14.340000629425049,-9.279925634765624,2.990357873535156,0.7757213378906249,7.557251908396947,72.93129770992367,14.870229007633588,-9.572018237304688,0.6488286499023437,-0.009576806640625,-10.16793893129771,-47.969465648854964,20.519083969465647,0.0
14.350000381469727,-9.418789331054686,1.675941162109375,0.8667010009765624,0.5343511450381679,71.54198473282443,16.091603053435115,-10.864887133789061,-1.675941162109375,-0.8379705810546875,-1.4045801526717556,-56.045801526717554,21.480916030534353,0.0
14.360000610351562,-8.635885388183594,-0.7613561279296874,1.0271125122070313,9.908396946564885,73.37404580152672,14.854961832061068,-10.69968721923828,-1.2401964599609374,-0.5578489868164063,6.656488549618321,-59.63358778625954,18.68702290076336,0.0
14.37000060081482,-9.481038574218749,-0.11731588134765625,1.608903515625,15.83206106870229,75.31297709923665,10.748091603053435,-9.332598071289063,1.419761584472656,-1.199495031738281,-0.3511450381679389,-59.02290076335878,12.13740458015267,0.0
14.380000591278076,-9.368511096191405,0.3136404174804687,2.0446482177734375,17.541984732824428,74.68702290076335,7.190839694656488,-10.608707556152343,-0.04548983154296875,-0.5267243652343749,-12.595419847328245,-52.18320610687023,11.694656488549619,0.0
14.390000820159912,-10.091559997558592,1.7645266235351562,2.231395947265625,11.312977099236642,72.38167938931298,0.7633587786259542,-11.717222924804688,-2.1499930908203124,-1.177947216796875,-0.9770992366412213,-53.603053435114504,11.435114503816793,0.0
14.40000057220459,-9.265560424804686,-0.0718260498046875,1.1252747802734375,11.16030534351145,67.05343511450381,-1.8473282442748091,-11.595118640136718,-1.4724340209960938,-0.296881005859375,7.068702290076335,-58.961832061068705,3.5877862595419847,0.0
14.410000562667847,-10.108319409179687,0.507570751953125,1.879448303222656,19.984732824427482,70.61068702290076,-5.786259541984733,-9.995791931152343,0.18914193115234373,-2.0278888061523435,-1.8015267175572518,-56.85496183206107,-5.847328244274809,0.0
14.420000791549683,-10.560823522949217,2.1068974609374997,1.4413093994140624,8.65648854961832,66.91603053435115,-9.068702290076336,-10.453084448242187,-0.5434837768554687,-0.6967126831054687,-2.519083969465649,-49.45038167938932,-6.198473282442748,0.0
14.43000078201294,-10.819397302246093,2.5665841796874997,0.6871358764648438,3.9236641221374047,65.58778625954199,-10.030534351145038,-10.754753857421875,-1.465251416015625,-0.5434837768554687,12.13740458015267,-50.2442748091603,-6.0458015267175576,0.0
14.440000772476196,-10.785878479003905,3.2058360229492187,0.9935936889648437,2.1374045801526718,64.50381679389314,-10.458015267175572,-9.437942944335937,0.9792284790039062,-1.3311761230468748,21.908396946564885,-49.267175572519086,-10.870229007633588,0.0
14.450000524520874,-9.157821350097656,2.4061726684570313,-0.08379705810546874,-7.1603053435114505,60.30534351145038,-8.427480916030534,-7.9655089233398435,2.023100402832031,-3.0597897216796874,2.0610687022900764,-41.20610687022901,-11.48091603053435,0.0
14.46000075340271,-9.165003955078124,2.7246014892578123,0.6153098266601562,-11.908396946564885,60.54961832061068,-8.80916030534351,-9.507374792480467,1.7453730102539062,-0.430956298828125,-7.984732824427481,-34.412213740458014,-5.312977099236641,0.0
14.470000505447388,-9.56962403564453,2.592920397949219,0.6751648681640625,-18.53435114503817,56.74809160305343,-10.244274809160306,-9.457096557617186,1.6519991455078125,0.4213794921875,6.244274809160306,-27.099236641221374,-6.595419847328245,0.0
14.480000495910645,-9.758765966796874,2.020706201171875,0.9361328491210937,-19.557251908396946,52.82442748091603,-9.389312977099237,-8.88009395751953,1.5227122558593749,-0.3447650390625,0.6564885496183206,-26.427480916030536,-9.114503816793894,0.0
14.490000486373901,-8.398859423828124,0.06464344482421874,-0.229843359375,-8.030534351145038,52.10687022900763,-6.9465648854961835,-8.99501563720703,0.3854664672851562,-1.218648645019531,-0.9007633587786259,-24.763358778625953,-11.801526717557252,0.0
14.500000238418579,-10.09395419921875,1.189918225097656,0.7589619262695312,-4.442748091603053,53.81679389312977,-8.961832061068701,-8.86094034423828,0.28730419921875,-1.3814543579101561,-3.2061068702290076,-25.282442748091604,-13.49618320610687,0.0
14.510000705718994,-10.82179150390625,2.3774422485351563,1.7741034301757812,-17.61832061068702,49.31297709923664,-11.740458015267176,-8.298302954101562,0.4070142822265625,0.4740519287109375,-7.480916030534351,-25.69465648854962,-13.022900763358779,0.0
14.52000093460083,-10.934318981933593,2.422932080078125,1.3024457031249999,-30.549618320610687,39.06870229007634,-10.992366412213741,-8.075642199707032,0.16998831787109375,1.149216796875,-7.9541984732824424,-20.442748091603054,-10.83969465648855,0.0
14.530000925064087,-11.046846459960937,1.5705962890624998,1.4437036010742186,-31.404580152671755,36.732824427480914,-10.13740458015267,-8.25520732421875,0.2346317626953125,1.448492004394531,-2.732824427480916,-22.870229007633586,-8.931297709923664,0.0
14.540000677108765,-11.796231579589843,1.8291700683593748,2.3870190551757813,-21.755725190839694,37.45038167938932,-12.427480916030534,-9.397241516113281,-0.5530605834960938,1.6400281372070311,9.145038167938932,-21.984732824427482,-8.67175572519084,0.0
14.550000667572021,-10.031704956054687,-0.8930372192382812,1.6927005737304686,-6.396946564885496,35.49618320610687,-10.763358778625955,-9.7683427734375,0.0143652099609375,2.205059729003906,15.48091603053435,-28.137404580152673,-11.19083969465649,0.0
14.560000896453857,-10.733206042480468,-0.1197100830078125,1.687912170410156,7.694656488549619,37.11450381679389,-10.977099236641221,-9.598354455566406,0.41419688720703124,2.0254946044921875,19.49618320610687,-36.045801526717554,-15.221374045801527,0.0
14.570001363754272,-10.467449658203124,0.24899697265624998,1.0582371337890624,15.908396946564885,36.79389312977099,-10.961832061068701,-8.334215979003906,1.7166425903320313,1.484405029296875,9.816793893129772,-37.57251908396947,-17.893129770992367,0.0
14.580000638961792,-11.161768139648437,3.028665100097656,0.8690952026367187,3.7251908396946565,32.67175572519084,-12.50381679389313,-9.311050256347656,-0.34237083740234375,2.24097275390625,3.3435114503816794,-36.93129770992366,-12.80916030534351,0.0
14.590000867843628,-10.716446630859375,3.612850305175781,1.2401964599609374,-2.6106870229007635,31.72519083969466,-13.801526717557252,-9.327809667968749,0.6392518432617187,2.2290017456054687,11.053435114503817,-41.70992366412214,-10.51908396946565,0.0
14.600000619888306,-10.32379755859375,3.153163586425781,0.38307226562499996,-13.083969465648854,24.916030534351144,-10.717557251908397,-8.626308581542968,1.8602946899414061,1.177947216796875,-3.1908396946564888,-41.29770992366412,-12.50381679389313,0.0
14.610000848770142,-10.115502014160155,2.9496564453125,0.14125789794921875,-11.526717557251908,26.946564885496183,-6.656488549618321,-9.018957653808593,0.6584054565429687,2.6862942626953124,-11.435114503816793,-36.88549618320611,-8.091603053435115,0.0
14.62000060081482,-10.007762939453125,2.664746447753906,-0.17238251953125,-24.091603053435115,26.244274809160306,-6.396946564885496,-10.66856259765625,-1.2138602416992186,1.8914193115234375,0.12213740458015267,-38.42748091603053,-5.541984732824427,0.0
14.630000591278076,-9.677363110351562,1.465251416015625,-0.5410895751953124,-23.786259541984734,26.458015267175572,-6.519083969465649,-9.533711010742186,0.9816226806640624,1.9009961181640624,-6.442748091603053,-41.083969465648856,-9.34351145038168,0.0
14.640000581741333,-9.969455712890625,1.419761584472656,-0.29927520751953124,-28.793893129770993,27.81679389312977,-7.0534351145038165,-8.789114294433594,0.603338818359375,2.233790148925781,-17.557251908396946,-33.41984732824427,-9.618320610687023,0.0
14.650000810623169,-9.088389501953124,0.11731588134765625,-0.23223756103515625,-19.954198473282442,30.9618320610687,-6.5038167938931295,-10.414777221679687,-1.7956512451171873,2.844311572265625,-12.213740458015268,-31.0381679389313,-5.786259541984733,0.0
14.660001039505005,-9.955090502929687,2.2960393920898436,1.7310078002929687,-26.16793893129771,33.954198473282446,-10.229007633587786,-9.9981861328125,-0.354341845703125,2.7557261108398436,-4.99236641221374,-36.54961832061068,-7.297709923664122,0.0
14.670000553131104,-9.947907897949218,1.9991583862304687,0.6248866333007812,-32.900763358778626,26.396946564885496,-9.86259541984733,-9.509768994140625,-0.34237083740234375,1.6615759521484375,-12.427480916030534,-36.961832061068705,-10.564885496183207,0.0
14.680000305175781,-9.540893615722656,0.33518823242187495,0.39983167724609375,-25.374045801526716,25.984732824427482,-7.221374045801527,-8.37012900390625,0.9433154541015625,1.7645266235351562,-12.641221374045802,-29.81679389312977,-12.183206106870228,0.0
14.690000534057617,-10.524910498046875,0.4165910888671875,1.2282254516601563,-11.541984732824428,29.17557251908397,-7.557251908396947,-9.983820922851562,-0.51714755859375,3.4715924072265625,-4.961832061068702,-24.931297709923665,-9.16030534351145,0.0
14.700000762939453,-9.82580361328125,0.5865794067382812,1.7190367919921874,4.396946564885496,30.213740458015266,-7.572519083969466,-10.548852514648438,-1.7693150268554687,3.4524387939453125,4.473282442748092,-28.732824427480917,-7.908396946564886,0.0
14.71000051498413,-10.223241088867187,1.6735469604492186,1.7621324218749999,13.297709923664122,29.297709923664122,-7.923664122137405,-9.986215124511718,-1.2425906616210938,2.607285607910156,4.961832061068702,-33.49618320610687,-12.396946564885496,0.0
14.720000743865967,-10.826579907226561,2.6048914062499997,1.3838485595703125,11.725190839694656,23.633587786259543,-6.259541984732825,-8.125920434570313,0.1197100830078125,1.917755529785156,-0.1984732824427481,-33.465648854961835,-17.96946564885496,0.0
14.730000495910645,-9.303867651367186,1.9488801513671874,1.4820108276367188,7.083969465648855,18.580152671755727,-2.030534351145038,-8.374917407226562,0.7829039428710937,1.6400281372070311,-0.7633587786259542,-26.38167938931298,-18.259541984732824,0.0
14.740000486373901,-9.208099584960937,1.66636435546875,1.5945383056640625,10.625954198473282,17.64885496183206,-0.5038167938931297,-8.547299926757812,0.15083470458984374,1.8076222534179687,-5.190839694656488,-21.709923664122137,-15.786259541984732,0.0
14.750000715255737,-9.090783703613281,1.0486603271484374,1.3838485595703125,13.969465648854962,16.50381679389313,-1.0229007633587786,-9.04050546875,-0.0143652099609375,2.7150246826171873,-9.099236641221374,-14.580152671755725,-12.885496183206106,0.0
14.760000705718994,-10.71884083251953,1.7405846069335937,1.5083470458984374,13.755725190839694,14.67175572519084,-2.549618320610687,-9.344569079589844,-0.8403647827148437,2.612074011230469,-4.396946564885496,-15.129770992366412,-11.725190839694656,0.0
14.770000457763672,-11.020510241699219,1.668758557128906,0.7326257080078125,14.793893129770993,8.198473282442748,-3.1755725190839694,-9.370905297851563,-0.7254431030273437,2.5665841796874997,1.4961832061068703,-13.34351145038168,-12.885496183206106,0.0
14.780000686645508,-11.262324609375,2.4253262817382812,0.9648632690429687,11.083969465648854,4.137404580152672,-3.633587786259542,-9.516951599121093,-1.448492004394531,2.858676782226562,8.778625954198473,-13.389312977099237,-13.694656488549619,0.0
