timestamp,Thigh_L_Acc_X,Thigh_L_Acc_Y,Thigh_L_Acc_Z,Thigh_L_Gyr_X,Thigh_L_Gyr_Y,Thigh_L_Gyr_Z,Thigh_R_Acc_X,Thigh_R_Acc_Y,Thigh_R_Acc_Z,Thigh_R_Gyr_X,Thigh_R_Gyr_Y,Thigh_R_Gyr_Z,gpio_output
10.000000476837158,-2.042254016113281,-1.7094599853515624,1.3551181396484375,-2.198473282442748,74.82442748091603,-41.603053435114504,-6.687005236816406,-2.446874096679687,4.3239281982421875,-5.236641221374046,17.00763358778626,17.282442748091604,0.0
10.010000705718994,-2.5857377929687497,-0.411802685546875,2.1356278808593747,17.068702290076335,87.6793893129771,-43.9236641221374,-6.567295153808593,-3.220201232910156,4.223371728515625,4.809160305343512,18.931297709923665,16.83969465648855,1.0
10.020000696182251,-1.5825672973632812,-0.08140285644531249,2.5713725830078125,23.19083969465649,91.34351145038168,-42.916030534351144,-6.1818286865234375,-3.785232824707031,3.5506010620117183,18.03053435114504,19.099236641221374,12.290076335877863,1.0
10.030000686645508,-4.285620971679688,1.2138602416992186,4.3813890380859375,41.847328244274806,104.13740458015268,-41.038167938931295,-5.954379528808594,-3.6655227416992187,3.584119885253906,26.946564885496183,11.755725190839694,9.389312977099237,1.0
10.040000677108765,-4.544194750976562,2.925714428710937,5.774814404296874,51.770992366412216,104.77862595419847,-34.56488549618321,-5.983109948730468,-3.478775012207031,3.9600095458984375,33.43511450381679,2.0763358778625953,6.763358778625954,1.0
10.0500009059906,-6.845022546386718,4.8650177734375,9.4618849609375,63.37404580152672,102.04580152671755,-23.358778625954198,-7.881711865234375,-2.7365724975585937,3.88818349609375,27.14503816793893,2.9618320610687023,0.13740458015267176,1.0
10.060000896453857,-7.189787585449218,5.3199160888671875,10.781090075683593,65.37404580152672,87.29770992366412,-7.572519083969466,-6.308721374511719,-3.4548329956054684,4.989516259765625,34.229007633587784,6.778625954198473,-4.625954198473282,1.0
10.070000886917114,-9.117119921875,9.131485131835937,13.28542501220703,70.93129770992367,72.53435114503817,6.99236641221374,-6.174646081542968,-0.4477157104492187,3.2609026611328122,26.99236641221374,7.374045801526718,-11.786259541984732,1.0
10.080000638961792,-10.24000050048828,8.89924757080078,13.280636608886718,38.045801526717554,40.33587786259542,19.69465648854962,-5.796362219238281,0.18914193115234373,3.0047230834960934,5.908396946564886,5.4961832061068705,-9.49618320610687,1.0
10.090000629425049,-9.64623848876953,6.4475850708007805,14.762647436523437,38.85496183206107,14.717557251908397,30.259541984732824,-5.837063647460937,1.4245499877929686,3.758896606445312,-5.847328244274809,7.022900763358779,-3.8473282442748094,1.0
10.100001096725464,-10.915165368652342,4.762067102050781,15.138537097167967,20.061068702290076,-11.114503816793894,34.19847328244275,-6.323086584472656,1.2378022583007813,3.2704794677734372,-18.641221374045802,7.267175572519084,0.9465648854961832,1.0
10.110000610351562,-10.785878479003905,-3.1364041748046874,8.219294299316406,-4.015267175572519,-32.76335877862596,40.25954198473283,-7.086836914062499,-0.967257470703125,4.101267443847656,-18.977099236641223,0.9007633587786259,7.297709923664122,1.0
10.120001077651978,-14.942212561035156,-4.474762902832031,7.931990100097655,-9.755725190839694,-48.778625954198475,35.61832061068702,-7.788338000488281,-1.0702081420898437,2.6982652709960937,-16.366412213740457,-3.1908396946564888,5.770992366412214,1.0
10.130000591278076,-18.365920935058593,-2.0566192260742184,11.824961999511718,33.969465648854964,-58.396946564885496,47.63358778625954,-9.801861596679688,0.40222587890625,2.2170307373046874,-27.61832061068702,-5.557251908396947,-0.0916030534351145,1.0
10.140000820159912,-17.278953381347655,4.685452648925781,5.485116003417969,56.3206106870229,-66.22900763358778,46.56488549618321,-14.393940380859375,-1.218648645019531,4.752490295410156,-37.038167938931295,-26.3206106870229,-0.7633587786259542,1.0
10.150000810623169,-28.378472277832028,8.882488159179687,18.037915307617187,67.3587786259542,-89.52671755725191,47.404580152671755,-19.196708911132813,-4.742913488769531,6.114791040039062,-41.66412213740458,-34.961832061068705,-4.809160305343512,1.0
10.160000801086426,-19.922152014160154,9.0788126953125,-3.2321722412109373,67.78625954198473,-102.6412213740458,60.67175572519084,-22.97715333251953,-5.102043737792968,4.398148449707031,-28.137404580152673,-32.778625954198475,-3.8473282442748094,1.0
10.170000553131104,-13.905523242187499,3.337517114257812,-6.672640026855468,27.251908396946565,-86.18320610687023,49.603053435114504,-25.376143395996092,-5.238513232421875,2.492363928222656,-49.43511450381679,-49.083969465648856,-3.7557251908396947,1.0
10.18000054359436,-10.761936462402343,0.7733271362304687,-2.463633508300781,10.595419847328245,-67.45038167938931,30.610687022900763,-25.11038701171875,-4.082113830566406,2.5330653564453125,16.412213740458014,-62.42748091603053,-9.450381679389313,1.0
10.190001010894775,-6.320692382812499,-2.91134921875,-2.8514941772460936,-5.312977099236641,-52.778625954198475,15.267175572519085,-22.761675183105467,-1.467645617675781,2.3774422485351563,11.98473282442748,-92.53435114503817,-17.87786259541985,1.0
10.200000762939453,-2.6288334228515624,-3.248931652832031,-4.395754248046875,-8.488549618320612,-39.83206106870229,-1.5114503816793894,-21.60288157958984,-0.00239420166015625,2.3343466186523436,22.106870229007633,-94.27480916030534,-27.84732824427481,1.0
10.210001230239868,-4.072537023925781,2.3056161987304686,-6.196193896484375,-31.053435114503817,-22.68702290076336,-22.717557251908396,-17.585411193847655,2.365471240234375,1.0797849487304687,28.65648854961832,-99.08396946564885,-41.05343511450382,0.0
10.220000505447388,-4.594472985839843,1.3407529296874998,-6.545747338867187,-34.58015267175573,-5.923664122137405,-23.954198473282442,-15.193603735351562,5.310339282226562,1.3551181396484375,11.251908396946565,-97.7557251908397,-42.213740458015266,0.0
10.230000495910645,-6.222530114746093,0.08379705810546874,-5.588066674804687,-13.648854961832061,28.732824427480917,-17.419847328244273,-14.611812731933593,5.1523219726562495,1.1013327636718748,9.603053435114504,-96.45801526717557,-35.29770992366412,0.0
10.24000072479248,-8.463502868652343,-2.398990063476562,-5.851428857421874,12.50381679389313,53.98473282442748,-15.053435114503817,-13.079523669433593,5.9017070922851556,-0.16280571289062498,-1.786259541984733,-94.70229007633588,-28.610687022900763,0.0
10.250000715255737,-12.998120812988281,0.26815058593749996,-4.627991809082031,35.57251908396947,82.54961832061069,-17.16030534351145,-12.593500732421875,4.733336682128906,-0.4381389038085937,-9.679389312977099,-88.03053435114504,-16.35114503816794,0.0
10.260000705718994,-15.195997937011718,2.1308394775390624,-3.5051112304687497,38.56488549618321,96.70229007633588,-14.595419847328245,-11.135431921386719,4.53940634765625,-1.7525556152343749,-14.580152671755725,-82.4885496183206,-7.038167938931298,0.0
10.27000093460083,-18.569428076171874,6.241683728027343,-1.429338391113281,43.61832061068702,113.43511450381679,-11.969465648854962,-11.092336291503905,3.3327287109375,-1.1947066284179686,-24.564885496183205,-76.80916030534351,3.877862595419847,0.0
10.280000686645508,-15.789759948730469,5.212177014160156,0.6009446166992187,24.15267175572519,115.6793893129771,-8.702290076335878,-12.045228552246092,2.1547814941406247,0.5267243652343749,-20.137404580152673,-73.61832061068702,13.083969465648854,0.0
10.290000915527344,-14.178462231445312,3.430890979003906,0.5817910034179687,10.259541984732824,116.07633587786259,-10.67175572519084,-10.175357055664062,2.104503259277344,0.373495458984375,-21.61832061068702,-61.29770992366412,10.335877862595419,0.0
10.300000667572021,-13.144167114257812,4.544194750976562,1.350329736328125,-15.709923664122137,110.10687022900764,-14.977099236641221,-12.744335437011719,-0.7038952880859375,1.5059528442382812,-17.450381679389313,-58.82442748091603,18.732824427480917,0.0
10.310000896453857,-11.020510241699219,4.106055847167968,1.668758557128906,-39.31297709923664,100.9618320610687,-15.312977099236642,-9.861716638183593,0.5267243652343749,-0.05027823486328125,3.114503816793893,-57.908396946564885,20.50381679389313,0.0
10.320000886917114,-9.5001921875,4.220977526855468,1.4963760375976562,-49.847328244274806,91.98473282442748,-14.15267175572519,-8.959102612304687,1.93451494140625,-0.09816226806640624,-17.297709923664122,-54.99236641221374,23.96946564885496,0.0
10.330000877380371,-7.903259680175781,2.987963671875,2.375048046875,-50.152671755725194,88.12213740458016,-9.648854961832061,-9.325415466308593,0.4572925170898437,1.6232687255859375,-8.259541984732824,-48.16793893129771,33.52671755725191,0.0
10.340000629425049,-8.779537487792968,3.0406361083984375,2.8275521606445313,-51.57251908396947,80.87022900763358,-11.893129770992367,-9.481038574218749,-0.011971008300781249,0.584185205078125,4.1679389312977095,-45.31297709923664,37.11450381679389,0.0
10.350000858306885,-7.517793212890624,1.6041151123046875,2.272097375488281,-49.23664122137404,74.07633587786259,-11.236641221374045,-7.704540942382812,0.718260498046875,-0.6871358764648438,-10.13740458015267,-50.6412213740458,37.05343511450382,0.0
10.360000848770142,-7.196970190429687,-0.928950244140625,2.29843359375,-34.06106870229008,75.02290076335878,-8.305343511450381,-8.513781103515624,-0.8810662109374999,0.28969840087890625,-9.282442748091603,-56.80916030534351,39.12977099236641,0.0
10.370000839233398,-7.335833886718749,-0.8475473876953125,2.9448680419921875,-14.961832061068701,78.42748091603053,-8.625954198473282,-8.1594392578125,-1.2018892333984375,0.7972691528320313,-7.022900763358779,-54.83969465648855,32.88549618320611,0.0
10.380000591278076,-9.085995300292968,1.8124106567382812,3.430890979003906,-14.82442748091603,77.7557251908397,-9.17557251908397,-7.237671618652343,-0.9840168823242187,0.3854664672851562,-7.343511450381679,-58.16793893129771,27.14503816793893,0.0
10.390000820159912,-10.773907470703124,5.698199951171874,4.3622354248046875,-32.0763358778626,74.1526717557252,-9.404580152671755,-6.854599353027344,-1.5897499023437498,-0.277727392578125,-1.7251908396946565,-60.274809160305345,23.236641221374047,0.0
10.400000810623169,-10.972626208496093,5.760449194335937,3.5984850952148437,-63.66412213740458,63.23664122137404,-7.770992366412214,-8.403647827148436,-3.0813375366210938,2.461239306640625,-8.961832061068701,-62.18320610687023,19.603053435114504,0.0
10.410000801086426,-9.574412438964844,3.3016040893554686,2.8371289672851563,-89.89312977099236,55.770992366412216,-3.2061068702290076,-6.105214233398437,-1.9321207397460936,1.5442600708007812,-6.137404580152672,-58.30534351145038,14.366412213740459,0.0
10.420000791549683,-9.239224206542968,2.942473840332031,2.978386865234375,-104.07633587786259,53.80152671755725,-2.427480916030534,-6.098031628417968,-2.3391350219726563,2.521094348144531,-4.458015267175573,-62.595419847328245,17.69465648854962,0.0
10.43000078201294,-9.485826977539062,2.5450363647460934,3.1675287963867187,-115.09923664122137,49.74045801526717,-1.0381679389312977,-6.038176586914062,-2.913743420410156,2.626439221191406,6.793893129770993,-63.63358778625954,11.709923664122137,0.0
10.440000772476196,-9.821015209960937,1.8148048583984373,2.5354595581054684,-124.36641221374046,46.99236641221374,1.9083969465648856,-4.13718046875,-1.7094599853515624,2.5617957763671875,16.137404580152673,-60.25954198473283,13.633587786259541,0.0
10.450000762939453,-9.603142858886718,0.5793968017578125,2.916137622070312,-123.46564885496183,48.229007633587784,4.015267175572519,-5.5449710449218745,-1.0749965454101562,3.6487633300781246,-6.549618320610687,-63.61832061068702,9.206106870229007,0.0
10.46000051498413,-8.927977990722656,-1.2210428466796874,3.555389465332031,-101.92366412213741,53.908396946564885,6.1679389312977095,-4.53940634765625,-1.199495031738281,1.9728221679687499,-5.419847328244275,-34.0763358778626,8.51908396946565,0.0
10.470000267028809,-9.830592016601562,1.39821376953125,4.560954162597656,-101.63358778625954,51.16030534351145,3.2213740458015265,-3.81156904296875,0.0430956298828125,3.0262708984374997,-26.045801526717558,-26.671755725190838,5.862595419847328,0.0
10.480000734329224,-10.168174450683592,2.2577321655273437,4.50109912109375,-107.48091603053435,44.152671755725194,3.053435114503817,-5.2648494506835934,-1.8555062866210936,5.051765502929687,-8.625954198473282,-17.19083969465649,9.49618320610687,0.0
10.49000072479248,-9.337386474609374,1.4772224243164063,3.632003918457031,-98.25954198473282,39.23664122137404,4.519083969465649,-6.011840368652344,-0.9504980590820312,6.282385156249999,-21.46564885496183,-16.900763358778626,17.099236641221374,0.0
10.500000476837158,-8.437166650390624,0.5578489868164063,3.8379052612304685,-92.0,34.717557251908396,5.343511450381679,-4.802768530273437,-0.1005564697265625,4.074931225585937,-16.793893129770993,-9.282442748091603,10.106870229007633,0.0
10.510000705718994,-8.389282617187499,0.48123453369140623,3.9647979492187497,-83.55725190839695,31.221374045801525,3.053435114503817,-6.5026517089843745,-1.8219874633789062,5.633556506347656,-30.091603053435115,0.9618320610687023,9.938931297709924,0.0
10.52000093460083,-7.1203557373046875,-1.1707646118164061,2.89219560546875,-65.92366412213741,27.068702290076335,3.49618320610687,-7.503428002929687,-2.1308394775390624,6.394912634277343,-9.389312977099237,1.8015267175572518,8.931297709923664,0.0
10.530000925064087,-6.8976949829101555,-1.5897499023437498,1.8052280517578123,-41.083969465648856,26.763358778625953,3.0229007633587788,-7.963114721679687,-1.5562310791015623,6.861781958007812,-14.381679389312977,-2.030534351145038,4.748091603053435,0.0
10.540000915527344,-6.9719152343749995,-1.2425906616210938,1.5466542724609373,-25.099236641221374,29.267175572519083,1.1755725190839694,-7.3094976684570305,-1.1372457885742187,6.742071875,-15.358778625954198,-0.15267175572519084,0.33587786259541985,0.0
10.550000667572021,-7.070077502441406,1.3407529296874998,1.5251064575195312,-19.66412213740458,29.603053435114504,-0.4580152671755725,-8.295908752441406,-1.7118541870117185,7.3094976684570305,-10.396946564885496,-1.816793893129771,0.6870229007633588,0.0
10.560000658035278,-8.161833459472655,0.9265560424804687,1.16837041015625,-24.65648854961832,26.580152671755727,0.33587786259541985,-6.833051538085937,0.9552864624023437,6.5385647338867185,-11.938931297709924,-2.1068702290076335,-2.3206106870229006,0.0
10.570000886917114,-9.026140258789061,-0.1292868896484375,1.3168109130859373,-4.885496183206107,32.61068702290076,3.0229007633587788,-7.343016491699219,0.02154781494140625,7.314286071777343,-45.74045801526717,2.3053435114503817,-2.564885496183206,0.0
10.58000135421753,-7.592013464355468,-0.7541735229492187,1.2832920898437499,6.015267175572519,34.97709923664122,1.83206106870229,-6.945579016113281,-0.29448680419921874,7.539341027832031,-23.52671755725191,4.122137404580153,-1.3740458015267176,0.0
10.590000629425049,-8.693346228027343,-0.3758896606445312,1.6352397338867186,22.519083969465647,39.267175572519086,-1.4809160305343512,-7.407659936523437,-0.8571241943359375,6.797138513183594,-14.916030534351146,-2.4732824427480917,-1.7404580152671756,0.0
10.600000381469727,-9.402029919433593,1.3766659545898436,1.9393033447265624,32.595419847328245,41.55725190839695,-3.984732824427481,-5.65031591796875,0.023942016601562498,4.876988781738281,-24.33587786259542,-1.8473282442748091,-6.320610687022901,0.0
10.610000610351562,-10.287884533691406,3.4955344238281247,2.7533319091796873,26.213740458015266,39.86259541984733,-5.4961832061068705,-5.190629199218749,-0.28969840087890625,4.211400720214844,-34.961832061068705,5.862595419847328,-7.00763358778626,0.0
10.620000839233398,-9.595960253906249,3.864241479492187,2.9281086303710935,20.366412213740457,35.3587786259542,-4.793893129770993,-5.090072729492187,0.8954314208984374,4.446032482910156,-28.778625954198475,16.35114503816794,-5.862595419847328,0.0
10.630000591278076,-8.66940421142578,3.6583401367187496,2.8227637573242186,20.259541984732824,29.6793893129771,-3.3893129770992365,-4.412513659667969,1.3862427612304686,2.454056701660156,-59.43511450381679,26.0,-6.290076335877862,0.0
10.640000820159912,-8.674192614746094,3.88818349609375,3.1555577880859373,12.305343511450381,25.633587786259543,-3.312977099236641,-5.183446594238281,0.6200982299804687,2.123656872558594,-61.221374045801525,38.82442748091603,-1.6641221374045803,0.0
10.65000057220459,-8.755595471191405,4.182670300292968,2.7653029174804686,4.809160305343512,19.557251908396946,-4.488549618320611,-6.641515405273437,-0.9552864624023437,2.7916391357421872,-48.33587786259542,48.16793893129771,3.2519083969465647,0.0
10.660001039505005,-7.972691528320312,4.072537023925781,2.001552587890625,-1.5725190839694656,11.022900763358779,-3.1297709923664123,-4.900930798339844,0.29448680419921874,1.0079588989257813,-44.091603053435115,60.83969465648855,0.6870229007633588,0.0
10.670000553131104,-8.827421520996094,4.2688615600585935,2.2290017456054687,-14.381679389312977,2.8702290076335877,-0.0916030534351145,-6.809109521484374,-1.7477672119140624,1.6041151123046875,-62.83969465648855,68.21374045801527,3.49618320610687,0.0
10.68000054359436,-7.620743884277343,0.8116343627929687,1.7669208251953124,0.12213740458015267,3.8473282442748094,4.977099236641221,-7.034164477539062,-1.898601916503906,-0.02633621826171875,-0.5343511450381679,82.7175572519084,-2.3969465648854964,0.0
10.690000534057617,-7.484274389648437,-0.6512228515624999,1.5658078857421873,18.229007633587788,5.038167938931298,3.8931297709923665,-6.593631372070312,-1.9704279663085937,0.7015010864257812,-6.595419847328245,67.46564885496183,8.335877862595419,0.0
10.700000524520874,-8.655039001464843,-0.11252747802734374,2.7269956909179687,26.442748091603054,6.977099236641221,0.5343511450381679,-8.827421520996094,-4.668693237304687,-2.379836450195312,5.572519083969466,80.45801526717557,-3.145038167938931,0.0
10.71000051498413,-9.689334118652344,0.8212111694335937,3.9600095458984375,36.87022900763359,3.7709923664122136,-4.0,-9.035717065429687,-2.5474305664062498,2.2385785522460937,21.022900763358777,74.90076335877863,-7.923664122137405,0.0
10.720000505447388,-13.304578625488281,4.680664245605469,7.122749938964843,30.458015267175572,-3.1603053435114505,-9.206106870229007,-11.975796704101562,-4.053383410644531,5.027823486328125,26.885496183206108,66.35114503816794,-18.870229007633586,0.0
10.730000495910645,-13.881581225585936,4.010287780761718,9.0788126953125,23.709923664122137,-21.251908396946565,-6.473282442748092,-15.00925020751953,-4.151545678710937,11.654973681640625,26.732824427480917,28.396946564885496,-21.0381679389313,0.0
10.74000072479248,-13.893552233886718,2.2577321655273437,11.975796704101562,36.82442748091603,-37.51145038167939,-4.488549618320611,-18.164807995605468,-0.5051765502929687,18.157625390625,48.74809160305343,62.62595419847328,-34.12213740458015,0.0
10.750000715255737,-14.671667773437498,3.6391865234374996,14.611812731933593,36.88549618320611,-62.091603053435115,-7.312977099236641,-13.41950030517578,-1.6424223388671875,13.364433666992186,20.35114503816794,17.328244274809162,-37.908396946564885,0.0
10.760000705718994,-16.314090112304687,5.595249279785156,15.899893225097655,20.48854961832061,-93.96946564885496,-10.351145038167939,-12.294225524902343,0.6248866333007812,10.510545288085936,39.31297709923664,0.549618320610687,-23.52671755725191,0.0
10.77000093460083,-14.542380883789061,2.767697119140625,13.5224509765625,-7.8320610687022905,-133.96946564885496,-10.51908396946565,-11.080365283203124,2.703053674316406,6.998251452636718,43.343511450381676,-28.625954198473284,-6.534351145038168,0.0
10.780000686645508,-14.439430212402343,1.9680337646484374,11.33175645751953,-29.282442748091604,-169.23664122137404,-20.427480916030536,-9.430760339355468,7.445967163085937,7.168239770507812,21.603053435114504,-41.02290076335878,-9.267175572519085,0.0
10.790000677108765,-13.666103076171874,0.7829039428710937,7.572859851074218,-51.43511450381679,-197.40458015267177,-27.083969465648856,-7.407659936523437,2.7437551025390623,3.763685009765625,-27.51145038167939,-32.97709923664122,-18.885496183206108,0.0
10.8000009059906,-12.514492077636717,-0.8667010009765624,3.744531396484375,-53.57251908396947,-213.09923664122138,-24.045801526717558,-7.034164477539062,-2.6431986328124997,-0.9026140258789062,-54.76335877862596,14.442748091603054,-28.763358778625953,0.0
10.810000896453857,-13.436259716796874,0.0909796630859375,-0.4908113403320312,-42.717557251908396,-212.70229007633588,-19.389312977099237,-6.153098266601562,-0.4908113403320312,-13.819331982421874,-56.30534351145038,-30.53435114503817,-29.96946564885496,0.0
10.820000648498535,-14.717157604980468,-0.08140285644531249,-1.465251416015625,-24.15267175572519,-205.4351145038168,-5.068702290076335,-6.497863305664062,-0.239420166015625,-5.204994409179688,-60.534351145038165,36.61068702290076,-24.106870229007633,0.0
10.83000111579895,-15.006856005859374,-3.5410242553710933,-1.6160861206054686,15.038167938931299,-192.6259541984733,10.061068702290076,-8.425195642089843,-1.2497732666015624,-4.247313745117188,-42.76335877862596,39.343511450381676,-9.923664122137405,0.0
10.840001106262207,-15.78736574707031,-3.478775012207031,-1.189918225097656,50.68702290076336,-176.53435114503816,12.793893129770993,-8.528146313476562,-2.0446482177734375,-3.775656018066406,-47.20610687022901,53.05343511450382,-4.33587786259542,0.0
10.850000858306885,-18.55745706787109,1.3455413330078123,1.120486376953125,64.9618320610687,-156.2290076335878,5.770992366412214,-8.497021691894531,-3.1364041748046874,-3.6343981201171873,-43.038167938931295,61.69465648854962,0.4732824427480916,0.0
10.86000108718872,-19.744981091308592,4.800374328613281,1.7477672119140624,44.38167938931298,-151.55725190839695,0.5190839694656488,-10.570400329589843,-4.9416322265625,-0.7685387329101562,-49.29770992366412,83.61832061068702,5.6183206106870225,0.0
10.870001077651978,-16.479290026855466,4.7931917236328125,1.6903063720703124,26.061068702290076,-143.2824427480916,8.076335877862595,-12.658144177246093,-5.72693037109375,2.482787121582031,-39.69465648854962,96.38167938931298,13.465648854961833,0.0
10.880000829696655,-14.33887374267578,3.0621839233398433,0.7398083129882812,6.061068702290076,-134.03053435114504,15.83206106870229,-10.89840595703125,-3.6176387084960937,1.9536685546875,-17.31297709923664,91.5114503816794,17.068702290076335,0.0
10.890000581741333,-11.942277880859374,-0.6416460449218749,0.967257470703125,14.473282442748092,-120.73282442748092,20.595419847328245,-11.247959399414063,-3.9815573608398434,0.26815058593749996,4.320610687022901,84.06106870229007,17.00763358778626,0.0
10.900000810623169,-11.353304272460937,-0.6536170532226562,1.8028338500976562,8.183206106870228,-108.85496183206106,20.53435114503817,-13.620613244628906,-5.767631799316406,1.2378022583007813,37.80152671755725,79.29770992366412,19.984732824427482,0.0
10.910000562667847,-9.02135185546875,-2.1835119140624997,1.0031704956054688,16.03053435114504,-97.20610687022901,19.0381679389313,-12.39238779296875,-4.580107775878906,1.4628572143554686,63.14503816793893,76.80916030534351,21.541984732824428,0.0
10.920000791549683,-9.141061938476563,-1.0869675537109373,0.5410895751953124,13.099236641221374,-86.4885496183206,13.816793893129772,-11.516109985351562,-4.039018200683594,0.21308394775390624,81.63358778625954,67.80152671755725,21.6793893129771,0.0
10.93000078201294,-9.591171850585937,-0.13646949462890623,0.8068459594726562,7.038167938931298,-76.3969465648855,6.717557251908397,-11.238382592773437,-1.216254443359375,-1.5322890624999999,80.62595419847328,63.16030534351145,18.35114503816794,0.0
10.940000772476196,-7.9463553100585935,-0.5410895751953124,0.2537853759765625,-4.396946564885496,-72.3969465648855,4.213740458015267,-9.545682019042967,1.3551181396484375,0.4070142822265625,63.9236641221374,64.59541984732824,17.938931297709924,0.0
10.950000762939453,-5.046977099609375,-2.8419173706054686,-0.40462008056640625,-3.0229007633587788,-61.343511450381676,4.656488549618321,-10.8409451171875,-0.21068974609375,1.1133037719726562,64.74809160305344,69.14503816793894,21.221374045801525,0.0
10.960000276565552,-5.815515832519531,-1.70467158203125,-0.5434837768554687,2.4885496183206106,-46.58015267175573,-3.435114503816794,-9.37808790283203,-0.4213794921875,0.9816226806640624,67.16030534351145,62.274809160305345,16.137404580152673,0.0
10.970001220703125,-4.92247861328125,-2.3151930053710936,-1.8746598999023436,5.740458015267175,-38.10687022900763,-8.381679389312977,-8.86094034423828,0.3327940307617187,0.16998831787109375,58.51908396946565,56.25954198473283,12.458015267175572,0.0
10.980000495910645,-1.4413093994140624,-4.8698061767578125,-2.8850130004882812,21.908396946564885,-22.0,-7.587786259541985,-9.483432775878907,1.5322890624999999,1.37906015625,48.045801526717554,57.87786259541985,14.305343511450381,0.0
10.99000072479248,-2.1978771240234374,-3.2537200561523436,-2.786850732421875,31.236641221374047,1.5267175572519085,-16.732824427480917,-9.572018237304688,1.3838485595703125,2.3247698120117186,34.50381679389313,56.97709923664122,17.419847328244273,0.0
11.000000715255737,-3.7014357666015623,0.19871873779296872,-2.379836450195312,21.572519083969464,18.106870229007633,-28.732824427480917,-8.796296899414061,0.7781155395507812,2.3032219970703123,28.198473282442748,53.16030534351145,20.458015267175572,0.0
11.010001420974731,-1.7118541870117185,-1.8100164550781248,-3.902548706054687,17.709923664122137,28.18320610687023,-29.770992366412212,-9.126696728515624,1.3862427612304686,2.9640216552734375,25.206106870229007,46.916030534351144,24.30534351145038,0.0
11.020000696182251,-3.0142998901367184,-0.20829554443359374,-3.0813375366210938,9.34351145038168,40.99236641221374,-32.06106870229008,-9.320627062988281,0.9457096557617187,3.057395520019531,13.114503816793894,41.83206106870229,26.793893129770993,0.0
11.030000925064087,-3.854664672851562,1.2210428466796874,-2.741360900878906,-2.885496183206107,48.62595419847328,-32.030534351145036,-8.10197841796875,1.3168109130859373,2.528276953125,2.595419847328244,35.465648854961835,28.213740458015266,0.0
11.040000915527344,-1.3814543579101561,-2.365471240234375,-3.0789433349609374,-0.22900763358778625,55.14503816793893,-27.236641221374047,-8.420407238769531,0.7326257080078125,4.57771357421875,-6.412213740458015,30.244274809160306,29.893129770992367,0.0
11.0500009059906,0.5099649536132812,-4.8123453369140625,-2.3487118286132813,28.763358778625953,77.69465648854961,-30.442748091603054,-7.467514978027343,-0.023942016601562498,3.928884924316406,-17.206106870229007,35.86259541984733,28.885496183206108,0.0
11.060000658035278,-1.9201497314453124,-1.659181750488281,-0.38307226562499996,30.076335877862597,92.73282442748092,-46.0763358778626,-7.544129431152343,-2.3032219970703123,4.316745593261719,-10.778625954198473,34.152671755725194,25.984732824427482,0.0
11.070000648498535,-2.6144682128906247,-1.608903515625,0.8954314208984374,25.404580152671755,94.83969465648855,-53.17557251908397,-9.277531433105468,-5.157110375976562,5.2624552490234375,-3.633587786259542,30.106870229007633,23.6793893129771,0.0
11.080000877380371,-3.0238766967773434,-1.3048399047851562,1.7549498168945312,49.81679389312977,106.94656488549619,-52.74809160305343,-7.987056738281249,-5.482721801757812,4.829104748535156,7.770992366412214,29.297709923664122,20.12213740458015,0.0
11.090000867843628,-4.007893579101562,2.5761609863281247,2.5570073730468748,65.81679389312977,115.87786259541984,-49.17557251908397,-6.979097839355468,-5.0206408813476555,4.146757275390625,23.51145038167939,20.778625954198475,14.427480916030534,0.0
11.100001096725464,-3.919308117675781,1.7334020019531249,2.7341782958984373,84.83969465648855,120.50381679389314,-37.00763358778626,-7.419630944824219,-5.983109948730468,5.427655163574219,37.89312977099237,12.778625954198473,14.16793893129771,0.0
11.110000610351562,-7.184999182128906,3.1483751831054687,6.931213806152344,109.37404580152672,130.9770992366412,-26.442748091603054,-6.327874987792969,-4.132392065429687,4.948814831542968,43.93893129770992,5.709923664122138,12.50381679389313,0.0
11.120000839233398,-10.369287390136718,6.198588098144531,10.958260998535156,120.01526717557252,124.50381679389314,-12.992366412213741,-4.441244079589843,-1.7956512451171873,5.422866760253906,54.35114503816794,12.213740458015268,5.603053435114504,0.0
11.130000829696655,-14.97094298095703,11.884817041015625,15.421052893066406,127.32824427480917,107.92366412213741,11.236641221374045,-8.760383874511719,-3.564966271972656,9.138667736816405,26.427480916030536,10.50381679389313,10.534351145038167,0.0
11.140001058578491,-8.985438830566405,9.251195214843749,12.567164514160156,108.16793893129771,69.54198473282443,38.67175572519084,-6.222530114746093,-1.197100830078125,4.144363073730468,40.82442748091603,5.083969465648855,5.450381679389313,0.0
11.15000057220459,-14.013262316894531,11.65736788330078,15.454571716308592,69.81679389312977,39.69465648854962,41.52671755725191,-5.7149593627929685,-0.47644613037109373,2.568978381347656,23.557251908396946,4.030534351145038,6.625954198473282,0.0
11.160001277923584,-14.140155004882812,8.113949426269532,18.24621085205078,-4.885496183206107,-11.541984732824428,36.33587786259542,-4.910507604980468,1.158793603515625,1.5298948608398437,6.412213740458015,8.50381679389313,8.305343511450381,0.0
11.170000791549683,-10.984597216796875,0.38307226562499996,12.145785021972655,-36.83969465648855,-48.58015267175573,38.12213740458015,-5.363011718749999,0.1771709228515625,2.0757728393554684,-17.0381679389313,18.244274809160306,18.106870229007633,0.0
11.18000078201294,-9.816226806640625,-3.6343981201171873,0.4644751220703125,-49.02290076335878,-57.099236641221374,38.62595419847328,-7.043741284179687,-3.287238879394531,1.7717092285156248,-31.49618320610687,16.977099236641223,16.412213740458014,0.0
11.190000534057617,-14.106636181640624,-4.434061474609375,6.028599780273437,-7.297709923664122,-54.29007633587786,44.51908396946565,-7.426813549804687,-2.422932080078125,-2.166752502441406,7.4961832061068705,18.137404580152673,15.679389312977099,0.0
11.200000762939453,-19.67554924316406,-2.9089550170898435,15.1313544921875,68.91603053435115,-56.916030534351144,61.16030534351145,-9.313444458007812,-1.7357962036132812,0.7398083129882812,-17.206106870229007,-3.0229007633587788,9.267175572519085,0.0
11.21000075340271,-17.750611108398438,5.760449194335937,1.697488977050781,108.01526717557252,-51.20610687022901,65.58778625954199,-12.880804931640624,-5.3199160888671875,1.1947066284179686,-12.946564885496183,3.267175572519084,-10.076335877862595,0.0
11.220000743865967,-17.808071948242187,2.5330653564453125,-3.2225954345703123,22.229007633587788,-64.07633587786259,39.23664122137404,-19.378668237304687,-6.8593877563476555,1.7549498168945312,-3.5114503816793894,1.1755725190839694,-25.358778625954198,0.0
11.230000972747803,-13.977349291992187,-4.438849877929687,-6.098031628417968,19.61832061068702,-53.17557251908397,23.603053435114504,-22.972364929199216,-5.813121630859374,-1.2617442749023438,18.091603053435115,-16.946564885496183,-37.221374045801525,0.0
11.240000486373901,-11.75313594970703,-5.72693037109375,-4.1754876953124995,24.30534351145038,-31.297709923664122,0.16793893129770993,-25.206155078124997,-3.229778039550781,-0.028730419921875,17.984732824427482,-36.595419847328245,-39.05343511450382,0.0
11.250000953674316,-6.830657336425781,-7.168239770507812,-2.6815058593749996,38.2442748091603,-9.755725190839694,-20.458015267175572,-25.526978100585936,0.5123591552734374,0.469263525390625,33.31297709923664,-61.69465648854962,-41.64885496183206,0.0
11.260001182556152,-5.521029028320312,-2.712630480957031,-5.252878442382812,52.51908396946565,8.564885496183207,-43.45038167938932,-21.894974182128905,3.8953661010742184,-0.9552864624023437,32.916030534351144,-66.3969465648855,-38.732824427480914,0.0
11.270001411437988,-6.658274816894531,0.18914193115234373,-5.7843912109375,51.099236641221374,26.244274809160306,-53.81679389312977,-19.54865655517578,4.584896179199219,-0.6296750366210937,25.419847328244273,-70.13740458015268,-37.20610687022901,0.0
11.280000925064087,-7.153874560546875,2.001552587890625,-3.507505432128906,65.00763358778626,42.961832061068705,-51.89312977099237,-18.406622363281247,4.797980126953124,-1.199495031738281,16.763358778625953,-73.3587786259542,-35.541984732824424,0.0
11.290000677108765,-9.627084875488281,4.726154077148437,-4.3071687866210935,76.36641221374046,62.68702290076336,-45.87786259541985,-16.49126103515625,3.1699229980468746,-1.218648645019531,20.366412213740457,-76.93129770992367,-35.282442748091604,0.0
11.3000009059906,-13.196839550781249,10.046070166015625,-3.845087866210937,54.412213740458014,72.27480916030534,-44.82442748091603,-16.539145068359375,4.759672900390624,-1.5298948608398437,18.671755725190838,-78.18320610687023,-30.290076335877863,0.0
11.310000896453857,-13.690045092773437,11.48498536376953,-3.227383837890625,8.381679389312977,70.6412213740458,-34.76335877862596,-14.235923071289061,5.6766521362304685,0.0718260498046875,0.2595419847328244,-71.2824427480916,-22.82442748091603,0.0
11.320000886917114,-13.76426534423828,9.672574707031249,-2.8275521606445313,-39.69465648854962,69.38931297709924,-24.137404580152673,-13.943830468749999,4.589684582519531,-0.0909796630859375,2.7022900763358777,-69.98473282442748,-10.916030534351146,0.0
11.330000638961792,-12.351686364746094,8.513781103515624,-2.583343591308594,-66.06106870229007,67.63358778625954,-19.557251908396946,-12.00213292236328,5.923254907226562,0.05027823486328125,3.0839694656488548,-64.10687022900764,-6.519083969465649,0.0
11.340001106262207,-10.031704956054687,2.9089550170898435,-2.437297290039062,-78.01526717557252,64.1526717557252,-10.564885496183207,-12.342109558105468,3.1866824096679687,1.1228805786132812,-2.7022900763358777,-60.10687022900763,5.511450381679389,0.0
11.350000858306885,-8.396465222167969,-2.6527754394531247,-2.166752502441406,-49.083969465648856,76.90076335877863,-3.877862595419847,-10.505756884765624,3.9456443359374997,0.39983167724609375,7.847328244274809,-56.396946564885496,9.038167938931299,0.0
11.36000108718872,-10.884040747070312,-1.458068811035156,-0.033518823242187495,-16.3206106870229,87.00763358778626,-5.00763358778626,-8.939948999023438,3.699041564941406,1.6304513305664061,-7.603053435114504,-50.12213740458015,16.3206106870229,0.0
11.370000839233398,-9.787496386718749,-0.4644751220703125,0.5578489868164063,-8.534351145038167,87.96946564885496,-4.351145038167939,-9.057264880371093,1.7477672119140624,1.2497732666015624,10.335877862595419,-48.030534351145036,22.38167938931298,0.0
11.380001068115234,-10.881646545410156,2.214636535644531,1.4796166259765624,-7.022900763358779,86.03053435114504,-8.687022900763358,-8.068459594726562,1.886630908203125,2.0566192260742184,-6.3816793893129775,-46.33587786259542,23.893129770992367,0.0
11.390000581741333,-8.207323291015625,-0.1484405029296875,1.2018892333984375,-16.83969465648855,74.8854961832061,-6.595419847328245,-8.614337573242187,-0.46686932373046874,1.7621324218749999,3.8473282442748094,-48.70229007633588,27.236641221374047,0.0
11.400000810623169,-7.625532287597656,-0.7876923461914062,2.147598889160156,-13.801526717557252,71.92366412213741,-11.786259541984732,-7.417236743164062,0.45010991210937495,1.936909143066406,-4.229007633587786,-51.86259541984733,25.358778625954198,0.0
11.410001039505005,-8.844180932617187,0.10295067138671875,3.6008792968749996,-21.31297709923664,66.87022900763358,-19.435114503816795,-8.810662109374999,-2.1499930908203124,1.898601916503906,6.564885496183206,-58.0763358778626,26.366412213740457,0.0
11.420000553131104,-8.916006982421875,-0.411802685546875,3.268085266113281,-20.671755725190838,64.01526717557252,-24.580152671755727,-8.142679846191406,-1.8363526733398436,3.2154128295898436,-6.5038167938931295,-64.01526717557252,26.091603053435115,0.0
11.430001020431519,-8.882488159179687,-0.967257470703125,2.9735984619140625,-15.725190839694656,61.98473282442748,-25.69465648854962,-7.996633544921875,-1.7094599853515624,2.461239306640625,11.49618320610687,-73.37404580152672,21.923664122137403,0.0
11.440001010894775,-10.08677159423828,0.40222587890625,3.057395520019531,-11.19083969465649,60.18320610687023,-27.0381679389313,-8.786720092773438,-2.5665841796874997,3.402160559082031,6.580152671755725,-81.14503816793894,17.46564885496183,0.0
11.450000762939453,-9.612719665527344,1.0941501586914062,3.2058360229492187,-6.1679389312977095,60.93129770992366,-24.85496183206107,-8.585607153320312,-1.3958195678710936,4.331110803222656,-1.251908396946565,-87.09923664122137,16.244274809160306,0.0
11.46000075340271,-10.211270080566406,2.923320227050781,2.712630480957031,-9.740458015267176,57.343511450381676,-22.045801526717558,-7.194575988769531,-1.0749965454101562,3.864241479492187,-5.1603053435114505,-91.05343511450381,12.274809160305344,0.0
11.470000743865967,-9.749189160156249,3.7325603881835936,2.5905261962890624,-12.076335877862595,55.55725190839695,-18.396946564885496,-5.851428857421874,-1.6304513305664061,1.927332336425781,-7.0534351145038165,-95.77099236641222,7.648854961832061,0.0
11.480000495910645,-10.321403356933594,4.841075756835937,2.4875755249023435,-23.541984732824428,51.57251908396947,-15.83206106870229,-6.950367419433594,-1.9943699829101562,3.201047619628906,-5.190839694656488,-96.79389312977099,3.877862595419847,0.0
11.490001201629639,-8.650250598144531,3.4261025756835934,2.7940333374023436,-29.19083969465649,49.00763358778626,-11.633587786259541,-7.395688928222656,-2.0159177978515626,3.1938650146484373,-5.022900763358779,-93.49618320610686,5.32824427480916,0.0
11.500000715255737,-8.66940421142578,3.2824504760742186,2.9975404785156248,-37.099236641221374,45.404580152671755,-8.442748091603054,-7.785943798828124,-1.687912170410156,4.058171813964844,-8.610687022900763,-87.98473282442748,4.412213740458015,0.0
11.510001420974731,-8.86094034423828,2.925714428710937,3.5242648437499997,-42.50381679389313,41.20610687022901,-5.236641221374046,-5.6024318847656245,-0.44532150878906246,1.9800047729492187,-6.427480916030534,-84.50381679389314,0.9312977099236641,0.0
11.520000696182251,-9.540893615722656,3.2249896362304686,3.689464758300781,-45.23664122137404,36.30534351145038,-3.068702290076336,-6.313509777832031,-1.0606313354492187,2.492363928222656,-4.824427480916031,-76.56488549618321,-1.465648854961832,0.0
11.530000686645508,-9.682151513671874,2.741360900878906,3.756502404785156,-50.29007633587786,31.69465648854962,-1.7404580152671756,-4.994304663085937,0.6679822631835937,1.9871873779296874,-13.297709923664122,-64.80916030534351,-1.633587786259542,0.0
11.540001153945923,-10.32379755859375,2.9281086303710935,4.173093493652344,-55.41984732824427,25.51145038167939,-1.6030534351145038,-6.289567761230469,-0.9002198242187499,3.3686417358398435,-16.442748091603054,-54.99236641221374,1.984732824427481,0.0
11.5500009059906,-10.299855541992187,3.0454245117187497,4.774038110351563,-60.35114503816794,18.47328244274809,-4.030534351145038,-5.911283898925781,0.6368576416015624,2.8993782104492185,-14.274809160305344,-49.81679389312977,2.2748091603053435,0.0
11.560000896453857,-8.686163623046875,0.22505495605468748,4.163516687011718,-55.12977099236641,10.045801526717558,-0.8091603053435115,-5.090072729492187,1.608903515625,0.7589619262695312,-28.03053435114504,-34.54961832061068,3.3435114503816794,0.0
11.570000886917114,-9.715670336914062,1.5729904907226562,4.920084411621094,-44.36641221374046,9.48091603053435,-2.122137404580153,-6.303932971191406,0.03591302490234375,1.5897499023437498,-29.022900763358777,-25.587786259541986,8.51908396946565,0.0
11.580000877380371,-9.13627353515625,2.6336218261718747,4.6447512207031245,-39.48091603053435,5.816793893129771,-5.297709923664122,-6.663063220214843,0.3687070556640625,2.849099975585937,-32.16793893129771,-15.49618320610687,8.610687022900763,0.0
11.590000867843628,-7.493851196289062,2.6815058593749996,2.85388837890625,-51.16030534351145,-5.8320610687022905,-2.4580152671755724,-7.879317663574218,-1.465251416015625,3.296815686035156,-30.625954198473284,-10.83969465648855,10.442748091603054,0.0
11.600000619888306,-7.201758593749999,2.2481553588867187,2.6982652709960937,-44.2442748091603,-6.061068702290076,0.8854961832061069,-8.13310303955078,-2.27927998046875,3.6176387084960937,-22.900763358778626,-9.129770992366412,7.6183206106870225,0.0
11.610000610351562,-9.009380847167968,3.1172505615234374,2.8562825805664063,-36.030534351145036,-4.030534351145038,3.068702290076336,-6.318298181152343,-1.350329736328125,2.817975354003906,-19.51145038167939,-6.793893129770993,0.6717557251908397,0.0
11.620000839233398,-7.352593298339843,3.153163586425781,2.5713725830078125,-36.229007633587784,-6.091603053435114,7.633587786259542,-6.8785413696289055,-2.528276953125,3.821145849609375,-10.274809160305344,-6.320610687022901,-2.9770992366412212,0.0
11.630000829696655,-6.301538769531249,2.1978771240234374,0.97683427734375,-28.564885496183205,-6.778625954198473,12.01526717557252,-7.314286071777343,-2.6336218261718747,4.46279189453125,2.8244274809160306,-6.442748091603053,-4.366412213740458,0.0
11.640001058578491,-5.717353564453124,1.0079588989257813,0.9074024291992187,-16.793893129770993,2.4427480916030535,12.625954198473282,-4.958391638183594,-0.4381389038085937,3.768473413085937,5.251908396946565,-4.564885496183206,-9.694656488549619,0.0
11.650000810623169,-6.318298181152343,0.6584054565429687,0.7158662963867187,-18.27480916030534,5.083969465648855,12.106870229007633,-6.517016918945312,-0.6631938598632812,5.588066674804687,-1.3893129770992367,8.732824427480915,-12.290076335877863,0.0
11.660000801086426,-8.104372619628906,1.915361328125,2.310404602050781,-15.86259541984733,13.48091603053435,8.717557251908397,-3.8666356811523435,1.1875240234375,3.038241906738281,-7.190839694656488,15.893129770992367,-13.053435114503817,0.0
11.670000791549683,-9.507374792480467,2.6791116577148437,2.5546131713867184,-13.740458015267176,15.526717557251908,7.7251908396946565,-5.046977099609375,0.7565677246093749,3.6559459350585937,-16.244274809160306,28.458015267175572,-10.687022900763358,0.0
11.68000078201294,-9.476250170898437,3.189076611328125,3.651157531738281,-37.770992366412216,11.679389312977099,6.351145038167939,-7.42441934814453,-0.3016694091796875,4.908113403320312,-9.877862595419847,27.72519083969466,-5.374045801526718,0.0
11.690000772476196,-8.525752111816406,1.1133037719726562,3.825934252929687,-21.374045801526716,12.534351145038167,7.251908396946565,-3.9815573608398434,1.7381904052734374,2.6671406494140624,-16.931297709923665,30.137404580152673,-9.389312977099237,0.0
11.700000762939453,-7.484274389648437,0.30406361083984373,2.9640216552734375,-16.610687022900763,11.236641221374045,6.961832061068702,-6.969521032714844,-0.4572925170898437,5.291185668945312,-25.801526717557252,42.33587786259542,-7.908396946564886,0.0
11.71000075340271,-7.989450939941406,1.5634136840820312,1.3120225097656248,-23.251908396946565,12.687022900763358,1.2366412213740459,-5.899312890625,-0.15083470458984374,4.42448466796875,-14.488549618320612,37.9236641221374,-6.778625954198473,0.0
11.720000743865967,-8.853757739257812,2.384624853515625,-0.07422025146484375,-32.274809160305345,11.86259541984733,-1.6488549618320612,-6.363788012695312,-0.02154781494140625,4.3239281982421875,-21.0381679389313,45.45038167938932,-7.038167938931298,0.0
11.730000972747803,-9.181763366699219,2.1260510742187497,1.0821791503906248,-38.70229007633588,18.015267175572518,-0.32061068702290074,-6.37815322265625,-0.9121908325195311,4.161122485351562,-16.229007633587788,41.770992366412216,-3.0381679389312977,0.0
11.74000072479248,-7.558494641113281,1.3862427612304686,-0.6009446166992187,-28.27480916030534,20.198473282442748,2.50381679389313,-6.098031628417968,-0.32561142578124996,4.422090466308593,-22.595419847328245,45.93893129770992,-4.152671755725191,0.0
11.750001192092896,-9.150638745117186,2.003946789550781,0.13168109130859373,-25.770992366412212,28.82442748091603,3.572519083969466,-7.45075556640625,-1.4939818359375,4.163516687011718,-14.534351145038167,45.80152671755725,-1.0229007633587786,0.0
11.760000944137573,-9.76116016845703,2.042254016113281,1.2138602416992186,-23.87786259541985,31.893129770992367,3.9083969465648853,-6.909665991210937,-1.2713210815429687,3.564966271972656,-5.038167938931298,39.038167938931295,0.6412213740458015,0.0
11.77000117301941,-10.014945544433592,2.834734765625,1.9201497314453124,-16.33587786259542,30.519083969465647,7.022900763358779,-6.945579016113281,-0.8978256225585937,4.742913488769531,-4.977099236641221,40.0763358778626,0.10687022900763359,0.0
11.780000925064087,-9.854534033203125,4.242525341796875,0.9097966308593749,-27.87786259541985,29.267175572519083,10.0,-5.9974751586914055,-0.9911994873046874,3.047818713378906,-4.183206106870229,40.68702290076336,3.1908396946564888,0.0
11.790000677108765,-9.868899243164062,3.066972326660156,2.3511060302734372,-43.66412213740458,25.81679389312977,8.534351145038167,-8.20971749267578,-1.7669208251953124,4.517858532714843,7.755725190839694,38.76335877862596,5.114503816793893,0.0
11.800000429153442,-8.973467822265624,0.21308394775390624,2.7820623291015623,-46.97709923664122,15.267175572519085,7.7251908396946565,-6.658274816894531,1.1851298217773436,2.4301146850585935,2.3206106870229006,34.13740458015267,-0.33587786259541985,0.0
11.810000658035278,-8.513781103515624,-1.3239935180664062,4.094084838867187,-30.549618320610687,15.236641221374045,3.8625954198473282,-7.620743884277343,1.4245499877929686,3.797203833007812,-15.572519083969466,37.9236641221374,-2.5801526717557253,0.0
11.820000648498535,-8.494627490234375,-0.6584054565429687,4.036623999023437,-23.51145038167939,11.465648854961833,-3.5267175572519083,-9.296685046386719,1.6831237670898436,3.2704794677734372,-33.6793893129771,49.770992366412216,-7.786259541984733,0.0
11.830000638961792,-9.540893615722656,-0.39264907226562495,5.983109948730468,-10.65648854961832,5.114503816793893,-8.320610687022901,-11.923124267578125,0.6200982299804687,4.853046765136718,-42.916030534351144,58.94656488549618,-11.145038167938932,0.0
11.840001106262207,-10.819397302246093,-0.4860229370117187,8.389282617187499,2.595419847328244,-4.778625954198473,-10.274809160305344,-13.857639208984374,-0.24660277099609373,6.737283471679687,-48.61068702290076,57.847328244274806,-16.50381679389313,0.0
11.850000858306885,-12.866439721679686,-1.20667763671875,12.682086193847656,23.96946564885496,-21.923664122137403,-13.801526717557252,-15.140931298828123,-1.37906015625,8.169016064453125,-50.732824427480914,50.229007633587784,-18.045801526717558,0.0
11.860000848770142,-15.291766003417967,0.5051765502929687,16.021997509765622,46.74809160305343,-48.12213740458015,-19.770992366412212,-13.584700219726562,-0.9959878906249999,9.081206896972656,-52.88549618320611,48.42748091603053,-16.290076335877863,0.0
11.870000839233398,-17.228675146484374,4.963180041503906,17.839196569824217,29.603053435114504,-85.32824427480917,-26.717557251908396,-15.571887597656248,0.2346317626953125,15.301342810058593,-74.62595419847328,34.30534351145038,-17.404580152671755,0.0
11.880000591278076,-17.336414221191404,4.151545678710937,14.784195251464842,3.480916030534351,-131.5267175572519,-31.435114503816795,-18.696320764160156,-4.309562988281249,12.131419812011718,-89.29770992366412,22.15267175572519,-28.885496183206108,0.0
11.890000820159912,-16.026785913085938,1.5131354492187499,10.716446630859375,-12.229007633587786,-170.6412213740458,-34.30534351145038,-15.002067602539062,-3.4452561889648434,4.134786267089844,-63.9236641221374,22.885496183206108,-40.30534351145038,0.0
11.900001049041748,-16.98686077880859,1.5418658691406248,5.7508723876953125,-35.221374045801525,-197.87786259541986,-41.93893129770992,-14.092270971679687,-0.047884033203124995,-0.45010991210937495,-82.01526717557252,26.900763358778626,-23.69465648854962,0.0
11.910001039505005,-17.67160245361328,1.4245499877929686,-0.19393033447265623,-44.42748091603053,-217.66412213740458,-36.900763358778626,-7.60398447265625,3.6367923217773437,-4.0988732421875,21.0381679389313,5.679389312977099,-17.358778625954198,0.0
11.920000791549683,-18.55266866455078,-0.7996633544921875,-2.001552587890625,-17.389312977099237,-217.45038167938932,-14.381679389312977,-5.0182466796875,4.07971962890625,-7.321468676757812,16.885496183206108,11.312977099236642,4.67175572519084,0.0
11.93000054359436,-19.577386975097657,-2.6791116577148437,-1.9512743530273435,21.69465648854962,-209.26717557251908,5.923664122137405,-5.774814404296874,2.806004345703125,-5.6191912963867185,1.465648854961832,24.27480916030534,18.80916030534351,0.0
11.940000772476196,-19.31881319580078,-1.5203180541992187,-1.4413093994140624,53.12977099236641,-207.70992366412213,13.969465648854962,-5.863399865722656,0.19871873779296872,-5.76523759765625,-35.89312977099237,37.81679389312977,21.908396946564885,0.0
11.950000762939453,-21.23417452392578,2.0374656127929685,-1.2665326782226562,58.94656488549618,-207.54198473282443,20.03053435114504,-6.763619689941406,-1.8052280517578123,-4.197035510253906,-50.0,49.45038167938932,26.396946564885496,0.0
11.96000075340271,-20.017920080566405,2.559401574707031,0.7493851196289062,53.16030534351145,-209.14503816793894,22.27480916030534,-9.41639512939453,-3.208230224609375,-3.4093431640625,-50.458015267175576,67.37404580152672,24.50381679389313,0.0
11.970000505447388,-19.917363610839843,1.659181750488281,0.7972691528320313,42.030534351145036,-205.64885496183206,24.412213740458014,-12.224793676757812,-5.317521887207031,-2.221819140625,-43.541984732824424,77.6793893129771,21.587786259541986,0.0
11.980000495910645,-16.05791053466797,0.6560112548828124,1.6711527587890624,36.25954198473283,-196.21374045801528,24.290076335877863,-13.089100476074218,-6.330269189453125,1.149216796875,-27.17557251908397,88.85496183206106,17.435114503816795,0.0
11.99000072479248,-14.30056651611328,-1.5179238525390624,1.0223241088867188,42.94656488549618,-183.40458015267177,23.450381679389313,-14.654908361816405,-8.935160595703124,2.370259643554687,0.33587786259541985,79.46564885496183,18.27480916030534,0.0
12.000000715255737,-11.544840405273437,-1.2234370483398436,0.8068459594726562,49.14503816793893,-166.7175572519084,22.18320610687023,-11.911153259277343,-8.092401611328125,1.6304513305664061,26.977099236641223,69.8473282442748,15.709923664122137,0.0
12.010001182556152,-8.674192614746094,-1.13006318359375,0.47884033203125,48.01526717557252,-149.70992366412213,23.740458015267176,-10.59194814453125,-6.890512377929687,1.0606313354492187,44.36641221374046,57.05343511450382,16.38167938931298,0.0
12.02000117301941,-7.64229169921875,-0.5985504150390625,-0.8307879760742187,42.717557251908396,-133.0381679389313,22.061068702290076,-10.122684619140625,-5.329492895507812,3.0358477050781247,66.56488549618321,44.99236641221374,16.595419847328245,0.0
12.030001163482666,-6.351817004394531,-0.373495458984375,-2.3439234252929686,37.11450381679389,-115.58778625954199,22.366412213740457,-11.235988391113281,-4.560954162597656,3.134009973144531,83.3587786259542,36.87022900763359,16.748091603053435,0.0
12.040001153945923,-4.405331054687499,-1.197100830078125,-1.7717092285156248,31.49618320610687,-92.03053435114504,22.137404580152673,-8.099584216308592,-1.0462661254882812,1.5801730957031248,79.09923664122137,30.458015267175572,8.946564885496183,0.0
12.05000114440918,-5.286397265624999,0.6392518432617187,-1.5538368774414062,17.84732824427481,-76.4885496183206,17.419847328244273,-7.3094976684570305,-0.1005564697265625,0.5315127685546874,69.37404580152672,28.580152671755727,7.282442748091603,0.0
12.060000896453857,-3.7229835815429686,-0.08858546142578125,-2.157175695800781,3.633587786259542,-64.51908396946565,15.938931297709924,-8.137891442871092,-0.229843359375,0.8595183959960937,61.70992366412214,32.33587786259542,6.549618320610687,0.0
12.070000648498535,-0.9864110839843749,-2.013523596191406,-3.9815573608398434,6.778625954198473,-45.45038167938932,14.977099236641221,-9.821015209960937,-1.458068811035156,0.7278373046875,61.29770992366412,34.717557251908396,5.297709923664122,0.0
12.08000135421753,-2.952050646972656,-0.70868369140625,-2.7365724975585937,5.358778625954199,-22.061068702290076,7.022900763358779,-9.246406811523437,-0.8595183959960937,1.7812860351562498,55.786259541984734,35.465648854961835,3.0839694656488548,0.0
12.090001106262207,-1.8195932617187498,-1.879448303222656,-4.053383410644531,2.2748091603053435,-9.511450381679388,1.9541984732824427,-9.459490759277344,-0.2705447875976562,2.5234885498046875,52.33587786259542,36.68702290076336,2.9160305343511452,0.0
12.100001573562622,-2.786850732421875,-0.7852981445312499,-4.13718046875,-1.2671755725190839,10.351145038167939,-3.633587786259542,-7.297526660156249,2.750937707519531,1.886630908203125,34.30534351145038,35.98473282442748,1.297709923664122,0.0
12.11000108718872,-2.5905261962890624,-0.07900865478515624,-4.055777612304687,-10.717557251908397,22.68702290076336,-8.229007633587786,-8.276755139160155,3.7134067749023436,2.0470424194335934,21.541984732824428,45.69465648854962,6.8396946564885495,0.0
12.120001316070557,-0.82360537109375,-1.1061211669921875,-4.6351744140625,-19.206106870229007,33.603053435114504,-9.038167938931299,-8.44674345703125,3.327940307617187,3.6439749267578123,0.3511450381679389,50.0,14.82442748091603,0.0
12.130001306533813,0.5123591552734374,-3.6727053466796873,-3.9264907226562498,-21.17557251908397,48.80916030534351,-14.610687022900763,-9.579200842285156,-0.6200982299804687,4.474762902832031,11.32824427480916,45.98473282442748,21.96946564885496,0.0
12.14000129699707,0.7876923461914062,-4.371812231445312,-3.1771056030273437,1.8778625954198473,73.72519083969466,-25.114503816793892,-7.1035963256835934,-1.707065783691406,3.9600095458984375,6.015267175572519,29.557251908396946,17.16030534351145,0.0
12.150001049041748,-1.0295067138671874,-3.806780639648437,-1.3168109130859373,17.923664122137403,88.59541984732824,-38.42748091603053,-8.022969763183593,-3.873818286132812,5.078101721191406,19.404580152671755,31.69465648854962,16.30534351145038,0.0
12.160001516342163,-2.398990063476562,-3.4620156005859375,0.8044517578125,36.44274809160305,103.6793893129771,-43.48091603053435,-7.687781530761718,-2.463633508300781,3.5865140869140624,27.480916030534353,33.89312977099237,12.534351145038167,0.0
12.170001029968262,-1.3575123413085937,-1.915361328125,1.4700398193359374,51.37404580152672,114.77862595419847,-45.786259541984734,-8.655039001464843,-2.980781066894531,4.132392065429687,32.0,22.793893129770993,11.022900763358779,0.0
12.18000078201294,-3.9432501342773434,0.41419688720703124,2.9664158569335934,61.221374045801525,130.53435114503816,-49.23664122137404,-8.583212951660157,-2.7150246826171873,3.746925598144531,35.587786259541986,10.916030534351146,12.870229007633588,0.0
12.190001487731934,-4.161122485351562,1.68551796875,3.303998291015625,57.038167938931295,135.17557251908397,-50.25954198473283,-9.047688073730468,-3.0645781249999997,4.556165759277343,41.908396946564885,7.877862595419847,9.450381679389313,0.0
12.200000524520874,-6.957550024414062,2.0374656127929685,5.209782812499999,55.099236641221374,144.36641221374046,-49.267175572519086,-8.86812294921875,-3.1483751831054687,4.575319372558593,44.091603053435115,15.572519083969466,6.977099236641221,0.0
12.210001230239868,-8.820238916015624,2.327164013671875,8.382100012207031,57.725190839694655,144.24427480916032,-44.56488549618321,-7.824251025390624,-0.09576806640624999,3.299209887695312,44.6412213740458,17.923664122137403,3.404580152671756,0.0
12.220000743865967,-11.346121667480467,3.8857892944335934,11.688492504882811,65.80152671755725,136.01526717557252,-33.29770992366412,-5.449202978515625,1.3192051147460937,2.906560815429687,19.69465648854962,12.67175572519084,4.244274809160306,0.0
12.230001211166382,-16.067487341308592,9.244012609863281,17.83201396484375,77.17557251908397,117.95419847328245,-13.679389312977099,-4.623203405761719,1.7334020019531249,2.9472622436523435,-5.755725190839694,18.610687022900763,9.450381679389313,0.0
12.24000096321106,-16.299724902343748,9.045293872070312,17.810466149902343,63.70992366412214,78.99236641221374,11.32824427480916,-5.710170959472656,-1.1061211669921875,2.7078420776367187,-19.603053435114504,17.984732824427482,15.251908396946565,0.0
12.250001192092896,-15.741875915527343,7.675810522460937,17.286135986328123,68.6412213740458,53.55725190839695,20.748091603053435,-7.058106494140625,-3.9624037475585934,3.5338416503906247,-17.72519083969466,11.17557251908397,14.381679389312977,0.0
12.260001182556152,-17.113753466796872,5.238513232421875,14.271836096191405,19.862595419847327,13.526717557251908,17.52671755725191,-6.8976949829101555,-3.21780703125,2.0278888061523435,-15.557251908396946,20.137404580152673,11.969465648854962,0.0
12.270001411437988,-17.15924329833984,4.299986181640625,7.1035963256835934,-28.625954198473284,-8.534351145038167,22.35114503816794,-9.275137231445312,-2.96881005859375,2.214636535644531,-76.22900763358778,18.717557251908396,15.755725190839694,0.0
12.280001163482666,-11.985373510742187,-0.0718260498046875,-2.5139117431640625,-40.213740458015266,-16.793893129770993,29.51145038167939,-9.387664709472656,-5.693411547851563,4.311957189941406,-24.702290076335878,-0.4732824427480916,1.8473282442748091,0.0
12.290000915527344,-9.526528405761718,-3.7995980346679685,-1.62805712890625,-11.618320610687023,-13.816793893129772,29.282442748091604,-12.77546005859375,-3.9552211425781247,3.303998291015625,-13.725190839694656,-3.49618320610687,8.01526717557252,0.0
12.30000114440918,-12.574347119140624,-4.254496350097656,12.495338464355468,51.23664122137404,-9.648854961832061,25.572519083969464,-13.314155432128905,-2.767697119140625,3.39018955078125,-3.282442748091603,-25.49618320610687,9.648854961832061,0.0
12.310126304626465,-15.813701965332031,4.070142822265625,11.77228956298828,84.22900763358778,-17.31297709923664,29.0381679389313,-14.056357946777343,-0.9935936889648437,4.639962817382812,-5.374045801526718,-33.847328244274806,8.977099236641221,0.0
12.320001363754272,-14.853627099609374,11.401188305664062,0.28969840087890625,42.82442748091603,-25.297709923664122,28.68702290076336,-15.50724415283203,-2.221819140625,4.618415002441406,-3.6030534351145036,-36.99236641221374,14.977099236641221,0.0
12.330000877380371,-8.470685473632813,-1.0295067138671874,1.1611878051757811,17.862595419847327,-24.748091603053435,36.88549618320611,-15.64131944580078,-1.714248388671875,4.235342736816406,11.893129770992367,-45.51145038167939,7.282442748091603,0.0
12.340000629425049,-5.494692810058593,-2.741360900878906,-4.42448466796875,17.770992366412212,-3.9236641221374047,22.793893129770993,-18.576610681152342,-0.3280056274414062,2.6527754394531247,16.549618320610687,-53.06870229007634,-0.16793893129770993,0.0
12.350001096725464,-3.289633081054687,-6.490680700683593,-3.7708676147460936,9.740458015267176,14.946564885496183,0.2595419847328244,-18.581399084472654,2.1906945190429687,1.9967641845703124,5.969465648854962,-60.87022900763359,-11.435114503816793,0.0
12.36000108718872,-5.597643481445312,-5.288791467285156,-0.5889736083984375,26.35114503816794,38.62595419847328,-21.81679389312977,-18.947711938476562,2.4875755249023435,2.360682836914062,-2.9770992366412212,-63.63358778625954,-11.755725190839694,0.0
12.370000839233398,-5.427655163574219,-3.220201232910156,-0.9840168823242187,60.152671755725194,54.30534351145038,-27.251908396946565,-16.776171032714842,2.91134921875,1.3215993164062498,-9.236641221374045,-70.4885496183206,-11.664122137404581,0.0
12.380001068115234,-8.358157995605469,1.8818425048828125,-1.1827356201171875,78.59541984732824,75.74045801526718,-33.541984732824424,-16.891092712402344,1.7381904052734374,1.1875240234375,-12.900763358778626,-68.3969465648855,-6.091603053435114,0.0
12.390000820159912,-10.43871923828125,4.996698864746094,-3.2321722412109373,68.54961832061069,83.34351145038168,-35.541984732824424,-15.995661291503906,-0.13646949462890623,-0.18914193115234373,-33.80152671755725,-75.54198473282443,-4.931297709923665,0.0
12.400001049041748,-13.644555261230469,8.269572534179687,-2.5809493896484375,40.48854961832061,86.74809160305344,-30.977099236641223,-12.389993591308594,0.9026140258789062,-2.6695348510742187,1.4961832061068703,-71.6793893129771,-10.045801526717558,0.0
12.410000801086426,-16.421829187011717,10.134655627441406,0.8571241943359375,-0.061068702290076333,83.90839694656489,-26.47328244274809,-11.501744775390625,2.607285607910156,-2.1906945190429687,-3.4198473282442747,-79.93893129770993,-8.351145038167939,0.0
12.420000791549683,-13.187262744140623,8.44674345703125,-1.1468225952148436,-40.51908396946565,74.8854961832061,-21.0381679389313,-11.355698474121093,3.854664672851562,-1.43652099609375,-14.122137404580153,-69.41984732824427,-2.50381679389313,0.0
12.43000078201294,-11.461043347167967,5.856217260742187,-2.674323254394531,-61.786259541984734,70.47328244274809,-19.221374045801525,-12.739547033691405,3.507505432128906,-0.6943184814453125,-14.198473282442748,-69.6030534351145,6.213740458015267,0.0
12.440000534057617,-11.085153686523437,4.340687609863281,-2.461239306640625,-61.587786259541986,71.00763358778626,-18.9618320610687,-10.541669909667968,4.838681555175781,-1.2282254516601563,-22.549618320610687,-62.68702290076336,6.33587786259542,0.0
12.450000524520874,-8.664615808105468,-0.5195417602539062,-2.3032219970703123,-43.725190839694655,77.2824427480916,-12.961832061068701,-11.63821427001953,1.5777788940429687,0.19393033447265623,-23.770992366412212,-57.221374045801525,13.725190839694656,0.0
12.46000051498413,-9.734823950195311,-1.199495031738281,-0.7062894897460937,-20.259541984732824,85.19083969465649,-12.488549618320612,-9.526528405761718,1.9393033447265624,-0.5626373901367188,-17.480916030534353,-56.213740458015266,10.183206106870228,0.0
12.470000505447388,-11.37006368408203,2.1116858642578125,0.28730419921875,-21.938931297709924,87.38931297709924,-17.49618320610687,-9.552864624023437,-0.023942016601562498,-0.17238251953125,-7.923664122137405,-47.83206106870229,12.396946564885496,0.0
12.480000495910645,-9.904812268066406,-0.40940848388671874,-0.7541735229492187,-26.48854961832061,84.25954198473282,-16.732824427480917,-8.145074047851562,1.0031704956054688,0.031124621582031248,1.450381679389313,-42.47328244274809,9.251908396946565,0.0
12.49000072479248,-10.405200415039062,0.10295067138671875,1.5011644409179687,-15.221374045801527,88.07633587786259,-19.206106870229007,-9.330203869628905,-0.42377369384765623,1.2641384765625,-3.2519083969465647,-43.603053435114504,12.427480916030534,0.0
12.500000476837158,-9.832986218261718,0.29448680419921874,1.956062756347656,-20.213740458015266,85.02290076335878,-20.68702290076336,-8.564059338378906,0.9337386474609375,-0.12210428466796874,19.51145038167939,-38.47328244274809,9.312977099236642,0.0
12.510001182556152,-10.919953771972656,2.2481553588867187,2.9951462768554684,-18.3206106870229,80.2442748091603,-23.374045801526716,-8.434772448730468,1.2976572998046874,1.707065783691406,-5.419847328244275,-40.38167938931298,9.358778625954198,0.0
12.520000696182251,-8.95670841064453,1.216254443359375,1.6136919189453125,-24.65648854961832,72.90076335877863,-20.0,-8.564059338378906,0.06464344482421874,0.8355763793945312,8.870229007633588,-37.14503816793893,9.938931297709924,0.0
12.530000925064087,-8.080430603027343,0.469263525390625,1.9584569580078124,-19.267175572519083,72.47328244274809,-21.49618320610687,-7.438784558105469,1.20667763671875,1.2832920898437499,-4.061068702290076,-36.458015267175576,8.274809160305344,0.0
12.540000677108765,-10.424354028320312,1.3551181396484375,2.4516625,-24.48854961832061,70.1526717557252,-22.870229007633586,-8.614337573242187,-0.8499415893554687,2.114080065917969,1.816793893129771,-36.33587786259542,12.748091603053435,0.0
12.550000667572021,-10.687716210937499,1.6112977172851561,2.789244934082031,-19.83206106870229,66.03053435114504,-25.557251908396946,-7.592013464355468,0.32082302246093747,2.8993782104492185,0.04580152671755725,-37.98473282442748,9.389312977099237,0.0
12.560000658035278,-11.097124694824219,2.559401574707031,3.5793314819335937,-21.862595419847327,60.595419847328245,-24.3206106870229,-8.353369592285155,-1.3096283081054687,1.9943699829101562,5.557251908396947,-41.61832061068702,7.648854961832061,0.0
12.570000648498535,-9.890447058105469,1.0319009155273438,2.839523168945312,-23.251908396946565,53.465648854961835,-20.916030534351144,-8.080430603027343,-1.2521674682617188,1.9680337646484374,12.778625954198473,-44.3206106870229,3.053435114503817,0.0
12.580000877380371,-10.196904870605469,1.917755529785156,2.798821740722656,-20.48854961832061,49.14503816793893,-19.083969465648856,-8.688557824707031,-1.7621324218749999,2.858676782226562,23.572519083969464,-50.99236641221374,1.6946564885496183,0.0
12.590000867843628,-9.399635717773437,0.565031591796875,2.31758720703125,-19.31297709923664,43.83206106870229,-17.374045801526716,-7.168239770507812,-0.8643067993164062,3.0238766967773434,19.786259541984734,-53.41984732824427,-3.8473282442748094,0.0
12.600001096725464,-9.516951599121093,0.5386953735351562,1.867477294921875,-12.992366412213741,41.11450381679389,-15.145038167938932,-7.958326318359375,-0.6248866333007812,3.289633081054687,27.954198473282442,-54.717557251908396,-4.763358778625954,0.0
12.610000848770142,-10.029310754394531,1.4867992309570313,1.879448303222656,-12.15267175572519,37.7557251908397,-15.572519083969466,-7.505822204589843,0.239420166015625,4.113238452148437,14.473282442748092,-51.61832061068702,-4.625954198473282,0.0
12.620001077651978,-9.816226806640625,1.9321207397460936,2.1811177124023438,-11.129770992366412,34.99236641221374,-13.98473282442748,-7.283161450195312,0.1484405029296875,3.794809631347656,22.290076335877863,-52.80916030534351,-3.5267175572519083,0.0
12.630000352859497,-9.6151138671875,2.8730419921875,2.3582886352539063,-14.061068702290076,30.35114503816794,-14.687022900763358,-7.0102224609374995,0.3495534423828125,3.756502404785156,5.068702290076335,-45.57251908396947,-2.1374045801526718,0.0
12.640001058578491,-8.698134631347656,3.208230224609375,2.4444798950195312,-21.61832061068702,24.80916030534351,-13.908396946564885,-7.524975817871093,-0.22744915771484372,3.23696064453125,6.412213740458015,-44.045801526717554,1.1297709923664123,0.0
12.65000057220459,-8.468291271972657,5.161898779296875,1.9129671264648436,-36.900763358778626,16.091603053435115,-14.076335877862595,-6.016628771972656,1.3335703247070312,2.602497204589844,-6.778625954198473,-38.35114503816794,-1.2366412213740459,0.0
12.660000801086426,-8.966285217285156,4.881777185058594,1.7621324218749999,-57.57251908396947,6.458015267175573,-9.49618320610687,-6.789955908203124,-0.584185205078125,3.3016040893554686,-9.312977099236642,-34.396946564885496,1.3587786259541985,0.0
12.670000553131104,-7.726088757324218,2.9281086303710935,0.5698199951171875,-62.47328244274809,0.9923664122137404,-4.0458015267175576,-6.938396411132812,-0.3184288208007812,2.7629087158203123,-1.4961832061068703,-32.94656488549618,-0.5954198473282443,0.0
12.68000054359436,-8.655039001464843,2.123656872558594,0.584185205078125,-54.900763358778626,3.49618320610687,-0.3816793893129771,-6.150704064941406,-0.05985504150390625,3.7612908081054686,-19.404580152671755,-26.9618320610687,-4.106870229007634,0.0
12.690000772476196,-8.614337573242187,1.0175357055664063,0.9457096557617187,-54.961832061068705,3.267175572519084,3.236641221374046,-7.481880187988281,-2.4109610717773435,3.699041564941406,-19.908396946564885,-22.47328244274809,-4.396946564885496,0.0
12.700000762939453,-7.3669585083007805,-0.6081272216796875,0.011971008300781249,-37.70992366412214,3.9236641221374047,5.847328244274809,-9.303867651367186,-3.9719805541992184,5.473144995117187,5.633587786259542,-24.0,-5.923664122137405,0.0
12.710000276565552,-10.120290417480469,0.6512228515624999,0.5889736083984375,-19.221374045801525,9.83206106870229,4.977099236641221,-7.0269818725585935,-1.7094599853515624,3.423708374023437,6.3816793893129775,-31.236641221374047,-7.862595419847328,0.0
12.720000505447388,-8.839392529296875,1.9800047729492187,0.430956298828125,-19.34351145038168,8.076335877862595,7.419847328244275,-6.720524060058593,-0.5602431884765625,5.928043310546875,2.9770992366412212,-23.053435114503817,-15.16030534351145,0.0
12.730000495910645,-9.710881933593749,3.172317199707031,0.47165772705078124,-21.587786259541986,13.954198473282442,7.709923664122138,-6.265625744628906,-0.44532150878906246,4.453215087890625,6.793893129770993,-15.297709923664122,-15.007633587786259,0.0
12.74000072479248,-8.609549169921875,2.4061726684570313,-0.040701428222656245,-16.290076335877863,15.801526717557252,10.16793893129771,-6.79953271484375,-0.5434837768554687,4.953603234863281,2.381679389312977,-5.847328244274809,-12.702290076335878,0.0
12.750000715255737,-7.517793212890624,1.0103531005859374,0.38786066894531246,-2.3053435114503817,21.755725190839694,13.16030534351145,-6.725312463378906,-0.7302315063476562,3.8953661010742184,6.6106870229007635,-6.778625954198473,-10.946564885496183,0.0
12.760000705718994,-10.424354028320312,2.4684219116210935,1.3575123413085937,4.244274809160306,26.641221374045802,11.129770992366412,-7.81467421875,-1.3623007446289062,4.340687609863281,20.0,-5.465648854961832,-11.145038167938932,0.0
12.77000117301941,-9.452308154296874,3.4715924072265625,2.7269956909179687,-3.49618320610687,20.244274809160306,14.229007633587786,-7.738059765625,-1.0797849487304687,4.058171813964844,27.389312977099237,-4.519083969465649,-13.954198473282442,0.0
12.780000686645508,-8.9255837890625,2.3965958618164063,2.1835119140624997,-0.6106870229007634,15.19083969465649,18.30534351145038,-6.648698010253906,-0.011971008300781249,3.2920272827148436,29.251908396946565,-0.12213740458015267,-16.442748091603054,0.0
12.790000915527344,-7.46272657470703,0.076614453125,2.0063409912109376,7.603053435114504,14.946564885496183,18.137404580152673,-7.082048510742187,-0.9145850341796874,3.7038299682617186,37.00763358778626,0.07633587786259542,-17.374045801526716,0.0
12.800000667572021,-8.813056311035156,1.2018892333984375,3.2058360229492187,6.687022900763359,12.473282442748092,11.374045801526718,-7.783549597167968,-1.2785036865234374,4.086902233886718,44.12213740458015,2.931297709923664,-18.65648854961832,0.0
12.810000658035278,-8.525752111816406,0.5147533569335937,2.2744915771484373,17.435114503816795,12.045801526717558,9.32824427480916,-6.289567761230469,0.43574470214843747,3.0645781249999997,43.23664122137404,5.190839694656488,-21.31297709923664,0.0
12.820000648498535,-9.598354455566406,2.81558115234375,2.559401574707031,8.229007633587786,12.625954198473282,5.801526717557252,-6.449979272460937,0.6440402465820312,3.7900212280273435,29.786259541984734,15.053435114503817,-23.00763358778626,0.0
12.830000877380371,-8.671798413085938,1.180341418457031,2.7629087158203123,1.9694656488549618,10.67175572519084,3.1908396946564888,-5.61200869140625,1.4915876342773438,2.39420166015625,31.419847328244273,21.16030534351145,-21.129770992366414,0.0
12.840000629425049,-8.80347950439453,0.9074024291992187,2.7916391357421872,0.549618320610687,7.801526717557252,-2.854961832061069,-6.629544396972656,1.4101847778320311,2.5163059448242184,19.862595419847327,28.580152671755727,-19.328244274809162,0.0
12.850000858306885,-8.413224633789062,0.9193734375,2.094926452636719,-3.9236641221374047,6.885496183206107,-9.450381679389313,-5.571307263183593,1.5562310791015623,2.8419173706054686,18.259541984732824,33.29770992366412,-17.480916030534353,0.0
12.860000848770142,-8.647856396484375,0.718260498046875,3.284844677734375,1.1145038167938932,7.755725190839694,-14.091603053435115,-4.618415002441406,4.228160131835938,0.13407529296874998,0.7633587786259542,47.83206106870229,-19.17557251908397,0.0
12.87000060081482,-9.713276135253906,1.0438719238281249,4.735730883789063,4.6106870229007635,6.366412213740458,-13.083969465648854,-5.853823059082031,1.3623007446289062,2.013523596191406,-10.01526717557252,61.61832061068702,-11.572519083969466,0.0
12.880001068115234,-10.55364091796875,1.4101847778320311,6.940790612792968,15.557251908396946,2.9923664122137406,-12.641221374045802,-6.512228515625,0.55545478515625,1.5203180541992187,-5.435114503816794,71.8473282442748,-6.854961832061068,0.0
12.890000581741333,-11.214440576171874,1.4125789794921875,7.788338000488281,27.083969465648856,-5.877862595419847,-11.740458015267176,-5.710170959472656,1.7190367919921874,0.9121908325195311,-17.083969465648856,74.16793893129771,-5.297709923664122,0.0
12.900000810623169,-10.228029492187499,0.42377369384765623,7.963114721679687,36.01526717557252,-15.053435114503817,-11.908396946564885,-7.4770917846679685,-0.3327940307617187,2.7748797241210936,-8.534351145038167,76.58015267175573,-1.1908396946564885,0.0
12.910000562667847,-10.237606298828124,-0.9169792358398436,9.718064538574218,45.25190839694657,-27.740458015267176,-16.778625954198475,-6.945579016113281,0.16041151123046873,2.81558115234375,-8.0,79.72519083969466,-5.312977099236641,0.0
12.920000553131104,-12.665326782226561,2.5450363647460934,14.073117358398436,54.25954198473283,-44.412213740458014,-23.83206106870229,-8.769960681152343,-1.4820108276367188,4.07971962890625,-10.091603053435115,78.58015267175573,-4.320610687022901,0.0
12.93000054359436,-13.88636962890625,4.0988732421875,16.180014819335938,43.05343511450382,-76.83969465648855,-24.641221374045802,-10.012551342773437,0.3806780639648437,5.875370874023437,-12.885496183206106,71.6793893129771,-9.648854961832061,0.0
12.940000534057617,-15.394716674804686,4.778826513671874,16.316484313964843,41.55725190839695,-111.64885496183206,-22.519083969465647,-17.0467158203125,-2.2385785522460937,27.691336401367185,-99.40458015267176,62.0,-15.251908396946565,0.0
12.950000524520874,-16.481684228515626,5.465962390136719,14.41548819580078,17.16030534351145,-150.38167938931298,-25.404580152671755,-22.90053887939453,-2.262520568847656,23.906103576660154,-126.19847328244275,44.82442748091603,-53.51145038167939,0.0
12.96000051498413,-18.411410766601563,6.593631372070312,10.64222637939453,-26.916030534351144,-187.3740458015267,-34.99236641221374,-24.353819287109374,-9.74200655517578,18.887856896972654,-125.31297709923665,21.282442748091604,-71.12977099236642,0.0
12.970000505447388,-18.64843673095703,6.433219860839843,4.817133740234374,-81.43511450381679,-226.1679389312977,-38.83969465648855,-17.496825732421875,-3.7301661865234372,9.5384994140625,-53.55725190839695,-33.17557251908397,-53.847328244274806,0.0
12.980000734329224,-18.579004882812498,1.6232687255859375,0.28969840087890625,-82.7175572519084,-247.75572519083968,-23.908396946564885,-14.331691137695312,-3.706224169921875,9.445125549316407,-5.587786259541985,-42.961832061068705,-14.732824427480915,0.0
12.99000096321106,-15.741875915527343,-5.932831713867187,-1.369483349609375,-26.68702290076336,-244.01526717557252,9.557251908396946,-4.220977526855468,-2.786850732421875,-4.474762902832031,38.68702290076336,-101.89312977099236,19.557251908396946,0.0
13.000000715255737,-16.117765576171873,-7.790732202148437,-1.4700398193359374,37.49618320610687,-232.35114503816794,28.076335877862597,0.16519991455078123,2.9759926635742184,-9.706093530273437,48.458015267175576,-62.274809160305345,3.7557251908396947,0.0
13.010000944137573,-16.895881115722656,-3.7708676147460936,0.11252747802734374,54.961832061068705,-224.25954198473283,30.885496183206108,-0.8092401611328125,0.239420166015625,-8.185775476074218,19.34351145038168,-28.35114503816794,6.030534351145038,0.0
13.020000696182251,-18.052280517578122,-2.4588451049804685,0.33039982910156246,59.55725190839695,-219.81679389312978,27.862595419847327,-1.6639701538085936,-2.741360900878906,-12.188880651855468,-0.916030534351145,9.954198473282442,0.8702290076335878,0.0
13.030000686645508,-18.10734715576172,-0.9600748657226562,1.13006318359375,68.36641221374046,-215.49618320610688,21.72519083969466,-3.9839515624999997,-5.473144995117187,-10.742782849121093,-1.3740458015267176,29.49618320610687,-2.3206106870229006,0.0
13.040000677108765,-20.377050329589842,2.0302830078125,1.7262193969726563,63.267175572519086,-209.78625954198472,9.816793893129772,-3.0789433349609374,-1.7764976318359373,-8.315062365722655,-5.984732824427481,44.656488549618324,1.9236641221374047,0.0
13.050000667572021,-17.132907080078123,2.568978381347656,-0.062249243164062495,49.29770992366412,-206.65648854961833,7.221374045801527,-7.723694555664062,1.5729904907226562,-4.1563340820312495,-34.961832061068705,86.2442748091603,-6.732824427480916,0.0
13.060000658035278,-13.7522943359375,1.9536685546875,0.0430956298828125,30.931297709923665,-192.18320610687022,15.404580152671755,-14.528015673828124,-1.9512743530273435,2.1356278808593747,-42.06106870229008,110.4885496183206,4.458015267175573,0.0
13.070000886917114,-9.888052856445311,0.4165910888671875,1.2234370483398436,30.80916030534351,-171.40458015267177,21.908396946564885,-17.530344555664062,-5.817910034179687,2.0183119995117185,-29.69465648854962,117.43511450381679,2.6106870229007635,0.0
13.080000638961792,-7.81467421875,0.40940848388671874,0.9457096557617187,43.404580152671755,-150.4732824427481,26.763358778625953,-18.095376147460936,-3.8043864379882812,4.086902233886718,-3.66412213740458,122.53435114503817,5.083969465648855,0.0
13.090000629425049,-6.2392895263671875,-0.35673604736328124,0.44532150878906246,32.68702290076336,-128.41221374045801,29.923664122137403,-17.39866346435547,-3.39018955078125,5.1331683593749995,27.099236641221374,112.53435114503817,12.702290076335878,0.0
13.100001096725464,-6.301538769531249,-0.19632453613281248,-0.0383072265625,35.038167938931295,-106.82442748091603,26.732824427480917,-14.271836096191405,-2.6886884643554687,3.4572271972656248,50.68702290076336,98.7175572519084,22.259541984732824,0.0
13.110000610351562,-6.445190869140625,-1.2904746948242187,-1.3862427612304686,26.9618320610687,-93.22137404580153,21.923664122137403,-9.78031378173828,-0.7829039428710937,-0.3591302490234375,59.541984732824424,83.45038167938931,20.50381679389313,0.0
13.120000839233398,-4.7764323120117185,-2.896984008789062,-2.1835119140624997,36.3206106870229,-70.18320610687023,17.206106870229007,-9.878476049804688,-1.9823989746093749,-1.5298948608398437,60.67175572519084,80.65648854961832,20.290076335877863,0.0
13.130000829696655,-3.8474820678710935,-3.028665100097656,-2.4396914916992185,34.732824427480914,-51.66412213740458,11.679389312977099,-8.777143286132812,-0.9193734375,-0.7733271362304687,59.37404580152672,83.17557251908397,16.68702290076336,0.0
13.140000820159912,-5.504269616699219,-0.9074024291992187,-1.5514426757812498,23.572519083969464,-35.282442748091604,4.809160305343512,-9.97184991455078,-2.7964275390625,-1.0031704956054688,57.87786259541985,78.0,14.13740458015267,0.0
13.150000810623169,-4.69263525390625,-1.16837041015625,-2.5737667846679684,18.396946564885496,-19.923664122137403,1.816793893129771,-8.968679418945312,-1.7621324218749999,-1.7262193969726563,55.23664122137404,75.78625954198473,7.541984732824427,0.0
13.160001039505005,-4.3071687866210935,-1.2473790649414063,-2.9855694702148434,20.68702290076336,-3.9083969465648853,1.4045801526717556,-8.9255837890625,-0.6536170532226562,-0.33039982910156246,44.656488549618324,74.1526717557252,6.091603053435114,0.0
13.170000791549683,-5.722141967773437,1.9129671264648436,-2.530671154785156,10.625954198473282,11.19083969465649,-5.32824427480916,-10.802637890625,-2.2673089721679687,0.5458779785156249,40.85496183206107,70.50381679389314,8.16793893129771,0.0
13.18000078201294,-4.3263223999023435,0.3232172241210937,-4.805162731933594,6.625954198473282,19.84732824427481,-5.038167938931298,-11.269507214355468,-2.2553379638671873,2.703053674316406,54.58015267175573,64.1526717557252,9.312977099236642,0.0
13.190000772476196,-3.6056677001953124,-0.39983167724609375,-4.340687609863281,4.396946564885496,36.213740458015266,-3.3587786259541983,-9.928754284667969,-0.718260498046875,2.5043349365234375,50.916030534351144,55.267175572519086,7.801526717557252,0.0
13.200000762939453,-3.4548329956054684,0.842758984375,-5.061342309570312,-0.04580152671755725,52.16793893129771,-2.9160305343511452,-8.82263311767578,1.407790576171875,3.4811692138671875,40.458015267175576,52.76335877862596,8.488549618320612,0.0
13.21000075340271,-0.8786720092773437,-1.5466542724609373,-5.762843395996094,4.763358778625954,71.5114503816794,-0.3511450381679389,-9.052476477050782,1.1420341918945311,3.912125512695312,39.221374045801525,49.05343511450382,13.86259541984733,0.0
13.220000743865967,-1.01514150390625,-2.0781670410156248,-4.84586416015625,7.312977099236641,91.40458015267176,-9.297709923664122,-7.8362220336914055,1.458068811035156,4.163516687011718,17.114503816793892,37.81679389312977,13.770992366412214,0.0
13.230000972747803,-0.37828386230468747,-4.072537023925781,-3.4356793823242184,13.053435114503817,105.83206106870229,-20.35114503816794,-9.689334118652344,-0.3711012573242187,5.480327600097656,8.030534351145038,39.80152671755725,17.282442748091604,0.0
13.24000072479248,-2.712630480957031,-3.1364041748046874,-0.2154781494140625,15.938931297709924,122.85496183206106,-34.732824427480914,-8.56166513671875,-0.6703764648437499,5.334281298828125,4.641221374045801,37.43511450381679,17.389312977099237,0.0
13.250001192092896,-3.450044592285156,-0.30406361083984373,1.8722656982421875,22.885496183206108,132.5801526717557,-40.458015267175576,-7.824251025390624,-1.8363526733398436,4.843469958496094,9.007633587786259,29.862595419847327,16.778625954198475,0.0
13.260001182556152,-4.242525341796875,1.0773907470703123,3.1100679565429687,26.259541984732824,138.6259541984733,-37.17557251908397,-8.583212951660157,-3.0334535034179684,4.735730883789063,19.6793893129771,20.595419847328245,16.671755725190838,0.0
13.27000117301941,-4.149151477050781,1.3096283081054687,4.115632653808594,33.83206106870229,143.72519083969465,-29.053435114503817,-6.993463049316406,-2.511517541503906,3.7205893798828122,23.96946564885496,18.977099236641223,13.954198473282442,0.0
13.280000925064087,-5.5090580200195305,2.8419173706054686,5.686228942871093,34.6412213740458,144.2290076335878,-23.435114503816795,-5.805939025878906,-2.3247698120117186,2.8730419921875,27.358778625954198,17.52671755725191,9.465648854961833,0.0
13.290000677108765,-7.493851196289062,4.3071687866210935,8.396465222167969,28.870229007633586,136.06106870229007,-19.206106870229007,-5.461173986816406,-0.7852981445312499,2.588131994628906,19.099236641221374,10.961832061068701,10.473282442748092,0.0
13.3000009059906,-10.63025537109375,6.4284314575195305,13.194445349121093,24.763358778625953,120.85496183206106,-12.0,-5.324704492187499,-1.5921441040039062,2.3965958618164063,20.900763358778626,6.106870229007634,6.519083969465649,0.0
13.310001134872437,-9.801861596679688,3.6391865234374996,13.429077111816406,20.229007633587788,89.93893129770993,5.404580152671755,-3.7397429931640622,0.5003881469726562,0.9600748657226562,21.31297709923664,15.267175572519085,5.038167938931298,0.0
13.320000886917114,-10.9941740234375,5.360617517089843,16.21592784423828,45.49618320610687,71.8473282442748,20.610687022900763,-3.3327287109375,2.288856787109375,-2.7820623291015623,7.709923664122138,19.053435114503817,4.183206106870229,0.0
13.330000877380371,-12.023680737304687,5.892130285644531,16.577452294921873,32.6412213740458,40.56488549618321,26.33587786259542,-4.551377355957031,1.8555062866210936,-0.93852705078125,-16.82442748091603,27.51145038167939,12.458015267175572,0.0
13.340001344680786,-14.441824414062499,5.9017070922851556,16.060304736328124,11.740458015267176,3.9236641221374047,32.56488549618321,-5.6024318847656245,1.158793603515625,0.40462008056640625,-33.23664122137404,31.282442748091604,18.30534351145038,0.0
13.350000858306885,-11.54244620361328,0.33518823242187495,6.069301208496094,-9.053435114503817,-23.34351145038168,39.3587786259542,-7.299920861816406,-1.4604630126953124,1.6639701538085936,-38.62595419847328,29.14503816793893,21.00763358778626,0.0
13.360000848770142,-14.736311218261719,-1.6112977172851561,7.1586629638671875,5.587786259541985,-27.404580152671755,42.68702290076336,-10.249577307128906,-4.6830584472656245,3.1292215698242187,-31.6793893129771,23.450381679389313,13.221374045801527,0.0
13.37000060081482,-16.948553552246093,-3.840299462890625,13.563152404785155,50.778625954198475,-33.06870229007634,45.969465648854964,-12.77546005859375,-5.307945080566406,3.948038537597656,-2.946564885496183,6.687022900763359,-2.6106870229007635,0.0
13.380000591278076,-22.69703173828125,2.612074011230469,18.377891943359373,74.2442748091603,-47.908396946564885,34.19847328244275,-15.533580371093748,-5.566518859863281,5.961562133789062,-7.022900763358779,-16.229007633587788,-3.9236641221374047,0.0
13.390000343322754,-23.7121732421875,9.375693701171874,8.84178673095703,63.70992366412214,-79.32824427480917,32.50381679389313,-18.66280194091797,-5.717353564453124,5.461173986816406,1.83206106870229,-33.06870229007634,-29.954198473282442,0.0
13.400001049041748,-16.132130786132812,8.489839086914062,-7.596801867675781,8.335877862595419,-81.89312977099236,27.81679389312977,-20.980389147949218,-3.4955344238281247,3.8570588745117185,2.122137404580153,-27.206106870229007,-36.97709923664122,0.0
13.410000562667847,-11.077971081542968,2.5665841796874997,-6.648698010253906,-30.091603053435115,-65.66412213740458,14.473282442748092,-24.77759298095703,-0.6967126831054687,6.710947253417968,-29.129770992366414,-31.541984732824428,-44.87022900763359,0.0
13.420000553131104,-6.325480786132812,-2.8754361938476563,-6.543353137207031,-48.87022900763359,-45.02290076335878,3.954198473282443,-24.320300463867188,0.28730419921875,3.1411925781249996,2.1068702290076335,-59.267175572519086,-40.3206106870229,0.0
13.430000305175781,-3.31357509765625,-5.408501550292969,-6.469132885742187,-26.931297709923665,-21.6793893129771,-9.572519083969466,-23.472753076171873,3.028665100097656,0.22744915771484372,14.778625954198473,-85.81679389312977,-31.419847328244273,0.0
13.440000772476196,-3.897760302734375,-2.4899697265625,-7.532158422851562,7.801526717557252,9.572519083969466,-20.900763358778626,-20.221427221679686,6.121973645019531,-0.36631285400390623,18.595419847328245,-93.54198473282443,-28.30534351145038,0.0
13.450000762939453,-4.8650177734375,-1.2138602416992186,-7.268796240234375,22.33587786259542,31.17557251908397,-26.671755725190838,-16.845602880859374,7.410054138183593,-0.3687070556640625,-20.732824427480917,-94.54961832061069,-27.450381679389313,0.0
13.46000075340271,-8.70771143798828,1.9033903198242186,-4.513070129394531,47.282442748091604,65.55725190839695,-26.015267175572518,-16.53675086669922,5.628768103027343,-0.49799394531249996,-41.31297709923664,-91.22137404580153,-21.404580152671755,0.0
13.470001220703125,-12.035651745605469,6.0525417968749995,-3.821145849609375,32.36641221374046,79.49618320610686,-25.954198473282442,-15.672444067382811,6.210559106445312,-1.4125789794921875,-41.48091603053435,-85.16030534351145,-17.14503816793893,0.0
13.480000734329224,-15.655684655761718,9.504980590820312,-2.5354595581054684,-5.603053435114504,87.87786259541984,-24.931297709923665,-15.00925020751953,6.212953308105468,-0.36631285400390623,-70.65648854961832,-87.55725190839695,-8.122137404580153,0.0
13.490001201629639,-13.632584252929687,6.368576416015625,-3.071760729980469,-48.61068702290076,85.52671755725191,-17.52671755725191,-15.0547400390625,5.528211633300781,0.852335791015625,-62.30534351145038,-84.8854961832061,1.9236641221374047,0.0
13.500000715255737,-13.788207360839843,4.560954162597656,-1.8339584716796873,-59.29770992366412,95.63358778625954,-17.66412213740458,-12.631807958984375,4.642357019042969,-0.4213794921875,-72.4885496183206,-87.08396946564885,9.312977099236642,0.0
13.510001420974731,-13.393164086914062,3.9240965209960934,-0.7350199096679687,-71.90839694656489,95.93893129770993,-18.091603053435115,-11.259930407714844,4.44363828125,0.1771709228515625,-68.70229007633588,-83.70992366412214,16.106870229007633,0.0
13.520000696182251,-10.89122335205078,1.6472107421875,-1.2808978881835937,-66.53435114503817,98.61068702290076,-15.068702290076336,-9.679757312011718,3.0119056884765625,0.055066638183593745,-77.6793893129771,-80.19847328244275,21.954198473282442,0.0
13.530000925064087,-10.050858569335936,0.4644751220703125,-0.8259995727539062,-54.10687022900763,102.99236641221374,-11.404580152671755,-9.94072529296875,-0.35673604736328124,0.8044517578125,-68.45801526717557,-76.79389312977099,28.061068702290076,0.0
13.540001153945923,-9.344569079589844,-0.20829554443359374,0.0718260498046875,-34.213740458015266,111.72519083969466,-9.068702290076336,-8.655039001464843,0.011971008300781249,-0.41898529052734373,-52.99236641221374,-79.14503816793894,23.755725190839694,0.0
13.5500009059906,-9.746794958496093,2.693476867675781,1.905784521484375,-31.801526717557252,113.14503816793894,-9.938931297709924,-8.961496813964843,-0.928950244140625,0.2920926025390625,-49.52671755725191,-75.48091603053435,22.366412213740457,0.0
13.560000658035278,-7.137115148925781,0.8595183959960937,0.6248866333007812,-34.595419847328245,110.90076335877863,-5.847328244274809,-7.999027746582031,-1.659181750488281,0.3064578125,-45.83206106870229,-73.26717557251908,23.0381679389313,0.0
13.570000648498535,-7.697358337402343,2.0566192260742184,1.467645617675781,-33.48091603053435,110.18320610687023,-6.427480916030534,-9.435548742675781,-2.8850130004882812,1.6160861206054686,-22.763358778625953,-75.78625954198473,24.30534351145038,0.0
13.580000638961792,-7.333439685058593,1.5059528442382812,2.094926452636719,-41.7557251908397,105.19083969465649,-5.923664122137405,-7.960720520019531,-1.0438719238281249,2.104503259277344,-18.977099236641223,-81.19083969465649,19.022900763358777,0.0
13.590000867843628,-7.268796240234375,0.70868369140625,2.001552587890625,-38.152671755725194,104.4885496183206,-3.312977099236641,-7.785943798828124,-1.4724340209960938,0.3711012573242187,-16.18320610687023,-86.38167938931298,15.740458015267176,0.0
13.600001096725464,-9.555258825683593,3.679887951660156,3.361459130859375,-47.52671755725191,101.95419847328245,-6.8396946564885495,-10.007762939453125,-3.727771984863281,3.3542765258789062,-12.870229007633588,-81.2824427480916,14.687022900763358,0.0
13.61000108718872,-10.352527978515624,4.2521021484374995,3.775656018066406,-79.40458015267176,87.32824427480917,-8.0,-8.396465222167969,-3.3973721557617185,3.0310593017578125,-10.290076335877863,-94.61068702290076,13.694656488549619,0.0
13.620001077651978,-9.172186560058593,2.398990063476562,2.5953145996093747,-98.97709923664122,69.78625954198473,-4.763358778625954,-6.734889270019531,-0.6631938598632812,-1.0702081420898437,-2.2595419847328246,-102.73282442748092,12.061068702290076,0.0
13.630001068115234,-8.63827958984375,-0.23702596435546874,3.303998291015625,-82.3969465648855,72.03053435114504,-0.8244274809160306,-7.41244833984375,-1.3168109130859373,-0.11731588134765625,-7.938931297709924,-95.3587786259542,4.244274809160306,0.0
13.640001058578491,-10.807426293945312,1.7190367919921874,6.138733056640625,-78.67175572519083,69.02290076335878,-2.4732824427480917,-9.107543115234375,-3.1938650146484373,2.6982652709960937,7.877862595419847,-99.61832061068702,-1.5267175572519085,0.0
13.650000810623169,-11.982979309082031,2.712630480957031,5.561730456542969,-83.19083969465649,57.770992366412216,-3.5267175572519083,-9.86411083984375,-5.1882349975585935,2.051830822753906,1.4809160305343512,-99.93893129770993,0.12213740458015267,0.0
13.660001039505005,-9.205705383300781,0.49320554199218747,3.766079211425781,-78.77862595419847,45.343511450381676,1.2061068702290076,-7.951143713378905,-3.0310593017578125,0.031124621582031248,-5.374045801526718,-113.78625954198473,2.2748091603053435,0.0
13.670000791549683,-10.723629235839843,0.7422025146484375,4.2521021484374995,-73.61832061068702,43.49618320610687,2.7786259541984735,-6.713341455078124,-1.695094775390625,2.5043349365234375,-1.984732824427481,-101.5114503816794,-10.610687022900763,0.0
13.680001020431519,-13.646949462890625,5.121197351074218,5.681440539550781,-82.58015267175573,37.66412213740458,0.2595419847328244,-5.762843395996094,-0.3758896606445312,2.6886884643554687,7.297709923664122,-88.99236641221374,-14.091603053435115,0.0
13.690000772476196,-12.179303845214843,4.697423657226563,4.874594580078124,-106.67175572519083,24.03053435114504,-0.3969465648854962,-5.537788439941406,1.1109095703125,2.327164013671875,16.870229007633586,-84.59541984732824,-12.229007633587786,0.0
13.700000762939453,-10.802637890625,3.0885201416015624,2.887407202148437,-108.51908396946565,14.961832061068701,3.3282442748091605,-6.210559106445312,0.3495534423828125,3.3016040893554686,4.778625954198473,-78.44274809160305,-8.50381679389313,0.0
13.71000075340271,-9.160215551757812,1.2210428466796874,2.0925322509765625,-105.43511450381679,13.83206106870229,5.267175572519084,-3.6487633300781246,2.5617957763671875,2.01112939453125,-7.541984732824427,-60.656488549618324,-5.099236641221374,0.0
13.720000743865967,-9.868899243164062,2.6479870361328124,3.289633081054687,-106.99236641221374,15.648854961832061,2.1526717557251906,-4.508281726074219,1.0462661254882812,1.7477672119140624,-13.633587786259541,-47.06870229007634,1.8778625954198473,0.0
13.730000972747803,-8.022969763183593,1.3239935180664062,2.1116858642578125,-107.32824427480917,7.709923664122138,4.366412213740458,-5.590460876464843,1.9632453613281249,2.0087351928710935,-8.01526717557252,-40.091603053435115,6.977099236641221,0.0
13.74000072479248,-8.576030346679687,-0.35194764404296874,1.4820108276367188,-87.6793893129771,8.67175572519084,7.770992366412214,-3.42849677734375,2.8514941772460936,0.40222587890625,-30.671755725190838,-23.328244274809162,8.396946564885496,0.0
13.750000953674316,-7.1778165771484375,-1.5682020874023437,2.1260510742187497,-56.47328244274809,18.610687022900763,9.358778625954198,-6.253654736328125,-0.28490999755859375,2.528276953125,-49.64885496183206,-10.885496183206106,15.587786259541986,0.0
13.760000705718994,-9.469067565917967,2.47081611328125,3.2800562744140622,-60.916030534351144,15.679389312977099,1.6946564885496183,-7.089231115722656,-1.1875240234375,2.789244934082031,-5.297709923664122,-5.175572519083969,13.84732824427481,0.0
13.77000117301941,-8.413224633789062,0.23223756103515625,1.5059528442382812,-48.93129770992366,9.83206106870229,3.145038167938931,-7.721300354003906,-1.20667763671875,3.6655227416992187,-13.618320610687023,-11.618320610687023,12.625954198473282,0.0
13.780000925064087,-8.279149340820313,0.09816226806640624,1.2761094848632812,-39.45038167938932,10.580152671755725,3.801526717557252,-7.994239343261718,-1.924938134765625,4.103661645507812,-9.267175572519085,2.015267175572519,7.450381679389313,0.0
13.790000915527344,-7.728482958984374,-1.0726023437499999,0.9026140258789062,-26.427480916030536,13.083969465648854,2.9618320610687023,-8.06367119140625,-1.668758557128906,5.906495495605468,-27.66412213740458,8.183206106870228,2.7786259541984735,0.0
13.8000009059906,-8.93755479736328,0.814028564453125,2.0829554443359375,-7.3893129770992365,19.572519083969464,0.48854961832061067,-6.811503723144531,-0.9361328491210937,5.216965417480468,13.099236641221374,12.51908396946565,-1.282442748091603,0.0
13.810000896453857,-10.117896215820313,3.545812658691406,1.9871873779296874,-7.877862595419847,13.083969465648854,-1.5267175572519085,-7.0652890991210935,0.258573779296875,6.263231542968749,-16.732824427480917,15.129770992366412,-4.244274809160306,0.0
13.820001363754272,-9.56962403564453,3.2417490478515623,2.7150246826171873,-6.8396946564885495,10.15267175572519,2.0,-7.551312036132812,-1.4987702392578124,6.5960255737304685,-17.83206106870229,23.282442748091604,-1.3893129770992367,0.0
13.830000877380371,-7.800309008789062,0.4381389038085937,1.7381904052734374,7.709923664122138,7.114503816793893,5.862595419847328,-8.489839086914062,-1.0582371337890624,6.622361791992187,-11.038167938931299,25.862595419847327,-0.3511450381679389,0.0
13.840001106262207,-8.173804467773436,1.2832920898437499,0.6847416748046875,15.282442748091603,8.687022900763358,2.8244274809160306,-4.707000463867187,2.2936451904296873,4.707000463867187,-9.511450381679388,30.702290076335878,-5.557251908396947,0.0
13.850000858306885,-9.358934289550781,3.9360675292968748,0.23223756103515625,7.8320610687022905,13.49618320610687,-3.068702290076336,-6.751648681640624,-0.8116343627929687,5.856217260742187,-33.786259541984734,37.80152671755725,-4.748091603053435,0.0
13.860000848770142,-8.588001354980468,2.7198130859375,-0.3902548706054687,-9.236641221374045,10.931297709923664,-2.8091603053435112,-6.495469104003906,-0.8810662109374999,5.533000036621093,-9.114503816793894,43.70992366412214,-4.625954198473282,0.0
13.87000036239624,-9.085995300292968,1.5514426757812498,-0.7326257080078125,-1.3129770992366412,13.312977099236642,1.2366412213740459,-7.208941198730468,-2.389413256835937,6.0525417968749995,-28.717557251908396,42.87022900763359,-5.709923664122138,0.0
13.880000829696655,-10.75714805908203,3.2704794677734372,0.8188169677734375,6.351145038167939,22.442748091603054,-0.8396946564885496,-6.675034228515624,-1.8219874633789062,5.090072729492187,9.908396946564885,41.16030534351145,-6.916030534351145,0.0
13.890000581741333,-10.919953771972656,3.210624426269531,1.5035586425781249,0.8549618320610687,16.9618320610687,-0.7633587786259542,-5.288791467285156,0.181959326171875,2.6695348510742187,-13.19083969465649,42.412213740458014,-11.358778625954198,0.0
13.900000810623169,-10.89840595703125,2.999934680175781,3.651157531738281,10.106870229007633,16.061068702290076,0.9618320610687023,-7.359775903320312,-2.0877438476562498,4.915296008300781,-12.351145038167939,48.33587786259542,-7.893129770992366,0.0
13.910000562667847,-9.581595043945311,0.430956298828125,4.446032482910156,12.931297709923664,5.587786259541985,1.251908396946565,-8.585607153320312,-3.5769372802734374,5.2624552490234375,9.938931297709924,38.0,-3.2061068702290076,0.0
13.920000791549683,-12.203245861816406,3.268085266113281,7.003039855957031,20.931297709923665,-3.7404580152671754,-4.2748091603053435,-7.671022119140624,-2.24097275390625,3.88818349609375,16.977099236641223,38.916030534351144,1.816793893129771,0.0
13.93000078201294,-9.009380847167968,0.9193734375,6.586448767089843,35.083969465648856,-18.33587786259542,-0.7480916030534351,-5.576095666503906,-0.22744915771484372,2.094926452636719,15.16030534351145,39.05343511450382,-5.4961832061068705,0.0
13.940000772476196,-7.802703210449218,1.0319009155273438,5.810727429199218,27.908396946564885,-25.46564885496183,0.183206106870229,-6.730100866699218,-1.687912170410156,2.9975404785156248,21.435114503816795,37.41984732824427,-5.083969465648855,0.0
13.950000762939453,-7.8721350585937495,-1.7214309936523438,5.305550878906249,18.30534351145038,-36.44274809160305,-6.625954198473282,-6.770802294921874,-2.114080065917969,2.741360900878906,37.55725190839695,29.862595419847327,-6.091603053435114,0.0
13.96000075340271,-10.235212097167969,0.19153613281249998,7.0102224609374995,20.48854961832061,-41.57251908396947,-17.69465648854962,-6.967126831054687,-0.5243301635742187,3.5051112304687497,41.404580152671755,24.85496183206107,-12.183206106870228,0.0
13.970000743865967,-11.81777939453125,1.6136919189453125,9.323021264648437,8.80916030534351,-59.267175572519086,-24.80916030534351,-7.738059765625,-0.19632453613281248,3.749319799804687,35.89312977099237,35.908396946564885,-17.053435114503817,0.0
13.980000495910645,-11.410765112304686,0.6943184814453125,11.71482872314453,9.32824427480916,-82.22900763358778,-24.213740458015266,-7.9272016967773435,2.099714855957031,2.2074539306640624,35.20610687022901,39.41984732824427,-22.0,0.0
13.990001201629639,-12.380416784667968,0.44532150878906246,14.707580798339842,30.16793893129771,-102.9618320610687,-29.068702290076335,-9.222464794921875,2.166752502441406,4.072537023925781,18.977099236641223,35.37404580152672,-24.15267175572519,0.0
14.000000715255737,-14.350844750976561,2.1356278808593747,15.715539697265624,37.37404580152672,-132.21374045801528,-37.11450381679389,-11.496956372070311,2.7653029174804686,7.0269818725585935,6.3816793893129775,30.564885496183205,-25.96946564885496,0.0
14.010001182556152,-15.263035583496093,5.166687182617188,14.214375256347655,17.17557251908397,-166.5648854961832,-42.30534351145038,-11.923124267578125,2.8323405639648436,9.86411083984375,-22.83969465648855,29.83206106870229,-28.015267175572518,0.0
14.02000093460083,-13.666103076171874,3.593696691894531,9.82580361328125,-10.641221374045802,-200.3053435114504,-44.70229007633588,-13.479355346679686,1.6472107421875,12.387599389648436,-30.47328244274809,19.34351145038168,-25.19083969465649,0.0
14.030001163482666,-13.381193078613281,3.303998291015625,5.219359619140625,-40.36641221374046,-224.18320610687022,-50.50381679389313,-10.54645831298828,3.5529952636718747,9.222464794921875,-47.32824427480916,-0.6106870229007634,-27.66412213740458,0.0
14.040001153945923,-12.662932580566405,3.191470812988281,1.1635820068359375,-61.908396946564885,-237.29770992366412,-47.343511450381676,-10.539275708007812,2.521094348144531,10.386046801757812,-96.06106870229007,-0.7175572519083969,-30.82442748091603,0.0
14.05000114440918,-13.615824841308592,1.13006318359375,-1.024718310546875,-52.44274809160305,-234.8091603053435,-29.893129770992367,-10.781090075683593,-3.5434184570312497,0.9074024291992187,-107.5114503816794,18.27480916030534,-35.9236641221374,0.0
14.060001134872437,-12.641384765624998,-2.1739351074218747,-0.9959878906249999,-5.343511450381679,-218.6259541984733,-7.8320610687022905,-7.445967163085937,-3.0909143432617188,7.568071447753906,-60.412213740458014,-12.625954198473282,-36.778625954198475,0.0
14.070001125335693,-14.341267944335936,-6.160280871582031,-1.0462661254882812,55.221374045801525,-197.05343511450383,7.9541984732824424,-14.827290881347656,-2.834734765625,-13.306972827148437,-52.2442748091603,6.229007633587786,-13.358778625954198,0.0
14.08000135421753,-16.685191369628907,-4.594472985839843,-1.5394716674804687,88.3206106870229,-174.8854961832061,6.687022900763359,-9.196128576660156,0.7062894897460937,-3.6367923217773437,-46.19847328244275,8.595419847328245,-6.061068702290076,0.0
14.090000629425049,-18.483236816406247,-1.1276689819335937,0.6248866333007812,99.02290076335878,-150.8091603053435,-0.15267175572519084,-9.117119921875,-1.656787548828125,-2.7054478759765623,-50.38167938931298,18.12213740458015,7.267175572519084,0.0
14.100001335144043,-17.18079111328125,0.44532150878906246,-0.0909796630859375,103.90839694656489,-131.0229007633588,-6.625954198473282,-6.5768719604492185,-1.7094599853515624,-4.853046765136718,-63.038167938931295,27.435114503816795,10.580152671755725,0.0
14.11000108718872,-16.615759521484375,2.559401574707031,0.4381389038085937,97.02290076335878,-112.53435114503817,-4.366412213740458,-8.889670764160156,-5.1690813842773435,-2.252943762207031,-62.961832061068705,39.29770992366412,14.854961832061068,0.0
14.120001554489136,-16.66843195800781,3.7612908081054686,1.2761094848632812,69.7557251908397,-97.45038167938931,0.366412213740458,-9.22485899658203,-5.839457849121094,-0.08379705810546874,-46.3206106870229,40.51908396946565,13.465648854961833,0.0
14.130000591278076,-15.298948608398437,3.6631285400390623,2.592920397949219,44.93129770992366,-88.30534351145039,10.977099236641221,-11.226411584472656,-7.074865905761718,1.2378022583007813,-26.53435114503817,42.6412213740458,14.076335877862595,0.0
14.14000129699707,-12.181698046874999,3.418919970703125,2.085349645996094,26.290076335877863,-80.90076335877863,21.84732824427481,-11.877634436035155,-6.402095239257812,1.2665326782226562,8.793893129770993,35.06870229007634,15.068702290076336,0.0
14.150001049041748,-9.409212524414063,2.5234885498046875,0.47644613037109373,13.740458015267176,-75.95419847328245,28.16793893129771,-11.79144317626953,-4.8650177734375,-0.39983167724609375,24.65648854961832,38.19847328244275,13.98473282442748,0.0
14.160001277923584,-9.619902270507811,2.1212626708984375,0.430956298828125,-0.12213740458015267,-62.79389312977099,29.51145038167939,-11.702857714843748,-4.477157104492187,-0.36391865234375,34.54961832061068,39.847328244274806,14.961832061068701,0.0
14.170001029968262,-7.939172705078125,-0.488417138671875,0.9696516723632812,-12.259541984732824,-54.47328244274809,28.412213740458014,-12.224793676757812,-6.4284314575195305,-0.229843359375,53.51145038167939,39.969465648854964,16.15267175572519,0.0
14.180001258850098,-5.580884069824219,-1.5322890624999999,-0.9145850341796874,-11.48091603053435,-42.70229007633588,23.297709923664122,-10.40041201171875,-4.659116430664063,-0.8643067993164062,68.54961832061069,41.19083969465649,11.358778625954198,0.0
14.190001010894775,-5.746083984375,-2.094926452636719,-0.4644751220703125,-16.564885496183205,-30.396946564885496,15.938931297709924,-10.402806213378906,-1.7717092285156248,0.5434837768554687,73.61832061068702,45.48091603053435,6.99236641221374,0.0
14.200001001358032,-5.552153649902343,-1.89620771484375,-0.8188169677734375,-13.908396946564885,-13.770992366412214,9.877862595419847,-10.58476553955078,-2.5809493896484375,0.062249243164062495,77.72519083969466,46.3206106870229,5.938931297709924,0.0
14.21000075340271,-3.2561142578125,-3.854664672851562,-2.8802245971679685,-14.534351145038167,-7.129770992366412,5.862595419847328,-9.93354268798828,-1.3144167114257812,0.5746083984375,77.98473282442748,50.0,4.778625954198473,0.0
14.220001220703125,-4.108450048828125,-2.4301146850585935,-2.2481553588867187,-9.267175572519085,16.366412213740457,0.42748091603053434,-8.410830432128906,2.2744915771484373,0.1292868896484375,61.86259541984733,54.0,3.267175572519084,0.0
14.230001211166382,-2.7629087158203123,-1.1109095703125,-3.2154128295898436,-16.595419847328245,26.885496183206108,-4.366412213740458,-8.877699755859375,1.5107412475585937,1.3359645263671873,41.3587786259542,64.22900763358778,9.954198473282442,0.0
14.240001201629639,-4.299986181640625,0.258573779296875,-2.29843359375,-23.984732824427482,42.44274809160305,-7.908396946564886,-8.856151940917968,1.8626888916015625,1.8459294799804686,33.12977099236641,68.51908396946565,15.34351145038168,0.0
14.250000953674316,-3.2249896362304686,-1.2114660400390624,-3.4644098022460934,-33.083969465648856,46.54961832061068,-7.587786259541985,-9.526528405761718,-0.16759411621093748,3.6176387084960937,23.81679389312977,67.08396946564885,22.12213740458015,0.0
14.260000944137573,-2.0087351928710935,-4.347870214843749,-3.3877953491210935,-6.900763358778626,69.54198473282443,-4.076335877862595,-9.560047229003906,-1.2761094848632812,4.6998178588867185,29.908396946564885,57.37404580152672,24.15267175572519,0.0
14.270001411437988,-1.158793603515625,-4.3430818115234375,-4.944026428222656,23.419847328244273,89.74045801526718,-9.450381679389313,-9.792284790039062,-1.4772224243164063,7.539341027832031,69.31297709923665,38.47328244274809,15.938931297709924,0.0
14.280000686645508,-1.7956512451171873,-3.1794998046874996,-3.3782185424804685,40.36641221374046,108.4885496183206,-20.564885496183205,-7.144297753906249,-1.2378022583007813,5.430049365234375,30.16793893129771,42.595419847328245,14.885496183206106,0.0
14.290001153945923,-2.4684219116210935,-3.852270471191406,-1.5466542724609373,27.770992366412212,113.14503816793894,-33.12977099236641,-7.960720520019531,-1.5562310791015623,5.236119030761718,28.458015267175572,48.01526717557252,19.64885496183206,0.0
14.300000667572021,-2.7820623291015623,-4.386177441406249,0.4525041137695312,25.770992366412212,124.36641221374046,-46.717557251908396,-7.3478048950195305,-1.2880804931640624,5.090072729492187,26.229007633587788,37.19083969465649,18.47328244274809,0.0
14.310001134872437,-4.517858532714843,-2.839523168945312,2.185906115722656,36.01526717557252,125.8473282442748,-54.13740458015267,-7.773972790527344,-1.9919757812499999,6.076483813476562,28.198473282442748,32.33587786259542,16.870229007633586,0.0
14.320001363754272,-5.157110375976562,-0.08858546142578125,4.565742565917969,55.6793893129771,131.80152671755727,-51.31297709923664,-7.302315063476562,-1.6232687255859375,5.827486840820312,27.114503816793892,28.946564885496183,13.938931297709924,0.0
14.330000638961792,-6.718129858398437,2.142810485839844,5.793968017578124,66.91603053435115,134.01526717557252,-46.778625954198475,-7.094019519042968,-1.6424223388671875,5.837063647460937,26.99236641221374,21.328244274809162,9.84732824427481,0.0
14.340000629425049,-8.757989672851561,3.6343981201171873,7.675810522460937,71.70992366412214,130.0,-37.86259541984733,-5.951985327148437,-0.9576806640625,4.594472985839843,19.267175572519083,21.114503816793892,6.2748091603053435,0.0
14.350001096725464,-9.533711010742186,4.565742565917969,11.291055029296874,66.07633587786259,116.9618320610687,-25.083969465648856,-7.867346655273437,-1.3096283081054687,5.774814404296874,16.99236641221374,17.14503816793893,4.885496183206107,0.0
14.3600013256073,-12.90235274658203,7.625532287597656,13.57272921142578,58.76335877862596,98.09160305343511,-12.534351145038167,-7.0844427124023435,-2.6695348510742187,3.754108203125,25.938931297709924,12.931297709923664,2.854961832061069,0.0
14.370001077651978,-12.093112585449218,7.144297753906249,13.225569970703123,50.396946564885496,73.61832061068702,4.152671755725191,-6.600813977050781,-2.3678654418945313,2.5330653564453125,27.908396946564885,14.961832061068701,2.885496183206107,0.0
14.380001068115234,-12.69884560546875,8.327033374023436,14.075511560058592,39.847328244274806,47.93893129770992,15.358778625954198,-6.959944226074218,-2.5043349365234375,2.1068974609374997,12.717557251908397,11.740458015267176,4.702290076335878,0.0
14.390001058578491,-13.397952490234374,8.073247998046874,14.525621472167968,21.984732824427482,20.80916030534351,23.541984732824428,-5.353434912109375,-0.4213794921875,0.8547299926757812,-5.267175572519084,19.51145038167939,12.51908396946565,0.0
14.400001049041748,-13.59188282470703,5.8083332275390624,15.349226843261718,29.72519083969466,-6.977099236641221,40.045801526717554,-6.459556079101562,-0.7517793212890624,0.16759411621093748,-23.297709923664122,22.65648854961832,9.450381679389313,0.0
14.410001039505005,-12.164938635253906,1.4867992309570313,9.670180505371093,28.610687022900763,-31.129770992366414,45.6793893129771,-7.841010437011718,-1.2593500732421874,1.47482822265625,-8.82442748091603,31.221374045801525,12.83969465648855,0.0
14.420001029968262,-12.363657373046875,-0.09816226806640624,5.516240625,35.267175572519086,-30.076335877862597,47.02290076335878,-10.04846436767578,-3.342305517578125,2.501940734863281,-17.14503816793893,29.557251908396946,15.389312977099237,0.0
14.430001020431519,-13.895946435546874,-1.6711527587890624,4.8698061767578125,23.022900763358777,-35.16030534351145,42.10687022900763,-12.299013928222655,-6.313509777832031,5.025429284667968,10.0,27.282442748091604,11.450381679389313,0.0
14.440001010894775,-20.080169323730466,-1.467645617675781,13.816937780761718,51.541984732824424,-48.70229007633588,44.85496183206107,-12.241553088378906,-4.3813890380859375,4.299986181640625,8.65648854961832,13.725190839694656,13.740458015267176,0.0
14.450000524520874,-17.78173572998047,-1.158793603515625,7.639897497558593,74.04580152671755,-60.091603053435115,52.01526717557252,-14.47294903564453,-4.867411975097656,5.303156677246093,13.32824427480916,-6.854961832061068,3.49618320610687,0.0
14.460000991821289,-12.401964599609375,-0.9840168823242187,-3.2417490478515623,54.717557251908396,-52.38167938931298,33.20610687022901,-15.275006591796874,-4.438849877929687,6.617573388671874,14.427480916030534,-28.83969465648855,-8.580152671755725,0.0
14.470001220703125,-9.41639512939453,-5.054159704589844,-3.1411925781249996,32.68702290076336,-40.70229007633588,9.83206106870229,-18.43774698486328,-5.317521887207031,4.96078583984375,21.16030534351145,-27.755725190839694,-18.519083969465647,0.0
14.480000972747803,-7.050923889160156,-4.836287353515624,-8.425195642089843,28.595419847328245,-16.16793893129771,-10.82442748091603,-16.98686077880859,0.062249243164062495,5.121197351074218,11.740458015267176,-53.465648854961835,-32.76335877862596,0.0
14.490001201629639,-3.095702746582031,-6.030993981933594,-9.5001921875,46.045801526717554,5.3893129770992365,-18.549618320610687,-19.65878983154297,0.8068459594726562,4.805162731933594,6.656488549618321,-65.66412213740458,-32.412213740458014,0.0
14.500000953674316,-3.7924154296875,-1.3192051147460937,-5.91846650390625,74.82442748091603,43.908396946564885,-26.748091603053435,-18.485631018066407,2.300827795410156,3.35188232421875,8.778625954198473,-78.85496183206106,-26.763358778625953,0.0
14.510001182556152,-6.660669018554687,4.218583325195312,-3.7924154296875,79.0381679389313,62.2442748091603,-28.732824427480917,-17.822437158203122,3.1938650146484373,2.3870190551757813,3.954198473282443,-87.46564885496183,-14.83969465648855,0.0
14.52000117301941,-10.66137999267578,9.643844287109374,-2.980781066894531,52.916030534351144,72.79389312977099,-24.18320610687023,-16.2039568359375,2.5905261962890624,0.05985504150390625,12.580152671755725,-97.09923664122137,-4.213740458015267,0.0
14.530001163482666,-10.417171423339843,7.991845141601562,-3.756502404785156,21.541984732824428,77.20610687022901,-15.083969465648854,-14.578293908691405,3.7205893798828122,0.1292868896484375,-7.374045801526718,-97.22137404580153,0.061068702290076333,0.0
14.540000915527344,-12.885593334960937,7.692569934082031,-3.2249896362304686,-12.80916030534351,82.79389312977099,-9.526717557251908,-13.24711778564453,3.7804444213867185,-1.5801730957031248,-11.038167938931299,-91.00763358778626,0.4732824427480916,0.0
14.550000429153442,-12.923900561523437,5.576095666503906,-1.6112977172851561,-38.33587786259542,84.56488549618321,-7.114503816793893,-12.571952917480468,3.327940307617187,-1.5322890624999999,-39.954198473282446,-80.80916030534351,4.0,0.0
14.560000658035278,-14.355633154296875,4.472368701171875,0.5339069702148437,-53.9236641221374,85.29770992366412,-7.572519083969466,-11.678915698242188,3.3303345092773435,-1.695094775390625,-27.480916030534353,-67.23664122137404,6.9465648854961835,0.0
14.570000648498535,-11.587936035156249,1.924938134765625,-0.679953271484375,-53.70992366412214,83.25190839694656,-8.366412213740459,-10.867281335449219,4.00310517578125,-0.97683427734375,-43.12977099236641,-56.87022900763359,11.587786259541986,0.0
14.580000877380371,-11.137826123046874,0.8212111694335937,-0.4644751220703125,-42.79389312977099,85.70992366412214,-8.396946564885496,-12.15536182861328,0.033518823242187495,0.5051765502929687,-31.572519083969464,-47.587786259541986,16.458015267175572,0.0
14.59000039100647,-10.108319409179687,0.9026140258789062,0.7757213378906249,-35.41984732824427,84.7175572519084,-11.48091603053435,-11.501744775390625,-0.17956512451171874,1.5562310791015623,-18.870229007633586,-38.70229007633588,13.511450381679388,0.0
14.600001096725464,-9.497797985839844,0.06943184814453125,0.488417138671875,-20.244274809160306,86.0,-10.51908396946565,-9.433154541015625,0.7517793212890624,2.24097275390625,-14.595419847328245,-31.282442748091604,6.931297709923665,0.0
14.61000108718872,-9.600748657226562,2.099714855957031,1.5514426757812498,-19.572519083969464,84.44274809160305,-11.48091603053435,-8.750807067871094,-0.6584054565429687,1.8435352783203125,-3.267175572519084,-26.763358778625953,10.091603053435115,0.0
14.620001316070557,-10.04846436767578,2.3582886352539063,1.2761094848632812,-37.87786259541985,77.43511450381679,-13.938931297709924,-8.889670764160156,-2.1787235107421874,1.5705962890624998,14.595419847328245,-25.389312977099237,12.900763358778626,0.0
14.630000591278076,-10.182539660644531,1.1180921752929687,0.8068459594726562,-39.16030534351145,71.08396946564885,-12.335877862595419,-8.542511523437499,-0.9959878906249999,1.3072341064453123,26.137404580152673,-26.38167938931298,9.419847328244275,0.0
14.64000129699707,-9.184157568359375,-0.20350714111328125,1.8219874633789062,-27.52671755725191,72.21374045801527,-11.587786259541986,-7.254431030273437,0.9050082275390624,0.7110778930664062,28.38167938931298,-27.389312977099237,4.183206106870229,0.0
14.650001049041748,-9.95987890625,1.2641384765625,2.094926452636719,-23.00763358778626,69.16030534351145,-12.870229007633588,-7.8529814453124995,-0.699106884765625,2.0925322509765625,3.5877862595419847,-29.61832061068702,7.770992366412214,0.0
14.660001277923584,-9.787496386718749,1.8291700683593748,2.0542250244140625,-34.36641221374046,59.29770992366412,-13.541984732824428,-8.858546142578124,-2.0925322509765625,2.5953145996093747,26.519083969465647,-31.404580152671755,9.98473282442748,0.0
14.670001029968262,-10.426748229980468,2.1739351074218747,1.7453730102539062,-28.290076335877863,55.7557251908397,-13.129770992366412,-8.157045056152343,0.4740519287109375,2.319981408691406,28.916030534351144,-39.786259541984734,7.251908396946565,0.0
14.680001020431519,-8.772354882812499,0.12449848632812499,2.1930887207031247,-11.572519083969466,57.45038167938932,-9.83206106870229,-8.621520178222656,-1.35990654296875,2.4253262817382812,29.022900763358777,-48.56488549618321,5.8320610687022905,0.0
14.690001010894775,-9.145850341796875,0.18914193115234373,3.1603461914062496,-10.778625954198473,53.541984732824424,-10.80916030534351,-8.580818749999999,-1.3934253662109375,2.3918074584960936,39.80152671755725,-53.29770992366412,1.9236641221374047,0.0
14.700001001358032,-9.519345800781249,0.033518823242187495,3.4428619873046875,-4.412213740458015,50.36641221374046,-12.183206106870228,-8.281543542480469,-1.1707646118164061,2.683900061035156,42.80916030534351,-62.97709923664122,0.732824427480916,0.0
14.710001230239868,-10.204087475585936,2.224213342285156,4.496310717773437,-4.656488549618321,46.99236641221374,-12.916030534351146,-7.3837179199218745,-0.4213794921875,3.4356793823242184,32.412213740458014,-62.916030534351144,-4.0458015267175576,0.0
14.720000982284546,-9.196128576660156,1.8842367065429686,2.8730419921875,-20.83969465648855,33.099236641221374,-9.938931297709924,-7.218518005371093,0.7996633544921875,2.844311572265625,49.63358778625954,-67.6030534351145,-5.511450381679389,0.0
14.730001211166382,-10.639832177734375,4.575319372558593,2.6216508178710938,-29.6793893129771,26.396946564885496,-8.030534351145038,-6.950367419433594,-0.6727706665039062,3.6008792968749996,20.870229007633586,-65.34351145038168,-3.1603053435114505,0.0
14.74000096321106,-10.091559997558592,4.414907861328125,3.1411925781249996,-47.14503816793893,24.259541984732824,-5.6183206106870225,-6.509834313964843,0.59376201171875,3.2249896362304686,20.03053435114504,-59.02290076335878,-3.7404580152671754,0.0
14.750000953674316,-10.836156713867187,5.990292553710937,3.5027170288085934,-63.603053435114504,17.34351145038168,-3.83206106870229,-6.871358764648437,0.18435352783203124,2.7437551025390623,3.83206106870229,-51.465648854961835,-1.2061068702290076,0.0
14.760001182556152,-9.495403784179686,4.472368701171875,2.839523168945312,-83.09923664122137,6.778625954198473,0.8244274809160306,-7.022193469238281,0.49320554199218747,3.4668040039062498,0.9618320610687023,-49.908396946564885,1.5877862595419847,0.0
14.770001411437988,-9.203311181640624,3.3159692993164063,2.300827795410156,-81.78625954198473,2.9923664122137406,4.488549618320611,-5.437231970214843,2.935291235351562,2.4779987182617185,-14.885496183206106,-43.847328244274806,0.0916030534351145,0.0
14.780001163482666,-7.908048083496094,1.5227122558593749,1.8267758666992187,-81.43511450381679,3.145038167938931,7.648854961832061,-6.148309863281249,1.5921441040039062,3.9408559326171875,-38.030534351145036,-25.862595419847327,4.702290076335878,0.0
14.790001153945923,-8.74601866455078,1.0199299072265624,1.9033903198242186,-78.67175572519083,8.16793893129771,5.099236641221374,-7.098807922363281,-0.20350714111328125,3.545812658691406,-29.14503816793893,-22.748091603053435,7.908396946564886,0.0
