timestamp,Thigh_L_Acc_X,Thigh_L_Acc_Y,Thigh_L_Acc_Z,Thigh_L_Gyr_X,Thigh_L_Gyr_Y,Thigh_L_Gyr_Z,Thigh_R_Acc_X,Thigh_R_Acc_Y,Thigh_R_Acc_Z,Thigh_R_Gyr_X,Thigh_R_Gyr_Y,Thigh_R_Gyr_Z,gpio_output
10.000000953674316,-4.254496350097656,-1.9991583862304687,2.6216508178710938,64.65648854961832,133.12977099236642,-59.083969465648856,-7.769184387207031,-2.35589443359375,4.7189714721679685,46.10687022900763,34.30534351145038,17.419847328244273,0.0
10.010000944137573,-5.753266589355468,-0.6775590698242188,5.415684155273437,75.69465648854961,142.21374045801528,-60.67175572519084,-5.099649536132812,-0.8547299926757812,4.69263525390625,39.11450381679389,32.778625954198475,10.106870229007633,1.0
10.02000117301941,-8.762778076171875,2.0829554443359375,8.394071020507813,83.09923664122137,142.19847328244273,-56.2442748091603,-7.501033801269531,-1.467645617675781,5.743689782714843,24.625954198473284,41.52671755725191,9.770992366412214,1.0
10.030001163482666,-12.061987963867187,6.629544396972656,13.340491650390625,91.25190839694656,132.35114503816794,-38.13740458015267,-7.0102224609374995,-2.906560815429687,5.741295581054687,24.946564885496183,37.3587786259542,9.114503816793894,1.0
10.040008306503296,-15.121777685546874,11.049240661621093,17.23585775146484,97.95419847328245,114.61068702290076,-14.977099236641221,-8.003816149902343,-3.1747114013671873,5.437231970214843,31.19083969465649,31.954198473282442,6.885496183206107,1.0
10.0500009059906,-16.589423303222656,12.006921325683592,17.92059942626953,67.58778625954199,78.38167938931298,4.5038167938931295,-6.526593725585937,-2.1021090576171875,3.0885201416015624,31.52671755725191,29.862595419847327,4.122137404580153,1.0
10.060000896453857,-14.997279199218749,8.25520732421875,18.945317736816406,70.3206106870229,51.083969465648856,24.27480916030534,-6.002263562011718,-1.7166425903320313,1.5801730957031248,26.137404580152673,30.702290076335878,6.9465648854961835,1.0
10.070000886917114,-16.366762548828124,8.303091357421874,19.208679919433592,39.51145038167939,10.50381679389313,31.16030534351145,-5.492298608398437,-1.7956512451171873,2.806004345703125,13.938931297709924,27.541984732824428,8.778625954198473,1.0
10.08000111579895,-14.47294903564453,4.3813890380859375,12.102689392089843,-1.3893129770992367,-26.625954198473284,31.96946564885496,-7.252036828613281,-2.597708801269531,1.6927005737304686,29.389312977099237,23.587786259541986,4.763358778625954,1.0
10.090001106262207,-14.23113466796875,1.8339584716796873,7.960720520019531,4.290076335877862,-37.25190839694657,35.98473282442748,-8.422801440429687,-2.9376854370117185,-3.4093431640625,2.183206106870229,20.9618320610687,13.221374045801527,1.0
10.100000619888306,-10.66137999267578,-1.8459294799804686,2.588131994628906,1.297709923664122,-48.213740458015266,33.12977099236641,-9.823409411621093,-1.7453730102539062,1.659181750488281,-12.244274809160306,10.442748091603054,6.3816793893129775,1.0
10.11000108718872,-9.706093530273437,-4.302380383300781,2.01112939453125,10.01526717557252,-50.3206106870229,18.015267175572518,-12.160150231933594,-3.775656018066406,3.718195178222656,12.335877862595419,4.5038167938931295,6.473282442748092,1.0
10.120000839233398,-14.597447521972656,-2.461239306640625,11.073182678222656,53.908396946564885,-50.13740458015267,12.900763358778626,-12.715605017089842,-4.469974499511719,6.524199523925781,31.61832061068702,-12.183206106870228,-4.99236641221374,1.0
10.130001068115234,-11.923124267578125,3.8091748413085935,-0.9313444458007812,70.67175572519083,-52.80916030534351,24.244274809160306,-15.0164328125,-3.6679169433593746,4.4819455078125,16.519083969465647,-6.625954198473282,-9.129770992366412,1.0
10.140000820159912,-9.476250170898437,4.565742565917969,-6.153098266601562,41.603053435114504,-38.42748091603053,27.129770992366414,-16.658855151367188,-1.6041151123046875,3.6272155151367187,5.633587786259542,-10.01526717557252,-21.755725190839694,1.0
10.150001049041748,-8.71489404296875,1.8195932617187498,-4.544194750976562,27.114503816793892,-21.328244274809162,26.198473282442748,-20.247763439941405,-1.1563994018554686,2.906560815429687,-25.61832061068702,-23.862595419847327,-22.12213740458015,1.0
10.160000801086426,-6.172251879882812,-5.748478186035156,-2.31758720703125,31.557251908396946,-4.183206106870229,16.15267175572519,-18.78251202392578,1.4173673828125,0.4165910888671875,10.213740458015268,-37.93893129770992,-29.923664122137403,1.0
10.170000791549683,-7.448361364746093,-3.909731311035156,-1.350329736328125,58.213740458015266,20.870229007633586,-7.755725190839694,-20.657171923828123,1.8770541015625,0.7398083129882812,11.908396946564885,-47.11450381679389,-25.69465648854962,1.0
10.18000078201294,-8.01818135986328,0.0383072265625,-3.268085266113281,64.58015267175573,34.0763358778626,-24.870229007633586,-19.225439331054687,1.8507178833007811,-0.7398083129882812,12.030534351145038,-56.67175572519084,-18.885496183206108,1.0
10.190000772476196,-10.000580334472655,4.371812231445312,-2.5522189697265625,52.916030534351144,47.55725190839695,-34.045801526717554,-16.99643758544922,3.337517114257812,-0.718260498046875,15.801526717557252,-57.64885496183206,-18.259541984732824,1.0
10.200000762939453,-8.971073620605468,3.143586779785156,-3.758896606445312,40.38167938931298,56.42748091603053,-30.137404580152673,-15.667655664062499,3.5003228271484375,-0.5578489868164063,5.816793893129771,-56.62595419847328,-16.0,1.0
10.21000075340271,-10.01733974609375,5.05655390625,-1.4915876342773438,26.717557251908396,65.58778625954199,-27.114503816793892,-14.425065002441405,2.5139117431640625,2.923320227050781,-16.99236641221374,-58.030534351145036,-9.633587786259541,0.0
10.220000982284546,-9.670180505371093,5.190629199218749,-3.1076737548828124,13.419847328244275,71.48091603053435,-22.106870229007633,-12.43069501953125,4.1563340820312495,-0.3806780639648437,16.396946564885496,-52.44274809160305,-11.664122137404581,0.0
10.230000734329224,-11.563994018554688,8.001421948242188,-4.144363073730468,-0.5190839694656488,75.96946564885496,-19.450381679389313,-10.522516296386717,5.65031591796875,-0.9457096557617187,-15.86259541984733,-53.83206106870229,-8.625954198473282,0.0
10.24000096321106,-12.619836950683593,9.054870678710937,-2.4061726684570313,-20.412213740458014,78.09160305343511,-13.954198473282442,-11.022904443359375,3.440467785644531,-0.1388636962890625,-21.221374045801525,-49.43511450381679,2.549618320610687,0.0
10.250000715255737,-12.885593334960937,7.785943798828124,-1.0845733520507812,-45.20610687022901,71.32824427480917,-10.305343511450381,-11.298237634277344,2.6623522460937497,1.9297265380859374,-14.320610687022901,-44.16793893129771,10.061068702290076,0.0
10.260001182556152,-11.793837377929687,5.147533569335937,-0.7422025146484375,-65.14503816793894,64.74809160305344,-8.702290076335878,-10.723629235839843,1.7932570434570312,0.17238251953125,-13.801526717557252,-43.87786259541985,12.045801526717558,0.0
10.27000093460083,-11.853692419433592,2.2194249389648437,-0.040701428222656245,-65.70992366412214,66.85496183206106,-6.580152671755725,-10.678139404296875,0.4644751220703125,0.9816226806640624,-15.633587786259541,-44.045801526717554,18.045801526717558,0.0
10.280000686645508,-11.49216796875,0.41898529052734373,0.0,-59.20610687022901,68.99236641221374,-4.916030534351145,-10.702081420898438,0.6967126831054687,2.0183119995117185,4.0458015267175576,-42.38167938931298,24.15267175572519,0.0
10.290000915527344,-9.763554370117188,-2.0278888061523435,0.06943184814453125,-33.221374045801525,73.1145038167939,-1.4351145038167938,-8.894459167480468,1.9584569580078124,1.1755530151367186,17.328244274809162,-42.56488549618321,18.778625954198475,0.0
10.301342964172363,-9.557653027343749,-1.39821376953125,1.4221557861328125,-7.450381679389313,83.87786259541984,-1.4809160305343512,-8.82981572265625,0.603338818359375,2.5761609863281247,-6.549618320610687,-47.221374045801525,22.3206106870229,0.0
10.310001134872437,-9.265560424804686,-0.612915625,1.7334020019531249,-2.4885496183206106,83.96946564885496,-4.5038167938931295,-8.410830432128906,0.7996633544921875,0.8451531860351562,14.076335877862595,-48.0763358778626,19.114503816793892,0.0
10.320000648498535,-9.86411083984375,1.2641384765625,3.258508459472656,-6.351145038167939,85.05343511450381,-10.458015267175572,-8.693346228027343,0.36152445068359373,2.47081611328125,-6.213740458015267,-52.458015267175576,21.16030534351145,0.0
10.330000400543213,-9.320627062988281,0.2657563842773437,2.288856787109375,-27.801526717557252,72.51908396946565,-13.450381679389313,-8.113949426269532,0.565031591796875,1.4006079711914061,-7.022900763358779,-54.396946564885496,18.53435114503817,0.0
10.340000867843628,-10.184933862304687,0.814028564453125,3.5386300537109374,-33.7557251908397,69.89312977099236,-19.46564885496183,-9.540893615722656,-1.7597382202148437,1.8938135131835936,-17.72519083969466,-56.900763358778626,21.328244274809162,0.0
10.350001096725464,-10.728417639160156,1.7764976318359373,4.580107775878906,-37.32824427480916,69.77099236641222,-25.557251908396946,-8.664615808105468,-1.1468225952148436,2.250549560546875,-20.610687022900763,-59.267175572519086,19.61832061068702,0.0
10.360000848770142,-9.291896643066405,0.411802685546875,3.6439749267578123,-46.44274809160305,58.961832061068705,-26.900763358778626,-8.640673791503906,-1.8124106567382812,1.7597382202148437,-12.549618320610687,-61.770992366412216,18.549618320610687,0.0
10.370000839233398,-8.846575134277343,0.2753331909179687,3.2034418212890623,-39.87786259541985,54.961832061068705,-26.748091603053435,-8.635885388183594,-1.0989385620117187,3.0597897216796874,-15.877862595419847,-70.06106870229007,15.694656488549619,0.0
10.380000591278076,-10.321403356933594,2.0566192260742184,2.896984008789062,-39.57251908396947,53.7557251908397,-26.229007633587788,-8.863334545898438,-1.898601916503906,2.4875755249023435,-5.343511450381679,-72.47328244274809,15.145038167938932,0.0
10.390001058578491,-8.846575134277343,1.158793603515625,2.0877438476562498,-37.55725190839695,49.57251908396947,-22.091603053435115,-9.222464794921875,-2.3678654418945313,3.2824504760742186,4.6106870229007635,-76.65648854961832,14.534351145038167,0.0
10.400001049041748,-8.817844714355468,2.0159177978515626,1.7932570434570312,-34.67175572519084,47.083969465648856,-18.564885496183205,-6.940790612792968,-0.4261678955078125,2.272097375488281,12.381679389312977,-77.25190839694656,8.534351145038167,0.0
10.410000801086426,-9.591171850585937,3.67749375,1.714248388671875,-38.10687022900763,46.44274809160305,-15.419847328244275,-6.8593877563476555,-0.42377369384765623,1.7022773803710936,7.694656488549619,-81.09923664122137,6.183206106870229,0.0
10.420001029968262,-9.890447058105469,4.76924970703125,1.8938135131835936,-44.656488549618324,44.70229007633588,-10.580152671755725,-8.015787158203125,-2.2936451904296873,3.2321722412109373,5.00763358778626,-75.37404580152672,5.251908396946565,0.0
10.43000078201294,-9.179369165039063,3.9983167724609374,2.003946789550781,-51.61832061068702,42.44274809160305,-5.419847328244275,-5.913678100585937,-1.0654197387695312,2.0638018310546875,-0.10687022900763359,-69.25190839694656,8.427480916030534,0.0
10.440000772476196,-10.723629235839843,4.6064439941406246,2.2864625854492187,-62.778625954198475,39.954198473282446,-4.229007633587786,-6.842628344726562,-1.5442600708007812,2.8371289672851563,-3.7709923664122136,-62.3206106870229,4.412213740458015,0.0
10.450000762939453,-8.731653454589843,1.2928688964843749,2.0877438476562498,-65.12977099236642,35.083969465648856,0.4580152671755725,-6.191405493164062,-0.5674257934570313,1.70467158203125,-2.9770992366412212,-54.61068702290076,7.251908396946565,0.0
10.46000075340271,-9.272743029785156,1.1276689819335937,3.1459809814453124,-62.0,32.58015267175573,0.07633587786259542,-7.060500695800781,-0.8667010009765624,2.2170307373046874,-15.786259541984732,-48.99236641221374,5.847328244274809,0.0
10.470000743865967,-10.002974536132811,1.7693150268554687,3.8857892944335934,-65.87786259541984,29.022900763358777,-2.198473282442748,-7.5153990112304685,-1.6352397338867186,2.4971523315429685,5.984732824427481,-44.38167938931298,4.122137404580153,0.0
10.480000972747803,-9.619902270507811,2.147598889160156,3.35188232421875,-60.70229007633588,22.53435114503817,-2.6106870229007635,-6.519411120605469,1.5227122558593749,2.2936451904296873,-3.969465648854962,-40.50381679389313,0.732824427480916,0.0
10.490000486373901,-8.580818749999999,1.448492004394531,2.1308394775390624,-67.92366412213741,13.206106870229007,0.9770992366412213,-7.283161450195312,-0.29448680419921874,2.999934680175781,-12.366412213740459,-29.740458015267176,0.732824427480916,0.0
10.500000953674316,-10.503362683105468,2.7748797241210936,3.0023288818359375,-67.23664122137404,11.969465648854962,-1.0381679389312977,-6.617573388671874,-1.120486376953125,2.2553379638671873,-9.679389312977099,-26.80916030534351,1.7099236641221374,0.0
10.510000467300415,-9.782707983398437,0.6703764648437499,1.7238251953125,-56.93129770992366,7.282442748091603,1.618320610687023,-7.283161450195312,-1.1611878051757811,3.2441432495117186,-6.152671755725191,-19.572519083969464,1.1603053435114503,0.0
10.52000093460083,-8.640673791503906,-1.5107412475585937,1.7788918334960937,-27.96946564885496,12.091603053435115,4.198473282442748,-8.396465222167969,-1.8195932617187498,4.302380383300781,6.9465648854961835,-22.35114503816794,1.0534351145038168,0.0
10.530000925064087,-8.916006982421875,0.16519991455078123,2.3391350219726563,-10.946564885496183,14.290076335877863,1.4809160305343512,-7.218518005371093,-1.8363526733398436,3.375824340820312,11.694656488549619,-23.297709923664122,-4.244274809160306,0.0
10.540000915527344,-8.681375219726561,0.9840168823242187,2.152387292480469,-7.190839694656488,9.98473282442748,1.5877862595419847,-8.269572534179687,-1.6831237670898436,4.510675927734375,17.221374045801525,-16.625954198473284,-4.778625954198473,0.0
10.5500009059906,-8.578424548339843,1.0773907470703123,2.281674182128906,5.267175572519084,8.885496183206106,2.6259541984732824,-7.706935144042968,-1.2042834350585936,4.908113403320312,17.480916030534353,-15.435114503816793,-8.122137404580153,0.0
10.560000658035278,-8.228871105957031,0.9648632690429687,2.91134921875,15.267175572519085,7.603053435114504,3.1755725190839694,-6.323086584472656,-0.076614453125,4.515464331054687,7.709923664122138,-3.053435114503817,-9.801526717557252,0.0
10.570000886917114,-8.382100012207031,1.5682020874023437,3.4907460205078125,14.534351145038167,2.519083969465649,2.854961832061069,-7.582436657714843,-1.4413093994140624,4.912901806640625,19.49618320610687,-5.511450381679389,-6.748091603053435,0.0
10.580000638961792,-8.949525805664061,2.91134921875,1.8507178833007811,22.061068702290076,-0.32061068702290074,3.6030534351145036,-5.7125651611328125,1.5155296508789062,3.2034418212890623,19.541984732824428,-6.916030534351145,-8.244274809160306,0.0
10.590000629425049,-8.681375219726561,2.583343591308594,0.6536170532226562,15.740458015267176,-1.618320610687023,5.465648854961832,-7.40526573486328,-1.0414777221679687,5.305550878906249,26.244274809160306,-0.5648854961832062,-7.419847328244275,0.0
10.600000858306885,-8.786720092773438,2.020706201171875,0.584185205078125,12.320610687022901,-0.15267175572519084,6.106870229007634,-5.882553479003906,0.39983167724609375,4.374206433105469,24.610687022900763,-4.030534351145038,-11.587786259541986,0.0
10.6100013256073,-8.678981018066406,1.8722656982421875,0.30406361083984373,13.877862595419847,2.3053435114503817,6.641221374045801,-6.706158850097656,-0.612915625,4.551377355957031,5.8320610687022905,10.534351145038167,-11.648854961832061,0.0
10.620000839233398,-8.729259252929687,2.157175695800781,0.6488286499023437,2.900763358778626,4.137404580152672,5.4961832061068705,-6.45476767578125,-0.5099649536132812,5.422866760253906,13.587786259541986,10.045801526717558,-8.320610687022901,0.0
10.630001068115234,-10.158597644042969,3.2154128295898436,1.4125789794921875,-3.984732824427481,4.320610687022901,3.068702290076336,-6.327874987792969,1.024718310546875,4.2497079467773435,8.076335877862595,9.465648854961833,-9.32824427480916,0.0
10.640000820159912,-10.256759912109374,3.0621839233398433,2.5258827514648434,-6.412213740458015,3.5114503816793894,3.4198473282442747,-5.6024318847656245,2.0973206542968748,4.541800549316406,-18.732824427480917,24.900763358778626,-10.061068702290076,0.0
10.650001049041748,-9.117119921875,2.5522189697265625,2.0542250244140625,-11.938931297709924,2.2442748091603053,3.7404580152671754,-6.964732629394531,0.70868369140625,3.708618371582031,-25.633587786259543,35.41984732824427,-5.435114503816794,0.0
10.660771608352661,-9.662997900390625,2.398990063476562,1.8914193115234375,-23.129770992366414,1.0534351145038168,0.015267175572519083,-6.89530078125,0.7350199096679687,3.1794998046874996,-22.244274809160306,33.038167938931295,-2.366412213740458,0.0
10.670000553131104,-8.781931689453124,0.3016694091796875,2.8754361938476563,-12.885496183206106,0.32061068702290074,0.15267175572519084,-6.160280871582031,1.4963760375976562,2.999934680175781,-36.778625954198475,42.76335877862596,-3.9083969465648853,0.0
10.680000305175781,-10.110713610839843,1.7453730102539062,4.455609289550781,-12.625954198473282,1.1603053435114503,-2.9618320610687023,-7.587225061035156,0.08858546142578125,3.6104561035156246,-40.30534351145038,50.274809160305345,-3.3282442748091605,0.0
10.690133810043335,-9.366116894531249,1.0342951171875,4.163516687011718,-7.893129770992366,-3.282442748091603,-3.5572519083969465,-8.32463917236328,-1.1109095703125,4.936843823242187,-34.48854961832061,52.33587786259542,-1.465648854961832,0.0
10.700000762939453,-10.359710583496094,2.8658593872070313,5.463568188476562,-8.778625954198473,-5.7251908396946565,-9.49618320610687,-8.28633194580078,-0.3806780639648437,4.211400720214844,-38.916030534351144,50.38167938931298,-4.442748091603053,0.0
10.71000051498413,-9.945513696289062,2.1930887207031247,6.155492468261718,-21.908396946564885,-15.83206106870229,-12.351145038167939,-8.911218579101561,-1.5394716674804687,5.614402893066406,-37.3587786259542,50.42748091603053,-6.091603053435114,0.0
10.720000982284546,-10.13226142578125,-0.5051765502929687,6.9910688476562495,-13.511450381679388,-27.51145038167939,-13.557251908396946,-8.834604125976561,-2.4133552734375,5.276820458984375,-29.770992366412212,47.48091603053435,-7.755725190839694,0.0
10.730000734329224,-10.441113439941406,-0.8451531860351562,9.878476049804688,10.213740458015268,-34.0763358778626,-19.633587786259543,-7.963114721679687,-1.39821376953125,3.526659045410156,-28.427480916030536,50.67175572519084,-12.900763358778626,0.0
10.74000072479248,-11.087547888183593,1.5059528442382812,11.307814440917968,16.106870229007633,-49.02290076335878,-25.64885496183206,-9.926360083007811,-2.7246014892578123,4.304774584960938,-21.435114503816795,48.80916030534351,-15.282442748091603,0.0
10.750000476837158,-11.757924353027343,2.418143676757812,11.79862578125,12.763358778625955,-69.5114503816794,-29.083969465648856,-12.263100903320312,-3.754108203125,5.0014872680664055,-7.450381679389313,42.06106870229008,-20.35114503816794,0.0
10.760000944137573,-13.646949462890625,2.887407202148437,12.86404552001953,9.86259541984733,-96.76335877862596,-32.458015267175576,-11.575965026855467,-2.365471240234375,3.746925598144531,-1.0076335877862594,36.13740458015267,-29.96946564885496,0.0
10.77000093460083,-14.197615844726561,3.248931652832031,13.259088793945311,3.267175572519084,-124.33587786259542,-35.20610687022901,-12.109871997070313,-1.2713210815429687,6.828263134765624,0.4580152671755725,17.801526717557252,-34.900763358778626,0.0
10.780000686645508,-13.469778540039062,1.9009961181640624,10.89840595703125,-6.030534351145038,-153.75572519083968,-35.05343511450382,-12.090718383789062,-5.111620544433594,12.94065997314453,-34.274809160305345,16.48854961832061,-27.64885496183206,0.0
10.790000677108765,-12.579135522460938,1.7022773803710936,5.5641246582031245,-15.603053435114504,-176.93129770992365,-37.908396946564885,-13.606248034667967,-1.1061211669921875,9.7683427734375,8.717557251908397,0.2748091603053435,-23.14503816793893,0.0
10.8000009059906,-13.989320300292968,3.84987626953125,2.0757728393554684,-28.83969465648855,-192.85496183206106,-38.47328244274809,-13.1776859375,-0.9217676391601562,10.287884533691406,-2.946564885496183,-7.1603053435114505,-25.801526717557252,0.0
10.810000658035278,-13.223175769042967,3.5338416503906247,-0.8475473876953125,-25.46564885496183,-198.94656488549617,-22.85496183206107,-10.012551342773437,-7.036558679199218,1.4413093994140624,-6.259541984732825,-0.6564885496183206,-39.25190839694657,0.0
10.820000648498535,-14.882357519531249,3.718195178222656,-0.6679822631835937,-6.305343511450381,-194.33587786259542,-6.625954198473282,-6.4643444824218745,0.12210428466796874,6.622361791992187,25.129770992366414,-9.465648854961833,-47.55725190839695,0.0
10.830000877380371,-16.517597253417968,4.201823913574218,-0.3950432739257812,8.610687022900763,-192.8854961832061,11.84732824427481,-7.9295958984374995,-0.5195417602539062,4.141968872070312,29.938931297709924,-0.2595419847328244,-39.70992366412214,0.0
10.840000867843628,-17.590199597167967,3.0837317382812497,-0.4261678955078125,24.763358778625953,-189.206106870229,32.717557251908396,-8.365340600585936,1.5610194824218748,1.446097802734375,18.946564885496183,-7.633587786259542,-38.18320610687023,0.0
10.850000858306885,-18.64843673095703,2.2361843505859373,0.6272808349609375,42.25954198473283,-179.75572519083968,47.3587786259542,-8.559270935058594,2.4875755249023435,-3.6104561035156246,-0.549618320610687,-2.3053435114503817,-33.587786259541986,0.0
10.860000848770142,-17.23106934814453,1.7621324218749999,2.398990063476562,51.48091603053435,-171.66412213740458,53.17557251908397,-7.275978845214843,5.080495922851562,-3.821145849609375,-31.87786259541985,24.946564885496183,-22.366412213740457,0.0
10.870001554489136,-16.575058093261717,1.2114660400390624,1.4772224243164063,44.68702290076336,-160.76335877862596,54.58015267175573,-11.319785449218749,1.43652099609375,-0.5027823486328125,-50.97709923664122,49.31297709923664,3.7251908396946565,0.0
10.880000352859497,-14.954183569335937,0.45489831542968745,0.9576806640625,29.938931297709924,-149.40458015267177,55.847328244274806,-10.20169327392578,0.7302315063476562,1.2282254516601563,-56.396946564885496,52.35114503816794,18.99236641221374,0.0
10.890000820159912,-13.812149377441406,-0.5626373901367188,0.8858546142578124,35.63358778625954,-134.01526717557252,59.404580152671755,-10.848127722167968,-0.5913678100585937,0.8164227661132812,-49.465648854961835,64.9618320610687,22.85496183206107,0.0
10.90000057220459,-12.873622326660156,-0.9911994873046874,1.6256629272460936,19.557251908396946,-121.41984732824427,60.900763358778626,-11.616666455078125,-3.1651345947265623,1.4508862060546874,-34.534351145038165,70.4885496183206,24.85496183206107,0.0
10.910000562667847,-9.686939916992188,-3.603273498535156,1.4508862060546874,27.328244274809162,-108.51908396946565,61.38931297709924,-9.639055883789062,-4.019864587402344,0.28490999755859375,-16.0,68.30534351145039,22.50381679389313,0.0
10.920000553131104,-8.889670764160156,-1.8770541015625,2.389413256835937,31.81679389312977,-89.41984732824427,52.213740458015266,-9.04050546875,-3.825934252929687,-1.7094599853515624,-3.7557251908396947,63.14503816793893,19.221374045801525,0.0
10.93000078201294,-9.181763366699219,-0.11252747802734374,2.1212626708984375,16.732824427480917,-81.40458015267176,41.404580152671755,-10.254365710449218,-4.335899206542969,-0.5027823486328125,2.50381679389313,67.48091603053435,20.900763358778626,0.0
10.940000772476196,-5.552153649902343,-3.3686417358398435,-0.7517793212890624,14.687022900763358,-72.97709923664122,36.48854961832061,-10.330980163574218,-3.373430139160156,-0.16759411621093748,12.351145038167939,62.2442748091603,18.82442748091603,0.0
10.950000762939453,-6.423643054199219,-1.1133037719726562,1.6208745239257811,22.198473282442748,-49.70992366412214,21.603053435114504,-10.876858142089842,-3.239354846191406,0.928950244140625,16.458015267175572,62.51908396946565,16.977099236641223,0.0
10.96000075340271,-5.724536169433593,-1.848323681640625,1.20667763671875,12.183206106870228,-41.52671755725191,10.50381679389313,-11.425130322265625,-3.0430303100585934,1.66636435546875,32.412213740458014,57.25190839694657,15.267175572519085,0.0
10.970000743865967,-5.166687182617188,-2.5426421630859375,0.19871873779296872,2.6564885496183206,-36.0763358778626,0.3969465648854962,-10.773907470703124,-1.2473790649414063,1.4772224243164063,32.732824427480914,56.030534351145036,11.419847328244275,0.0
10.980000972747803,-3.7900212280273435,-2.920926025390625,0.229843359375,10.793893129770993,-20.641221374045802,-5.404580152671755,-10.86009873046875,-0.7134720947265625,1.9919757812499999,25.84732824427481,58.19847328244275,12.198473282442748,0.0
10.99000096321106,-4.376600634765625,-1.8291700683593748,-0.2154781494140625,-6.67175572519084,-11.435114503816793,-16.137404580152673,-11.183315954589844,-1.0319009155273438,3.2130186279296873,37.43511450381679,53.465648854961835,13.49618320610687,0.0
11.000000953674316,-4.57771357421875,-2.4684219116210935,-0.8164227661132812,-5.847328244274809,-3.2977099236641223,-23.282442748091604,-9.854534033203125,-0.24181436767578124,2.6791116577148437,29.19083969465649,45.43511450381679,11.267175572519085,0.0
11.010000944137573,-2.6312276245117188,-2.5546131713867184,-1.6424223388671875,4.625954198473282,7.511450381679389,-27.00763358778626,-10.09395419921875,-0.3447650390625,4.386177441406249,28.625954198473284,45.41984732824427,14.610687022900763,0.0
11.02000117301941,-3.0119056884765625,-0.34715924072265625,-1.4867992309570313,-5.633587786259542,20.83969465648855,-33.51145038167939,-8.580818749999999,-1.1755530151367186,3.526659045410156,23.52671755725191,39.63358778625954,15.526717557251908,0.0
11.030000925064087,-3.574543078613281,0.3806780639648437,-1.6615759521484375,-17.633587786259543,28.427480916030536,-38.35114503816794,-7.378929516601562,-0.2920926025390625,3.0166940917968748,14.763358778625955,38.94656488549618,15.206106870229007,0.0
11.040000915527344,-2.0446482177734375,-1.0271125122070313,-3.3303345092773435,-15.633587786259541,40.229007633587784,-37.57251908396947,-8.839392529296875,-1.5753846923828123,4.4005426513671875,20.610687022900763,33.93893129770992,17.068702290076335,0.0
11.0500009059906,-1.8842367065429686,-2.5761609863281247,-3.402160559082031,4.2748091603053435,62.06106870229008,-37.66412213740458,-7.376535314941406,-1.1348515869140625,4.086902233886718,5.32824427480916,30.015267175572518,16.18320610687023,0.0
11.060000658035278,-1.8507178833007811,-1.915361328125,-4.714183068847656,18.641221374045802,78.3969465648855,-39.48091603053435,-8.190563879394531,-2.877830395507812,4.335899206542969,3.114503816793893,30.061068702290076,14.442748091603054,0.0
11.070000886917114,-0.9337386474609375,-3.31357509765625,-3.9456443359374997,28.3206106870229,91.17557251908397,-42.58015267175573,-7.790732202148437,-2.5809493896484375,4.235342736816406,3.2519083969465647,32.33587786259542,12.213740458015268,0.0
11.080000877380371,-0.29927520751953124,-5.391742138671875,-3.440467785644531,38.50381679389313,106.2442748091603,-52.54961832061068,-7.48906279296875,-3.0813375366210938,4.378994836425781,4.305343511450381,30.3206106870229,10.01526717557252,0.0
11.090001106262207,-1.8626888916015625,-3.948038537597656,-0.9169792358398436,52.61068702290076,120.68702290076335,-65.31297709923665,-6.332663391113281,-3.938461730957031,3.6942531616210936,18.458015267175572,24.27480916030534,6.580152671755725,0.0
11.100000858306885,-3.7517140014648436,-1.9416975463867185,0.35194764404296874,73.19083969465649,127.22137404580153,-71.17557251908397,-8.59278975830078,-3.6535517333984373,5.2816088623046875,27.87786259541985,21.709923664122137,11.541984732824428,0.0
11.1100013256073,-5.449202978515625,2.039859814453125,3.5769372802734374,98.25954198473282,135.6030534351145,-64.10687022900764,-5.837063647460937,-1.9201497314453124,3.0166940917968748,24.610687022900763,12.16793893129771,4.595419847328245,0.0
11.12000060081482,-8.949525805664061,6.8976949829101555,7.37414111328125,111.86259541984732,140.15267175572518,-52.74809160305343,-6.945579016113281,-2.099714855957031,4.2329485351562495,16.885496183206108,14.274809160305344,1.984732824427481,0.0
11.130000829696655,-10.766724865722656,8.961496813964843,11.959037292480469,109.92366412213741,130.8854961832061,-32.62595419847328,-6.854599353027344,-2.683900061035156,4.874594580078124,19.83206106870229,16.35114503816794,3.2213740458015265,0.0
11.140000820159912,-15.440206506347655,14.33887374267578,15.322890625,90.47328244274809,109.58778625954199,-8.961832061068701,-8.109161022949218,-3.768473413085937,5.559336254882812,25.81679389312977,19.740458015267176,3.5572519083969465,0.0
11.150001287460327,-13.36203946533203,9.205705383300781,15.770606335449218,66.09160305343511,85.63358778625954,10.580152671755725,-6.823474731445312,-2.8036101440429686,4.742913488769531,28.732824427480917,17.938931297709924,1.2061068702290076,0.0
11.160000801086426,-16.091429357910155,11.609483850097655,17.75539951171875,27.908396946564885,52.595419847328245,16.916030534351144,-5.655104321289063,-1.1228805786132812,2.9496564453125,21.96946564885496,18.671755725190838,0.6564885496183206,0.0
11.170000791549683,-17.559074975585936,12.428300817871094,19.206285717773437,-45.05343511450382,7.022900763358779,15.679389312977099,-6.153098266601562,-2.128445275878906,2.81558115234375,23.587786259541986,14.427480916030534,5.175572519083969,0.0
11.18000078201294,-12.650961572265624,4.206612316894531,15.540762976074218,-62.091603053435115,-33.099236641221374,21.51145038167939,-6.469132885742187,-2.9041666137695312,1.7286135986328124,26.33587786259542,15.786259541984732,8.732824427480915,0.0
11.190000772476196,-12.899958544921875,0.430956298828125,12.435483422851561,-36.19847328244275,-39.7557251908397,28.82442748091603,-5.219359619140625,-2.3415292236328122,-0.02154781494140625,-25.46564885496183,16.16793893129771,18.213740458015266,0.0
11.200000524520874,-8.93755479736328,-3.143586779785156,3.852270471191406,-8.122137404580153,-43.00763358778626,41.770992366412216,-7.192181787109375,-4.637568615722656,0.8930372192382812,32.0763358778626,6.885496183206107,7.251908396946565,0.0
11.21000075340271,-10.649408984374999,-1.4867992309570313,0.6416460449218749,24.793893129770993,-22.427480916030536,43.06870229007634,-10.024522351074218,-4.168305090332031,2.47081611328125,17.31297709923664,-1.2213740458015268,14.900763358778626,0.0
11.220000982284546,-10.726023437499999,0.2346317626953125,-0.7493851196289062,24.732824427480917,-13.877862595419847,32.274809160305345,-12.780248461914061,-3.1483751831054687,4.963180041503906,15.923664122137405,-11.557251908396946,0.1984732824427481,0.0
11.230000495910645,-14.611812731933593,-3.708618371582031,11.959037292480469,17.938931297709924,-24.85496183206107,27.114503816793892,-14.058752148437499,-3.5027170288085934,6.533776330566406,-19.435114503816795,-24.076335877862597,-8.748091603053435,0.0
11.24000096321106,-16.91024632568359,-1.3862427612304686,12.119448803710936,94.35114503816794,-28.53435114503817,44.58015267175573,-18.332402111816407,-7.297526660156249,6.663063220214843,-5.0534351145038165,-8.198473282442748,-12.778625954198473,0.0
11.250000715255737,-13.194445349121093,5.446808776855469,-3.411737365722656,90.54961832061069,-13.221374045801527,42.67175572519084,-20.113688146972656,-4.1563340820312495,5.346252307128906,4.763358778625954,-18.885496183206108,-15.526717557251908,0.0
11.260001420974731,-17.61414161376953,4.829104748535156,-2.1499930908203124,44.01526717557252,-4.656488549618321,32.94656488549618,-21.435287463378906,-3.5122938354492184,4.412513659667969,2.4885496183206106,-44.33587786259542,-14.0,0.0
11.27000093460083,-10.474632263183594,-3.1124621582031247,-7.5153990112304685,19.51145038167939,1.4045801526717556,21.16030534351145,-20.65956612548828,-0.8954314208984374,1.7118541870117185,19.374045801526716,-56.58015267175573,-21.450381679389313,0.0
11.280001163482666,-6.8402341430664055,-7.206546997070312,-4.912901806640625,23.709923664122137,34.70229007633588,-4.916030534351145,-20.082563525390622,-0.8355763793945312,1.1635820068359375,7.068702290076335,-62.48854961832061,-27.251908396946565,0.0
11.290000915527344,-7.015010864257812,-2.5713725830078125,-4.264073156738281,38.656488549618324,53.770992366412216,-34.58015267175573,-18.157625390625,0.2920926025390625,-0.6943184814453125,18.091603053435115,-63.11450381679389,-36.82442748091603,0.0
11.3000009059906,-7.556100439453124,1.6065093139648436,-5.219359619140625,52.6412213740458,67.41984732824427,-37.465648854961835,-17.29571279296875,1.4341267944335936,-0.0430956298828125,7.038167938931298,-61.02290076335878,-42.36641221374046,0.0
11.31005311012268,-9.361328491210937,6.069301208496094,-1.3215993164062498,53.80152671755725,84.04580152671755,-30.442748091603054,-15.87834541015625,1.9871873779296874,-0.9409212524414062,5.1603053435114505,-60.412213740458014,-41.66412213740458,0.0
11.320000886917114,-10.448296044921875,7.376535314941406,-0.22266075439453123,28.12213740458015,88.0,-26.702290076335878,-17.76737052001953,-0.8259995727539062,-2.3439234252929686,8.961832061068701,-65.80152671755725,-30.732824427480917,0.0
11.330000877380371,-10.484209069824217,5.003881469726562,-1.2761094848632812,5.8320610687022905,86.06106870229007,-26.27480916030534,-14.161702819824217,4.537012145996093,-1.8124106567382812,38.717557251908396,-60.534351145038165,-31.770992366412212,0.0
11.340000867843628,-10.206481677246094,4.568136767578125,-2.3415292236328122,-16.47328244274809,78.50381679389314,-22.580152671755727,-13.5224509765625,4.086902233886718,0.16280571289062498,-6.732824427480916,-64.74809160305344,-24.80916030534351,0.0
11.350000858306885,-9.627084875488281,4.862623571777344,-1.5849614990234373,-24.748091603053435,81.72519083969466,-20.9618320610687,-11.322179650878905,3.9600095458984375,-0.45968671875,16.83969465648855,-55.19083969465649,-15.114503816793894,0.0
11.360000371932983,-10.175357055664062,5.389347937011719,-1.2210428466796874,-32.06106870229008,79.87786259541984,-20.396946564885496,-10.31661495361328,4.560954162597656,-1.4006079711914061,7.755725190839694,-54.80916030534351,-12.335877862595419,0.0
11.370000839233398,-8.678981018066406,2.157175695800781,-1.3096283081054687,-32.80916030534351,77.93893129770993,-12.274809160305344,-9.241618408203124,2.9855694702148434,1.0845733520507812,-17.755725190839694,-52.030534351145036,-2.4885496183206106,0.0
11.380000829696655,-8.391676818847655,-0.4836287353515625,-1.5849614990234373,-11.725190839694656,88.45801526717557,-7.068702290076335,-9.701305126953125,0.028730419921875,2.2457611572265623,10.106870229007633,-46.74809160305343,6.763358778625954,0.0
11.390001058578491,-9.787496386718749,0.3016694091796875,-0.5195417602539062,4.106870229007634,97.20610687022901,-9.618320610687023,-8.532934716796875,1.9943699829101562,1.6424223388671875,39.31297709923664,-45.69465648854962,3.404580152671756,0.0
11.400000810623169,-9.866505041503906,0.4165910888671875,0.2154781494140625,10.50381679389313,99.32824427480917,-9.526717557251908,-7.654262707519531,1.3934253662109375,2.549824768066406,21.083969465648856,-49.969465648854964,3.6030534351145036,0.0
11.410000801086426,-9.995791931152343,1.2737152832031249,1.608903515625,3.480916030534351,98.44274809160305,-10.473282442748092,-7.970297326660156,-0.3447650390625,2.3247698120117186,27.96946564885496,-53.3587786259542,6.030534351145038,0.0
11.420000791549683,-10.299855541992187,1.5227122558593749,2.6312276245117188,-9.526717557251908,90.61068702290076,-16.15267175572519,-6.574477758789062,1.2856862915039062,1.678335363769531,19.51145038167939,-61.69465648854962,3.5572519083969465,0.0
11.43000054359436,-9.823409411621093,-0.42377369384765623,3.8283284545898435,-13.145038167938932,86.07633587786259,-17.6793893129771,-6.976703637695312,1.0773907470703123,2.0063409912109376,13.572519083969466,-64.25954198473282,8.274809160305344,0.0
11.440000534057617,-9.782707983398437,0.9074024291992187,4.417302062988281,-22.198473282442748,81.40458015267176,-23.923664122137403,-7.548917834472656,0.38786066894531246,2.3295582153320313,-1.251908396946565,-69.3587786259542,11.404580152671755,0.0
11.450000524520874,-9.679757312011718,1.5897499023437498,4.565742565917969,-39.221374045801525,71.22137404580153,-27.52671755725191,-7.905653881835937,0.49320554199218747,2.032677209472656,4.595419847328245,-71.12977099236642,15.572519083969466,0.0
11.46000075340271,-10.793061083984375,3.77326181640625,4.412513659667969,-50.595419847328245,64.45801526717557,-30.702290076335878,-6.907271789550781,0.6679822631835937,2.4899697265625,-20.30534351145038,-74.68702290076335,18.977099236641223,0.0
11.470000743865967,-8.099584216308592,0.9265560424804687,2.4756045166015626,-54.44274809160305,56.900763358778626,-25.435114503816795,-7.730877160644531,0.967257470703125,1.9201497314453124,-16.259541984732824,-76.51908396946565,20.900763358778626,0.0
11.480001211166382,-9.023746057128905,1.70467158203125,2.683900061035156,-48.42748091603053,52.76335877862596,-22.33587786259542,-9.303867651367186,-1.6831237670898436,3.0597897216796874,-36.94656488549618,-80.0,24.870229007633586,0.0
11.49000072479248,-8.992621435546875,2.2002713256835937,2.8562825805664063,-44.56488549618321,50.97709923664122,-18.244274809160306,-7.850587243652344,-0.699106884765625,2.5905261962890624,-23.984732824427482,-79.74045801526718,21.236641221374047,0.0
11.500000953674316,-9.797073193359374,3.5051112304687497,2.583343591308594,-45.61832061068702,48.30534351145038,-14.763358778625955,-7.999027746582031,-1.7525556152343749,2.437297290039062,-17.709923664122137,-82.8854961832061,19.557251908396946,0.0
11.510000944137573,-9.770736975097655,4.283226770019531,2.3343466186523436,-45.83206106870229,47.86259541984733,-10.13740458015267,-7.68059892578125,-2.272097375488281,1.5466542724609373,-19.83206106870229,-82.27480916030534,17.099236641221374,0.0
11.52000117301941,-8.894459167480468,3.5122938354492184,1.8650830932617186,-54.412213740458014,45.66412213740458,-5.419847328244275,-6.490680700683593,-0.5746083984375,2.9975404785156248,-19.14503816793893,-78.7175572519084,19.31297709923664,0.0
11.530000925064087,-10.122684619140625,4.225765930175781,3.488351818847656,-65.92366412213741,42.70229007633588,-4.259541984732825,-6.766013891601562,-1.2473790649414063,2.4444798950195312,-2.854961832061069,-73.43511450381679,14.625954198473282,0.0
11.540000915527344,-9.928754284667969,3.1579519897460937,3.670311145019531,-67.14503816793894,39.48091603053435,-2.9618320610687023,-6.746860278320312,-0.011971008300781249,2.7533319091796873,-23.389312977099237,-66.58015267175573,18.732824427480917,0.0
11.5500009059906,-9.100360510253905,2.288856787109375,3.4069489624023435,-67.72519083969466,36.38167938931298,-1.0076335877862594,-6.892906579589844,-2.0302830078125,2.5474305664062498,-20.396946564885496,-55.52671755725191,20.48854961832061,0.0
11.560000896453857,-11.015721838378905,4.651933825683593,4.067748620605468,-73.96946564885496,32.68702290076336,-3.7557251908396947,-6.641515405273437,-0.3327940307617187,2.2553379638671873,-25.0381679389313,-41.343511450381676,17.862595419847327,0.0
11.570000886917114,-8.851363537597656,3.181894006347656,3.1938650146484373,-93.69465648854961,20.18320610687023,-0.6106870229007634,-8.039729174804688,-2.0446482177734375,2.8706477905273435,-22.396946564885496,-33.93893129770992,17.786259541984734,0.0
11.580000877380371,-10.204087475585936,2.7964275390625,3.1747114013671873,-92.74809160305344,15.954198473282442,0.07633587786259542,-8.870517150878905,-3.2441432495117186,4.108450048828125,-15.312977099236642,-30.931297709923665,20.625954198473284,0.0
11.590000629425049,-7.3669585083007805,0.7398083129882812,2.0159177978515626,-76.47328244274809,8.610687022900763,4.961832061068702,-9.038111267089842,-2.3247698120117186,4.893748193359374,-6.870229007633588,-28.671755725190838,20.18320610687023,0.0
11.600000858306885,-7.3286512817382805,-0.15562310791015624,1.946485949707031,-54.0,13.86259541984733,4.427480916030534,-6.222530114746093,-0.6536170532226562,4.271255761718749,-6.2748091603053435,-15.007633587786259,10.290076335877863,0.0
11.61000108718872,-7.105990527343749,-0.031124621582031248,1.4915876342773438,-50.79389312977099,8.458015267175572,4.351145038167939,-6.244077929687499,-0.4740519287109375,3.526659045410156,-10.916030534351146,-1.9541984732824427,7.847328244274809,0.0
11.620000839233398,-8.987833032226561,3.0621839233398433,2.042254016113281,-38.030534351145036,11.34351145038168,3.2213740458015265,-7.067683300781249,-2.099714855957031,3.725377783203125,11.770992366412214,5.755725190839694,6.870229007633588,0.0
11.630001068115234,-7.625532287597656,0.7972691528320313,0.9241618408203125,-27.52671755725191,9.908396946564885,5.9541984732824424,-7.754819177246094,-2.262520568847656,4.3622354248046875,11.98473282442748,2.0,10.335877862595419,0.0
11.640000820159912,-8.647856396484375,0.354341845703125,1.388636962890625,-12.16793893129771,12.13740458015267,5.526717557251908,-7.431601953125,-1.8650830932617186,4.094084838867187,16.53435114503817,4.763358778625954,6.106870229007634,0.0
11.650001049041748,-8.71489404296875,1.0127473022460938,1.3048399047851562,-4.5038167938931295,11.603053435114504,3.0076335877862594,-7.671022119140624,-2.655169641113281,4.714183068847656,25.450381679389313,9.84732824427481,1.2213740458015268,0.0
11.660001039505005,-10.034099157714843,2.8610709838867185,0.3950432739257812,-8.992366412213741,8.106870229007633,1.6946564885496183,-6.37815322265625,-0.2705447875976562,4.797980126953124,29.755725190839694,11.129770992366412,-2.6412213740458017,0.0
11.670001029968262,-10.637437976074217,2.77727392578125,0.011971008300781249,-8.641221374045802,8.610687022900763,1.8015267175572518,-6.426037255859375,0.5434837768554687,6.1267620483398435,3.145038167938931,23.66412213740458,-3.49618320610687,0.0
11.68000054359436,-10.486603271484375,2.7581203125,0.9624690673828125,-12.15267175572519,7.1603053435114505,1.816793893129771,-5.425260961914062,1.2641384765625,5.090072729492187,26.229007633587788,27.297709923664122,-3.0229007633587788,0.0
11.690000772476196,-9.370905297851563,1.4149731811523436,-0.2657563842773437,-6.854961832061068,2.4122137404580153,3.404580152671756,-5.389347937011719,1.4867992309570313,4.6351744140625,2.045801526717557,35.725190839694655,-2.366412213740458,0.0
11.700000762939453,-8.741230261230468,1.0223241088867188,-0.040701428222656245,4.030534351145038,7.877862595419847,3.6946564885496183,-5.374982727050781,2.612074011230469,3.6846763549804686,-2.213740458015267,43.48091603053435,-2.0,0.0
11.71000075340271,-8.434772448730468,0.9816226806640624,-0.143652099609375,7.297709923664122,9.541984732824428,2.854961832061069,-6.4284314575195305,0.9911994873046874,5.03740029296875,-24.229007633587788,59.267175572519086,0.8244274809160306,0.0
11.720000982284546,-9.282319836425781,1.6041151123046875,0.7062894897460937,5.740458015267175,11.17557251908397,-0.0,-6.806715319824218,0.8882488159179687,4.821922143554687,-1.297709923664122,57.16030534351145,5.068702290076335,0.0
11.730000734329224,-8.817844714355468,1.5658078857421873,0.22266075439453123,3.2213740458015265,9.404580152671755,1.3282442748091603,-6.964732629394531,0.4333505004882812,4.46279189453125,-24.259541984732824,65.25190839694656,4.106870229007634,0.0
11.74000096321106,-9.730035546875,2.085349645996094,0.8954314208984374,-5.358778625954199,8.091603053435115,0.6106870229007634,-8.087613208007811,-1.005564697265625,4.687846850585937,-13.450381679389313,60.42748091603053,8.076335877862595,0.0
11.750000476837158,-9.433154541015625,0.5386953735351562,1.8171990600585937,1.0534351145038168,7.0534351145038165,-2.519083969465649,-7.752424975585937,-1.0175357055664063,4.994304663085937,-12.946564885496183,63.7557251908397,5.00763358778626,0.0
11.760001182556152,-9.847351428222655,0.2657563842773437,3.1387983764648437,1.8778625954198473,2.900763358778626,-4.3816793893129775,-7.539341027832031,-1.458068811035156,4.560954162597656,-3.633587786259542,57.70992366412214,5.984732824427481,0.0
11.77000117301941,-9.670180505371093,0.17956512451171874,3.4955344238281247,21.49618320610687,-0.6870229007633588,-7.297709923664122,-7.544129431152343,-0.8810662109374999,2.8012159423828122,-4.778625954198473,59.221374045801525,3.0076335877862594,0.0
11.780000925064087,-8.702923034667968,0.2561795776367187,2.8658593872070313,27.053435114503817,-3.2519083969465647,-7.8320610687022905,-8.559270935058594,-2.7054478759765623,5.310339282226562,1.3435114503816794,58.458015267175576,2.0,0.0
11.790000915527344,-9.411606726074218,0.201112939453125,3.9935283691406247,25.786259541984734,-6.091603053435114,-13.251908396946565,-8.262389929199218,-3.6439749267578123,4.187458703613281,23.0381679389313,44.412213740458014,1.1603053435114503,0.0
11.8000009059906,-10.864887133789061,1.946485949707031,6.500257507324219,25.49618320610687,-11.770992366412214,-20.38167938931298,-7.903259680175781,-1.678335363769531,3.835511059570312,28.83969465648855,41.02290076335878,6.351145038167939,0.0
11.810000896453857,-10.024522351074218,2.0638018310546875,7.117961535644531,21.389312977099237,-27.267175572519083,-19.96946564885496,-6.892906579589844,-0.7757213378906249,2.5546131713867184,28.259541984732824,37.23664122137404,-5.374045801526718,0.0
11.820000648498535,-10.74517705078125,1.5155296508789062,9.90241806640625,26.366412213740457,-40.213740458015266,-21.068702290076335,-8.425195642089843,-0.8283937744140625,4.151545678710937,27.328244274809162,30.53435114503817,-8.687022900763358,0.0
11.830000638961792,-12.564770312499999,3.4739866088867184,12.873622326660156,32.152671755725194,-57.847328244274806,-24.198473282442748,-9.935936889648437,-1.0917559570312498,6.6343328002929685,21.053435114503817,27.236641221374047,-13.938931297709924,0.0
11.840000867843628,-13.87918702392578,5.248090039062499,15.212757348632811,19.603053435114504,-89.74045801526718,-28.244274809160306,-11.834538806152343,-2.1787235107421874,9.562441430664062,1.0381679389312977,23.755725190839694,-23.954198473282442,0.0
11.850001096725464,-13.951013073730469,4.498704919433593,16.29254229736328,12.992366412213741,-128.67175572519085,-25.923664122137403,-11.968614099121092,-2.43250888671875,6.947973217773437,-12.106870229007633,13.236641221374045,-38.50381679389313,0.0
11.860000848770142,-15.636531042480469,5.736507177734374,15.581464404296874,-1.8931297709923665,-165.08396946564886,-28.18320610687023,-11.575965026855467,0.086191259765625,7.829039428710937,-27.251908396946565,1.9083969465648856,-50.58015267175573,0.0
11.870001316070557,-16.11297717285156,5.664681127929687,13.517662573242188,-36.961832061068705,-211.5267175572519,-32.396946564885496,-12.322955944824217,0.0909796630859375,9.682151513671874,-42.61068702290076,0.916030534351145,-53.465648854961835,0.0
11.880000829696655,-13.510479968261718,2.7054478759765623,7.9295958984374995,-64.30534351145039,-245.95419847328245,-35.725190839694655,-11.949460485839843,-1.0606313354492187,7.378929516601562,-32.091603053435115,-14.961832061068701,-47.66412213740458,0.0
11.890000820159912,-13.857639208984374,-0.04548983154296875,3.919308117675781,-76.47328244274809,-265.7557251908397,-41.786259541984734,-8.52335791015625,0.3136404174804687,4.987122058105468,-28.641221374045802,-28.885496183206108,-46.778625954198475,0.0
11.900000810623169,-13.91749425048828,0.9840168823242187,1.2282254516601563,-87.46564885496183,-276.2442748091603,-39.099236641221374,-5.729324572753906,1.7405846069335937,2.0661960327148434,-27.022900763358777,-27.603053435114504,-44.274809160305345,0.0
11.910000801086426,-13.158532324218749,-2.5450363647460934,-1.0486603271484374,-64.44274809160305,-273.09923664122135,-23.083969465648856,-5.403713146972656,1.37906015625,1.1061211669921875,-42.06106870229008,-26.045801526717558,-33.43511450381679,0.0
11.920000791549683,-12.105083593749999,-7.898471276855468,-1.5538368774414062,8.274809160305344,-255.1908396946565,-0.4580152671755725,-3.81156904296875,3.380612744140625,-0.8714894042968749,-35.02290076335878,-27.52671755725191,-29.221374045801525,0.0
11.930001020431519,-14.30774912109375,-4.771643908691406,-1.177947216796875,60.47328244274809,-227.3587786259542,8.13740458015267,-3.699041564941406,4.910507604980468,0.3495534423828125,-55.87786259541985,-30.641221374045802,-19.34351145038168,0.0
11.940000772476196,-14.166491223144531,-0.6631938598632812,-1.7238251953125,54.80916030534351,-213.87786259541986,5.938931297709924,-7.151480358886718,-2.085349645996094,-0.4572925170898437,-93.26717557251908,-26.85496183206107,-14.381679389312977,0.0
11.950000762939453,-15.229516760253905,2.0877438476562498,-1.0462661254882812,47.083969465648856,-194.41221374045801,2.0610687022900764,-10.453084448242187,-7.180210778808593,0.5698199951171875,-79.86259541984732,-12.51908396946565,-31.374045801526716,0.0
11.960001230239868,-16.101006164550782,5.968744738769531,-0.4836287353515625,26.03053435114504,-172.1679389312977,-7.847328244274809,-15.330073229980467,-5.57370146484375,3.6535517333984373,-58.38167938931298,4.152671755725191,-21.31297709923664,0.0
11.970000743865967,-16.2039568359375,5.542576843261719,0.6272808349609375,21.0381679389313,-153.55725190839695,-7.145038167938932,-16.278177087402344,-2.9281086303710935,4.467580297851562,-48.25954198473283,0.9007633587786259,-24.65648854961832,0.0
11.980000972747803,-12.593500732421875,2.346317626953125,0.4333505004882812,26.27480916030534,-133.8320610687023,5.129770992366412,-13.596671228027343,-0.33039982910156246,3.306392492675781,-46.12213740458015,5.877862595419847,-15.435114503816793,0.0
11.99000072479248,-11.59990704345703,2.6384102294921874,1.2042834350585936,27.46564885496183,-107.19083969465649,14.15267175572519,-9.993397729492187,-0.19393033447265623,0.11013327636718749,-49.05343511450382,9.48091603053435,-5.374045801526718,0.0
12.000000715255737,-11.097124694824219,3.706224169921875,1.2665326782226562,7.236641221374046,-95.12977099236642,23.206106870229007,-8.279149340820313,-1.7669208251953124,-0.10773907470703124,-53.541984732824424,14.564885496183207,5.572519083969466,0.0
12.010000944137573,-11.046846459960937,4.843469958496094,2.3535002319335936,-25.633587786259543,-87.6793893129771,29.00763358778626,-8.441955053710936,-1.714248388671875,0.4955997436523437,-36.213740458015266,13.740458015267176,16.076335877862597,0.0
12.02000093460083,-10.402806213378906,3.8690298828125,2.3582886352539063,-55.770992366412216,-85.37404580152672,36.534351145038165,-6.737283471679687,-0.28730419921875,-0.25139117431640623,-37.66412213740458,22.412213740458014,25.0381679389313,0.0
12.030000686645508,-7.6231380859375,0.8188169677734375,2.5641899780273434,-63.37404580152672,-79.32824427480917,42.213740458015266,-7.7763669921875,-1.1947066284179686,-1.936909143066406,-34.213740458015266,30.076335877862597,33.41984732824427,0.0
12.040000438690186,-6.940790612792968,-0.25139117431640623,1.6328455322265625,-62.229007633587784,-69.16030534351145,38.74809160305343,-10.050858569335936,-1.9297265380859374,-2.6958710693359373,-27.96946564885496,39.48091603053435,33.93893129770992,0.0
12.050000667572021,-7.000645654296875,-0.9528922607421875,1.1947066284179686,-58.54961832061068,-60.900763358778626,31.053435114503817,-11.877634436035155,-4.2688615600585935,-1.1611878051757811,-25.022900763358777,53.83206106870229,31.69465648854962,0.0
12.0600004196167,-4.053383410644531,-5.925649108886718,0.38786066894531246,-39.63358778625954,-48.16793893129771,28.076335877862597,-15.286977600097655,-7.7596075805664055,1.209071838378906,-12.229007633587786,59.725190839694655,27.51145038167939,0.0
12.070001363754272,-3.7924154296875,-5.365405920410156,-0.4333505004882812,-2.0610687022900764,-22.412213740458014,16.671755725190838,-15.028403820800781,-6.744466076660156,1.216254443359375,14.274809160305344,60.10687022900763,18.47328244274809,0.0
12.080000638961792,-4.687846850585937,-3.35188232421875,-0.9552864624023437,3.2061068702290076,-11.49618320610687,3.786259541984733,-13.364433666992186,-6.093243225097656,2.6982652709960937,32.99236641221374,61.00763358778626,14.977099236641221,0.0
12.090001106262207,-4.453215087890625,-3.6487633300781246,-1.7908628417968748,11.908396946564885,6.412213740458015,-2.885496183206107,-11.915941662597655,-5.8083332275390624,1.886630908203125,53.43511450381679,52.88549618320611,14.992366412213741,0.0
12.100000858306885,-6.5577183471679685,-0.55545478515625,-1.4101847778320311,-2.931297709923664,13.282442748091603,-11.007633587786259,-10.881646545410156,-2.461239306640625,2.91134921875,68.73282442748092,48.229007633587784,10.381679389312977,0.0
12.1100013256073,-5.370194323730469,-0.6967126831054687,-1.6448165405273436,-0.061068702290076333,25.389312977099237,-8.15267175572519,-8.307879760742187,0.7493851196289062,1.5155296508789062,48.2442748091603,49.83206106870229,7.3893129770992365,0.0
12.120000839233398,-4.177881896972656,-0.39983167724609375,-1.2282254516601563,-0.48854961832061067,38.778625954198475,-4.33587786259542,-7.931990100097655,1.484405029296875,2.616862414550781,37.98473282442748,53.45038167938932,12.213740458015268,0.0
12.130001306533813,-3.5913024902343746,-1.0893617553710937,-1.7310078002929687,15.893129770992367,57.37404580152672,-0.0916030534351145,-7.151480358886718,0.6560112548828124,1.8650830932617186,28.27480916030534,51.12977099236641,18.03053435114504,0.0
12.140001058578491,-4.019864587402344,0.12689268798828124,-1.7836802368164062,24.595419847328245,73.55725190839695,-0.6564885496183206,-8.319850769042969,0.040701428222656245,3.8666356811523435,34.3206106870229,50.30534351145038,20.82442748091603,0.0
12.150001049041748,-1.2904746948242187,-3.670311145019531,-3.6008792968749996,38.47328244274809,85.72519083969466,2.2442748091603053,-9.873687646484374,-1.7477672119140624,5.865794067382812,46.961832061068705,49.3587786259542,22.47328244274809,0.0
12.160000562667847,-1.2808978881835937,-4.8698061767578125,-2.7246014892578123,70.8854961832061,113.00763358778626,-1.3740458015267176,-8.233659509277343,-3.2417490478515623,5.291185668945312,33.31297709923664,41.93893129770992,21.61832061068702,0.0
12.170000791549683,-2.0302830078125,-4.292803576660156,-2.7820623291015623,74.18320610687023,123.69465648854961,-16.610687022900763,-8.580818749999999,-3.670311145019531,5.351040710449219,38.85496183206107,39.404580152671755,16.229007633587788,0.0
12.18000078201294,-4.055777612304687,-3.81156904296875,0.46208092041015625,75.96946564885496,139.29770992366412,-29.068702290076335,-7.656656909179687,-3.3255461059570313,5.176263989257812,39.541984732824424,38.274809160305345,18.229007633587788,0.0
12.190000772476196,-4.752490295410156,-2.114080065917969,2.2553379638671873,76.29007633587786,145.29770992366412,-39.89312977099237,-7.81467421875,-3.859453076171875,6.1459156616210935,42.51908396946565,32.19847328244275,16.442748091603054,0.0
12.200000762939453,-6.438008264160156,-0.04548983154296875,4.218583325195312,78.3969465648855,147.08396946564886,-42.82442748091603,-6.823474731445312,-2.70065947265625,5.087678527832031,40.94656488549618,27.541984732824428,13.312977099236642,0.0
12.21000051498413,-7.433996154785156,3.3686417358398435,5.6191912963867185,88.82442748091603,144.53435114503816,-33.954198473282446,-5.45877978515625,-1.158793603515625,3.6152445068359373,33.48091603053435,29.541984732824428,9.908396946564885,0.0
12.220000505447388,-7.481880187988281,6.572083557128906,6.56968935546875,95.52671755725191,138.67175572519085,-19.938931297709924,-5.317521887207031,-0.3854664672851562,2.5737667846679684,25.541984732824428,39.29770992366412,10.763358778625955,0.0
12.230000495910645,-6.864176159667968,7.501033801269531,9.354145886230468,87.17557251908397,133.54198473282443,-8.229007633587786,-6.212953308105468,-1.2856862915039062,3.1555577880859373,20.671755725190838,35.49618320610687,12.67175572519084,0.0
12.24000072479248,-8.039729174804688,7.37414111328125,11.65736788330078,60.534351145038165,118.18320610687023,-5.862595419847328,-4.489128112792969,-2.0542250244140625,2.834734765625,27.053435114503817,25.328244274809162,13.557251908396946,0.0
12.250000476837158,-9.325415466308593,4.876988781738281,11.252747802734374,25.328244274809162,91.1145038167939,-2.213740458015267,-7.498639599609374,-3.8043864379882812,4.441244079589843,26.82442748091603,31.893129770992367,6.33587786259542,0.0
12.260000944137573,-9.425971936035156,4.129997863769531,12.205640063476562,15.206106870229007,77.3587786259542,3.404580152671756,-7.613561279296874,-3.0885201416015624,3.4739866088867184,33.7557251908397,35.87786259541985,4.977099236641221,0.0
12.270000696182251,-11.365275280761718,6.054935998535156,12.378022583007812,-18.35114503816794,53.038167938931295,4.061068702290076,-7.223306408691406,-1.1156979736328125,2.3870190551757813,24.977099236641223,43.98473282442748,1.5877862595419847,0.0
12.280000686645508,-11.283872424316405,5.224148022460938,11.456254943847656,-45.11450381679389,31.786259541984734,10.870229007633588,-8.343792785644531,-1.235408056640625,3.766079211425781,17.14503816793893,40.3206106870229,7.9541984732824424,0.0
12.290000677108765,-10.187328063964843,2.4349030883789062,10.251971508789062,-41.725190839694655,16.396946564885496,18.442748091603054,-7.4220251464843745,-0.6368576416015624,2.6288334228515624,13.603053435114504,43.51145038167939,13.282442748091603,0.0
12.300000667572021,-10.55364091796875,1.8195932617187498,9.351751684570312,-30.0,6.244274809160306,26.106870229007633,-7.240065820312499,-0.6679822631835937,1.5466542724609373,2.198473282442748,64.13740458015268,20.106870229007633,0.0
12.310000658035278,-8.169016064453125,-0.1005564697265625,6.854599353027344,-2.2595419847328246,6.33587786259542,35.603053435114504,-7.551312036132812,-5.0206408813476555,-1.675941162109375,-28.763358778625953,62.717557251908396,23.862595419847327,0.0
12.320000648498535,-10.342951171874999,-0.97683427734375,6.725312463378906,29.786259541984734,13.48091603053435,37.29770992366412,-6.766013891601562,-4.005499377441406,-0.3758896606445312,4.458015267175573,49.099236641221374,27.984732824427482,0.0
12.330000638961792,-12.648567370605468,-0.7637503295898437,9.840168823242188,62.458015267175576,12.305343511450381,43.52671755725191,-8.410830432128906,-4.347870214843749,0.47644613037109373,9.312977099236642,61.954198473282446,23.755725190839694,0.0
12.340000867843628,-15.35401524658203,-2.1164742675781247,14.671667773437498,102.51908396946565,5.114503816793893,52.56488549618321,-10.218452685546874,-6.306327172851562,1.0941501586914062,6.33587786259542,60.99236641221374,18.885496183206108,0.0
12.350000858306885,-13.096283081054686,-3.4955344238281247,13.864821813964843,136.76335877862596,-11.282442748091603,48.47328244274809,-12.006921325683592,-6.287173559570312,2.446874096679687,5.8320610687022905,59.86259541984733,7.511450381679389,0.0
12.360000848770142,-13.306972827148437,0.040701428222656245,9.313444458007812,121.06870229007633,-22.15267175572519,26.33587786259542,-15.246276171875,-7.42441934814453,4.548983154296875,21.099236641221374,54.091603053435115,-1.4198473282442747,0.0
12.370000839233398,-13.249511987304686,-0.584185205078125,2.9664158569335934,70.07633587786259,-37.55725190839695,3.099236641221374,-17.266982373046876,-5.626373901367187,9.643844287109374,64.01526717557252,31.755725190839694,-9.633587786259541,0.0
12.380000829696655,-20.21903302001953,0.8595183959960937,9.543287817382812,94.56488549618321,-51.12977099236641,16.16793893129771,-15.610194824218748,-4.3071687866210935,14.19282744140625,6.259541984732825,12.442748091603054,-11.648854961832061,0.0
12.390001058578491,-14.60702432861328,1.1444283935546875,-1.7381904052734374,109.98473282442748,-44.51908396946565,39.29770992366412,-18.064251525878905,-3.153163586425781,7.196970190429687,55.3587786259542,3.648854961832061,-3.969465648854962,0.0
12.400000810623169,-13.160926525878905,5.635950708007812,-7.637503295898437,74.91603053435115,-27.46564885496183,29.862595419847327,-17.49921993408203,-0.565031591796875,6.291961962890625,57.83206106870229,-20.48854961832061,-16.18320610687023,0.0
12.410000801086426,-13.038822241210937,1.1947066284179686,-5.185840795898438,50.396946564885496,-9.84732824427481,15.633587786259541,-19.103335046386718,0.5386953735351562,4.680664245605469,52.030534351145036,-33.93893129770992,-14.67175572519084,0.0
12.420000553131104,-10.66856259765625,-0.948103857421875,-5.195417602539062,26.38167938931298,7.343511450381679,-6.320610687022901,-19.409792858886718,3.3399113159179685,2.5665841796874997,39.7557251908397,-49.55725190839695,-15.389312977099237,0.0
12.43000078201294,-7.764395983886718,0.12210428466796874,-4.328716601562499,8.473282442748092,22.442748091603054,-25.862595419847327,-18.59097589111328,4.666299035644531,1.6735469604492186,22.396946564885496,-54.29007633587786,-12.80916030534351,0.0
12.440000772476196,-6.289567761230469,1.3670891479492187,-5.176263989257812,2.0916030534351147,36.56488549618321,-34.6412213740458,-18.753781604003905,3.105279553222656,0.40940848388671874,5.984732824427481,-61.06870229007634,-6.748091603053435,0.0
12.450000762939453,-5.410895751953125,1.350329736328125,-4.3071687866210935,19.6793893129771,57.38931297709924,-34.12213740458015,-17.60695900878906,2.7437551025390623,0.6248866333007812,-5.679389312977099,-69.14503816793894,-10.274809160305344,0.0
12.46000075340271,-6.663063220214843,2.6623522460937497,-3.1675287963867187,31.709923664122137,76.33587786259542,-31.435114503816795,-14.317325927734375,4.69263525390625,-2.0542250244140625,-12.030534351145038,-72.53435114503817,-14.854961832061068,0.0
12.470000743865967,-7.410054138183593,5.063736511230468,-2.674323254394531,27.19083969465649,89.2824427480916,-26.198473282442748,-14.662090966796875,3.7397429931640622,-1.3766659545898436,-18.564885496183205,-73.52671755725191,-1.8625954198473282,0.0
12.480000972747803,-8.027758166503906,5.5545478515625,-2.138022082519531,16.38167938931298,96.99236641221374,-24.732824427480917,-13.543998791503906,3.564966271972656,-1.2306196533203124,-2.33587786259542,-71.06870229007633,2.5343511450381677,0.0
12.49000072479248,-10.618284362792968,7.077260107421875,-1.446097802734375,-1.083969465648855,96.80916030534351,-26.85496183206107,-12.849680310058593,3.7995980346679685,-1.1851298217773436,-14.076335877862595,-70.56488549618321,6.595419847328245,0.0
12.500000953674316,-11.389217297363281,6.880935571289062,-1.0965443603515623,-29.31297709923664,93.58778625954199,-24.580152671755727,-12.08592998046875,3.2632968627929686,0.13407529296874998,-19.51145038167939,-72.09160305343511,7.786259541984733,0.0
12.510000944137573,-11.750741748046874,8.190563879394531,0.36152445068359373,-57.87786259541985,86.1526717557252,-26.3206106870229,-11.221623181152344,3.687070556640625,0.10295067138671875,-28.83969465648855,-67.66412213740458,9.404580152671755,0.0
12.52000117301941,-10.618284362792968,5.293579870605469,-0.028730419921875,-91.95419847328245,72.77862595419847,-22.625954198473284,-10.364498986816406,2.664746447753906,-0.12449848632812499,-24.12213740458015,-64.90076335877863,18.244274809160306,0.0
12.530000686645508,-11.79862578125,3.2441432495117186,0.4165910888671875,-101.3587786259542,70.67175572519083,-22.30534351145038,-9.028534460449219,1.9536685546875,-0.9433154541015625,-11.450381679389313,-63.7557251908397,22.076335877862597,0.0
12.540000915527344,-9.2320416015625,-1.6017209106445311,-0.6009446166992187,-88.91603053435115,67.41984732824427,-16.458015267175572,-7.805097412109374,2.1811177124023438,-0.21308394775390624,-21.19083969465649,-61.89312977099237,22.213740458015266,0.0
12.5500009059906,-10.029310754394531,-1.9967641845703124,0.8714894042968749,-57.267175572519086,76.93129770992367,-14.549618320610687,-6.988674645996094,1.7764976318359373,0.03591302490234375,-2.6717557251908395,-56.36641221374046,22.061068702290076,0.0
12.560000896453857,-10.608707556152343,-1.1707646118164061,2.645592834472656,-34.961832061068705,80.94656488549619,-15.511450381679388,-6.648698010253906,0.04548983154296875,0.2753331909179687,-13.022900763358779,-58.13740458015267,21.923664122137403,0.0
12.570000648498535,-10.766724865722656,-0.45968671875,3.380612744140625,-20.65648854961832,82.03053435114504,-16.0,-7.314286071777343,-0.612915625,-0.06703764648437499,-4.748091603053435,-59.847328244274806,22.427480916030536,0.0
12.580000877380371,-10.005368737792969,-0.1292868896484375,2.2577321655273437,-20.9618320610687,72.42748091603053,-17.923664122137403,-7.541735229492187,-0.5147533569335937,0.8978256225585937,-3.9083969465648853,-57.541984732824424,21.938931297709924,0.0
12.590000629425049,-9.035717065429687,0.5985504150390625,1.89620771484375,-22.198473282442748,68.94656488549619,-19.14503816793893,-6.845022546386718,-0.34237083740234375,1.0127473022460938,2.6564885496183206,-57.083969465648856,21.954198473282442,0.0
12.600000858306885,-9.409212524414063,1.0438719238281249,1.7429788085937499,-34.412213740458014,61.267175572519086,-20.412213740458014,-7.161057165527343,-0.7062894897460937,1.6400281372070311,-3.145038167938931,-57.725190839694655,23.221374045801525,0.0
12.61000108718872,-11.475408557128906,2.808398547363281,4.012681982421875,-31.96946564885496,63.98473282442748,-22.412213740458014,-7.340622290039062,-0.7302315063476562,2.0542250244140625,-1.8778625954198473,-58.87022900763359,24.82442748091603,0.0
12.620000839233398,-9.406818322753905,0.9528922607421875,3.2130186279296873,-36.18320610687023,56.916030534351144,-20.198473282442748,-7.711723547363281,-1.5682020874023437,2.166752502441406,-12.549618320610687,-60.0,25.603053435114504,0.0
12.630001068115234,-11.006145031738281,3.1866824096679687,3.4907460205078125,-42.01526717557252,48.94656488549618,-20.519083969465647,-7.560888842773437,-2.0781670410156248,2.023100402832031,-5.923664122137405,-61.49618320610687,24.625954198473284,0.0
12.640000581741333,-9.696516723632811,2.9544448486328125,3.1411925781249996,-35.63358778625954,46.396946564885496,-17.17557251908397,-6.986280444335937,-1.659181750488281,2.6791116577148437,-17.541984732824428,-62.36641221374046,22.47328244274809,0.0
12.650001287460327,-9.121908325195312,2.8323405639648436,2.24097275390625,-39.05343511450382,41.099236641221374,-11.84732824427481,-7.611167077636718,-2.863465185546875,2.5665841796874997,-3.1908396946564888,-64.33587786259542,16.80916030534351,0.0
12.660000801086426,-9.306261853027344,3.806780639648437,2.3965958618164063,-40.36641221374046,37.66412213740458,-9.16030534351145,-8.384494213867187,-1.6160861206054686,2.6431986328124997,-26.625954198473284,-66.58015267175573,17.358778625954198,0.0
12.670000791549683,-10.177751257324218,4.649539624023437,3.0454245117187497,-50.900763358778626,34.045801526717554,-5.068702290076335,-8.82981572265625,-3.756502404785156,3.294421484375,-26.35114503816794,-62.35114503816794,7.679389312977099,0.0
12.68000078201294,-9.727641345214844,4.077325427246094,3.265691064453125,-52.396946564885496,30.0,-1.2213740458015268,-7.596801867675781,-2.2481553588867187,2.104503259277344,-27.938931297709924,-52.83969465648855,11.221374045801527,0.0
12.690000772476196,-10.505756884765624,3.737348791503906,3.2824504760742186,-59.587786259541986,23.770992366412212,2.427480916030534,-7.7596075805664055,-2.0183119995117185,3.0142998901367184,-31.84732824427481,-52.82442748091603,-3.3893129770992365,0.0
12.700000762939453,-9.363722692871093,2.3535002319335936,3.423708374023437,-58.916030534351144,21.908396946564885,4.458015267175573,-8.913612780761719,-3.593696691894531,3.6583401367187496,-24.35114503816794,-49.80152671755725,-1.7251908396946565,0.0
12.71000075340271,-8.973467822265624,1.5682020874023437,1.6807295654296874,-61.55725190839695,18.580152671755727,4.702290076335878,-7.639897497558593,-1.4987702392578124,2.5641899780273434,-27.236641221374047,-47.908396946564885,3.7709923664122136,0.0
12.720000982284546,-9.169792358398437,1.3718775512695311,1.3814543579101561,-65.48091603053435,18.045801526717558,3.099236641221374,-6.086060620117187,-0.4908113403320312,1.4508862060546874,-28.47328244274809,-38.717557251908396,-7.816793893129771,0.0
12.730000734329224,-9.93354268798828,1.7429788085937499,1.7310078002929687,-70.25954198473282,17.49618320610687,0.21374045801526717,-5.813121630859374,-0.3016694091796875,1.1875240234375,-25.557251908396946,-26.290076335877863,-5.816793893129771,0.0
12.74000096321106,-9.744400756835937,1.6065093139648436,1.3383587280273437,-65.98473282442748,16.15267175572519,-0.07633587786259542,-8.9255837890625,-2.27927998046875,3.69664736328125,-13.32824427480916,-21.69465648854962,-7.465648854961832,0.0
12.750000476837158,-9.76116016845703,1.4867992309570313,1.2378022583007813,-62.62595419847328,14.13740458015267,0.44274809160305345,-8.116343627929687,-0.9361328491210937,2.511517541503906,-8.641221374045802,-17.46564885496183,-2.015267175572519,0.0
12.760000944137573,-9.088389501953124,0.6368576416015624,1.6160861206054686,-52.213740458015266,14.106870229007633,1.4045801526717556,-7.7596075805664055,-0.7110778930664062,3.028665100097656,1.1297709923664123,-21.16030534351145,-8.931297709923664,0.0
12.77000093460083,-8.75320126953125,-0.28730419921875,1.4604630126953124,-42.51908396946565,12.122137404580153,0.10687022900763359,-8.104372619628906,-1.6998831787109374,4.2880151733398435,5.603053435114504,-18.3206106870229,-11.114503816793894,0.0
12.780000925064087,-8.348581188964843,-1.707065783691406,1.2234370483398436,-18.717557251908396,13.465648854961833,-0.33587786259541985,-7.5153990112304685,-0.622492431640625,3.1555577880859373,9.19083969465649,-9.16030534351145,-9.450381679389313,0.0
12.790000915527344,-8.161833459472655,-0.8379705810546875,1.2785036865234374,-4.534351145038168,12.549618320610687,-1.83206106870229,-6.777984899902344,-0.5386953735351562,3.414131567382812,12.580152671755725,-8.061068702290076,-8.931297709923664,0.0
12.8000009059906,-8.743624462890624,0.4165910888671875,1.927332336425781,5.7251908396946565,10.381679389312977,-3.435114503816794,-7.254431030273437,-0.430956298828125,3.5984850952148437,17.541984732824428,-6.870229007633588,-7.419847328244275,0.0
12.810000896453857,-9.425971936035156,0.9720458740234375,2.013523596191406,18.732824427480917,8.83969465648855,-2.4580152671755724,-5.046977099609375,1.2641384765625,2.24097275390625,13.557251908396946,-1.83206106870229,-9.48091603053435,0.0
12.820000886917114,-8.88009395751953,1.2282254516601563,1.4891934326171874,29.46564885496183,8.01526717557252,-1.7099236641221374,-5.746083984375,0.6823474731445313,2.9831752685546875,-2.2442748091603053,11.34351145038168,-8.595419847328245,0.0
12.830000877380371,-8.104372619628906,0.967257470703125,0.967257470703125,30.595419847328245,6.442748091603053,-2.9770992366412212,-6.339845996093749,0.26815058593749996,3.4620156005859375,1.4961832061068703,16.061068702290076,-5.190839694656488,0.0
12.840000867843628,-8.173804467773436,1.2497732666015624,0.33518823242187495,31.221374045801525,5.633587786259542,-6.122137404580153,-7.364564306640625,-0.612915625,4.192247106933594,5.862595419847328,19.81679389312977,-2.717557251908397,0.0
12.850001096725464,-8.767566479492187,1.5729904907226562,0.8882488159179687,30.53435114503817,5.32824427480916,-8.106870229007633,-5.868188269042968,-0.12689268798828124,2.568978381347656,13.49618320610687,17.6793893129771,-4.564885496183206,0.0
12.860000610351562,-8.98304462890625,2.0973206542968748,1.4724340209960938,34.091603053435115,5.282442748091603,-7.908396946564886,-6.732495068359374,-0.36152445068359373,3.603273498535156,12.778625954198473,24.946564885496183,-5.969465648854962,0.0
12.870001077651978,-9.05965908203125,2.748543505859375,1.68551796875,33.603053435114504,5.251908396946565,-5.648854961832061,-7.881711865234375,-1.2521674682617188,4.426878869628906,17.72519083969466,28.259541984732824,-5.251908396946565,0.0
12.880000829696655,-9.433154541015625,3.303998291015625,2.166752502441406,28.885496183206108,4.412213740458015,-5.068702290076335,-6.138733056640625,-0.29448680419921874,2.786850732421875,18.717557251908396,26.83969465648855,-5.893129770992366,0.0
12.89000129699707,-8.894459167480468,2.978386865234375,1.0295067138671874,23.251908396946565,5.603053435114504,-4.778625954198473,-6.332663391113281,0.5315127685546874,2.8610709838867185,6.091603053435114,35.51145038167939,-7.587786259541985,0.0
12.900000810623169,-8.29351455078125,2.1906945190429687,0.7517793212890624,10.427480916030534,8.076335877862595,-6.5038167938931295,-7.438784558105469,-0.9433154541015625,4.106055847167968,4.244274809160306,40.229007633587784,-4.854961832061068,0.0
12.910000801086426,-8.245630517578125,1.3551181396484375,1.4053963745117186,2.7480916030534353,9.34351145038168,-10.351145038167939,-8.78432589111328,-1.7477672119140624,4.582501977539062,16.717557251908396,34.229007633587784,-0.8702290076335878,0.0
12.920000791549683,-8.88009395751953,1.7453730102539062,1.9033903198242186,2.4122137404580153,9.587786259541986,-13.236641221374045,-8.303091357421874,-0.9744400756835937,4.218583325195312,22.53435114503817,32.82442748091603,-4.473282442748092,0.0
12.93000078201294,-8.377311608886718,1.5945383056640625,1.2761094848632812,4.534351145038168,11.282442748091603,-13.526717557251908,-6.842628344726562,-0.33039982910156246,2.6144682128906247,19.251908396946565,33.64885496183206,-7.175572519083969,0.0
12.940000772476196,-7.7763669921875,1.4053963745117186,1.5921441040039062,2.5343511450381677,14.091603053435115,-13.770992366412214,-6.847416748046874,-0.21787235107421873,2.834734765625,17.66412213740458,33.6793893129771,-7.480916030534351,0.0
12.950000762939453,-9.588777648925781,2.6240450195312497,3.0502129150390624,-3.5877862595419847,15.145038167938932,-16.03053435114504,-6.6510922119140625,0.00718260498046875,2.9759926635742184,14.854961832061068,34.87022900763359,-6.427480916030534,0.0
12.96000075340271,-9.04050546875,1.5466542724609373,4.563348364257812,4.198473282442748,14.15267175572519,-13.938931297709924,-7.077260107421875,-0.74699091796875,3.423708374023437,13.404580152671755,37.17557251908397,-4.320610687022901,0.0
12.970000743865967,-9.203311181640624,1.4532804077148436,5.410895751953125,6.885496183206107,8.305343511450381,-13.755725190839694,-7.60398447265625,-0.718260498046875,3.574543078613281,17.206106870229007,36.412213740458014,-2.9160305343511452,0.0
12.980000972747803,-9.97903251953125,1.1923124267578125,7.3669585083007805,12.229007633587786,-0.0,-16.48854961832061,-6.066907006835937,-0.16759411621093748,3.0502129150390624,18.9618320610687,33.49618320610687,-5.4961832061068705,0.0
12.99000072479248,-10.220846887207031,0.603338818359375,10.398017810058594,23.52671755725191,-10.702290076335878,-19.923664122137403,-6.809109521484374,1.8171990600585937,3.0166940917968748,5.8320610687022905,38.412213740458014,-9.893129770992367,0.0
13.000001192092896,-9.801861596679688,-0.39983167724609375,12.990938208007812,37.404580152671755,-29.022900763358777,-23.51145038167939,-8.145074047851562,1.4628572143554686,3.2441432495117186,-10.50381679389313,43.12977099236641,-10.564885496183207,0.0
13.010001182556152,-11.494562170410155,2.1116858642578125,16.101006164550782,43.89312977099237,-50.396946564885496,-31.31297709923664,-10.66856259765625,0.47884033203125,5.884947680664062,-34.97709923664122,54.961832061068705,-11.16030534351145,0.0
13.02000093460083,-13.091494677734374,3.5003228271484375,16.883910107421872,34.74809160305343,-82.03053435114504,-36.152671755725194,-12.717999218749998,0.8020575561523438,8.734047656249999,-50.396946564885496,43.93893129770992,-18.870229007633586,0.0
13.030000925064087,-12.586318127441405,3.0238766967773434,14.267047692871094,21.49618320610687,-117.78625954198473,-40.656488549618324,-13.620613244628906,0.6057330200195312,13.395558288574218,-102.07633587786259,44.06106870229008,-32.916030534351144,0.0
13.040001153945923,-12.38520518798828,3.0933085449218747,11.252747802734374,-14.183206106870228,-154.51908396946564,-50.045801526717554,-17.515979345703123,-1.608903515625,19.361908825683592,-134.0,25.87786259541985,-50.16793893129771,0.0
13.0500009059906,-13.464990136718749,3.5913024902343746,7.517793212890624,-42.2442748091603,-180.5648854961832,-56.83969465648855,-15.808913562011718,-8.10197841796875,10.091559997558592,-143.9236641221374,12.198473282442748,-74.50381679389314,0.0
13.060000896453857,-13.781024755859374,3.399766357421875,2.061407629394531,-52.50381679389313,-196.94656488549617,-47.969465648854964,-13.814543579101562,-9.756371765136718,4.687846850585937,-112.53435114503817,8.122137404580153,-71.72519083969466,0.0
13.070000886917114,-16.646884143066405,4.402936853027343,0.47165772705078124,-39.70992366412214,-195.40458015267177,-28.9618320610687,-13.711592907714843,1.2689268798828124,5.099649536132812,-13.694656488549619,-38.54961832061068,-43.083969465648856,0.0
13.080000877380371,-18.82081925048828,3.210624426269531,0.35673604736328124,-7.648854961832061,-189.12977099236642,-0.4732824427480916,-8.327033374023436,2.5163059448242184,-0.5243301635742187,1.282442748091603,-48.6412213740458,-28.015267175572518,0.0
13.090001106262207,-20.884621081542967,0.7493851196289062,0.3016694091796875,35.603053435114504,-184.29007633587787,27.61832061068702,-5.363011718749999,3.5003228271484375,-3.4332851806640625,-7.938931297709924,-48.44274809160305,-8.900763358778626,0.0
13.100000858306885,-22.301988464355468,1.678335363769531,0.3854664672851562,45.61832061068702,-180.19847328244273,39.69465648854962,-3.399766357421875,1.889025109863281,-5.121197351074218,-39.603053435114504,-43.00763358778626,2.8091603053435112,0.0
13.11000108718872,-21.859061157226563,4.335899206542969,2.308010400390625,17.587786259541986,-183.86259541984734,40.412213740458014,-4.80755693359375,-0.0047884033203125,-6.639121203613281,-46.74809160305343,-31.450381679389313,14.946564885496183,0.0
13.12000036239624,-20.757728393554686,3.2154128295898436,1.8818425048828125,-15.740458015267176,-190.3206106870229,38.38167938931298,-4.4196962646484375,-4.474762902832031,-4.661510632324219,-68.79389312977099,-21.83206106870229,25.206106870229007,0.0
13.130000829696655,-17.547103967285157,1.4245499877929686,1.2521674682617188,-25.251908396946565,-188.6412213740458,42.25954198473283,-6.943184814453125,-5.358223315429687,-3.8666356811523435,-42.36641221374046,-2.0763358778625953,23.64885496183206,0.0
13.140000820159912,-13.299790222167967,0.3016694091796875,1.5897499023437498,-23.374045801526716,-177.206106870229,44.2442748091603,-7.388506323242187,-4.441244079589843,-4.46279189453125,-36.58015267175573,12.274809160305344,12.778625954198473,0.0
13.150001049041748,-10.340556970214843,-1.3575123413085937,0.39743747558593745,-22.870229007633586,-162.0916030534351,45.51145038167939,-10.529698901367187,-4.908113403320312,-2.1499930908203124,-38.595419847328245,38.229007633587784,8.458015267175572,0.0
13.160000562667847,-7.601590270996093,-2.9496564453125,1.9129671264648436,-19.450381679389313,-148.3206106870229,45.81679389312977,-13.639766857910155,-7.194575988769531,-0.10295067138671875,-16.35114503816794,47.969465648854964,7.404580152671755,0.0
13.170000791549683,-7.292738256835937,-2.3965958618164063,1.1037269653320312,3.114503816793893,-130.5648854961832,40.229007633587784,-13.661314672851562,-6.2201359130859375,-0.39983167724609375,1.5419847328244274,51.38931297709924,2.351145038167939,0.0
13.18000054359436,-6.7277066650390625,-1.4006079711914061,1.1156979736328125,8.65648854961832,-118.2442748091603,35.3587786259542,-13.78341895751953,-5.080495922851562,-0.4261678955078125,18.82442748091603,53.70992366412214,1.3435114503816794,0.0
13.190000772476196,-5.762843395996094,-1.3120225097656248,1.177947216796875,15.251908396946565,-102.41221374045801,30.0,-12.320561743164061,-2.935291235351562,0.17238251953125,26.396946564885496,57.267175572519086,3.312977099236641,0.0
13.200000524520874,-7.570465649414062,0.7876923461914062,0.5746083984375,8.763358778625955,-91.92366412213741,24.564885496183205,-12.294225524902343,-2.1595698974609374,0.4525041137695312,33.099236641221374,56.42748091603053,8.931297709923664,0.0
13.21000051498413,-6.998251452636718,-0.229843359375,-0.009576806640625,-4.961832061068702,-84.3206106870229,23.938931297709924,-10.639832177734375,0.5434837768554687,0.9026140258789062,32.0763358778626,61.038167938931295,10.16793893129771,0.0
13.220000982284546,-6.289567761230469,-1.62805712890625,-0.9457096557617187,-4.656488549618321,-73.38931297709924,24.061068702290076,-10.589553942871094,-0.23702596435546874,-0.3711012573242187,31.419847328244273,62.274809160305345,10.458015267175572,0.0
13.230000734329224,-5.973533142089844,-2.384624853515625,-0.833182177734375,-4.9465648854961835,-59.49618320610687,20.564885496183205,-9.715670336914062,-0.46208092041015625,-0.4860229370117187,26.33587786259542,67.1145038167939,9.32824427480916,0.0
13.24000096321106,-7.639897497558593,-1.0319009155273438,-0.3711012573242187,-3.114503816793893,-41.969465648854964,14.946564885496183,-10.402806213378906,-1.0726023437499999,-0.22026655273437498,26.625954198473284,67.12977099236642,9.648854961832061,0.0
13.250000715255737,-6.476315490722656,-1.6807295654296874,-0.8379705810546875,-5.190839694656488,-31.328244274809162,9.526717557251908,-10.268730920410155,-0.040701428222656245,0.469263525390625,25.893129770992367,69.37404580152672,7.404580152671755,0.0
13.260001182556152,-6.4356140625,-1.9991583862304687,-1.8315642700195311,-7.633587786259542,-20.946564885496183,3.6030534351145036,-10.778695874023438,-0.9552864624023437,1.89620771484375,24.458015267175572,66.58015267175573,8.778625954198473,0.0
13.27000117301941,-6.301538769531249,-2.3223756103515623,-2.319981408691406,-4.061068702290076,-7.877862595419847,-0.549618320610687,-10.893617553710937,-1.5873557006835937,2.24097275390625,31.908396946564885,62.10687022900763,9.98473282442748,0.0
13.280000925064087,-5.415684155273437,-1.70467158203125,-3.366247534179687,4.854961832061068,6.702290076335878,-4.320610687022901,-9.832986218261718,-0.02154781494140625,2.1260510742187497,32.54961832061068,60.97709923664122,11.236641221374045,0.0
13.290000915527344,-5.738901379394531,-1.1755530151367186,-4.134786267089844,0.6259541984732825,20.16793893129771,-8.351145038167939,-9.993397729492187,-0.3687070556640625,2.2960393920898436,26.671755725190838,58.47328244274809,16.82442748091603,0.0
13.3000009059906,-5.66946953125,-0.9217676391601562,-5.233724829101562,4.854961832061068,35.45038167938932,-8.320610687022901,-7.644685900878906,0.08140285644531249,2.480392919921875,23.14503816793893,52.42748091603053,19.206106870229007,0.0
13.310000896453857,-3.0238766967773434,-4.316745593261719,-5.990292553710937,18.213740458015266,46.58015267175573,-7.404580152671755,-7.304709265136719,-0.30406361083984373,1.3934253662109375,23.61832061068702,48.42748091603053,20.870229007633586,0.0
13.320001363754272,-1.1444283935546875,-5.494692810058593,-5.372588525390625,51.51145038167939,76.04580152671755,-15.19083969465649,-6.584054565429687,0.7661445312499999,2.128445275878906,16.519083969465647,49.48091603053435,20.641221374045802,0.0
13.330000877380371,-0.3232172241210937,-5.906495495605468,-3.6583401367187496,59.3587786259542,91.02290076335878,-28.748091603053435,-7.038952880859375,-0.5458779785156249,2.068590234375,14.045801526717558,50.152671755725194,23.053435114503817,0.0
13.340000867843628,-1.4245499877929686,-3.9935283691406247,-0.8714894042968749,81.57251908396947,113.69465648854961,-40.534351145038165,-7.9846625366210935,-2.3511060302734372,3.21780703125,25.69465648854962,46.10687022900763,24.885496183206108,0.0
13.350155591964722,-2.5546131713867184,-0.7613561279296874,0.1771709228515625,92.99236641221374,124.38167938931298,-48.900763358778626,-9.066841687011719,-3.612850305175781,4.544194750976562,24.80916030534351,34.778625954198475,16.625954198473284,0.0
13.360000848770142,-3.411737365722656,0.622492431640625,0.354341845703125,95.80152671755725,131.58778625954199,-50.16793893129771,-8.580818749999999,-4.1754876953124995,4.376600634765625,26.213740458015266,38.42748091603053,14.778625954198473,0.0
13.370000839233398,-5.346252307128906,2.4013842651367185,2.518700146484375,88.58015267175573,141.48091603053436,-51.603053435114504,-9.349357482910156,-4.678270043945313,5.078101721191406,39.969465648854964,35.25190839694657,7.190839694656488,0.0
13.38015079498291,-7.323862878417969,4.929661218261718,4.8123453369140625,83.93893129770993,147.5114503816794,-46.01526717557252,-8.595183959960938,-3.3877953491210935,5.686228942871093,44.412213740458014,31.251908396946565,7.099236641221374,0.0
13.390000820159912,-11.197681164550781,8.226476904296874,9.200916979980468,83.09923664122137,140.41221374045801,-29.923664122137403,-7.340622290039062,-0.5817910034179687,6.241683728027343,38.961832061068705,28.16793893129771,2.2748091603053435,0.0
13.400000810623169,-14.401122985839843,12.619836950683593,14.975731384277342,74.25954198473282,122.44274809160305,-5.190839694656488,-7.455543969726562,-0.19393033447265623,6.0716954101562495,23.572519083969464,27.557251908396946,6.030534351145038,0.0
13.410000801086426,-11.183315954589844,7.989450939941406,14.07072315673828,55.57251908396947,92.01526717557252,21.236641221374047,-5.849034655761718,0.6967126831054687,4.821922143554687,5.603053435114504,23.404580152671755,9.16030534351145,0.0
13.420000791549683,-14.080299963378906,10.192116467285155,16.072275744628904,20.549618320610687,66.80916030534351,27.740458015267176,-5.597643481445312,-0.047884033203124995,3.8762124877929685,-11.053435114503817,21.893129770992367,14.488549618320612,0.0
13.43000078201294,-13.68765089111328,6.938396411132812,16.029180114746094,-25.282442748091604,25.862595419847327,31.740458015267176,-7.292738256835937,-2.93050283203125,4.879382983398437,-8.961832061068701,19.129770992366414,17.984732824427482,0.0
13.440000772476196,-13.194445349121093,2.3630770385742186,13.385981481933593,-27.770992366412212,-1.6946564885496183,38.732824427480914,-6.6702458251953125,-3.8043864379882812,2.0973206542968748,0.6564885496183206,18.244274809160306,16.442748091603054,0.0
13.450001001358032,-8.645462194824217,-4.967968444824218,3.536235852050781,-22.916030534351144,-13.86259541984733,42.36641221374046,-8.169016064453125,-3.9312791259765625,2.7437551025390623,-35.55725190839695,5.541984732824427,15.49618320610687,0.0
13.46000051498413,-10.687716210937499,-4.053383410644531,3.6176387084960937,-14.732824427480915,-11.877862595419847,30.564885496183205,-8.001421948242188,-2.7341782958984373,1.5442600708007812,-6.366412213740458,-13.893129770992367,18.076335877862597,0.0
13.470000982284546,-12.181698046874999,-3.35188232421875,6.208164904785156,0.8702290076335878,-15.511450381679388,24.702290076335878,-10.357316381835936,-2.612074011230469,3.6463691284179687,11.038167938931299,-8.305343511450381,2.7022900763358777,0.0
13.480000495910645,-17.178396911621093,0.01915361328125,15.112200878906249,28.83969465648855,-23.755725190839694,20.33587786259542,-11.405976708984374,-3.1938650146484373,2.5761609863281247,-13.297709923664122,-17.328244274809162,-0.6412213740458015,0.0
13.49000072479248,-20.93968771972656,7.364564306640625,12.777854260253905,68.59541984732824,-41.25190839694657,43.3587786259542,-13.321338037109374,-4.024652990722656,2.291250988769531,-11.068702290076336,-14.885496183206106,-6.351145038167939,0.0
13.500000953674316,-15.380351464843748,8.595183959960938,-5.358223315429687,26.33587786259542,-44.030534351145036,46.091603053435115,-16.615759521484375,-3.7038299682617186,1.0989385620117187,14.992366412213741,-4.442748091603053,-17.770992366412212,0.0
13.510000944137573,-12.437877624511717,-3.21780703125,-2.3870190551757813,-3.099236641221374,-33.725190839694655,38.18320610687023,-20.38423293457031,-5.2648494506835934,1.3144167114257812,20.900763358778626,-28.80916030534351,-20.53435114503817,0.0
13.52000117301941,-9.366116894531249,-7.153874560546875,-8.813056311035156,17.81679389312977,-8.83969465648855,13.17557251908397,-22.857443249511718,-4.089296435546875,0.6967126831054687,31.51145038167939,-42.412213740458014,-23.862595419847327,0.0
13.530000686645508,-8.039729174804688,-9.258377819824219,-5.035006091308594,40.44274809160305,16.931297709923665,-12.702290076335878,-22.467188378906247,-0.5027823486328125,0.8403647827148437,21.83206106870229,-54.916030534351144,-33.343511450381676,0.0
13.540000677108765,-7.6087728759765625,-2.7820623291015623,-4.570530969238281,67.81679389312977,40.0,-30.870229007633586,-21.06658040771484,0.8116343627929687,-0.19153613281249998,22.732824427480917,-53.89312977099237,-36.13740458015267,0.0
13.5500009059906,-9.60793126220703,5.755660791015624,-2.73896669921875,75.98473282442748,54.152671755725194,-37.00763358778626,-20.113688146972656,1.0965443603515623,-0.8930372192382812,32.93129770992366,-57.32824427480916,-34.61068702290076,0.0
13.560000896453857,-7.845798840332031,5.829881042480468,-3.517082238769531,66.80916030534351,57.98473282442748,-30.68702290076336,-18.78969462890625,1.7357962036132812,-0.565031591796875,28.83969465648855,-63.23664122137404,-37.06870229007634,0.0
13.570000886917114,-8.535328918457031,5.91846650390625,-2.4756045166015626,55.25190839694657,72.80916030534351,-29.099236641221374,-16.98207237548828,3.3973721557617185,-0.25139117431640623,19.404580152671755,-62.94656488549618,-35.69465648854962,0.0
13.580000877380371,-10.01733974609375,6.155492468261718,-3.2728736694335936,31.083969465648856,79.6030534351145,-30.48854961832061,-18.294094885253905,1.637633935546875,1.8363526733398436,15.557251908396946,-68.82442748091603,-24.65648854961832,0.0
13.590001106262207,-10.192116467285155,6.6319385986328125,-4.3622354248046875,6.824427480916031,79.09923664122137,-29.923664122137403,-15.227122558593749,3.5098996337890624,1.4987702392578124,13.129770992366412,-65.72519083969466,-20.03053435114504,0.0
13.600000619888306,-11.6070896484375,6.196193896484375,-3.9049429077148434,-9.114503816793894,81.93893129770993,-23.267175572519083,-12.907141149902342,3.399766357421875,0.612915625,9.32824427480916,-67.3587786259542,-16.82442748091603,0.0
13.610000848770142,-11.528080993652344,5.846640454101562,-2.3127988037109373,-13.98473282442748,87.7557251908397,-16.442748091603054,-11.1474029296875,3.6846763549804686,0.48123453369140623,-6.656488549618321,-65.41984732824427,-11.297709923664122,0.0
13.62000060081482,-11.89439384765625,6.1842228881835934,0.06464344482421874,-32.62595419847328,87.02290076335878,-12.091603053435115,-9.97184991455078,3.4332851806640625,0.7517793212890624,-2.1068702290076335,-60.38167938931298,-5.435114503816794,0.0
13.630000829696655,-11.609483850097655,4.089296435546875,0.6584054565429687,-49.343511450381676,83.48091603053435,-10.183206106870228,-8.827421520996094,3.459621398925781,0.40222587890625,-0.7786259541984732,-57.86259541984733,1.2213740458015268,0.0
13.640000581741333,-10.359710583496094,0.9840168823242187,0.7589619262695312,-50.44274809160305,82.09160305343511,-7.557251908396947,-7.920019091796875,2.43250888671875,0.5051765502929687,-5.816793893129771,-54.97709923664122,6.549618320610687,0.0
13.650001049041748,-9.718064538574218,0.15083470458984374,2.626439221191406,-46.458015267175576,82.2442748091603,-8.122137404580153,-7.307103466796875,1.7357962036132812,-0.11731588134765625,2.045801526717557,-51.66412213740458,10.091603053435115,0.0
13.660000801086426,-8.374917407226562,-0.4955997436523437,2.205059729003906,-39.23664122137404,77.38931297709924,-8.961832061068701,-7.1395093505859375,1.5777788940429687,-0.028730419921875,1.1145038167938932,-49.93893129770992,14.732824427480915,0.0
13.670001029968262,-8.63827958984375,0.5674257934570313,3.1459809814453124,-38.68702290076336,70.82442748091603,-10.473282442748092,-6.6271501953125,2.710236279296875,-0.3687070556640625,8.732824427480915,-47.770992366412216,16.870229007633586,0.0
13.68000078201294,-7.790732202148437,-0.6153098266601562,3.3638533325195312,-28.610687022900763,66.87022900763358,-9.770992366412214,-7.651868505859374,1.0175357055664063,-0.201112939453125,-2.6412213740458017,-48.97709923664122,21.374045801526716,0.0
13.690000772476196,-7.939172705078125,-0.967257470703125,3.1124621582031247,-16.885496183206108,65.05343511450381,-8.854961832061068,-7.563283044433593,0.7158662963867187,-0.5506663818359374,-1.0534351145038168,-44.79389312977099,20.610687022900763,0.0
13.700000762939453,-8.566453540039062,-0.239420166015625,3.718195178222656,-8.198473282442748,65.26717557251908,-10.473282442748092,-8.327033374023436,-1.2832920898437499,0.9888052856445312,1.2061068702290076,-42.94656488549618,22.15267175572519,0.0
13.71000075340271,-9.246406811523437,1.35990654296875,4.553771557617187,-6.931297709923665,63.52671755725191,-11.587786259541986,-7.213729602050781,-0.9409212524414062,0.6248866333007812,-9.267175572519085,-47.45038167938932,21.954198473282442,0.0
13.720000505447388,-9.6151138671875,2.233790148925781,4.316745593261719,-13.34351145038168,58.458015267175576,-12.290076335877863,-7.692569934082031,-1.9823989746093749,1.1348515869140625,2.6717557251908395,-46.33587786259542,24.564885496183205,0.0
13.730000734329224,-10.644620581054687,3.9432501342773434,4.661510632324219,-25.389312977099237,54.396946564885496,-15.801526717557252,-6.461950280761719,-1.4867992309570313,0.507570751953125,3.3282442748091605,-45.908396946564885,22.213740458015266,0.0
13.74000072479248,-9.045293872070312,2.664746447753906,4.067748620605468,-33.9236641221374,50.0,-14.305343511450381,-7.388506323242187,-3.1196447631835937,0.9840168823242187,4.687022900763359,-43.541984732824424,20.229007633587788,0.0
13.750000476837158,-9.562441430664062,3.842693664550781,3.8570588745117185,-46.732824427480914,46.10687022900763,-14.16793893129771,-6.469132885742187,-1.927332336425781,1.6112977172851561,1.9083969465648856,-45.05343511450382,16.27480916030534,0.0
13.760001182556152,-9.682151513671874,4.467580297851562,3.5673604736328124,-56.778625954198475,44.79389312977099,-11.404580152671755,-7.491456994628906,-3.3399113159179685,2.987963671875,-5.419847328244275,-43.17557251908397,17.14503816793893,0.0
13.77000093460083,-9.445125549316407,4.659116430664063,2.7557261108398436,-72.38167938931298,42.12213740458015,-8.061068702290076,-8.001421948242188,-4.007893579101562,2.6623522460937497,1.1755725190839694,-45.48091603053435,14.351145038167939,0.0
13.780000925064087,-9.129090930175781,3.9719805541992184,2.231395947265625,-81.63358778625954,39.89312977099237,-4.137404580152672,-6.320692382812499,-2.2098481323242187,2.29843359375,-4.091603053435114,-47.725190839694655,14.0,0.0
13.790000915527344,-9.327809667968749,3.143586779785156,1.2785036865234374,-100.07633587786259,35.954198473282446,-0.10687022900763359,-8.489839086914062,-3.6200329101562496,2.8371289672851563,18.763358778625953,-50.25954198473283,3.068702290076336,0.0
13.8000009059906,-8.571241943359375,1.0103531005859374,1.8243816650390623,-89.54198473282443,39.32824427480916,3.068702290076336,-7.182604980468749,-3.3494881225585935,0.4429273071289062,6.854961832061068,-56.19847328244275,6.549618320610687,0.0
13.810001134872437,-10.314220751953124,2.2649147705078123,3.21780703125,-85.74045801526718,38.412213740458014,3.450381679389313,-8.705317236328124,-0.0143652099609375,3.9432501342773434,-4.900763358778626,-41.69465648854962,-1.4045801526717556,0.0
13.820000886917114,-10.453084448242187,3.42849677734375,4.060566015625,-97.3587786259542,33.31297709923664,1.7557251908396947,-9.354145886230468,-1.7980454467773437,4.970362646484375,-6.076335877862595,-37.221374045801525,3.6793893129770994,0.0
13.830000877380371,-8.628702783203124,-0.02154781494140625,1.7645266235351562,-96.19847328244275,26.610687022900763,1.8015267175572518,-8.916006982421875,-1.2521674682617188,4.046200805664062,0.9923664122137404,-38.94656488549618,5.587786259541985,0.0
13.840000629425049,-9.311050256347656,-0.7733271362304687,0.7805097412109374,-89.00763358778626,24.30534351145038,0.4122137404580153,-7.977479931640625,0.3495534423828125,3.9169139160156248,-1.251908396946565,-37.52671755725191,3.3282442748091605,0.0
13.850001096725464,-10.453084448242187,0.3327940307617187,0.7110778930664062,-84.35114503816794,26.427480916030536,-4.229007633587786,-6.5218053222656245,1.4628572143554686,1.7980454467773437,-19.603053435114504,-23.786259541984734,3.648854961832061,0.0
13.860000848770142,-10.180145458984374,-0.181959326171875,0.7110778930664062,-75.78625954198473,28.38167938931298,-4.687022900763359,-8.913612780761719,-0.8020575561523438,4.649539624023437,-21.633587786259543,-19.297709923664122,10.183206106870228,0.0
13.870001077651978,-9.392453112792968,-0.6512228515624999,0.8834604125976562,-50.42748091603053,35.6793893129771,-4.366412213740458,-5.556942053222656,1.9201497314453124,2.070984436035156,-18.412213740458014,-21.450381679389313,11.633587786259541,0.0
13.880000829696655,-9.94072529296875,1.0893617553710937,0.737414111328125,-47.603053435114504,34.25954198473283,-4.519083969465649,-6.605602380371093,0.8451531860351562,2.923320227050781,-23.31297709923664,-11.98473282442748,14.366412213740459,0.0
13.890001058578491,-10.1131078125,1.8938135131835936,1.0869675537109373,-47.969465648854964,34.732824427480914,-5.114503816793893,-7.570465649414062,-0.51714755859375,4.647145422363281,-17.251908396946565,-6.259541984732825,18.03053435114504,0.0
13.900000810623169,-8.954314208984375,0.09816226806640624,1.1444283935546875,-41.6793893129771,34.0763358778626,-3.053435114503817,-7.493851196289062,-0.5003881469726562,5.533000036621093,-27.435114503816795,0.5648854961832062,17.46564885496183,0.0
13.910000562667847,-7.7596075805664055,0.5506663818359374,2.422932080078125,-32.6412213740458,33.11450381679389,-3.404580152671756,-7.350199096679687,-0.3902548706054687,5.358223315429687,-25.893129770992367,2.732824427480916,17.64885496183206,0.0
13.920000553131104,-9.303867651367186,1.0989385620117187,3.2034418212890623,-35.98473282442748,29.083969465648856,-6.091603053435114,-7.9655089233398435,-1.8435352783203125,5.140350964355468,-12.595419847328245,2.885496183206107,18.793893129770993,0.0
13.93000054359436,-7.285555651855469,-1.3000515014648437,2.1595698974609374,-13.816793893129772,26.50381679389313,-2.687022900763359,-8.157045056152343,-1.7573440185546874,4.900930798339844,-18.50381679389313,1.6946564885496183,17.557251908396946,0.0
13.940000772476196,-6.490680700683593,-0.33758243408203126,2.269703173828125,1.6488549618320612,27.87786259541985,-3.114503816793893,-6.7037646484375,-1.0797849487304687,4.580107775878906,-15.129770992366412,4.778625954198473,14.259541984732824,0.0
13.950000524520874,-8.300697155761718,2.123656872558594,2.7341782958984373,6.320610687022901,30.30534351145038,-7.0534351145038165,-7.299920861816406,-1.5586252807617187,5.078101721191406,-7.938931297709924,4.213740458015267,14.061068702290076,0.0
13.96000075340271,-9.121908325195312,3.248931652832031,2.5737667846679684,9.297709923664122,28.3206106870229,-6.9465648854961835,-7.307103466796875,-0.9600748657226562,5.4013189453125,-8.274809160305344,3.969465648854962,12.427480916030534,0.0
13.970000743865967,-10.129867224121092,5.762843395996094,2.9927520751953125,0.8702290076335878,23.633587786259543,-6.442748091603053,-5.377376928710937,0.17238251953125,4.074931225585937,-8.564885496183207,3.2977099236641223,8.763358778625955,0.0
13.980000495910645,-8.55448253173828,4.192247106933594,2.8107927490234372,-8.977099236641221,16.061068702290076,-2.4732824427480917,-4.467580297851562,0.9433154541015625,2.389413256835937,-31.87786259541985,17.480916030534353,6.183206106870229,0.0
13.99000072479248,-8.688557824707031,4.687846850585937,3.392583752441406,-23.358778625954198,11.068702290076336,-1.0534351145038168,-5.475539196777343,0.3854664672851562,3.5338416503906247,-46.18320610687023,24.68702290076336,8.51908396946565,0.0
14.000000953674316,-8.729259252929687,3.1316157714843746,3.766079211425781,-26.091603053435115,5.175572519083969,-1.0381679389312977,-5.528211633300781,-0.6919242797851562,3.3638533325195312,-44.48854961832061,30.35114503816794,11.34351145038168,0.0
14.010000944137573,-8.17141026611328,1.8602946899414061,3.6655227416992187,-21.267175572519083,0.7786259541984732,1.4351145038167938,-7.37414111328125,-1.2952630981445312,3.5506010620117183,-36.36641221374046,29.328244274809162,11.572519083969466,0.0
14.02000117301941,-7.943961108398437,0.7302315063476562,4.0222587890625,-12.335877862595419,-3.7251908396946565,2.0916030534351147,-7.077260107421875,-1.2138602416992186,3.373430139160156,-34.82442748091603,32.25954198473283,6.916030534351145,0.0
14.030000686645508,-7.886500268554687,0.28730419921875,4.762067102050781,-2.1374045801526718,-9.099236641221374,2.3206106870229006,-7.8721350585937495,-3.21780703125,5.9974751586914055,-24.198473282442748,32.900763358778626,5.099236641221374,0.0
14.040000915527344,-8.619125976562499,0.7876923461914062,5.03740029296875,7.404580152671755,-15.465648854961833,0.24427480916030533,-7.237671618652343,-3.418919970703125,4.84586416015625,-2.16793893129771,25.34351145038168,2.687022900763359,0.0
14.0500009059906,-8.02536396484375,1.0127473022460938,3.3351229125976563,25.81679389312977,-21.022900763358777,1.2213740458015268,-5.647921716308593,-1.2928688964843749,3.488351818847656,1.1908396946564885,21.984732824427482,5.3893129770992365,0.0
14.060000658035278,-7.766790185546874,2.5043349365234375,2.741360900878906,22.0,-22.732824427480917,0.1984732824427481,-5.221753820800781,-0.5003881469726562,3.708618371582031,1.3435114503816794,15.48091603053435,-0.10687022900763359,0.0
14.070000886917114,-10.146626635742187,3.414131567382812,4.510675927734375,-3.3893129770992365,-26.83969465648855,-5.694656488549619,-5.355829113769531,-0.9145850341796874,3.928884924316406,0.3511450381679389,18.595419847328245,0.030534351145038167,0.0
14.080000877380371,-9.277531433105468,2.042254016113281,5.7508723876953125,-16.763358778625953,-42.82442748091603,-4.595419847328245,-6.002263562011718,-0.8164227661132812,3.919308117675781,-0.07633587786259542,15.32824427480916,-2.4885496183206106,0.0
14.090001344680786,-11.317391247558593,2.825157958984375,8.169016064453125,-10.549618320610687,-52.045801526717554,-4.824427480916031,-7.043741284179687,0.05985504150390625,3.342305517578125,-0.916030534351145,12.290076335877863,-8.793893129770993,0.0
14.100000619888306,-12.569558715820312,4.012681982421875,10.807426293945312,-25.96946564885496,-76.1526717557252,-4.534351145038168,-6.775590698242187,0.7924807495117187,2.272097375488281,-4.916030534351145,14.793893129770993,-15.709923664122137,0.0
14.11000108718872,-12.74912384033203,1.467645617675781,12.911929553222656,-16.580152671755727,-102.06106870229007,-1.816793893129771,-7.673416320800781,0.9002198242187499,0.1580173095703125,-16.85496183206107,25.557251908396946,-18.732824427480917,0.0
14.120000839233398,-12.792219470214842,1.2569558715820313,13.91749425048828,-6.625954198473282,-128.4732824427481,-5.450381679389313,-11.781866369628906,0.12689268798828124,3.4811692138671875,-50.97709923664122,27.557251908396946,-27.053435114503817,0.0
14.130001068115234,-14.094665173339843,2.4875755249023435,14.547169287109375,1.83206106870229,-150.5648854961832,-15.236641221374045,-16.907852124023435,0.5530605834960938,9.246406811523437,-66.70229007633588,1.6641221374045803,-42.18320610687023,0.0
14.140001058578491,-15.715539697265624,3.019088293457031,11.226411584472656,-12.290076335877863,-182.91603053435114,-21.893129770992367,-19.941305627441405,-4.965574243164062,15.562310791015625,-80.06106870229007,19.52671755725191,-58.01526717557252,0.0
14.150001049041748,-14.113818786621094,2.925714428710937,7.599196069335937,-22.27480916030534,-205.95419847328245,-22.625954198473284,-16.601394311523435,-7.9463553100585935,7.321468676757812,-99.6793893129771,3.3587786259541983,-73.17557251908397,0.0
14.160000562667847,-15.492878942871092,2.104503259277344,1.7094599853515624,-40.36641221374046,-215.3740458015267,-23.083969465648856,-14.62617794189453,-4.967968444824218,4.0988732421875,-23.83206106870229,14.83969465648855,-46.67175572519084,0.0
14.170028448104858,-17.391480859374997,1.3048399047851562,-0.430956298828125,-39.099236641221374,-212.67175572519085,-15.435114503816793,-11.087547888183593,0.5195417602539062,-5.2265422241210935,6.137404580152672,-44.0,-27.587786259541986,0.0
14.18000054359436,-18.217480432128905,-2.999934680175781,-1.446097802734375,-6.458015267175573,-204.9618320610687,1.1908396946564885,-3.31357509765625,6.667851623535156,-2.5234885498046875,-2.3206106870229006,-21.862595419847327,-29.450381679389313,0.0
14.190000534057617,-17.176002709960937,-3.7421371948242186,-0.8858546142578124,18.595419847328245,-189.4351145038168,14.15267175572519,-3.1842882080078123,3.220201232910156,-2.2266075439453124,-43.14503816793893,-2.1068702290076335,-13.725190839694656,0.0
14.200000762939453,-16.840814477539062,-1.9895815795898437,-0.5339069702148437,24.85496183206107,-175.3740458015267,16.625954198473284,-3.327940307617187,1.6519991455078125,-3.902548706054687,-67.81679389312977,2.549618320610687,1.6641221374045803,0.0
14.21000075340271,-17.013196997070313,-0.97683427734375,-0.23702596435546874,30.549618320610687,-165.206106870229,13.98473282442748,-5.801150622558594,0.7302315063476562,-2.5450363647460934,-71.58778625954199,15.694656488549619,12.534351145038167,0.0
14.220000505447388,-16.651672546386717,0.1292868896484375,0.26336218261718747,22.916030534351144,-154.36641221374046,10.351145038167939,-8.892064965820312,-2.808398547363281,-0.07900865478515624,-70.6412213740458,34.152671755725194,20.33587786259542,0.0
14.230000734329224,-15.150508105468749,0.3327940307617187,0.9337386474609375,25.633587786259543,-139.38931297709922,8.50381679389313,-12.521674682617187,-6.574477758789062,-1.0893617553710937,-50.48854961832061,39.81679389312977,23.51145038167939,0.0
14.24000096321106,-13.273454003906249,-0.699106884765625,0.9552864624023437,36.030534351145036,-128.77862595419847,8.854961832061068,-13.192051147460937,-4.747701892089843,0.011971008300781249,-22.16793893129771,52.29007633587786,17.358778625954198,0.0
14.250000715255737,-11.039663854980468,-0.928950244140625,1.0654197387695312,49.89312977099237,-115.02290076335878,11.312977099236642,-14.992490795898437,-6.358999609374999,-0.7565677246093749,-3.4656488549618323,62.0,17.282442748091604,0.0
14.260001420974731,-9.734823950195311,0.143652099609375,1.8195932617187498,50.50381679389313,-102.3206106870229,9.83206106870229,-14.719551806640624,-6.1267620483398435,-0.9935936889648437,15.16030534351145,67.20610687022901,18.610687022900763,0.0
14.27000093460083,-9.133879333496093,0.7733271362304687,0.9074024291992187,43.603053435114504,-97.63358778625954,9.129770992366412,-13.026851232910156,-4.651933825683593,-2.0470424194335934,33.49618320610687,64.38167938931298,19.022900763358777,0.0
14.280000686645508,-7.058106494140625,-0.2561795776367187,0.17477672119140625,46.97709923664122,-87.7557251908397,9.648854961832061,-11.444283935546874,-2.6599580444335937,-1.649604943847656,34.61068702290076,73.64885496183206,19.358778625954198,0.0
14.290000677108765,-7.036558679199218,-0.17238251953125,0.55545478515625,41.770992366412216,-72.1526717557252,6.106870229007634,-11.463437548828125,-3.4572271972656248,-1.2282254516601563,35.954198473282446,76.44274809160305,21.083969465648856,0.0
14.3000009059906,-5.468356591796875,-2.291250988769531,-0.21308394775390624,39.32824427480916,-60.961832061068705,3.0381679389312977,-11.104307299804686,-2.9664158569335934,1.0773907470703123,35.954198473282446,81.86259541984732,20.732824427480917,0.0
14.310030221939087,-6.677428430175781,-0.6536170532226562,-0.30885201416015623,41.51145038167939,-42.47328244274809,-3.3282442748091605,-10.876858142089842,-3.564966271972656,-0.0430956298828125,42.595419847328245,77.40458015267176,18.045801526717558,0.0
14.320000648498535,-4.534617944335937,-2.123656872558594,-2.0757728393554684,43.05343511450382,-31.14503816793893,-5.923664122137405,-9.560047229003906,-1.4149731811523436,0.9552864624023437,41.267175572519086,79.0381679389313,14.702290076335878,0.0
14.330000400543213,-7.472303381347656,1.5179238525390624,-0.948103857421875,23.557251908396946,-14.50381679389313,-12.13740458015267,-10.601524951171875,-2.6312276245117188,1.6352397338867186,45.51145038167939,74.45801526717557,15.374045801526718,0.0
14.340000629425049,-6.5026517089843745,0.7158662963867187,-1.7836802368164062,12.488549618320612,-5.603053435114504,-13.511450381679388,-9.239224206542968,-1.6136919189453125,2.3247698120117186,50.76335877862596,67.22137404580153,12.610687022900763,0.0
14.350001096725464,-5.346252307128906,0.6368576416015624,-2.482787121582031,5.206106870229007,4.198473282442748,-13.282442748091603,-8.307879760742187,-0.39743747558593745,-0.4333505004882812,40.732824427480914,61.9236641221374,10.748091603053435,0.0
14.360000610351562,-4.5968671875,0.8762778076171874,-2.9927520751953125,-3.9083969465648853,17.801526717557252,-13.618320610687023,-8.425195642089843,0.3758896606445312,2.712630480957031,37.343511450381676,63.7557251908397,16.12213740458015,0.0
14.370000839233398,-5.006275671386718,0.8643067993164062,-2.664746447753906,-22.03053435114504,26.931297709923665,-15.938931297709924,-9.325415466308593,-1.7932570434570312,2.674323254394531,47.80152671755725,59.74045801526717,21.450381679389313,0.0
14.380000591278076,-1.9800047729492187,-3.8235400512695312,-5.176263989257812,-11.633587786259541,36.030534351145036,-12.488549618320612,-8.310273962402343,-0.44053310546874996,2.9664158569335934,48.30534351145038,54.36641221374046,20.366412213740457,0.0
14.390000820159912,-1.4772224243164063,-4.6447512207031245,-4.53940634765625,18.99236641221374,64.2442748091603,-15.770992366412214,-7.041347082519531,0.4261678955078125,2.2960393920898436,33.23664122137404,51.61832061068702,18.50381679389313,0.0
14.40000033378601,-1.465251416015625,-3.5673604736328124,-4.46279189453125,22.442748091603054,80.45801526717557,-26.763358778625953,-7.7763669921875,-0.6368576416015624,2.8514941772460936,36.56488549618321,51.57251908396947,20.366412213740457,0.0
14.410000562667847,-2.844311572265625,-3.1771056030273437,-2.578555187988281,13.053435114503817,92.79389312977099,-39.00763358778626,-7.6614453125,-0.8355763793945312,3.9552211425781247,37.969465648854964,39.23664122137404,18.47328244274809,0.0
14.420000553131104,-2.6671406494140624,-3.4715924072265625,-0.9528922607421875,18.0,102.77862595419847,-46.76335877862596,-8.963891015625,-1.1827356201171875,4.759672900390624,16.916030534351144,37.23664122137404,17.419847328244273,0.0
14.430000305175781,-4.2137949218749995,-0.9983820922851562,1.6831237670898436,24.80916030534351,114.3969465648855,-51.3587786259542,-9.03332286376953,-1.429338391113281,4.446032482910156,16.549618320610687,45.69465648854962,15.603053435114504,0.0
14.440000534057617,-4.367023828124999,0.17238251953125,2.5450363647460934,36.82442748091603,118.79389312977099,-48.42748091603053,-9.595960253906249,-2.2840683837890623,4.311957189941406,23.282442748091604,38.778625954198475,14.778625954198473,0.0
14.450000762939453,-6.1650692749023435,2.224213342285156,4.290409374999999,55.17557251908397,126.25954198473282,-41.29770992366412,-8.980650427246093,-1.9704279663085937,3.9312791259765625,23.49618320610687,34.74809160305343,14.213740458015268,0.0
14.46000051498413,-7.187393383789062,4.496310717773437,7.024587670898437,65.80152671755725,127.41984732824427,-30.137404580152673,-8.647856396484375,-2.346317626953125,4.089296435546875,29.49618320610687,29.49618320610687,14.702290076335878,0.0
14.470000505447388,-10.160991845703125,4.934449621582031,11.724405529785155,76.56488549618321,119.70992366412214,-15.374045801526718,-7.783549597167968,-2.2026655273437497,3.438073583984375,30.106870229007633,30.12213740458015,16.137404580152673,0.0
14.480000495910645,-14.800954663085937,9.552864624023437,16.685191369628907,81.96946564885496,106.19847328244275,2.885496183206107,-6.5577183471679685,-1.407790576171875,2.1260510742187497,21.282442748091604,35.41984732824427,16.38167938931298,0.0
14.490000486373901,-11.686098303222655,6.021417175292968,14.865598107910156,68.67175572519083,66.8854961832061,27.938931297709924,-6.694187841796874,-1.599326708984375,2.2577321655273437,14.595419847328245,36.16793893129771,17.328244274809162,0.0
14.500000715255737,-14.202404248046873,8.307879760742187,18.186355810546875,54.06106870229008,41.16030534351145,32.458015267175576,-7.266402038574219,-2.863465185546875,2.3343466186523436,5.32824427480916,35.908396946564885,18.68702290076336,0.0
14.510000705718994,-13.912705847167969,4.979939453125,17.982848669433594,4.732824427480916,-4.473282442748092,26.396946564885496,-5.303156677246093,-1.8076222534179687,1.1563994018554686,-1.0687022900763359,38.47328244274809,24.213740458015266,0.0
14.52000093460083,-13.340491650390625,-1.0079588989257813,17.561469177246092,13.007633587786259,-33.7557251908397,27.068702290076335,-5.985504150390625,-1.5514426757812498,0.9792284790039062,-4.549618320610687,29.16030534351145,24.778625954198475,0.0
14.530000448226929,-11.269507214355468,-3.1364041748046874,11.516109985351562,31.923664122137403,-47.786259541984734,29.267175572519083,-6.5577183471679685,-3.028665100097656,1.1659762084960936,20.732824427480917,36.778625954198475,19.49618320610687,0.0
14.540000438690186,-10.632649572753905,-4.465186096191406,3.1268273681640624,39.343511450381676,-49.52671755725191,27.66412213740458,-7.125144140624999,-5.2456958374023435,0.46686932373046874,5.374045801526718,31.404580152671755,18.12213740458015,0.0
14.550000667572021,-10.941501586914061,-3.497928625488281,1.4604630126953124,64.80916030534351,-40.88549618320611,26.748091603053435,-12.073958972167969,-7.113173132324218,2.2744915771484373,18.85496183206107,27.984732824427482,9.297709923664122,0.0
14.560000658035278,-13.792995764160155,-2.310404602050781,7.637503295898437,91.22137404580153,-33.80152671755725,24.15267175572519,-12.607865942382812,-5.45877978515625,2.750937707519531,23.984732824427482,24.946564885496183,-10.442748091603054,0.0
14.570000648498535,-14.918270544433593,2.7916391357421872,4.570530969238281,73.93893129770993,-39.89312977099237,16.38167938931298,-16.187197424316405,-5.159504577636718,0.3758896606445312,0.33587786259541985,17.938931297709924,-12.091603053435115,0.0
14.580000638961792,-11.891999645996092,3.2609026611328122,-5.442020373535156,33.38931297709924,-34.76335877862596,3.83206106870229,-18.452112194824217,-4.015076184082031,4.537012145996093,12.244274809160306,1.9083969465648856,-21.389312977099237,0.0
14.590000629425049,-10.54645831298828,2.0638018310546875,-5.705382556152343,20.076335877862597,-15.053435114503817,-4.076335877862595,-19.120094458007813,-0.8259995727539062,5.228936425781249,24.27480916030534,-1.297709923664122,-20.50381679389313,0.0
14.600000619888306,-9.897629663085937,-0.21308394775390624,-7.079654309082031,20.916030534351144,1.0687022900763359,-6.564885496183206,-18.595764294433593,0.7565677246093749,2.5067291381835934,46.68702290076336,-22.076335877862597,-11.557251908396946,0.0
14.610000371932983,-7.982268334960937,-1.47482822265625,-6.263231542968749,40.274809160305345,31.64885496183206,-10.473282442748092,-18.171990600585936,1.7238251953125,2.7653029174804686,16.9618320610687,-40.656488549618324,-0.6412213740458015,0.0
14.62000060081482,-7.958326318359375,0.7709329345703124,-5.710170959472656,50.274809160305345,57.31297709923664,-14.961832061068701,-17.07784044189453,2.094926452636719,0.6296750366210937,19.893129770992367,-46.10687022900763,3.099236641221374,0.0
14.630000829696655,-9.962273107910155,3.385401147460937,-2.427720483398437,47.86259541984733,71.19083969465649,-15.435114503816793,-15.78736574707031,2.3582886352539063,1.0510545288085937,17.480916030534353,-51.31297709923664,3.5572519083969465,0.0
14.640000581741333,-10.742782849121093,5.288791467285156,-0.7709329345703124,37.81679389312977,78.01526717557252,-14.396946564885496,-16.136919189453124,0.6655880615234374,0.34715924072265625,2.2442748091603053,-57.89312977099237,4.0458015267175576,0.0
14.650001049041748,-10.275913525390624,5.5258174316406246,-1.0654197387695312,15.068702290076336,81.40458015267176,-17.893129770992367,-16.421829187011717,0.4261678955078125,-0.201112939453125,14.091603053435115,-61.38931297709924,-2.16793893129771,0.0
14.660000562667847,-10.268730920410155,4.604049792480469,-1.3263877197265623,-7.511450381679389,77.6030534351145,-19.755725190839694,-15.907075830078124,0.74699091796875,-1.7836802368164062,10.15267175572519,-61.32824427480916,-7.557251908396947,0.0
14.670000553131104,-10.532093103027343,4.414907861328125,-1.5562310791015623,-14.50381679389313,80.99236641221374,-18.900763358778626,-15.981296081542968,0.9313444458007812,-1.3646949462890625,17.72519083969466,-70.30534351145039,-5.32824427480916,0.0
14.68000054359436,-11.597512841796874,4.6351744140625,-0.13168109130859373,-27.236641221374047,79.23664122137404,-20.198473282442748,-13.939042065429687,3.356670727539062,-2.1835119140624997,19.099236641221374,-72.07633587786259,-4.0458015267175576,0.0
14.690000534057617,-11.142614526367186,3.0980969482421874,0.7757213378906249,-25.755725190839694,78.09160305343511,-16.732824427480917,-13.192051147460937,3.2824504760742186,-2.5809493896484375,16.16793893129771,-67.3587786259542,1.0687022900763359,0.0
14.700000286102295,-9.794678991699218,2.461239306640625,-0.6416460449218749,-28.35114503816794,76.29007633587786,-14.946564885496183,-12.064382165527343,4.048595007324218,-1.7693150268554687,11.48091603053435,-67.55725190839695,1.4351145038167938,0.0
14.71000051498413,-11.200075366210937,3.2824504760742186,-0.0718260498046875,-35.02290076335878,75.45038167938931,-15.954198473282442,-12.00213292236328,3.0262708984374997,-0.21787235107421873,8.50381679389313,-62.2442748091603,3.3893129770992365,0.0
14.720000505447388,-11.563994018554688,1.7381904052734374,-0.4860229370117187,-44.38167938931298,72.21374045801527,-14.106870229007633,-10.793061083984375,2.1739351074218747,-1.199495031738281,14.122137404580153,-62.61068702290076,4.33587786259542,0.0
14.730000734329224,-10.378864196777343,-0.47165772705078124,0.5865794067382812,-37.00763358778626,72.77862595419847,-13.49618320610687,-8.813056311035156,2.3056161987304686,-0.5219359619140624,13.48091603053435,-59.05343511450382,6.473282442748092,0.0
14.74000072479248,-10.47702646484375,-1.7477672119140624,0.239420166015625,-16.671755725190838,75.14503816793894,-13.145038167938932,-8.78432589111328,0.469263525390625,-0.3136404174804687,24.82442748091603,-52.87022900763359,11.511450381679388,0.0
14.750000476837158,-9.210493786621093,-0.9816226806640624,0.01915361328125,-0.48854961832061067,74.85496183206106,-15.068702290076336,-7.024587670898437,2.0566192260742184,-0.3591302490234375,34.2442748091603,-48.16793893129771,7.847328244274809,0.0
14.760001182556152,-9.677363110351562,2.0254946044921875,1.1228805786132812,1.8931297709923665,75.46564885496183,-17.84732824427481,-8.52335791015625,0.7948749511718749,-0.0383072265625,9.389312977099237,-50.229007633587784,13.511450381679388,0.0
14.770000457763672,-7.812280017089844,1.3862427612304686,0.5363011718749999,-6.67175572519084,69.52671755725191,-17.0381679389313,-6.8785413696289055,3.105279553222656,-0.1484405029296875,27.46564885496183,-44.091603053435115,12.01526717557252,0.0
14.780000686645508,-9.785102185058593,2.2936451904296873,1.8531120849609375,-10.977099236641221,68.29007633587786,-19.69465648854962,-7.75721337890625,1.4173673828125,0.8283937744140625,-4.809160305343512,-49.221374045801525,17.72519083969466,0.0
14.790000677108765,-7.400477331542969,-1.6304513305664061,1.2952630981445312,-11.083969465648854,61.63358778625954,-15.267175572519085,-6.880935571289062,2.6671406494140624,0.23223756103515625,12.549618320610687,-43.587786259541986,17.801526717557252,0.0
