timestamp,Thigh_L_Acc_X,Thigh_L_Acc_Y,Thigh_L_Acc_Z,Thigh_L_Gyr_X,Thigh_L_Gyr_Y,Thigh_L_Gyr_Z,Thigh_R_Acc_X,Thigh_R_Acc_Y,Thigh_R_Acc_Z,Thigh_R_Gyr_X,Thigh_R_Gyr_Y,Thigh_R_Gyr_Z,gpio_output
10.000000476837158,-4.903325,2.023100402832031,3.6391865234374996,18.50381679389313,21.053435114503817,16.061068702290076,-8.923189587402343,2.0063409912109376,1.0917559570312498,5.786259541984733,15.312977099236642,14.534351145038167,0.0
10.010000705718994,-4.134786267089844,0.6536170532226562,-1.7645266235351562,1.297709923664122,28.68702290076336,11.007633587786259,-10.790666882324219,0.9193734375,2.559401574707031,-9.435114503816793,18.15267175572519,18.16793893129771,1.0
10.02000093460083,-7.7596075805664055,3.5314474487304683,-0.4213794921875,-27.64885496183206,35.11450381679389,3.7709923664122136,-11.499350573730467,-0.047884033203124995,2.3415292236328122,-9.664122137404581,13.145038167938932,16.748091603053435,1.0
10.030000925064087,-5.03740029296875,-2.300827795410156,-1.1037269653320312,-40.19847328244275,45.038167938931295,7.450381679389313,-10.266336718749999,0.9600748657226562,1.35990654296875,-19.435114503816795,17.068702290076335,12.213740458015268,1.0
10.040001392364502,-7.941566906738281,-2.032677209472656,5.307945080566406,-30.412213740458014,61.45038167938932,-1.2061068702290076,-10.259154113769531,0.34715924072265625,1.5227122558593749,-46.13740458015267,9.709923664122137,10.65648854961832,1.0
10.05018138885498,-9.878476049804688,-2.741360900878906,10.565611926269531,-8.213740458015268,62.79389312977099,-9.98473282442748,-10.637437976074217,-0.4525041137695312,1.697488977050781,-41.57251908396947,10.076335877862595,10.091603053435115,1.0
10.060000658035278,-9.533711010742186,-1.898601916503906,8.686163623046875,19.297709923664122,65.95419847328245,-20.65648854961832,-12.119448803710936,-2.418143676757812,2.085349645996094,-46.534351145038165,2.4732824427480917,10.15267175572519,1.0
10.070000886917114,-9.706093530273437,1.5059528442382812,3.071760729980469,4.900763358778626,68.91603053435115,-38.06106870229008,-11.276689819335937,-0.39983167724609375,1.1659762084960936,-58.70229007633588,-7.190839694656488,7.648854961832061,1.0
10.080000877380371,-8.908824377441405,-5.312733483886719,2.384624853515625,15.129770992366412,85.05343511450381,-40.717557251908396,-10.656591589355468,0.26336218261718747,0.5770026000976562,-50.274809160305345,-5.847328244274809,5.358778625954199,1.0
10.090000629425049,-8.667010009765624,-3.0262708984374997,2.9640216552734375,33.57251908396947,90.25954198473282,-49.038167938931295,-11.384428894042967,0.3232172241210937,-0.00239420166015625,-56.396946564885496,-6.8396946564885495,4.717557251908397,1.0
10.100000858306885,-10.867281335449219,1.7621324218749999,3.507505432128906,42.35114503816794,95.48091603053435,-50.62595419847328,-11.851298217773437,1.455674609375,-0.22026655273437498,-61.17557251908397,-6.595419847328245,4.717557251908397,1.0
10.110000371932983,-9.847351428222655,5.322310290527343,1.5011644409179687,42.58015267175573,95.64885496183206,-44.274809160305345,-12.476184851074217,2.0374656127929685,-0.46686932373046874,-63.17557251908397,-6.106870229007634,5.465648854961832,1.0
10.120000839233398,-9.926360083007811,8.030152368164062,0.38307226562499996,31.51145038167939,97.64885496183206,-34.900763358778626,-13.512874169921874,1.924938134765625,0.07900865478515624,-65.80152671755725,-3.5572519083969465,8.274809160305344,1.0
10.130001068115234,-12.299013928222655,10.644620581054687,1.189918225097656,6.442748091603053,97.08396946564885,-27.938931297709924,-14.398728784179687,1.3311761230468748,0.7613561279296874,-66.01526717557252,-6.0458015267175576,12.335877862595419,1.0
10.140000820159912,-10.101136804199218,8.257601525878906,0.0,-17.206106870229007,92.0,-15.740458015267176,-14.705186596679686,0.7206546997070312,1.2425906616210938,-61.17557251908397,-13.083969465648854,18.30534351145038,1.0
10.150000810623169,-8.396465222167969,4.386177441406249,-0.2753331909179687,-22.85496183206107,94.83969465648855,-5.694656488549619,-14.003685510253906,0.4836287353515625,1.3575123413085937,-58.030534351145036,-20.50381679389313,21.587786259541986,1.0
10.160000801086426,-9.557653027343749,2.7246014892578123,1.1180921752929687,-9.98473282442748,104.82442748091603,-1.3740458015267176,-13.084312072753905,-0.6727706665039062,1.675941162109375,-51.32824427480916,-26.244274809160306,24.763358778625953,1.0
10.170001029968262,-6.902483386230468,-1.0630255371093749,-2.252943762207031,4.122137404580153,104.99236641221374,5.022900763358779,-10.656591589355468,0.8164227661132812,1.4173673828125,-40.045801526717554,-34.10687022900763,21.984732824427482,1.0
10.18000054359436,-8.588001354980468,-1.5753846923828123,-0.00239420166015625,43.541984732824424,124.4885496183206,7.786259541984733,-11.415553515625,-1.1875240234375,2.1715409057617188,-23.893129770992367,-35.541984732824424,22.47328244274809,1.0
10.190000772476196,-9.459490759277344,-1.0726023437499999,1.5083470458984374,63.12977099236641,130.93129770992365,5.786259541984733,-10.230423693847655,-1.9416975463867185,1.0726023437499999,-23.099236641221374,-45.37404580152672,17.84732824427481,1.0
10.200001001358032,-11.597512841796874,1.7214309936523438,2.602497204589844,63.41984732824427,132.77862595419847,0.8854961832061069,-9.320627062988281,-2.379836450195312,1.1947066284179686,-16.396946564885496,-49.49618320610687,11.954198473282442,1.0
10.21000051498413,-8.671798413085938,-0.5817910034179687,0.718260498046875,51.603053435114504,124.99236641221374,-0.6870229007633588,-9.2320416015625,-2.7150246826171873,1.6639701538085936,-8.488549618320612,-56.79389312977099,6.519083969465649,0.0
10.220000505447388,-10.335768566894531,0.18914193115234373,1.3646949462890625,51.099236641221374,121.32824427480917,-6.213740458015267,-8.932766394042968,-2.999934680175781,2.6312276245117188,4.320610687022901,-63.06870229007634,-1.6793893129770991,0.0
10.230000495910645,-9.739612353515625,-0.47884033203125,0.011971008300781249,38.47328244274809,110.9618320610687,-12.01526717557252,-7.989450939941406,-1.3335703247070312,0.5985504150390625,4.6106870229007635,-68.06106870229007,-7.404580152671755,0.0
10.240000486373901,-11.640608471679688,2.499546533203125,3.507505432128906,32.58015267175573,108.50381679389314,-19.251908396946565,-7.589619262695312,-0.2537853759765625,1.8842367065429686,-11.48091603053435,-66.6412213740458,-11.84732824427481,0.0
10.250000715255737,-12.521674682617187,3.6463691284179687,3.124433166503906,7.7251908396946565,96.87022900763358,-25.633587786259543,-7.362170104980469,-0.46208092041015625,0.6751648681640625,-12.80916030534351,-67.6793893129771,-12.977099236641221,0.0
10.260000944137573,-10.587159741210938,3.2513258544921873,1.4125789794921875,-21.6793893129771,79.49618320610686,-28.99236641221374,-8.09479581298828,-0.16998831787109375,0.016759411621093748,-5.083969465648855,-68.87022900763358,-13.19083969465649,0.0
10.27000093460083,-10.012551342773437,1.7884686401367187,1.0366893188476562,-24.38167938931298,76.61068702290076,-28.68702290076336,-7.711723547363281,1.0295067138671874,0.4381389038085937,-25.17557251908397,-67.41984732824427,-12.01526717557252,0.0
10.280000925064087,-9.660603698730467,2.0542250244140625,1.4245499877929686,-32.97709923664122,71.6793893129771,-27.49618320610687,-8.295908752441406,0.6560112548828124,0.37828386230468747,-13.908396946564885,-64.65648854961832,-9.404580152671755,0.0
10.290000677108765,-9.234435803222656,2.3056161987304686,0.9888052856445312,-36.54961832061068,66.35114503816794,-26.748091603053435,-7.510610607910156,1.4125789794921875,-1.3455413330078123,-12.091603053435115,-61.48091603053435,-9.404580152671755,0.0
10.300000667572021,-9.083601098632812,0.6584054565429687,0.24181436767578124,-42.030534351145036,58.916030534351144,-24.549618320610687,-8.602366564941406,1.458068811035156,-0.086191259765625,-27.404580152671755,-54.01526717557252,-6.809160305343512,0.0
10.310000658035278,-8.805873706054687,0.6536170532226562,1.3934253662109375,-41.267175572519086,50.412213740458014,-22.625954198473284,-9.555258825683593,0.6153098266601562,0.39983167724609375,-26.244274809160306,-51.45038167938932,-6.2748091603053435,0.0
10.320000648498535,-9.208099584960937,1.1013327636718748,2.6910826660156246,-34.778625954198475,48.54961832061068,-22.9618320610687,-8.494627490234375,1.3527239379882812,-0.8092401611328125,-31.61832061068702,-47.69465648854962,-9.129770992366412,0.0
10.330000877380371,-12.255918298339843,3.9432501342773434,3.6463691284179687,-26.33587786259542,50.48854961832061,-22.458015267175572,-9.682151513671874,0.14125789794921875,0.0718260498046875,-30.061068702290076,-39.41984732824427,-7.282442748091603,0.0
10.340000629425049,-8.662221606445312,0.3950432739257812,1.2761094848632812,-35.81679389312977,36.79389312977099,-20.519083969465647,-9.868899243164062,-0.7541735229492187,0.11013327636718749,-17.69465648854962,-42.36641221374046,-6.900763358778626,0.0
10.350000858306885,-10.733206042480468,0.9337386474609375,2.1308394775390624,-27.69465648854962,29.557251908396946,-20.977099236641223,-9.165003955078124,0.51714755859375,-0.41419688720703124,-13.664122137404581,-43.00763358778626,-8.534351145038167,0.0
10.36000108718872,-10.91037696533203,1.120486376953125,2.81558115234375,-9.908396946564885,32.88549618320611,-18.47328244274809,-8.98304462890625,-0.00239420166015625,0.9624690673828125,-19.64885496183206,-36.85496183206107,-8.778625954198473,0.0
10.37000060081482,-11.10191309814453,1.2617442749023438,1.3934253662109375,-5.847328244274809,26.610687022900763,-16.213740458015266,-10.419565624999999,-1.5346832641601562,2.5905261962890624,-1.786259541984733,-39.404580152671755,-7.358778625954199,0.0
10.380000591278076,-10.500968481445312,1.5610194824218748,2.118868469238281,5.511450381679389,22.35114503816794,-15.007633587786259,-10.151415039062499,-1.3670891479492187,1.6543933471679686,3.0076335877862594,-47.099236641221374,-10.351145038167939,0.0
10.39000129699707,-12.016498132324218,3.1459809814453124,2.942473840332031,6.885496183206107,19.84732824427481,-13.938931297709924,-9.241618408203124,-0.2442085693359375,1.956062756347656,-0.8702290076335878,-42.83969465648855,-15.419847328244275,0.0
10.40000057220459,-9.8449572265625,1.7764976318359373,0.9888052856445312,13.48091603053435,18.763358778625953,-10.091603053435115,-10.398017810058594,-2.868253588867187,2.090138049316406,10.412213740458014,-43.969465648854964,-15.801526717557252,0.0
10.410001039505005,-11.279084020996093,5.992686755371094,1.8698714965820311,3.7099236641221376,16.12213740458015,-12.83969465648855,-10.000580334472655,-1.9680337646484374,1.8028338500976562,23.099236641221374,-51.98473282442748,-19.51145038167939,0.0
10.420000553131104,-10.781090075683593,5.758054992675781,0.7852981445312499,-32.13740458015267,2.045801526717557,-12.51908396946565,-10.309432348632813,-0.967257470703125,2.3511060302734372,24.396946564885496,-51.41984732824427,-22.778625954198475,0.0
10.430001020431519,-8.511386901855468,1.8028338500976562,-0.8906430175781249,-34.74809160305343,-2.9770992366412212,-5.251908396946565,-10.656591589355468,-1.7669208251953124,2.568978381347656,28.15267175572519,-55.908396946564885,-22.65648854961832,0.0
10.440000772476196,-11.259930407714844,3.852270471191406,0.6368576416015624,-32.13740458015267,1.4351145038167938,-6.67175572519084,-10.129867224121092,-0.3902548706054687,2.73896669921875,33.603053435114504,-59.98473282442748,-28.0,0.0
10.450000524520874,-10.441113439941406,3.612850305175781,0.47644613037109373,-47.31297709923664,-2.6717557251908395,-6.122137404580153,-11.152191333007812,-1.3048399047851562,2.8993782104492185,36.87022900763359,-61.17557251908397,-28.18320610687023,0.0
10.46000051498413,-9.782707983398437,1.484405029296875,-0.016759411621093748,-48.74809160305343,-6.030534351145038,-4.427480916030534,-11.405976708984374,-0.8068459594726562,2.7581203125,42.42748091603053,-67.34351145038168,-29.328244274809162,0.0
10.470000505447388,-8.626308581542968,-0.2657563842773437,-0.016759411621093748,-33.80152671755725,-4.473282442748092,-2.381679389312977,-11.166556542968749,-0.8020575561523438,3.3399113159179685,41.23664122137404,-66.58015267175573,-30.595419847328245,0.0
10.480000495910645,-10.103531005859374,1.3646949462890625,0.967257470703125,-21.541984732824428,1.5114503816793894,-3.0076335877862594,-10.9175595703125,-0.17956512451171874,3.1771056030273437,45.41984732824427,-70.93129770992367,-31.587786259541986,0.0
10.490000486373901,-10.721235034179687,3.0334535034179684,0.8882488159179687,-28.27480916030534,-1.6793893129770991,-4.793893129770993,-10.192116467285155,0.19632453613281248,3.4261025756835934,44.97709923664122,-70.29007633587786,-32.3206106870229,0.0
10.500000476837158,-10.211270080566406,2.1116858642578125,0.1867477294921875,-38.10687022900763,-4.702290076335878,-2.8091603053435112,-9.404424121093749,0.8451531860351562,2.70065947265625,42.87022900763359,-74.54961832061069,-31.31297709923664,0.0
10.510000705718994,-10.259154113769531,2.061407629394531,0.32082302246093747,-34.091603053435115,-4.244274809160306,-1.4198473282442747,-9.3086560546875,1.0295067138671874,3.5194764404296874,32.33587786259542,-70.04580152671755,-30.549618320610687,0.0
10.52000093460083,-8.91840118408203,-0.30885201416015623,-0.36391865234375,-32.67175572519084,-3.7251908396946565,1.0381679389312977,-10.160991845703125,0.6967126831054687,3.9264907226562498,28.931297709923665,-71.89312977099236,-28.061068702290076,0.0
10.530000686645508,-8.95670841064453,-1.3048399047851562,0.14604630126953125,-8.870229007633588,3.7557251908396947,-0.32061068702290074,-8.092401611328125,1.1707646118164061,3.1747114013671873,17.404580152671755,-66.77862595419847,-29.267175572519083,0.0
10.540001153945923,-8.66940421142578,-1.2593500732421874,0.43574470214843747,0.1984732824427481,8.13740458015267,-2.0763358778625953,-8.729259252929687,0.5291185668945312,3.7134067749023436,16.916030534351144,-66.04580152671755,-26.366412213740457,0.0
10.550000667572021,-9.983820922851562,0.5123591552734374,1.0797849487304687,10.412213740458014,12.061068702290076,-6.412213740458015,-8.552088330078124,0.9433154541015625,3.246537451171875,19.61832061068702,-64.07633587786259,-25.61832061068702,0.0
10.5600004196167,-9.375693701171874,1.2018892333984375,-0.01915361328125,6.702290076335878,7.114503816793893,-5.8320610687022905,-8.022969763183593,1.2210428466796874,4.007893579101562,4.015267175572519,-57.52671755725191,-24.793893129770993,0.0
10.570000886917114,-9.713276135253906,1.429338391113281,0.9313444458007812,1.3893129770992367,10.732824427480915,-4.870229007633588,-8.817844714355468,0.36391865234375,3.1771056030273437,-0.9312977099236641,-56.18320610687023,-21.34351145038168,0.0
10.580000877380371,-9.667786303710937,1.4915876342773438,0.603338818359375,-0.061068702290076333,6.8396946564885495,-4.595419847328245,-8.89924757080078,1.2234370483398436,3.699041564941406,-4.793893129770993,-55.603053435114504,-20.9618320610687,0.0
10.590000629425049,-9.627084875488281,1.0917559570312498,0.5722141967773438,4.0,8.030534351145038,-4.1679389312977095,-8.269572534179687,1.2042834350585936,4.077325427246094,-14.51908396946565,-51.725190839694655,-21.450381679389313,0.0
10.600000858306885,-9.34696328125,1.2234370483398436,0.296881005859375,4.412213740458015,8.595419847328245,-4.061068702290076,-8.930372192382812,0.5123591552734374,4.477157104492187,-17.022900763358777,-45.57251908396947,-18.259541984732824,0.0
10.610000848770142,-9.588777648925781,1.675941162109375,0.1484405029296875,4.534351145038168,9.099236641221374,-5.022900763358779,-9.74200655517578,-0.6751648681640625,4.4819455078125,-14.65648854961832,-47.55725190839695,-16.15267175572519,0.0
10.620743036270142,-9.361328491210937,1.216254443359375,-0.16519991455078123,7.221374045801527,9.114503816793894,-4.763358778625954,-9.193734375,-1.0797849487304687,4.371812231445312,-11.32824427480916,-50.412213740458014,-17.267175572519083,0.0
10.630001068115234,-8.892064965820312,0.09337386474609374,-0.5913678100585937,15.022900763358779,11.969465648854962,-3.618320610687023,-8.039729174804688,-0.3591302490234375,3.430890979003906,-14.732824427480915,-49.69465648854962,-19.893129770992367,0.0
10.640000820159912,-9.86411083984375,1.707065783691406,0.3806780639648437,21.862595419847327,19.87786259541985,-6.030534351145038,-8.82981572265625,-1.426944189453125,3.6080619018554687,-11.221374045801527,-44.229007633587784,-18.03053435114504,0.0
10.650001049041748,-10.472238061523436,2.039859814453125,0.6584054565429687,21.61832061068702,24.290076335877863,-7.862595419847328,-9.193734375,-2.3415292236328122,4.728548278808593,1.1145038167938932,-48.35114503816794,-16.396946564885496,0.0
10.660000562667847,-9.548076220703125,2.214636535644531,0.15562310791015624,21.31297709923664,21.14503816793893,-6.0458015267175576,-8.015787158203125,-0.7254431030273437,2.877830395507812,3.5419847328244276,-52.93129770992366,-18.580152671755727,0.0
10.670000791549683,-9.167398156738281,2.636016027832031,0.13168109130859373,12.534351145038167,21.740458015267176,-4.8396946564885495,-7.297526660156249,-0.13646949462890623,3.31357509765625,-5.114503816793893,-43.9236641221374,-20.671755725190838,0.0
10.68000054359436,-8.961496813964843,1.9728221679687499,-0.05746083984375,-8.458015267175572,19.46564885496183,-3.3435114503816794,-8.01818135986328,-1.4149731811523436,4.139574670410156,-2.6564885496183206,-38.595419847328245,-16.198473282442748,0.0
10.690000772476196,-10.065223779296874,1.6448165405273436,0.13646949462890623,-7.022900763358779,21.328244274809162,-4.244274809160306,-8.875305554199219,-1.2282254516601563,4.259284753417968,3.4656488549618323,-42.35114503816794,-15.816793893129772,0.0
10.700000524520874,-10.694898815917968,1.6519991455078125,0.2561795776367187,-6.625954198473282,21.84732824427481,-6.473282442748092,-8.106766821289062,-0.7948749511718749,3.450044592285156,0.22900763358778625,-38.656488549618324,-17.389312977099237,0.0
10.710000276565552,-10.544064111328124,1.1563994018554686,0.22744915771484372,-6.137404580152672,25.129770992366414,-8.13740458015267,-8.176198669433592,-1.0893617553710937,3.7804444213867185,-0.3511450381679389,-34.0763358778626,-17.022900763358777,0.0
10.720000982284546,-9.622296472167967,0.5865794067382812,-0.17477672119140625,-6.106870229007634,22.671755725190838,-7.312977099236641,-7.304709265136719,-0.9744400756835937,3.7900212280273435,-3.8473282442748094,-29.0381679389313,-17.954198473282442,0.0
10.730000734329224,-8.913612780761719,0.8858546142578124,0.86191259765625,0.8396946564885496,26.27480916030534,-8.305343511450381,-8.365340600585936,-1.467645617675781,4.402936853027343,0.7480916030534351,-25.709923664122137,-14.625954198473282,0.0
10.74000072479248,-10.558429321289061,1.3838485595703125,1.177947216796875,3.435114503816794,27.52671755725191,-11.282442748091603,-8.21690009765625,-1.35990654296875,3.593696691894531,3.49618320610687,-24.931297709923665,-14.82442748091603,0.0
10.750000715255737,-9.320627062988281,1.7693150268554687,1.2425906616210938,4.641221374045801,24.213740458015266,-10.748091603053435,-8.166621862792969,-1.8746598999023436,3.84987626953125,3.969465648854962,-22.748091603053435,-16.80916030534351,0.0
10.760001182556152,-9.6151138671875,1.9919757812499999,1.5634136840820312,0.5343511450381679,20.38167938931298,-10.381679389312977,-7.5537062377929685,-1.7310078002929687,3.3973721557617185,10.305343511450381,-20.30534351145038,-18.3206106870229,0.0
10.770000696182251,-10.345345373535155,2.6144682128906247,1.254561669921875,-11.557251908396946,12.80916030534351,-8.916030534351146,-7.505822204589843,-0.13646949462890623,2.916137622070312,14.641221374045802,-21.297709923664122,-19.587786259541986,0.0
10.780000925064087,-9.583989245605467,0.5865794067382812,0.7924807495117187,4.351145038167939,12.961832061068701,-7.129770992366412,-7.149086157226562,0.11252747802734374,3.603273498535156,10.045801526717558,-11.908396946564885,-19.297709923664122,0.0
10.790000915527344,-8.736441857910156,0.7062894897460937,1.3766659545898436,4.519083969465649,13.740458015267176,-7.8320610687022905,-6.770802294921874,-0.9528922607421875,3.3327287109375,1.5725190839694656,-5.541984732824427,-18.03053435114504,0.0
10.80000114440918,-9.694122521972655,1.2401964599609374,1.254561669921875,5.541984732824427,12.0,-9.664122137404581,-6.574477758789062,0.04548983154296875,2.6431986328124997,1.6793893129770991,1.3587786259541985,-15.450381679389313,0.0
10.810000658035278,-10.180145458984374,1.2689268798828124,1.20667763671875,6.67175572519084,10.534351145038167,-11.572519083969466,-7.1395093505859375,-0.17477672119140625,2.722207287597656,-0.916030534351145,9.786259541984732,-12.885496183206106,0.0
10.820000648498535,-9.82580361328125,1.4628572143554686,1.886630908203125,6.3816793893129775,8.763358778625955,-11.908396946564885,-7.513004809570312,-0.5339069702148437,2.6791116577148437,2.595419847328244,12.01526717557252,-11.511450381679388,0.0
10.830000877380371,-10.096348400878906,0.948103857421875,1.4891934326171874,8.916030534351146,6.519083969465649,-13.755725190839694,-7.752424975585937,-0.7134720947265625,2.375048046875,7.770992366412214,17.786259541984734,-12.198473282442748,0.0
10.840001106262207,-9.667786303710937,0.6248866333007812,1.7238251953125,12.732824427480915,5.297709923664122,-14.793893129770993,-7.168239770507812,-0.3399766357421875,2.6719290527343746,12.076335877862595,21.419847328244273,-13.007633587786259,0.0
10.850000858306885,-9.471461767578125,1.1013327636718748,1.927332336425781,15.435114503816793,3.969465648854962,-17.251908396946565,-6.610390783691406,0.023942016601562498,2.770091320800781,9.49618320610687,27.480916030534353,-13.099236641221374,0.0
10.860000371932983,-10.249577307128906,0.7733271362304687,1.9847931762695312,19.053435114503817,2.5801526717557253,-18.885496183206108,-9.004592443847656,-1.5514426757812498,2.4492682983398435,14.045801526717558,29.541984732824428,-9.86259541984733,0.0
10.870001077651978,-9.911994873046874,1.2569558715820313,2.1260510742187497,24.396946564885496,1.0229007633587786,-18.83969465648855,-7.881711865234375,-2.0374656127929685,3.687070556640625,11.358778625954198,29.099236641221374,-13.129770992366412,0.0
10.880000829696655,-10.295067138671874,2.061407629394531,2.0063409912109376,28.931297709923665,-0.9007633587786259,-18.48854961832061,-7.101202124023437,-2.6982652709960937,3.9983167724609374,2.5801526717557253,39.25190839694657,-17.954198473282442,0.0
10.890001058578491,-10.498574279785156,3.028665100097656,2.5378537597656248,21.801526717557252,-2.6564885496183206,-17.923664122137403,-8.774749084472656,-4.00310517578125,4.876988781738281,9.48091603053435,43.31297709923664,-20.549618320610687,0.0
10.900000810623169,-10.66137999267578,3.201047619628906,2.868253588867187,16.48854961832061,-7.435114503816794,-17.786259541984734,-9.279925634765624,-2.882618798828125,4.8698061767578125,21.374045801526716,42.916030534351144,-20.27480916030534,0.0
10.910000801086426,-10.826579907226561,2.789244934082031,3.019088293457031,16.091603053435115,-13.48091603053435,-16.412213740458014,-10.254365710449218,-0.32561142578124996,6.047753393554687,28.931297709923665,41.81679389312977,-21.801526717557252,0.0
10.920000553131104,-10.70686982421875,2.5522189697265625,3.687070556640625,15.770992366412214,-19.34351145038168,-15.404580152671755,-8.63109698486328,2.5163059448242184,3.9983167724609374,27.51145038167939,48.045801526717554,-20.27480916030534,0.0
10.93000078201294,-10.998962426757812,2.2002713256835937,4.367023828124999,14.274809160305344,-25.87786259541985,-14.01526717557252,-8.930372192382812,3.303998291015625,5.104437939453125,23.603053435114504,56.19847328244275,-13.083969465648854,0.0
10.940000772476196,-11.092336291503905,1.2401964599609374,5.240907434082031,19.557251908396946,-34.0763358778626,-12.610687022900763,-10.39322940673828,2.5737667846679684,6.770802294921874,16.702290076335878,55.25190839694657,-2.7480916030534353,0.0
10.950000524520874,-11.63821427001953,1.2473790649414063,6.074089611816406,30.259541984732824,-41.87786259541985,-11.633587786259541,-8.47786807861328,4.086902233886718,3.2345664428710936,4.442748091603053,57.74045801526717,-1.5572519083969465,0.0
10.96000075340271,-13.474566943359374,2.806004345703125,6.062118603515625,21.908396946564885,-57.02290076335878,-9.877862595419847,-9.449913952636718,2.090138049316406,3.399766357421875,-7.893129770992366,72.22900763358778,3.1755725190839694,0.0
10.970000743865967,-12.169727038574218,1.3096283081054687,5.743689782714843,15.587786259541986,-70.58015267175573,-6.778625954198473,-9.124302526855468,1.7980454467773437,3.143586779785156,-13.022900763358779,75.09923664122137,11.206106870229007,0.0
10.980000734329224,-12.42351241455078,0.35673604736328124,5.348646508789062,16.396946564885496,-80.2442748091603,-7.190839694656488,-9.294290844726563,0.507570751953125,3.201047619628906,-16.47328244274809,76.54961832061069,18.900763358778626,0.0
10.990000486373901,-12.255918298339843,-0.086191259765625,4.57771357421875,7.419847328244275,-91.3587786259542,-10.305343511450381,-6.598419775390624,0.48123453369140623,-0.28730419921875,-22.778625954198475,77.89312977099236,19.16030534351145,0.0
11.000000953674316,-13.156138122558593,-0.7254431030273437,4.6998178588867185,-8.061068702290076,-106.79389312977099,-12.122137404580153,-7.359775903320312,-0.9959878906249999,1.2282254516601563,-28.65648854961832,89.2824427480916,26.549618320610687,0.0
11.010001182556152,-12.658144177246093,-3.1028853515624997,4.728548278808593,-3.053435114503817,-114.3969465648855,-13.435114503816793,-5.932831713867187,0.2059013427734375,-1.2234370483398436,-29.6793893129771,79.83206106870229,27.450381679389313,0.0
11.02000093460083,-12.916717956542968,-2.384624853515625,4.517858532714843,5.206106870229007,-122.10687022900764,-15.17557251908397,-7.771578588867187,0.28490999755859375,-0.41898529052734373,-43.3587786259542,102.79389312977099,28.68702290076336,0.0
11.030000925064087,-12.919112158203124,-2.7653029174804686,5.372588525390625,13.312977099236642,-126.53435114503817,-13.49618320610687,-8.74601866455078,-1.6065093139648436,-0.076614453125,-53.25190839694657,111.26717557251908,31.69465648854962,0.0
11.040000677108765,-13.180080139160156,-2.844311572265625,4.458003491210937,27.954198473282442,-132.8854961832061,-15.709923664122137,-10.328585961914062,-4.383783239746093,0.16759411621093748,-57.6793893129771,116.04580152671755,29.557251908396946,0.0
11.050000667572021,-13.5224509765625,-1.3862427612304686,4.273649963378906,46.88549618320611,-134.0763358778626,-14.290076335877863,-6.392518432617187,-1.407790576171875,-3.201047619628906,-69.6793893129771,111.29770992366412,17.129770992366414,0.0
11.060000896453857,-13.905523242187499,1.4221557861328125,3.0909143432617188,49.29770992366412,-137.05343511450383,-11.32824427480916,-8.939948999023438,-2.3822306518554686,-1.678335363769531,-81.49618320610686,136.0,11.389312977099237,0.0
11.070000886917114,-13.405135095214844,3.5889082885742187,2.942473840332031,45.603053435114504,-134.53435114503816,-2.519083969465649,-9.5001921875,-3.689464758300781,-0.8355763793945312,-81.3587786259542,136.65648854961833,12.290076335877863,0.0
11.080000877380371,-12.86404552001953,4.187458703613281,1.9871873779296874,43.81679389312977,-136.15267175572518,6.6106870229007635,-13.184868542480467,-4.618415002441406,2.2290017456054687,-72.41221374045801,141.25190839694656,14.412213740458014,0.0
11.090000867843628,-11.590330236816406,3.0334535034179684,0.82360537109375,51.86259541984733,-130.67175572519085,22.9618320610687,-14.566322900390624,-4.7189714721679685,3.3590649291992185,-52.82442748091603,130.82442748091603,16.9618320610687,0.0
11.100000858306885,-12.150573425292968,3.6176387084960937,-0.1580173095703125,51.93893129770992,-125.80152671755725,32.35114503816794,-12.528857287597656,-3.9887399658203124,1.6112977172851561,-27.557251908396946,108.76335877862596,15.923664122137405,0.0
11.110000371932983,-11.226411584472656,3.229778039550781,-1.0175357055664063,49.12977099236641,-123.95419847328245,41.847328244274806,-12.35408056640625,-2.6192566162109374,0.9145850341796874,-20.458015267175572,102.09160305343511,15.709923664122137,0.0
11.12000060081482,-11.271901416015623,2.1164742675781247,-0.5219359619140624,39.64885496183206,-117.32824427480917,50.396946564885496,-13.275848205566405,-3.220201232910156,3.9528269409179684,-18.885496183206108,99.95419847328245,19.46564885496183,0.0
11.130000591278076,-11.774683764648437,2.5641899780273434,-0.8882488159179687,17.480916030534353,-116.79389312977099,51.63358778625954,-11.71482872314453,-3.114856359863281,3.8857892944335934,-4.106870229007634,84.09160305343511,25.450381679389313,0.0
11.140000581741333,-11.901576452636718,0.7637503295898437,-0.6057330200195312,6.366412213740458,-115.8473282442748,55.45038167938932,-10.465055456542968,-2.2936451904296873,0.9337386474609375,5.099236641221374,67.0381679389313,28.442748091603054,0.0
11.150000810623169,-12.109871997070313,0.948103857421875,0.5458779785156249,-7.893129770992366,-112.33587786259542,54.70229007633588,-10.635043774414061,-2.1547814941406247,1.2665326782226562,4.595419847328245,60.85496183206107,29.282442748091604,0.0
11.160000562667847,-10.800243688964843,-0.43574470214843747,0.7134720947265625,-19.221374045801525,-113.52671755725191,55.05343511450382,-10.726023437499999,-3.4524387939453125,2.214636535644531,18.641221374045802,52.80916030534351,31.374045801526716,0.0
11.170000791549683,-9.710881933593749,-0.9552864624023437,0.6200982299804687,-22.65648854961832,-111.54198473282443,53.6793893129771,-9.70369932861328,-2.1739351074218747,0.5770026000976562,21.14503816793893,45.603053435114504,28.0,0.0
11.18000054359436,-9.112331518554686,0.12449848632812499,1.2737152832031249,-22.53435114503817,-104.97709923664122,52.2442748091603,-9.342174877929686,-0.699106884765625,0.5889736083984375,10.977099236641221,45.93893129770992,25.46564885496183,0.0
11.190000772476196,-9.011775048828124,0.16998831787109375,1.1516109985351561,-33.51145038167939,-102.22900763358778,51.29770992366412,-10.17056865234375,-1.1252747802734375,2.221819140625,10.65648854961832,47.37404580152672,25.862595419847327,0.0
11.200000524520874,-8.221688500976562,0.00239420166015625,0.8164227661132812,-35.465648854961835,-98.73282442748092,51.099236641221374,-9.976638317871092,-2.703053674316406,1.455674609375,11.236641221374045,42.35114503816794,25.66412213740458,0.0
11.21000075340271,-6.402095239257812,-1.697488977050781,0.3016694091796875,-22.519083969465647,-89.16030534351145,51.66412213740458,-9.6151138671875,-2.1116858642578125,0.49320554199218747,23.923664122137403,30.16793893129771,24.549618320610687,0.0
11.220000743865967,-6.658274816894531,-0.6631938598632812,0.5913678100585937,-16.641221374045802,-78.47328244274809,46.900763358778626,-9.344569079589844,-1.2617442749023438,0.5913678100585937,19.587786259541986,28.38167938931298,21.801526717557252,0.0
11.230000734329224,-5.236119030761718,-2.0733786376953125,0.239420166015625,-14.65648854961832,-70.8854961832061,45.57251908396947,-11.037269653320312,-1.0558429321289062,1.1827356201171875,22.015267175572518,29.404580152671755,22.442748091603054,0.0
11.24000072479248,-6.011840368652344,-0.5410895751953124,1.7166425903320313,-11.389312977099237,-58.44274809160305,40.10687022900763,-10.85291612548828,-0.9528922607421875,1.3670891479492187,18.229007633587788,26.717557251908396,21.053435114503817,0.0
11.250000953674316,-6.641515405273437,-0.24899697265624998,1.3838485595703125,-15.19083969465649,-54.88549618320611,36.54961832061068,-10.261548315429687,-1.3910311645507811,1.1133037719726562,15.465648854961833,24.0,19.358778625954198,0.0
11.260001182556152,-5.659892724609374,-0.86191259765625,1.158793603515625,-11.358778625954198,-47.16030534351145,35.969465648854964,-11.066000073242186,-1.3934253662109375,0.7422025146484375,15.923664122137405,21.84732824427481,18.290076335877863,0.0
11.27000117301941,-5.257666845703125,-0.24181436767578124,1.0773907470703123,-6.320610687022901,-39.37404580152672,33.847328244274806,-11.221623181152344,-1.599326708984375,0.7805097412109374,18.748091603053435,20.366412213740457,18.595419847328245,0.0
11.280001163482666,-6.9719152343749995,1.1563994018554686,1.7381904052734374,-11.221374045801527,-32.656488549618324,30.396946564885496,-10.658985791015624,-1.6328455322265625,0.737414111328125,17.374045801526716,20.625954198473284,17.81679389312977,0.0
11.290000677108765,-6.121973645019531,-0.0526724365234375,1.16837041015625,-13.16030534351145,-30.12213740458015,30.366412213740457,-12.777854260253905,-3.9624037475585934,2.7820623291015623,21.51145038167939,19.770992366412212,21.251908396946565,0.0
11.30000114440918,-5.724536169433593,-1.3000515014648437,0.9600748657226562,-6.549618320610687,-23.053435114503817,28.38167938931298,-9.552864624023437,-3.622427111816406,1.369483349609375,40.56488549618321,6.793893129770993,17.404580152671755,0.0
11.310000658035278,-5.95677373046875,-0.5458779785156249,1.3168109130859373,-0.12213740458015267,-15.465648854961833,22.885496183206108,-8.602366564941406,-1.8602946899414061,-0.6153098266601562,41.969465648854964,6.900763358778626,11.740458015267176,0.0
11.320148468017578,-6.581660363769531,-0.028730419921875,1.9847931762695312,-10.213740458015268,-11.435114503816793,17.81679389312977,-8.564059338378906,-0.37828386230468747,0.5793968017578125,31.52671755725191,14.595419847328245,13.099236641221374,0.0
11.330000638961792,-4.7189714721679685,-1.5562310791015623,2.114080065917969,-12.396946564885496,-8.51908396946565,16.717557251908396,-8.276755139160155,-1.4173673828125,0.7230489013671875,29.87786259541985,14.717557251908397,14.442748091603054,0.0
11.340001344680786,-6.787561706542968,0.11731588134765625,3.81156904296875,-9.435114503816793,-2.045801526717557,10.244274809160306,-9.581595043945311,-2.147598889160156,1.0366893188476562,36.229007633587784,8.412213740458014,15.603053435114504,0.0
11.350000381469727,-5.425260961914062,-0.35194764404296874,4.053383410644531,1.251908396946565,-0.42748091603053434,10.229007633587786,-9.514557397460937,-1.3862427612304686,2.300827795410156,53.37404580152672,10.061068702290076,14.51908396946565,0.0
11.360000848770142,-6.186617089843749,1.22583125,5.506663818359375,7.816793893129771,7.083969465648855,8.198473282442748,-10.742782849121093,-2.7916391357421872,1.3623007446289062,37.52671755725191,11.007633587786259,14.793893129770993,0.0
11.37000060081482,-6.141127258300781,1.7286135986328124,5.614402893066406,7.0534351145038165,9.068702290076336,7.4961832061068705,-9.421183532714844,-1.7980454467773437,0.7948749511718749,46.274809160305345,11.17557251908397,11.709923664122137,0.0
11.380000829696655,-4.826710546875,1.8195932617187498,5.559336254882812,13.648854961832061,13.770992366412214,5.740458015267175,-8.877699755859375,-0.20829554443359374,0.7852981445312499,36.38167938931298,15.34351145038168,10.625954198473282,0.0
11.390000820159912,-3.6367923217773437,1.3862427612304686,5.427655163574219,8.305343511450381,14.82442748091603,3.0229007633587788,-9.945513696289062,-0.7015010864257812,0.8259995727539062,28.946564885496183,23.282442748091604,12.488549618320612,0.0
11.400000810623169,-4.273649963378906,-0.04548983154296875,9.047688073730468,11.908396946564885,19.740458015267176,0.1984732824427481,-9.306261853027344,0.28730419921875,1.2785036865234374,32.152671755725194,33.11450381679389,14.534351145038167,0.0
11.410001039505005,-7.208941198730468,3.3207577026367185,12.502521069335936,22.259541984732824,11.98473282442748,-1.3893129770992367,-11.310208642578125,-1.2880804931640624,2.090138049316406,39.587786259541986,34.33587786259542,17.450381679389313,0.0
11.420000791549683,-5.1882349975585935,0.5722141967773438,11.437101330566406,25.755725190839694,6.473282442748092,2.122137404580153,-10.122684619140625,0.040701428222656245,1.5562310791015623,38.045801526717554,35.908396946564885,15.083969465648854,0.0
11.43000078201294,-5.185840795898438,0.24899697265624998,8.901641772460938,35.31297709923664,4.061068702290076,-1.3282442748091603,-9.4618849609375,0.4644751220703125,1.8746598999023436,42.916030534351144,31.862595419847327,12.473282442748092,0.0
11.440000295639038,-4.2880151733398435,1.889025109863281,1.668758557128906,32.045801526717554,9.725190839694656,-6.229007633587786,-10.249577307128906,0.565031591796875,2.6384102294921874,31.068702290076335,36.045801526717554,11.34351145038168,0.0
11.450000524520874,-3.23696064453125,1.1276689819335937,-3.9815573608398434,15.648854961832061,25.251908396946565,-4.656488549618321,-9.588777648925781,0.5746083984375,2.288856787109375,8.473282442748092,40.93129770992366,13.007633587786259,0.0
11.46000075340271,-7.433996154785156,6.406883642578125,-1.9608511596679685,-14.595419847328245,35.02290076335878,-6.3816793893129775,-10.268730920410155,-0.19393033447265623,2.710236279296875,4.137404580152672,41.29770992366412,15.465648854961833,0.0
11.470000267028809,-8.24802471923828,0.49320554199218747,3.2609026611328122,-14.50381679389313,49.099236641221374,5.572519083969466,-10.32379755859375,0.29927520751953124,2.559401574707031,-5.083969465648855,37.48091603053435,13.86259541984733,0.0
11.480000495910645,-10.711658227539061,-0.42377369384765623,9.823409411621093,5.404580152671755,53.541984732824424,2.122137404580153,-10.280701928710936,0.2561795776367187,1.9919757812499999,-36.68702290076336,33.05343511450382,12.51908396946565,0.0
11.490000486373901,-12.119448803710936,2.085349645996094,7.71890615234375,19.64885496183206,52.732824427480914,-2.8091603053435112,-11.56159981689453,-1.936909143066406,3.1747114013671873,-38.274809160305345,32.93129770992366,13.679389312977099,0.0
11.500000476837158,-11.81059678955078,3.69664736328125,3.1842882080078123,12.244274809160306,55.267175572519086,-10.15267175572519,-12.04762275390625,-3.754108203125,3.3207577026367185,-30.702290076335878,25.221374045801525,10.305343511450381,0.0
11.510000705718994,-11.973402502441406,3.414131567382812,2.310404602050781,-4.320610687022901,56.44274809160305,-13.969465648854962,-11.171344946289063,-3.189076611328125,2.9496564453125,-31.129770992366414,14.305343511450381,6.458015267175573,0.0
11.52000117301941,-10.754753857421875,1.5682020874023437,2.2170307373046874,-3.9236641221374047,64.13740458015268,-7.557251908396947,-10.618284362792968,-1.6017209106445311,1.7262193969726563,-31.96946564885496,0.7175572519083969,6.732824427480916,0.0
11.530000686645508,-10.340556970214843,2.3822306518554686,2.243366955566406,-7.3893129770992365,66.12213740458016,-4.8396946564885495,-11.295843432617186,-1.707065783691406,2.233790148925781,-40.3206106870229,-8.030534351145038,1.786259541984733,0.0
11.540000915527344,-9.72285294189453,3.6559459350585937,2.0661960327148434,-3.1755725190839694,67.74045801526718,0.5801526717557252,-11.042058056640624,-0.39743747558593745,1.0749965454101562,-22.748091603053435,-11.557251908396946,-1.1297709923664123,0.0
11.5500009059906,-9.68454571533203,5.674257934570313,1.4724340209960938,-10.595419847328245,66.8854961832061,4.0458015267175576,-12.964601989746093,0.4572925170898437,1.0630255371093749,-20.03053435114504,-22.595419847328245,-4.885496183206107,0.0
11.560001134872437,-9.2320416015625,5.6574985229492185,1.3024457031249999,-18.732824427480917,69.05343511450381,7.877862595419847,-11.429918725585937,2.5474305664062498,1.8171990600585937,-51.00763358778626,-33.38931297709924,-9.358778625954198,0.0
11.570000648498535,-8.360552197265624,3.9504327392578125,1.0223241088867188,-35.954198473282446,68.42748091603053,11.32824427480916,-13.328520642089844,1.216254443359375,0.0,-50.030534351145036,-42.229007633587784,-7.923664122137405,0.0
11.580000877380371,-7.79552060546875,0.6823474731445313,1.4149731811523436,-32.94656488549618,76.50381679389314,11.17557251908397,-14.877569116210937,-0.6584054565429687,1.5705962890624998,-36.18320610687023,-52.47328244274809,-4.977099236641221,0.0
11.590000867843628,-7.041347082519531,-1.707065783691406,1.0295067138671874,-20.244274809160306,80.90076335877863,9.419847328244275,-15.330073229980467,-1.2401964599609374,1.9704279663085937,-13.572519083969466,-64.18320610687023,-5.221374045801527,0.0
11.600000858306885,-7.917624890136718,-3.749319799804687,0.1005564697265625,8.793893129770993,96.51908396946565,5.587786259541985,-13.359645263671874,-0.3950432739257812,0.0383072265625,-1.4961832061068703,-79.89312977099236,-6.595419847328245,0.0
11.610000848770142,-8.303091357421874,-2.8706477905273435,0.9265560424804687,27.893129770992367,101.95419847328245,0.3816793893129771,-13.148955517578123,1.1611878051757811,1.0486603271484374,-7.679389312977099,-84.54961832061069,-10.183206106870228,0.0
11.62000060081482,-9.315838659667968,-1.0749965454101562,1.5059528442382812,46.0,110.94656488549619,-3.0839694656488548,-11.834538806152343,0.34715924072265625,1.2689268798828124,-7.984732824427481,-91.23664122137404,-10.488549618320612,0.0
11.630000591278076,-10.326191760253906,-0.5147533569335937,1.0438719238281249,53.603053435114504,112.33587786259542,-6.152671755725191,-10.965443603515624,1.5969325073242187,0.7924807495117187,0.3511450381679389,-97.92366412213741,-13.587786259541986,0.0
11.640000820159912,-10.711658227539061,1.2785036865234374,1.9512743530273435,58.42748091603053,112.7175572519084,-8.687022900763358,-9.830592016601562,2.212242333984375,0.105344873046875,-17.022900763358777,-98.29007633587786,-17.236641221374047,0.0
11.650000810623169,-6.500257507324219,-3.897760302734375,-2.925714428710937,62.152671755725194,105.48091603053435,-4.534351145038168,-10.189722265624999,1.0989385620117187,0.07900865478515624,-18.045801526717558,-93.06870229007633,-16.717557251908396,0.0
11.660000801086426,-8.219294299316406,-3.5122938354492184,-0.4860229370117187,95.77099236641222,116.18320610687023,-6.67175572519084,-9.758765966796874,1.22583125,0.16759411621093748,-13.633587786259541,-95.14503816793894,-18.48854961832061,0.0
11.670000553131104,-11.671733093261718,2.664746447753906,1.4006079711914061,96.99236641221374,114.68702290076335,-16.076335877862597,-9.581595043945311,0.44532150878906246,0.22266075439453123,-17.603053435114504,-91.77099236641222,-19.587786259541986,0.0
11.68000078201294,-8.43956085205078,-0.2609679809570312,-2.473210314941406,80.03053435114504,101.12977099236642,-12.82442748091603,-9.188945971679686,-0.41898529052734373,-0.16280571289062498,-16.198473282442748,-89.63358778625954,-18.763358778625953,0.0
11.690000772476196,-7.3549875,-0.8714894042968749,-2.051830822753906,102.13740458015268,105.69465648854961,-10.106870229007633,-7.805097412109374,1.5466542724609373,-0.6081272216796875,-22.27480916030534,-86.70229007633588,-20.137404580152673,0.0
11.700001001358032,-10.924742175292968,3.749319799804687,0.5985504150390625,97.34351145038168,105.8473282442748,-13.48091603053435,-9.085995300292968,-0.15322890625,-0.04548983154296875,-19.923664122137403,-79.86259541984732,-16.748091603053435,0.0
11.71000075340271,-10.730811840820312,4.8123453369140625,-0.1292868896484375,70.25954198473282,94.87022900763358,-15.251908396946565,-8.99501563720703,-0.18914193115234373,-0.16041151123046873,-4.091603053435114,-77.54198473282443,-14.13740458015267,0.0
11.720000505447388,-10.797849487304687,6.593631372070312,0.9840168823242187,56.47328244274809,87.87786259541984,-13.770992366412214,-9.0021982421875,-0.023942016601562498,-2.6527754394531247,-8.961832061068701,-75.5114503816794,-12.717557251908397,0.0
11.730000734329224,-10.606313354492187,7.223306408691406,2.5354595581054684,29.419847328244273,78.35114503816794,-12.16793893129771,-8.350975390624999,1.3575123413085937,-2.142810485839844,-16.748091603053435,-64.70229007633588,-12.381679389312977,0.0
11.740000486373901,-9.392453112792968,7.694964135742187,1.7597382202148437,-6.183206106870229,62.56488549618321,-12.427480916030534,-10.534487304687499,-0.9864110839843749,-0.584185205078125,-19.236641221374047,-61.05343511450382,-7.6183206106870225,0.0
11.750000715255737,-8.379705810546875,5.023035083007812,1.0223241088867188,-23.00763358778626,52.10687022900763,-10.534351145038167,-10.565611926269531,-2.384624853515625,-2.3487118286132813,0.10687022900763359,-60.900763358778626,-8.458015267175572,0.0
11.760000944137573,-8.042123376464843,3.4524387939453125,1.388636962890625,-30.931297709923665,44.595419847328245,-8.641221374045802,-10.802637890625,-0.7062894897460937,-2.4444798950195312,-4.519083969465649,-60.045801526717554,-13.068702290076336,0.0
11.77000093460083,-11.449072338867186,6.440402465820312,5.027823486328125,-40.33587786259542,44.68702290076336,-11.786259541984732,-11.022904443359375,-1.0965443603515623,-0.6248866333007812,-5.145038167938932,-53.282442748091604,-14.977099236641221,0.0
11.780001163482666,-8.039729174804688,1.4987702392578124,1.5275006591796874,-52.83969465648855,32.33587786259542,-8.198473282442748,-10.608707556152343,-1.7693150268554687,-0.28730419921875,8.717557251908397,-58.732824427480914,-14.961832061068701,0.0
11.790000915527344,-8.145074047851562,0.22026655273437498,0.6416460449218749,-39.48091603053435,29.69465648854962,-7.175572519083969,-10.206481677246094,-1.2282254516601563,-0.23223756103515625,16.106870229007633,-65.77099236641222,-18.793893129770993,0.0
11.80000114440918,-10.261548315429687,1.7262193969726563,2.5378537597656248,-34.42748091603053,29.61832061068702,-8.854961832061068,-8.99501563720703,-1.0175357055664063,0.19393033447265623,8.687022900763358,-60.79389312977099,-22.106870229007633,0.0
11.810000896453857,-11.008539233398437,2.0733786376953125,2.9185318237304685,-33.847328244274806,29.954198473282442,-8.320610687022901,-9.883264453125,-1.9800047729492187,2.133233679199219,16.702290076335878,-63.465648854961835,-20.366412213740457,0.0
11.820000886917114,-10.89840595703125,2.003946789550781,2.01112939453125,-30.50381679389313,28.732824427480917,-9.038167938931299,-8.75320126953125,-0.7805097412109374,1.2832920898437499,20.091603053435115,-68.56488549618321,-23.66412213740458,0.0
11.830000877380371,-12.59589493408203,4.139574670410156,2.319981408691406,-42.83969465648855,25.099236641221374,-10.335877862595419,-9.605537060546874,-1.7214309936523438,2.4899697265625,18.458015267175572,-66.61068702290076,-22.458015267175572,0.0
11.840000867843628,-10.062829577636718,0.9313444458007812,1.0175357055664063,-41.908396946564885,24.366412213740457,-8.13740458015267,-9.138667736816405,-1.2808978881835937,2.288856787109375,25.984732824427482,-72.53435114503817,-24.549618320610687,0.0
11.850000858306885,-10.345345373535155,1.3215993164062498,0.8738836059570312,-39.86259541984733,23.87786259541985,-8.01526717557252,-8.635885388183594,-0.4955997436523437,2.8658593872070313,27.83206106870229,-73.81679389312977,-26.564885496183205,0.0
11.860000610351562,-10.651803186035156,1.8507178833007811,0.622492431640625,-46.274809160305345,22.412213740458014,-8.67175572519084,-9.557653027343749,-0.7637503295898437,3.2321722412109373,32.045801526717554,-75.96946564885496,-26.18320610687023,0.0
11.870001077651978,-10.682927807617187,2.5713725830078125,1.3144167114257812,-48.48854961832061,21.84732824427481,-10.51908396946565,-9.07163009033203,-0.1388636962890625,3.1292215698242187,29.572519083969464,-77.32824427480917,-27.083969465648856,0.0
11.880000829696655,-10.517727893066406,3.2154128295898436,1.7238251953125,-59.16030534351145,18.702290076335878,-12.351145038167939,-10.091559997558592,-0.24899697265624998,3.299209887695312,33.32824427480916,-80.41221374045801,-25.61832061068702,0.0
11.890001058578491,-8.583212951660157,0.07900865478515624,0.718260498046875,-53.3587786259542,18.03053435114504,-10.183206106870228,-8.908824377441405,0.19153613281249998,2.85388837890625,24.015267175572518,-80.41221374045801,-25.954198473282442,0.0
11.90000057220459,-12.282254516601562,3.6367923217773437,3.287238879394531,-56.97709923664122,16.763358778625953,-12.946564885496183,-9.840168823242188,-0.14604630126953125,3.881000891113281,22.870229007633586,-85.98473282442748,-22.595419847328245,0.0
11.910001039505005,-9.679757312011718,3.430890979003906,1.3742717529296875,-79.32824427480917,1.984732824427481,-12.717557251908397,-8.949525805664061,1.2042834350585936,3.6367923217773437,21.17557251908397,-81.98473282442748,-22.732824427480917,0.0
11.920001029968262,-9.45470235595703,1.8411410766601561,0.3016694091796875,-78.36641221374046,-0.22900763358778625,-9.282442748091603,-9.828197814941406,1.0630255371093749,4.302380383300781,10.305343511450381,-80.45801526717557,-16.82442748091603,0.0
11.93000078201294,-11.698069311523437,4.228160131835938,2.118868469238281,-80.54961832061069,0.7022900763358778,-10.65648854961832,-9.05965908203125,1.1540052001953125,4.295197778320312,0.2595419847328244,-77.90839694656489,-14.427480916030534,0.0
11.940000772476196,-10.433930834960936,2.592920397949219,1.1228805786132812,-97.26717557251908,-9.038167938931299,-7.6183206106870225,-9.469067565917967,0.7350199096679687,4.316745593261719,-1.8931297709923665,-77.57251908396947,-10.183206106870228,0.0
11.950000524520874,-9.624690673828125,-0.18435352783203124,0.6967126831054687,-79.31297709923665,-8.091603053435115,-4.427480916030534,-8.939948999023438,0.5219359619140624,4.4819455078125,-14.763358778625955,-74.3969465648855,-8.122137404580153,0.0
11.960000991821289,-9.502586389160156,-0.9648632690429687,1.3072341064453123,-64.41221374045801,-6.427480916030534,-2.564885496183206,-9.323021264648437,0.239420166015625,4.237736938476562,-15.755725190839694,-73.29770992366412,-6.442748091603053,0.0
11.970000743865967,-8.451531860351562,-1.7286135986328124,0.9361328491210937,-34.54961832061068,-2.0916030534351147,-1.9236641221374047,-8.097190014648437,0.15083470458984374,4.2497079467773435,-24.778625954198475,-68.61068702290076,-6.641221374045801,0.0
11.980000734329224,-8.604760766601562,-1.6328455322265625,1.1109095703125,-3.648854961832061,8.992366412213741,-3.099236641221374,-8.48505068359375,-0.8714894042968749,4.2521021484374995,-23.84732824427481,-66.12213740458016,-6.427480916030534,0.0
11.99000072479248,-8.614337573242187,-0.7158662963867187,1.005564697265625,7.679389312977099,12.900763358778626,-5.679389312977099,-7.44357296142578,-0.28730419921875,3.708618371582031,-31.129770992366414,-60.01526717557252,-8.213740458015268,0.0
12.000001192092896,-9.749189160156249,1.714248388671875,1.6472107421875,15.755725190839694,17.740458015267176,-7.66412213740458,-8.269572534179687,-1.5682020874023437,3.9552211425781247,-30.564885496183205,-55.847328244274806,-7.511450381679389,0.0
12.010000944137573,-9.445125549316407,3.9600095458984375,1.2904746948242187,3.2213740458015265,12.992366412213741,-7.267175572519084,-7.845798840332031,-0.9720458740234375,4.153939880371094,-26.595419847328245,-53.69465648854962,-8.961832061068701,0.0
12.02000117301941,-9.648632690429688,3.8953661010742184,0.9959878906249999,-6.793893129770993,12.534351145038167,-5.206106870229007,-6.358999609374999,-0.51714755859375,3.2561142578125,-38.229007633587784,-46.99236641221374,-12.534351145038167,0.0
12.030000686645508,-9.447519750976562,3.612850305175781,0.7445967163085937,-18.793893129770993,9.893129770992367,-3.2519083969465647,-7.742848168945312,-1.9033903198242186,4.395754248046875,-32.70229007633588,-44.19847328244275,-9.664122137404581,0.0
12.040001153945923,-9.3852705078125,2.5857377929687497,0.9121908325195311,-24.045801526717558,9.145038167938932,-4.030534351145038,-9.02135185546875,-2.2577321655273437,4.333505004882812,-24.671755725190838,-40.595419847328245,-8.122137404580153,0.0
12.0500009059906,-9.210493786621093,1.2593500732421874,0.5219359619140624,-17.31297709923664,8.900763358778626,-2.3053435114503817,-8.128314636230469,-1.6065093139648436,4.055777612304687,-20.65648854961832,-42.94656488549618,-9.068702290076336,0.0
12.060000896453857,-8.245630517578125,-1.0893617553710937,-0.5291185668945312,-4.732824427480916,11.435114503816793,-0.2595419847328244,-6.794744311523437,-1.4891934326171874,3.210624426269531,-16.85496183206107,-42.396946564885496,-12.778625954198473,0.0
12.070000886917114,-7.6614453125,-0.36631285400390623,-0.22505495605468748,10.198473282442748,18.931297709923665,-1.83206106870229,-6.399701037597656,-1.7310078002929687,3.0885201416015624,-16.9618320610687,-35.954198473282446,-15.709923664122137,0.0
12.080000877380371,-9.490615380859374,1.1061211669921875,0.2537853759765625,13.16030534351145,25.557251908396946,-6.152671755725191,-6.818686328125,-1.7860744384765623,3.8187516479492185,-12.16793893129771,-31.541984732824428,-13.511450381679388,0.0
12.090000629425049,-10.04846436767578,2.6408044311523438,0.9840168823242187,8.748091603053435,27.587786259541986,-7.404580152671755,-6.976703637695312,-2.2960393920898436,3.181894006347656,-11.557251908396946,-28.48854961832061,-10.0,0.0
12.100000858306885,-10.065223779296874,3.7229835815429686,0.9648632690429687,-0.015267175572519083,24.778625954198475,-6.8396946564885495,-9.0788126953125,-2.940079638671875,5.142745166015625,5.068702290076335,-30.427480916030536,-11.221374045801527,0.0
12.1100013256073,-11.133037719726563,3.2824504760742186,0.5363011718749999,-12.748091603053435,21.64885496183206,-7.022900763358779,-7.8362220336914055,-1.4508862060546874,4.015076184082031,10.274809160305344,-32.62595419847328,-13.404580152671755,0.0
12.120000839233398,-10.649408984374999,1.7357962036132812,0.42377369384765623,-13.908396946564885,21.46564885496183,-7.541984732824427,-7.5153990112304685,-1.1109095703125,4.783614916992187,8.244274809160306,-26.442748091603054,-14.793893129770993,0.0
12.130001068115234,-10.366893188476562,1.0127473022460938,0.7158662963867187,-11.938931297709924,24.30534351145038,-9.648854961832061,-6.3901242309570305,-0.6153098266601562,3.9240965209960934,4.030534351145038,-22.763358778625953,-15.053435114503817,0.0
12.140000581741333,-10.268730920410155,0.7493851196289062,1.0582371337890624,-5.770992366412214,23.923664122137403,-11.374045801526718,-7.240065820312499,-0.5746083984375,4.522646936035156,0.4580152671755725,-16.625954198473284,-11.938931297709924,0.0
12.150001049041748,-9.057264880371093,0.7829039428710937,0.6248866333007812,1.0229007633587786,23.49618320610687,-10.427480916030534,-5.954379528808594,0.718260498046875,3.806780639648437,-9.938931297709924,-7.862595419847328,-10.870229007633588,0.0
12.160000801086426,-9.390058911132812,2.583343591308594,1.43652099609375,0.9923664122137404,26.396946564885496,-12.091603053435115,-7.252036828613281,-0.74699091796875,4.314351391601562,-7.908396946564886,-2.9618320610687023,-5.404580152671755,0.0
12.170001029968262,-10.484209069824217,3.0502129150390624,1.5394716674804687,-3.618320610687023,24.366412213740457,-13.32824427480916,-6.737283471679687,-0.2561795776367187,3.8570588745117185,-8.793893129770993,-1.3893129770992367,-4.244274809160306,0.0
12.18000078201294,-9.852139831542969,2.109291662597656,1.3383587280273437,-1.4045801526717556,22.15267175572519,-11.267175572519085,-6.919242797851562,-0.5027823486328125,4.285620971679688,-9.251908396946565,2.045801526717557,-3.404580152671756,0.0
12.190000295639038,-9.787496386718749,1.6232687255859375,0.8690952026367187,-6.442748091603053,16.870229007633586,-9.648854961832061,-6.852205151367187,-0.5985504150390625,4.261678955078125,-10.580152671755725,5.511450381679389,-3.068702290076336,0.0
12.200000524520874,-9.842563024902343,1.458068811035156,0.9744400756835937,0.9312977099236641,17.6793893129771,-9.877862595419847,-7.194575988769531,-1.3407529296874998,4.180276098632812,-10.687022900763358,9.221374045801527,-1.5877862595419847,0.0
12.21000051498413,-9.64623848876953,0.9888052856445312,0.8882488159179687,-4.0,13.572519083969466,-10.473282442748092,-7.1586629638671875,-1.9536685546875,3.861847277832031,-9.435114503816793,11.297709923664122,-0.7480916030534351,0.0
12.220000505447388,-10.098742602539062,0.8978256225585937,1.0342951171875,3.6030534351145036,13.221374045801527,-11.801526717557252,-7.580042456054687,-2.6408044311523438,3.845087866210937,-4.748091603053435,14.229007633587786,-0.10687022900763359,0.0
12.230000734329224,-9.952696301269532,1.189918225097656,1.2521674682617188,8.870229007633588,11.923664122137405,-13.083969465648854,-7.728482958984374,-2.6695348510742187,4.211400720214844,4.687022900763359,15.236641221374045,-0.2748091603053435,0.0
12.240001201629639,-9.981426721191406,1.5682020874023437,1.3742717529296875,12.0,11.068702290076336,-13.145038167938932,-8.2360537109375,-2.1883003173828124,4.620809204101562,12.580152671755725,15.908396946564885,-0.22900763358778625,0.0
12.250000476837158,-9.885658654785155,2.147598889160156,1.189918225097656,14.83969465648855,9.633587786259541,-13.053435114503817,-8.444349255371094,-1.180341418457031,5.214571215820312,17.328244274809162,16.03053435114504,-0.9923664122137404,0.0
12.260001182556152,-9.95987890625,2.243366955566406,0.9026140258789062,15.541984732824428,8.183206106870228,-12.50381679389313,-8.626308581542968,-0.16280571289062498,5.652710119628906,16.427480916030536,16.83969465648855,-1.9083969465648856,0.0
12.27000093460083,-9.809044201660155,2.224213342285156,1.24498486328125,18.68702290076336,6.748091603053435,-10.977099236641221,-8.808267907714843,0.20829554443359374,5.499481213378906,12.763358778625955,19.87786259541985,-2.2748091603053435,0.0
12.280001163482666,-9.521740002441407,2.2290017456054687,1.369483349609375,22.137404580152673,5.419847328244275,-9.923664122137405,-9.09796630859375,0.39264907226562495,5.8610056640625,6.442748091603053,19.893129770992367,-2.198473282442748,0.0
12.290001153945923,-9.830592016601562,2.839523168945312,1.3455413330078123,22.80916030534351,4.061068702290076,-9.618320610687023,-9.006986645507812,-0.0526724365234375,6.311115576171875,-2.1526717557251906,19.129770992366414,-2.9923664122137406,0.0
12.30000114440918,-9.495403784179686,2.7844565307617186,1.5107412475585937,26.549618320610687,3.49618320610687,-7.66412213740458,-7.498639599609374,-0.22026655273437498,5.066130712890625,-16.793893129770993,23.51145038167939,-6.473282442748092,0.0
12.310001134872437,-9.557653027343749,3.423708374023437,1.4532804077148436,22.977099236641223,2.9160305343511452,-5.7251908396946565,-7.278373046874999,-1.8602946899414061,3.9935283691406247,-22.900763358778626,31.83206106870229,-5.770992366412214,0.0
12.320000648498535,-10.031704956054687,4.089296435546875,1.3215993164062498,14.65648854961832,1.3129770992366412,-4.763358778625954,-9.557653027343749,-2.6479870361328124,3.912125512695312,-19.6793893129771,41.786259541984734,-2.3053435114503817,0.0
12.330000638961792,-9.907206469726562,3.689464758300781,1.0534487304687499,8.82442748091603,-0.549618320610687,-3.2061068702290076,-3.526659045410156,1.7262193969726563,-1.2234370483398436,-21.00763358778626,31.34351145038168,-11.32824427480916,0.0
12.340000629425049,-10.196904870605469,4.141968872070312,1.1563994018554686,-0.3816793893129771,-1.297709923664122,-1.83206106870229,-0.9121908325195311,4.465186096191406,-5.2265422241210935,-52.152671755725194,55.12977099236641,-18.702290076335878,0.0
12.350000619888306,-10.924742175292968,5.53539423828125,1.8914193115234375,-26.564885496183205,-3.480916030534351,-0.3511450381679389,-5.039794494628906,0.26815058593749996,1.4317325927734375,-60.916030534351144,86.47328244274809,-0.2748091603053435,0.0
12.360000371932983,-11.25514200439453,4.386177441406249,2.4205378784179685,-42.99236641221374,-8.320610687022901,-0.5648854961832062,-9.603142858886718,-1.1133037719726562,3.3782185424804685,-57.25190839694657,99.02290076335878,16.30534351145038,0.0
12.37000036239624,-11.923124267578125,2.370259643554687,2.408566870117187,-45.343511450381676,-16.198473282442748,2.2595419847328246,-10.769119067382812,-1.5298948608398437,4.747701892089843,-46.44274809160305,95.49618320610686,21.52671755725191,0.0
12.380000591278076,-12.255918298339843,-0.2920926025390625,2.6312276245117188,-35.51145038167939,-22.580152671755727,3.954198473282443,-12.495338464355468,-3.3973721557617185,5.66946953125,-32.900763358778626,93.26717557251908,18.977099236641223,0.0
12.390000343322754,-12.794613671875,-2.308010400390625,3.0358477050781247,-15.664122137404581,-28.778625954198475,2.687022900763359,-9.035717065429687,-1.0917559570312498,4.168305090332031,-27.389312977099237,80.03053435114504,10.13740458015267,0.0
12.400001049041748,-13.666103076171874,-3.0430303100585934,3.6439749267578123,7.129770992366412,-32.656488549618324,-0.8702290076335878,-11.609483850097655,-2.0183119995117185,5.2648494506835934,-22.763358778625953,81.1145038167939,9.48091603053435,0.0
12.410001277923584,-13.407529296875,-3.1866824096679687,4.180276098632812,26.16793893129771,-37.31297709923664,-3.877862595419847,-8.836998327636719,-0.258573779296875,2.43250888671875,-26.564885496183205,72.82442748091603,10.885496183206106,0.0
12.420081377029419,-13.898340637207031,-1.9393033447265624,4.7764323120117185,47.31297709923664,-43.06870229007634,-7.603053435114504,-8.987833032226561,1.0175357055664063,2.427720483398437,-36.916030534351144,75.8473282442748,16.778625954198475,0.0
12.43000054359436,-14.350844750976561,1.0606313354492187,6.332663391113281,55.49618320610687,-49.17557251908397,-8.702290076335878,-7.920019091796875,1.3168109130859373,0.33758243408203126,-44.2442748091603,74.19847328244275,24.3206106870229,0.0
12.440000534057617,-15.423447094726562,3.373430139160156,7.287949853515625,39.17557251908397,-65.92366412213741,-7.343511450381679,-7.991845141601562,1.47482822265625,0.622492431640625,-61.11450381679389,87.58778625954199,32.534351145038165,0.0
12.450000762939453,-15.301342810058593,3.5410242553710933,7.520187414550781,25.053435114503817,-86.65648854961832,0.13740458015267176,-9.706093530273437,-0.82360537109375,0.16998831787109375,-61.847328244274806,88.59541984732824,39.16030534351145,0.0
12.46000051498413,-14.93263575439453,4.503493322753906,7.790732202148437,16.33587786259542,-103.66412213740458,2.900763358778626,-11.061211669921875,-4.290409374999999,1.1923124267578125,-49.954198473282446,89.90839694656489,41.55725190839695,0.0
12.470000982284546,-13.757082739257811,2.6982652709960937,6.967126831054687,2.198473282442748,-125.81679389312977,6.900763358778626,-9.066841687011719,-3.7158009765625,0.18435352783203124,-39.69465648854962,88.01526717557252,34.656488549618324,0.0
12.480001211166382,-13.314155432128905,2.9927520751953125,6.701370446777343,2.2900763358778624,-140.36641221374046,7.908396946564886,-10.927136376953124,-5.142745166015625,-0.296881005859375,-33.29770992366412,93.00763358778626,28.50381679389313,0.0
12.49000072479248,-12.42351241455078,1.3311761230468748,4.936843823242187,-4.763358778625954,-157.1908396946565,7.404580152671755,-10.539275708007812,-5.389347937011719,0.19632453613281248,-25.236641221374047,95.16030534351145,24.229007633587788,0.0
12.500000476837158,-11.49216796875,0.04548983154296875,2.6312276245117188,-7.099236641221374,-171.54198473282443,7.206106870229007,-10.793061083984375,-5.331887097167969,0.0430956298828125,-11.969465648854962,92.70229007633588,20.793893129770993,0.0
12.510001182556152,-11.341333264160156,-0.39743747558593745,2.123656872558594,-3.0076335877862594,-178.90076335877862,6.9465648854961835,-10.599130749511717,-5.212177014160156,1.1037269653320312,-1.2366412213740459,92.58015267175573,18.900763358778626,0.0
12.520001411437988,-10.55364091796875,-0.45010991210937495,0.97683427734375,3.3282442748091605,-181.63358778625954,10.83969465648855,-9.634267480468749,-2.863465185546875,2.1619640991210938,8.82442748091603,93.23664122137404,17.908396946564885,0.0
12.530001163482666,-11.334150659179686,-1.139639990234375,-0.7134720947265625,18.091603053435115,-179.2824427480916,15.129770992366412,-9.4618849609375,-3.1771056030273437,2.2074539306640624,19.69465648854962,88.06106870229007,19.587786259541986,0.0
12.540001392364502,-10.615890161132812,-1.5801730957031248,-1.1324573852539062,25.938931297709924,-171.55725190839695,17.786259541984734,-8.705317236328124,-1.43652099609375,0.5770026000976562,18.38167938931298,87.0381679389313,18.16793893129771,0.0
12.55000114440918,-11.195286962890624,-0.354341845703125,-0.7110778930664062,28.045801526717558,-163.49618320610688,17.83206106870229,-9.018957653808593,-1.668758557128906,3.1268273681640624,21.709923664122137,84.87022900763358,20.763358778625953,0.0
12.560000658035278,-11.235988391113281,-0.3902548706054687,-0.6464344482421874,28.793893129770993,-153.16030534351145,14.595419847328245,-9.236830004882812,-0.7517793212890624,0.9241618408203125,25.862595419847327,76.6412213740458,20.748091603053435,0.0
12.570000410079956,-10.457872851562499,0.2561795776367187,0.0526724365234375,27.51145038167939,-145.1145038167939,12.030534351145038,-9.53131680908203,-0.41898529052734373,1.7453730102539062,20.3206106870229,76.22900763358778,22.442748091603054,0.0
12.58000111579895,-9.90241806640625,0.29927520751953124,0.18435352783203124,19.81679389312977,-136.87022900763358,9.374045801526718,-9.943119494628906,-1.3072341064453123,2.104503259277344,22.015267175572518,70.3969465648855,24.977099236641223,0.0
12.590001106262207,-10.338162768554687,0.74699091796875,0.9959878906249999,17.96946564885496,-129.0229007633588,6.656488549618321,-9.593566052246093,-0.5913678100585937,0.239420166015625,12.229007633587786,65.70992366412214,25.84732824427481,0.0
12.600000619888306,-9.325415466308593,0.4429273071289062,1.448492004394531,15.099236641221374,-121.7557251908397,7.587786259541985,-9.576806640625,-1.956062756347656,0.6536170532226562,2.366412213740458,66.79389312977099,27.251908396946565,0.0
12.610000848770142,-9.313444458007812,0.6607996582031249,1.8028338500976562,5.175572519083969,-116.65648854961832,6.854961832061068,-10.778695874023438,-2.9041666137695312,1.3527239379882812,12.763358778625955,61.74045801526717,27.87786259541985,0.0
12.620001077651978,-8.90643017578125,0.928950244140625,2.221819140625,7.9541984732824424,-110.41221374045801,6.396946564885496,-9.196128576660156,-1.2808978881835937,-0.354341845703125,3.7251908396946565,59.404580152671755,23.633587786259543,0.0
12.630166053771973,-9.119514123535156,1.3168109130859373,2.123656872558594,-2.122137404580153,-109.70992366412214,7.557251908396947,-9.519345800781249,-0.7302315063476562,0.814028564453125,-8.412213740458014,62.0763358778626,23.297709923664122,0.0
12.640000581741333,-9.399635717773437,1.005564697265625,2.602497204589844,-4.595419847328245,-103.61832061068702,8.335877862595419,-11.508927380371093,-3.337517114257812,2.4779987182617185,-0.7480916030534351,59.51145038167939,26.977099236641223,0.0
12.650001287460327,-8.643067993164061,0.055066638183593745,1.8650830932617186,-8.610687022900763,-103.55725190839695,8.488549618320612,-9.579200842285156,-1.4772224243164063,1.426944189453125,9.954198473282442,50.595419847328245,26.15267175572519,0.0
12.660034894943237,-8.892064965820312,1.1659762084960936,2.3032219970703123,-6.1679389312977095,-96.13740458015268,7.893129770992366,-9.344569079589844,-0.1867477294921875,0.143652099609375,-9.099236641221374,49.725190839694655,25.87786259541985,0.0
12.67000126838684,-8.374917407226562,0.2154781494140625,1.2713210815429687,-14.045801526717558,-94.62595419847328,8.763358778625955,-11.173739147949219,-3.418919970703125,3.1603461914062496,-2.5801526717557253,50.94656488549618,32.48854961832061,0.0
12.680001020431519,-8.300697155761718,0.17238251953125,1.4149731811523436,-14.01526717557252,-87.89312977099236,7.358778625954199,-10.12507882080078,-3.545812658691406,2.2481553588867187,20.0,34.85496183206107,29.72519083969466,0.0
12.690000772476196,-6.787561706542968,-0.7565677246093749,0.7948749511718749,-4.763358778625954,-83.46564885496183,7.465648854961832,-10.843339318847656,-3.6727053466796873,1.9943699829101562,19.541984732824428,31.801526717557252,26.366412213740457,0.0
12.700000524520874,-6.828263134765624,0.4908113403320312,1.0079588989257813,0.549618320610687,-70.42748091603053,8.564885496183207,-9.605537060546874,-2.059013427734375,1.0319009155273438,18.27480916030534,28.717557251908396,23.72519083969466,0.0
12.71000051498413,-6.133944653320312,0.4429273071289062,0.4644751220703125,-0.015267175572519083,-64.58015267175573,8.916030534351146,-11.643002673339844,-4.062960217285156,3.9504327392578125,28.671755725190838,29.328244274809162,24.85496183206107,0.0
12.720034122467041,-6.402095239257812,1.2282254516601563,1.1923124267578125,1.6030534351145038,-53.29770992366412,8.625954198473282,-10.951078393554686,-3.9624037475585934,3.1411925781249996,41.48091603053435,24.412213740458014,22.366412213740457,0.0
12.730000972747803,-5.386953735351562,1.2330138549804688,0.4836287353515625,-2.7480916030534353,-48.29007633587786,10.01526717557252,-9.662997900390625,-1.4508862060546874,2.2002713256835937,32.595419847328245,24.580152671755727,16.458015267175572,0.0
12.740000486373901,-4.965574243164062,1.1875240234375,0.7134720947265625,-2.595419847328244,-37.63358778625954,13.129770992366412,-9.131485131835937,-1.180341418457031,1.1468225952148436,23.69465648854962,22.076335877862597,14.961832061068701,0.0
12.750000238418579,-4.486733911132812,0.040701428222656245,1.024718310546875,-1.6030534351145038,-26.717557251908396,12.885496183206106,-10.831368310546875,-3.821145849609375,2.6336218261718747,33.038167938931295,23.862595419847327,16.717557251908396,0.0
12.760000944137573,-4.477157104492187,-0.18914193115234373,2.0781670410156248,5.511450381679389,-16.412213740458014,10.717557251908397,-10.481814868164061,-4.707000463867187,0.833182177734375,43.45038167938932,8.595419847328245,15.877862595419847,0.0
12.770000696182251,-5.035006091308594,0.10773907470703124,2.91134921875,6.732824427480916,-8.458015267175572,4.549618320610687,-10.103531005859374,-4.412513659667969,2.0254946044921875,62.045801526717554,9.358778625954198,10.82442748091603,0.0
12.780000925064087,-4.668693237304687,-0.4165910888671875,3.418919970703125,9.664122137404581,-3.1603053435114505,4.320610687022901,-11.269507214355468,-4.61602080078125,2.291250988769531,84.58015267175573,-1.6946564885496183,7.893129770992366,0.0
12.790000677108765,-3.9169139160156248,-0.39743747558593745,3.5122938354492184,18.610687022900763,-1.0534351145038168,4.5038167938931295,-10.13226142578125,-2.731784094238281,1.2904746948242187,92.13740458015268,-9.648854961832061,8.106870229007633,0.0
12.80000114440918,-5.195417602539062,2.398990063476562,4.7931917236328125,31.099236641221374,11.022900763358779,5.786259541984733,-8.865728747558594,0.9576806640625,-0.612915625,82.2442748091603,-9.435114503816793,2.030534351145038,0.0
12.810000658035278,-3.7014357666015623,2.2457611572265623,4.077325427246094,35.541984732824424,17.786259541984734,9.007633587786259,-10.350133776855468,-0.5913678100585937,1.3192051147460937,62.10687022900763,-3.3893129770992365,5.557251908396947,0.0
12.820001125335693,-5.367800122070312,4.848258361816406,5.154716174316406,19.297709923664122,22.244274809160306,7.3893129770992365,-9.507374792480467,0.040701428222656245,0.59376201171875,74.09160305343511,-4.732824427480916,5.908396946564886,0.0
12.83000111579895,-4.821922143554687,3.957615344238281,4.989516259765625,9.603053435114504,22.80916030534351,8.412213740458014,-9.169792358398437,2.4205378784179685,0.63206923828125,65.92366412213741,0.9312977099236641,5.267175572519084,0.0
12.840001106262207,-5.480327600097656,5.1882349975585935,6.050147595214844,-6.931297709923665,25.083969465648856,11.145038167938932,-9.220070593261719,3.392583752441406,0.8020575561523438,27.221374045801525,7.679389312977099,6.900763358778626,0.0
12.850000858306885,-5.334281298828125,4.939238024902344,6.452373474121093,-20.885496183206108,25.435114503816795,14.01526717557252,-9.121908325195312,2.1068974609374997,1.4413093994140624,13.099236641221374,18.870229007633586,11.755725190839694,0.0
12.860000610351562,-5.3007624755859375,3.430890979003906,5.944802722167968,-27.16030534351145,26.137404580152673,18.763358778625953,-8.913612780761719,1.5945383056640625,1.927332336425781,15.32824427480916,19.6793893129771,13.206106870229007,0.0
12.87000060081482,-5.913678100585937,0.9600748657226562,6.4356140625,-19.740458015267176,34.36641221374046,22.427480916030536,-10.28549033203125,-0.41898529052734373,2.748543505859375,14.854961832061068,13.358778625954198,15.114503816793894,0.0
12.880000829696655,-5.406107348632812,-1.0654197387695312,7.5345526245117185,-6.061068702290076,40.38167938931298,21.87786259541985,-9.564835632324218,0.814028564453125,2.8203695556640622,12.381679389312977,12.351145038167939,11.725190839694656,0.0
12.890000820159912,-2.518700146484375,-4.220977526855468,3.821145849609375,-0.15267175572519084,47.70992366412214,14.946564885496183,-8.626308581542968,0.4333505004882812,2.655169641113281,-13.16030534351145,15.206106870229007,10.65648854961832,0.0
12.90000057220459,-3.536235852050781,-3.536235852050781,0.6823474731445313,-12.610687022900763,56.961832061068705,-6.870229007633588,-9.409212524414063,-1.0941501586914062,2.482787121582031,-21.14503816793893,11.541984732824428,12.83969465648855,0.0
12.910000801086426,-7.40526573486328,-1.0749965454101562,0.086191259765625,-21.19083969465649,64.30534351145039,-21.96946564885496,-9.521740002441407,-1.5777788940429687,3.0023288818359375,-12.045801526717558,5.557251908396947,12.213740458015268,0.0
12.920000553131104,-10.836156713867187,1.5969325073242187,4.264073156738281,15.694656488549619,74.61068702290076,-11.801526717557252,-10.649408984374999,-2.042254016113281,3.5338416503906247,-26.48854961832061,-2.1526717557251906,11.236641221374045,0.0
12.930001020431519,-13.78341895751953,4.929661218261718,7.931990100097655,52.67175572519084,84.65648854961832,7.221374045801527,-10.31661495361328,-0.9600748657226562,2.094926452636719,-37.16030534351145,-3.7099236641221376,10.778625954198473,0.0
12.940001249313354,-14.781801049804686,6.7277066650390625,8.300697155761718,55.87786259541985,82.62595419847328,16.48854961832061,-12.15536182861328,-3.1004911499023438,2.5234885498046875,-59.11450381679389,-14.13740458015267,8.564885496183207,0.0
12.950000524520874,-15.940594653320312,8.511386901855468,6.967126831054687,17.81679389312977,71.40458015267176,11.465648854961833,-11.690886706542969,-1.3934253662109375,2.4875755249023435,-40.229007633587784,-28.99236641221374,10.381679389312977,0.0
12.96000051498413,-14.573505505371093,6.41646044921875,1.7717092285156248,-41.541984732824424,55.41984732824427,5.877862595419847,-11.973402502441406,-0.9241618408203125,2.829946362304687,-31.221374045801525,-24.015267175572518,5.893129770992366,0.0
12.970000743865967,-12.409147204589843,3.5338416503906247,2.760514514160156,-62.458015267175576,53.06870229007634,4.106870229007634,-13.172897534179686,-1.5370774658203123,1.177947216796875,-48.88549618320611,-30.38167938931298,3.7099236641221376,0.0
12.980001211166382,-11.1474029296875,2.0470424194335934,3.423708374023437,-72.25954198473282,47.80152671755725,4.366412213740458,-14.063540551757812,-1.1109095703125,2.0877438476562498,-37.81679389312977,-32.2442748091603,-1.0076335877862594,0.0
12.990000486373901,-7.426813549804687,-0.8188169677734375,1.7501614135742187,-65.41984732824427,45.41984732824427,8.946564885496183,-12.765883251953124,2.2744915771484373,2.6192566162109374,-50.091603053435115,-37.43511450381679,-7.374045801526718,0.0
13.000000476837158,-7.625532287597656,-1.66636435546875,1.89620771484375,-49.05343511450382,52.396946564885496,9.465648854961833,-16.55351027832031,-0.93852705078125,3.2249896362304686,-42.54961832061068,-41.98473282442748,-2.122137404580153,0.0
13.010000705718994,-5.044582897949218,-4.991910461425781,0.507570751953125,-17.84732824427481,58.458015267175576,9.938931297709924,-16.881515905761717,-0.2705447875976562,4.223371728515625,-16.35114503816794,-54.50381679389313,-2.854961832061069,0.0
13.02000117301941,-6.339845996093749,-4.180276098632812,1.3407529296874998,29.31297709923664,78.38167938931298,4.3816793893129775,-14.796166259765624,1.6998831787109374,2.693476867675781,-14.580152671755725,-68.04580152671755,-5.00763358778626,0.0
13.030000686645508,-5.406107348632812,-5.7077767578125,-0.44532150878906246,61.954198473282446,86.56488549618321,3.9083969465648853,-13.606248034667967,0.4955997436523437,2.039859814453125,-11.755725190839694,-75.57251908396947,-2.1526717557251906,0.0
13.040000915527344,-6.552929943847656,-2.5809493896484375,0.8092401611328125,102.58015267175573,110.33587786259542,-2.015267175572519,-12.380416784667968,1.1635820068359375,1.7908628417968748,-5.541984732824427,-83.45038167938931,-0.8396946564885496,0.0
13.050000667572021,-8.396465222167969,0.34237083740234375,0.1197100830078125,121.77099236641222,117.57251908396947,-9.374045801526718,-11.875240234375,-0.1149216796875,2.1691467041015624,0.2900763358778626,-90.74809160305344,-0.3969465648854962,0.0
13.060000658035278,-10.785878479003905,3.411737365722656,1.8818425048828125,125.1145038167939,125.25190839694656,-11.17557251908397,-11.221623181152344,0.5793968017578125,1.9033903198242186,0.2595419847328244,-97.40458015267176,-1.8778625954198473,0.0
13.070000648498535,-7.764395983886718,1.848323681640625,-1.0199299072265624,116.27480916030534,120.12213740458016,-5.633587786259542,-9.629479077148437,1.8052280517578123,0.7876923461914062,-11.572519083969466,-94.56488549618321,-5.297709923664122,0.0
13.080000877380371,-10.24718310546875,3.5003228271484375,1.9752163696289062,112.77862595419847,125.83206106870229,-6.106870229007634,-10.524910498046875,-0.13407529296874998,1.2880804931640624,-12.488549618320612,-91.8473282442748,-3.786259541984733,0.0
13.090000629425049,-7.8362220336914055,-1.695094775390625,-0.07900865478515624,107.12977099236642,120.51908396946565,-4.625954198473282,-9.390058911132812,0.7158662963867187,0.40462008056640625,-8.290076335877863,-93.83206106870229,-5.801526717557252,0.0
13.100000858306885,-9.083601098632812,0.36391865234375,1.8267758666992187,120.45801526717557,125.78625954198473,-4.931297709923665,-8.827421520996094,0.6368576416015624,0.011971008300781249,-14.854961832061068,-86.47328244274809,-5.0534351145038165,0.0
13.110000610351562,-11.121066711425781,6.854599353027344,3.6080619018554687,96.10687022900764,114.07633587786259,-12.229007633587786,-8.700528833007812,0.201112939453125,0.21068974609375,-7.969465648854962,-84.70229007633588,-6.122137404580153,0.0
13.120000839233398,-7.951143713378905,2.4660277099609376,-0.239420166015625,61.86259541984733,94.93129770992367,-9.786259541984732,-7.644685900878906,0.3902548706054687,-1.7621324218749999,-14.992366412213741,-81.46564885496183,-7.343511450381679,0.0
13.130000591278076,-8.760383874511719,1.5921441040039062,-0.9193734375,62.656488549618324,91.49618320610686,-8.564885496183207,-7.773972790527344,1.369483349609375,-0.49799394531249996,-17.923664122137403,-69.31297709923665,-6.748091603053435,0.0
13.140000581741333,-11.324573852539062,6.177040283203125,3.555389465332031,41.29770992366412,85.37404580152672,-14.793893129770993,-8.398859423828124,-0.5793968017578125,-0.7398083129882812,-5.66412213740458,-63.37404580152672,-4.961832061068702,0.0
13.150000810623169,-10.670956799316405,6.4092778442382805,2.4684219116210935,9.16030534351145,69.25190839694656,-19.603053435114504,-8.779537487792968,-1.1659762084960936,-1.1707646118164061,-1.9236641221374047,-66.65648854961832,-3.7709923664122136,0.0
13.160000562667847,-10.350133776855468,7.9295958984374995,3.6367923217773437,-21.61832061068702,55.038167938931295,-20.946564885496183,-8.614337573242187,-0.8379705810546875,-2.1835119140624997,-3.480916030534351,-62.045801526717554,-6.0458015267175576,0.0
13.170000791549683,-9.435548742675781,6.062118603515625,2.003946789550781,-56.396946564885496,38.18320610687023,-20.83969465648855,-7.881711865234375,0.6488286499023437,-1.7908628417968748,-2.8091603053435112,-52.33587786259542,-8.198473282442748,0.0
13.18000054359436,-7.228094812011718,0.9050082275390624,0.07422025146484375,-66.76335877862596,29.572519083969464,-15.572519083969466,-10.32379755859375,-1.6136919189453125,-1.2689268798828124,4.8396946564885495,-47.80152671755725,-4.885496183206107,0.0
13.190000295639038,-7.857769848632812,-0.9864110839843749,0.9002198242187499,-44.2442748091603,32.3206106870229,-13.16030534351145,-9.576806640625,-0.928950244140625,-1.4245499877929686,15.16030534351145,-47.770992366412216,-8.641221374045802,0.0
13.200000524520874,-9.442731347656249,0.45010991210937495,2.379836450195312,-27.862595419847327,33.49618320610687,-14.198473282442748,-9.277531433105468,-0.2154781494140625,-1.2114660400390624,8.213740458015268,-43.38931297709924,-10.687022900763358,0.0
13.21000075340271,-9.437942944335937,0.7158662963867187,1.4987702392578124,-17.893129770992367,33.45038167938932,-15.511450381679388,-9.849745629882811,-1.20667763671875,0.22026655273437498,19.17557251908397,-42.25954198473283,-6.8396946564885495,0.0
13.220000505447388,-9.1554271484375,1.2952630981445312,1.3551181396484375,-8.183206106870228,34.412213740458014,-17.374045801526716,-9.603142858886718,-0.39264907226562495,-0.0526724365234375,32.900763358778626,-42.99236641221374,-9.694656488549619,0.0
13.230000734329224,-11.609483850097655,5.125985754394531,2.4492682983398435,-17.786259541984734,32.36641221374046,-21.236641221374047,-8.33182177734375,-0.4165910888671875,0.5291185668945312,18.763358778625953,-41.16030534351145,-12.427480916030534,0.0
13.240000247955322,-8.904035974121093,4.139574670410156,1.0749965454101562,-43.25190839694657,21.17557251908397,-19.51145038167939,-9.303867651367186,-0.6584054565429687,1.3670891479492187,21.129770992366414,-37.51145038167939,-10.564885496183207,0.0
13.250000238418579,-11.334150659179686,4.1946413085937495,1.4604630126953124,-57.00763358778626,18.015267175572518,-21.709923664122137,-9.414000927734374,-2.023100402832031,1.8291700683593748,20.9618320610687,-38.82442748091603,-11.358778625954198,0.0
13.260001182556152,-9.011775048828124,0.40222587890625,0.5195417602539062,-57.32824427480916,12.900763358778626,-18.442748091603054,-8.56166513671875,-0.6631938598632812,2.114080065917969,16.763358778625953,-39.7557251908397,-17.022900763358777,0.0
13.270000696182251,-9.95987890625,-0.1388636962890625,0.679953271484375,-41.25190839694657,17.17557251908397,-16.610687022900763,-9.100360510253905,-2.549824768066406,3.162740393066406,21.801526717557252,-36.99236641221374,-18.03053435114504,0.0
13.280001163482666,-8.396465222167969,-1.2378022583007813,0.44053310546874996,-29.770992366412212,20.610687022900763,-15.938931297709924,-9.277531433105468,-2.6599580444335937,3.7229835815429686,42.0763358778626,-45.38931297709924,-21.34351145038168,0.0
13.290000438690186,-10.939107385253905,1.3072341064453123,1.180341418457031,-20.549618320610687,23.374045801526716,-17.572519083969464,-8.384494213867187,-1.4221557861328125,3.890577697753906,37.23664122137404,-51.14503816793893,-27.908396946564885,0.0
13.3000009059906,-10.752359655761719,2.6336218261718747,1.3311761230468748,-31.64885496183206,20.015267175572518,-17.923664122137403,-10.165780249023436,-1.889025109863281,3.9049429077148434,42.900763358778626,-52.54961832061068,-29.862595419847327,0.0
13.310000896453857,-9.801861596679688,3.277662072753906,1.3120225097656248,-40.80916030534351,14.702290076335878,-16.763358778625953,-9.399635717773437,-0.5027823486328125,3.835511059570312,40.51908396946565,-58.83969465648855,-29.51145038167939,0.0
13.320000886917114,-10.54645831298828,3.0214824951171875,1.6519991455078125,-49.6793893129771,12.442748091603054,-16.610687022900763,-9.442731347656249,0.3399766357421875,4.333505004882812,36.595419847328245,-59.32824427480916,-31.083969465648856,0.0
13.330067873001099,-11.238382592773437,4.369418029785156,2.8371289672851563,-58.29007633587786,9.374045801526718,-16.15267175572519,-9.414000927734374,0.32561142578124996,4.61602080078125,35.81679389312977,-65.58778625954199,-28.229007633587788,0.0
13.340000629425049,-9.935936889648437,3.210624426269531,2.31758720703125,-69.45038167938931,-0.6870229007633588,-14.045801526717558,-9.804255798339844,1.3718775512695311,4.991910461425781,26.229007633587788,-61.57251908396947,-27.6793893129771,0.0
13.350001335144043,-8.40843623046875,0.5410895751953124,1.448492004394531,-58.778625954198475,-1.7251908396946565,-8.854961832061068,-9.677363110351562,1.1563994018554686,4.7764323120117185,19.328244274809162,-66.3206106870229,-24.198473282442748,0.0
13.360000848770142,-9.217676391601563,0.7517793212890624,2.023100402832031,-45.00763358778626,2.2442748091603053,-9.32824427480916,-8.911218579101561,2.013523596191406,5.2624552490234375,6.8396946564885495,-64.16793893129771,-22.9618320610687,0.0
13.370001077651978,-9.552864624023437,1.1875240234375,1.9201497314453124,-45.083969465648856,0.04580152671755725,-8.198473282442748,-8.693346228027343,1.1444283935546875,5.250484240722656,0.9312977099236641,-65.81679389312977,-19.51145038167939,0.0
13.380001068115234,-8.40125362548828,0.2825157958984375,1.149216796875,-35.221374045801525,1.3282442748091603,-6.6106870229007635,-7.924807495117187,2.068590234375,4.398148449707031,-13.816793893129772,-63.06870229007634,-17.984732824427482,0.0
13.390001058578491,-8.394071020507813,-0.5674257934570313,0.603338818359375,-19.908396946564885,6.534351145038168,-4.534351145038168,-8.020575561523437,0.6775590698242188,5.724536169433593,-19.389312977099237,-60.76335877862596,-15.557251908396946,0.0
13.400069952011108,-8.166621862792969,-0.7972691528320313,0.7302315063476562,-8.687022900763358,12.442748091603054,-5.679389312977099,-6.854599353027344,1.180341418457031,4.513070129394531,-26.12213740458015,-60.778625954198475,-15.511450381679388,0.0
13.410000801086426,-9.552864624023437,1.2042834350585936,1.6304513305664061,-1.8931297709923665,19.236641221374047,-9.465648854961833,-7.335833886718749,0.28730419921875,5.070919116210937,-35.11450381679389,-49.41984732824427,-14.16793893129771,0.0
13.420000791549683,-9.909600671386718,2.7557261108398436,1.6112977172851561,-11.389312977099237,16.244274809160306,-11.19083969465649,-7.517793212890624,-0.7158662963867187,4.407725256347656,-36.33587786259542,-46.412213740458014,-12.198473282442748,0.0
13.43000078201294,-11.051634863281249,3.6559459350585937,2.5474305664062498,-26.366412213740457,13.145038167938932,-11.923664122137405,-8.75320126953125,-0.7062894897460937,5.027823486328125,-35.12977099236641,-42.01526717557252,-12.534351145038167,0.0
13.440001249313354,-9.916783276367187,2.9041666137695312,2.0302830078125,-25.114503816793892,9.923664122137405,-7.984732824427481,-7.275978845214843,-0.03591302490234375,3.9360675292968748,-46.19847328244275,-39.14503816793893,-14.748091603053435,0.0
13.450214147567749,-9.421183532714844,2.3511060302734372,1.5298948608398437,-24.137404580152673,9.969465648854962,-6.076335877862595,-6.79953271484375,-0.5913678100585937,4.091690637207031,-46.58015267175573,-37.52671755725191,-16.519083969465647,0.0
13.460236310958862,-8.504204296874999,0.40462008056640625,0.9864110839843749,-20.229007633587788,10.641221374045802,-3.8931297709923665,-6.512228515625,-0.38307226562499996,3.105279553222656,-50.70229007633588,-28.9618320610687,-14.625954198473282,0.0
13.470000267028809,-8.116343627929687,-0.40940848388671874,0.565031591796875,0.6564885496183206,16.702290076335878,-4.458015267175573,-8.090007409667969,-2.2553379638671873,4.608838195800781,-45.725190839694655,-23.435114503816795,-12.687022900763358,0.0
13.480001211166382,-8.619125976562499,0.7541735229492187,0.9744400756835937,10.458015267175572,23.236641221374047,-6.595419847328245,-7.694964135742187,-2.0733786376953125,3.038241906738281,-40.274809160305345,-22.213740458015266,-10.732824427480915,0.0
13.490203380584717,-9.789890588378906,1.6136919189453125,1.1037269653320312,13.083969465648854,23.740458015267176,-7.679389312977099,-8.499415893554687,-2.750937707519531,4.017470385742187,-25.587786259541986,-23.053435114503817,-13.709923664122137,0.0
13.500000953674316,-9.564835632324218,1.1372457885742187,0.7805097412109374,14.427480916030534,25.34351145038168,-6.0458015267175576,-7.738059765625,-2.5713725830078125,4.034229797363281,-18.48854961832061,-21.435114503816795,-16.778625954198475,0.0
13.510000944137573,-9.275137231445312,1.6639701538085936,1.1085153686523437,16.595419847328245,28.412213740458014,-5.572519083969466,-8.781931689453124,-3.3710359375,4.611232397460937,-4.305343511450381,-22.732824427480917,-16.35114503816794,0.0
13.520187377929688,-9.957484704589843,2.8419173706054686,1.2856862915039062,11.587786259541986,28.458015267175572,-8.259541984732824,-8.520963708496094,-2.5546131713867184,4.242525341796875,6.809160305343512,-26.3206106870229,-15.603053435114504,0.0
13.530000925064087,-9.983820922851562,2.7054478759765623,0.7158662963867187,1.3129770992366412,24.427480916030536,-8.51908396946565,-8.731653454589843,-2.731784094238281,4.853046765136718,13.603053435114504,-29.282442748091604,-17.587786259541986,0.0
13.540011644363403,-10.228029492187499,3.0262708984374997,1.6998831787109374,-9.938931297709924,23.603053435114504,-9.236641221374045,-7.45075556640625,-1.8626888916015625,3.7110125732421873,16.778625954198475,-33.32824427480916,-19.19083969465649,0.0
13.550000667572021,-9.490615380859374,1.7980454467773437,1.3575123413085937,-16.15267175572519,20.290076335877863,-8.854961832061068,-6.675034228515624,-0.967257470703125,3.4835634155273434,14.442748091603054,-31.14503816793893,-20.778625954198475,0.0
13.560000658035278,-9.701305126953125,1.4867992309570313,1.0103531005859374,-26.931297709923665,15.603053435114504,-9.083969465648854,-7.484274389648437,-0.8379705810546875,4.7022120605468745,13.34351145038168,-28.427480916030536,-18.442748091603054,0.0
13.57000207901001,-9.528922607421874,0.6416460449218749,1.3239935180664062,-17.282442748091604,18.870229007633586,-10.213740458015268,-6.232106921386718,0.5722141967773438,4.522646936035156,2.6259541984732824,-22.396946564885496,-18.793893129770993,0.0
13.580000638961792,-9.79946739501953,1.4053963745117186,1.6065093139648436,-21.419847328244273,18.9618320610687,-10.259541984732824,-6.272808349609375,-1.2761094848632812,3.907337109375,0.732824427480916,-14.305343511450381,-13.83206106870229,0.0
13.590058326721191,-9.986215124511718,1.5418658691406248,1.5753846923828123,-20.793893129770993,16.35114503816794,-11.786259541984732,-8.161833459472655,-1.908178723144531,5.137956762695312,12.122137404580153,-14.717557251908397,-7.480916030534351,0.0
13.600001096725464,-9.672574707031249,0.842758984375,1.4891934326171874,-15.053435114503817,15.32824427480916,-10.610687022900763,-8.226476904296874,-1.5107412475585937,4.987122058105468,18.427480916030536,-16.549618320610687,-8.122137404580153,0.0
13.6100013256073,-9.622296472167967,0.7206546997070312,1.39821376953125,-8.83969465648855,15.007633587786259,-10.13740458015267,-7.632714892578124,-0.39743747558593745,5.552153649902343,19.541984732824428,-15.145038167938932,-9.908396946564885,0.0
13.620000839233398,-9.318232861328125,0.9504980590820312,1.3551181396484375,-4.366412213740458,14.473282442748092,-10.106870229007633,-7.156268762207031,-0.16998831787109375,5.65031591796875,14.793893129770993,-9.618320610687023,-11.49618320610687,0.0
13.630000352859497,-9.145850341796875,1.5825672973632812,1.3838485595703125,-3.4198473282442747,15.282442748091603,-10.320610687022901,-5.834669445800781,0.5386953735351562,4.405331054687499,8.80916030534351,-4.885496183206107,-10.83969465648855,0.0
13.640000820159912,-9.504980590820312,2.418143676757812,1.2425906616210938,-5.190839694656488,15.801526717557252,-10.946564885496183,-5.91846650390625,0.8858546142578124,4.498704919433593,-2.595419847328244,5.038167938931298,-6.061068702290076,0.0
13.650001049041748,-9.533711010742186,2.5258827514648434,1.3742717529296875,-10.82442748091603,15.083969465648854,-10.030534351145038,-6.4092778442382805,0.3016694091796875,4.110844250488281,-7.267175572519084,8.778625954198473,0.12213740458015267,0.0
13.660000801086426,-9.282319836425781,1.9776105712890624,1.3527239379882812,-12.16793893129771,14.50381679389313,-9.557251908396946,-6.715735656738281,0.5746083984375,3.9504327392578125,-9.83206106870229,12.763358778625955,3.5572519083969465,0.0
13.670001029968262,-9.392453112792968,1.4796166259765624,1.5538368774414062,-11.221374045801527,14.290076335877863,-8.885496183206106,-6.418854650878906,1.3359645263671873,3.3303345092773435,-17.419847328244273,17.282442748091604,4.1679389312977095,0.0
13.68000078201294,-9.727641345214844,1.3670891479492187,1.678335363769531,-10.15267175572519,13.603053435114504,-8.916030534351146,-7.620743884277343,0.04548983154296875,3.890577697753906,-18.85496183206107,22.519083969465647,6.366412213740458,0.0
13.690000772476196,-9.459490759277344,1.2042834350585936,2.152387292480469,-5.6183206106870225,12.564885496183207,-9.648854961832061,-7.345410693359375,1.0127473022460938,3.399766357421875,-23.64885496183206,24.53435114503817,5.038167938931298,0.0
13.700000762939453,-9.797073193359374,1.6543933471679686,2.6599580444335937,0.6106870229007634,11.17557251908397,-9.893129770992367,-7.912836486816405,0.7278373046875,2.849099975585937,-36.458015267175576,33.969465648854964,3.236641221374046,0.0
13.71000075340271,-9.813832604980469,2.6767174560546874,3.0597897216796874,1.0687022900763359,9.236641221374045,-9.206106870229007,-7.481880187988281,-0.02154781494140625,2.1164742675781247,-50.152671755725194,39.282442748091604,1.9236641221374047,0.0
13.720000743865967,-10.029310754394531,3.758896606445312,3.4668040039062498,1.3435114503816794,6.656488549618321,-7.312977099236641,-7.8170684204101555,-1.4532804077148436,3.6439749267578123,-66.3969465648855,53.05343511450382,-0.44274809160305345,0.0
13.730000972747803,-10.304643945312499,4.460397692871093,3.909731311035156,-6.366412213740458,4.1679389312977095,-3.8625954198473282,-8.686163623046875,-3.5051112304687497,4.278438366699218,-72.2442748091603,60.58015267175573,-0.1984732824427481,0.0
13.74000072479248,-10.87925234375,5.039794494628906,3.9911341674804683,-15.725190839694656,-0.9770992366412213,-1.8473282442748091,-8.123526232910155,-4.970362646484375,3.404554760742187,-67.43511450381679,68.42748091603053,-2.6412213740458017,0.0
13.750000715255737,-10.929530578613281,4.709394665527343,3.897760302734375,-24.045801526717558,-7.145038167938932,1.7404580152671756,-8.44674345703125,-4.565742565917969,2.7437551025390623,-47.19083969465649,69.06870229007633,-0.2595419847328244,0.0
13.760000944137573,-10.845733520507812,3.6296097167968746,3.816357446289062,-36.152671755725194,-12.67175572519084,4.183206106870229,-10.493785876464843,-4.924872814941406,4.592078784179687,-25.81679389312977,71.64885496183206,-0.21374045801526717,0.0
13.77000117301941,-10.845733520507812,0.8978256225585937,3.287238879394531,-37.52671755725191,-19.633587786259543,4.152671755725191,-11.197681164550781,-4.414907861328125,5.317521887207031,0.6564885496183206,63.86259541984733,4.885496183206107,0.0
13.780000925064087,-11.03248125,-3.0526071166992184,3.248931652832031,-9.404580152671755,-18.80916030534351,3.969465648854962,-9.428366137695312,-1.3239935180664062,1.5131354492187499,10.045801526717558,57.80152671755725,-3.2977099236641223,0.0
13.790076494216919,-10.85291612548828,-4.180276098632812,2.693476867675781,18.366412213740457,-20.625954198473284,0.6564885496183206,-9.689334118652344,0.23702596435546874,3.948038537597656,10.793893129770993,67.31297709923665,-3.1297709923664123,0.0
13.80000114440918,-11.987767712402343,-3.6248213134765623,2.932897033691406,32.94656488549618,-20.106870229007633,-4.625954198473282,-7.915230688476562,2.1068974609374997,0.7350199096679687,-6.763358778625954,66.68702290076335,-4.030534351145038,0.0
13.810000658035278,-15.91665263671875,-0.565031591796875,4.639962817382812,39.038167938931295,-25.893129770992367,-11.603053435114504,-7.594407666015624,3.0214824951171875,1.8722656982421875,-30.946564885496183,82.01526717557252,1.5725190839694656,0.0
13.820000648498535,-17.221492541503906,1.254561669921875,6.742071875,36.0763358778626,-38.48854961832061,-11.816793893129772,-9.65342109375,0.01915361328125,1.599326708984375,-44.19847328244275,88.54961832061069,13.679389312977099,0.0
13.830000877380371,-16.024391711425782,-1.0079588989257813,6.205770703124999,42.36641221374046,-55.63358778625954,-6.961832061068702,-10.491391674804687,-0.47644613037109373,0.45489831542968745,-49.06870229007634,85.1145038167939,19.34351145038168,0.0
13.840000867843628,-15.040374829101562,-2.2768857788085937,6.291961962890625,79.41984732824427,-64.10687022900764,-2.5801526717557253,-9.74200655517578,-0.5961562133789062,0.033518823242187495,-69.22137404580153,99.8473282442748,19.419847328244273,0.0
13.850000858306885,-15.3611978515625,0.316034619140625,6.4284314575195305,88.53435114503817,-73.41984732824427,-2.030534351145038,-9.557653027343749,-3.438073583984375,1.484405029296875,-67.98473282442748,102.07633587786259,22.763358778625953,0.0
13.860000848770142,-16.704344982910154,4.728548278808593,6.967126831054687,58.12213740458015,-94.99236641221374,-4.717557251908397,-10.568006127929687,-3.1268273681640624,0.03591302490234375,-48.900763358778626,91.43511450381679,23.96946564885496,0.0
13.870001077651978,-16.46492481689453,6.138733056640625,6.713341455078124,30.259541984732824,-119.17557251908397,-2.2290076335877864,-10.070012182617187,-2.5139117431640625,0.679953271484375,-49.20610687022901,100.18320610687023,22.244274809160306,0.0
13.880341053009033,-15.425841296386718,5.966350537109375,6.059724401855468,-3.1603053435114505,-142.83969465648855,4.137404580152672,-12.552799304199217,-4.000710974121094,2.559401574707031,-42.6412213740458,105.66412213740458,23.099236641221374,0.0
13.890001058578491,-14.429853405761717,4.2497079467773435,4.467580297851562,-15.633587786259541,-161.61832061068702,7.847328244274809,-9.41639512939453,-2.85388837890625,1.1037269653320312,-23.984732824427482,93.2824427480916,22.27480916030534,0.0
13.900001049041748,-12.442666027832031,2.123656872558594,3.294421484375,-18.259541984732824,-173.81679389312978,12.351145038167939,-11.489773767089844,-3.1962592163085937,2.4588451049804685,-9.694656488549619,89.6030534351145,24.015267175572518,0.0
13.910000801086426,-11.465831750488281,-0.8786720092773437,0.9624690673828125,-11.816793893129772,-179.38931297709922,18.198473282442748,-11.109095703125,-2.446874096679687,2.0278888061523435,-0.3816793893129771,84.4885496183206,25.770992366412212,0.0
13.92026686668396,-11.02529864501953,-2.0733786376953125,-0.17477672119140625,-4.213740458015267,-178.12213740458014,21.389312977099237,-10.524910498046875,-2.5570073730468748,2.020706201171875,7.816793893129771,73.90839694656489,27.96946564885496,0.0
13.930001020431519,-10.374075793457031,-1.8435352783203125,-0.7972691528320313,-2.595419847328244,-173.95419847328245,21.435114503816795,-9.34696328125,-0.6512228515624999,0.9720458740234375,9.816793893129772,67.32824427480917,27.358778625954198,0.0
13.940000772476196,-10.115502014160155,-0.93852705078125,-0.5219359619140624,-4.015267175572519,-167.61832061068702,18.977099236641223,-10.297461340332031,-0.12210428466796874,0.59376201171875,1.4198473282442747,69.66412213740458,27.358778625954198,0.0
13.950000524520874,-9.85692823486328,-0.7685387329101562,-0.4955997436523437,-9.053435114503817,-159.61832061068702,14.80916030534351,-10.651803186035156,-2.47081611328125,1.924938134765625,3.3740458015267176,65.19083969465649,30.259541984732824,0.0
13.960005760192871,-9.725247143554688,-0.10295067138671875,0.26815058593749996,-11.48091603053435,-152.21374045801528,8.900763358778626,-10.761936462402343,-2.214636535644531,1.0414777221679687,10.67175572519084,57.25190839694657,28.213740458015266,0.0
13.970000743865967,-9.639055883789062,-0.3711012573242187,0.0909796630859375,-10.473282442748092,-141.63358778625954,5.816793893129771,-8.74601866455078,-0.1005564697265625,-0.9313444458007812,-5.694656488549619,58.595419847328245,23.19083969465649,0.0
13.980000734329224,-9.605537060546874,1.3934253662109375,1.5394716674804687,-15.251908396946565,-131.84732824427482,4.1679389312977095,-9.016563452148437,-1.3551181396484375,1.2378022583007813,-14.625954198473282,62.534351145038165,22.458015267175572,0.0
13.99000072479248,-9.162609753417968,1.0845733520507812,1.3862427612304686,-14.610687022900763,-121.64885496183206,2.900763358778626,-9.713276135253906,-3.0119056884765625,1.8818425048828125,-7.648854961832061,57.51145038167939,24.061068702290076,0.0
14.000144720077515,-8.643067993164061,0.49320554199218747,0.737414111328125,-15.801526717557252,-116.4885496183206,3.145038167938931,-8.975862023925782,-3.337517114257812,-0.13407529296874998,-6.091603053435114,46.97709923664122,22.12213740458015,0.0
14.010001182556152,-8.856151940917968,1.7669208251953124,1.5203180541992187,-14.320610687022901,-106.93129770992367,4.152671755725191,-8.042123376464843,0.488417138671875,0.354341845703125,-15.770992366412214,48.0763358778626,16.702290076335878,0.0
14.02000117301941,-8.568847741699217,1.8411410766601561,1.455674609375,-24.045801526717558,-106.74809160305344,7.038167938931298,-9.07163009033203,-1.2641384765625,1.419761584472656,-32.80916030534351,53.64885496183206,18.229007633587788,0.0
14.030377388000488,-8.978256225585938,1.8746598999023436,2.2194249389648437,-28.366412213740457,-103.52671755725191,9.450381679389313,-10.330980163574218,-3.7804444213867185,2.0781670410156248,-18.412213740458014,44.091603053435115,22.427480916030536,0.0
14.040001153945923,-8.367734802246094,0.8571241943359375,1.1731588134765625,-29.16030534351145,-104.97709923664122,11.251908396946565,-8.51617530517578,-1.7262193969726563,0.7685387329101562,-15.114503816793894,35.43511450381679,20.625954198473284,0.0
14.0500009059906,-8.779537487792968,1.448492004394531,1.2497732666015624,-29.893129770992367,-101.87786259541984,13.648854961832061,-11.647791076660155,-2.0183119995117185,3.3782185424804685,-8.076335877862595,36.778625954198475,22.47328244274809,0.0
14.060001373291016,-7.915230688476562,0.03591302490234375,0.55545478515625,-27.66412213740458,-100.1526717557252,16.15267175572519,-9.720458740234374,-0.6512228515624999,0.5219359619140624,-9.389312977099237,30.931297709923665,21.81679389312977,0.0
14.070023536682129,-7.692569934082031,0.7565677246093749,1.1156979736328125,-29.083969465648856,-96.83969465648855,17.46564885496183,-7.975085729980468,0.814028564453125,0.24899697265624998,-22.244274809160306,28.30534351145038,20.106870229007633,0.0
14.080000638961792,-5.485116003417969,-2.013523596191406,-0.5123591552734374,-19.068702290076335,-90.91603053435115,22.061068702290076,-12.447454431152343,-3.4428619873046875,6.0908490234374995,-14.15267175572519,41.02290076335878,23.389312977099237,0.0
14.090000867843628,-4.587290380859375,-2.952050646972656,-0.7709329345703124,5.068702290076335,-71.46564885496183,22.793893129770993,-9.751583361816406,-3.124433166503906,1.209071838378906,-1.8015267175572518,26.702290076335878,25.17557251908397,0.0
14.10005235671997,-4.84586416015625,-2.626439221191406,-1.16837041015625,26.82442748091603,-54.47328244274809,19.740458015267176,-10.620678564453124,-3.794809631347656,1.4221557861328125,10.916030534351146,22.732824427480917,22.549618320610687,0.0
14.110000610351562,-5.025429284667968,-0.8643067993164062,-0.6105214233398437,35.6793893129771,-36.091603053435115,17.770992366412212,-9.842563024902343,-3.1579519897460937,1.47482822265625,11.435114503816793,24.717557251908396,20.12213740458015,0.0
14.12000060081482,-6.9527616210937495,1.5275006591796874,0.5746083984375,19.374045801526716,-30.625954198473284,13.404580152671755,-10.053252770996092,-3.1076737548828124,1.2425906616210938,20.259541984732824,21.14503816793893,20.290076335877863,0.0
14.130001068115234,-5.743689782714843,0.7709329345703124,0.9720458740234375,13.557251908396946,-20.458015267175572,14.687022900763358,-9.739612353515625,-2.090138049316406,1.6352397338867186,19.114503816793892,20.229007633587788,19.129770992366414,0.0
14.140000820159912,-6.2201359130859375,0.6177040283203125,1.1085153686523437,8.793893129770993,-11.206106870229007,14.854961832061068,-11.820173596191406,-3.347093920898437,3.6655227416992187,28.244274809160306,20.778625954198475,19.938931297709924,0.0
14.150001049041748,-4.735730883789063,-0.7948749511718749,1.01514150390625,17.6793893129771,0.7938931297709924,13.893129770992367,-9.112331518554686,-3.191470812988281,1.6927005737304686,38.274809160305345,8.580152671755725,17.267175572519083,0.0
14.160000562667847,-5.719747766113281,1.01514150390625,1.8100164550781248,12.061068702290076,9.007633587786259,6.8396946564885495,-12.636596362304687,-6.227318518066406,2.243366955566406,49.770992366412216,8.366412213740459,13.648854961832061,0.0
14.170001029968262,-6.505045910644531,0.9361328491210937,2.6599580444335937,-2.351145038167939,10.717557251908397,4.0458015267175576,-10.805032092285156,-5.05655390625,2.9041666137695312,72.90076335877863,-2.122137404580153,12.0,0.0
14.18000078201294,-5.444414575195312,-0.469263525390625,3.246537451171875,-2.2290076335877864,14.213740458015268,2.7022900763358777,-10.682927807617187,-3.878606689453125,1.6831237670898436,80.6412213740458,-10.366412213740459,14.50381679389313,0.0
14.190000772476196,-4.127603662109375,-0.4429273071289062,3.383006945800781,5.755725190839694,22.702290076335878,4.564885496183206,-7.888894470214844,-1.1755530151367186,-0.6919242797851562,61.908396946564885,-11.16030534351145,5.816793893129771,0.0
14.200000762939453,-5.03740029296875,1.8028338500976562,3.8857892944335934,4.916030534351145,30.0,3.3893129770992365,-9.758765966796874,-2.0159177978515626,2.5067291381835934,55.343511450381676,-6.9465648854961835,8.106870229007633,0.0
14.21000075340271,-5.444414575195312,1.9895815795898437,4.446032482910156,-6.137404580152672,31.786259541984734,2.7938931297709924,-9.730035546875,-1.6472107421875,1.3838485595703125,69.32824427480917,-11.694656488549619,10.381679389312977,0.0
14.220000505447388,-5.370194323730469,1.9584569580078124,4.936843823242187,-4.351145038167939,36.396946564885496,4.687022900763359,-8.621520178222656,1.1420341918945311,1.3215993164062498,58.85496183206107,-5.923664122137405,6.427480916030534,0.0
14.230000734329224,-5.559336254882812,2.858676782226562,5.913678100585937,-7.984732824427481,40.58015267175573,9.068702290076336,-9.050082275390624,0.1005564697265625,1.4532804077148436,28.641221374045802,-0.9312977099236641,7.816793893129771,0.0
14.24000072479248,-5.166687182617188,1.0534487304687499,7.266402038574219,-8.13740458015267,43.603053435114504,13.48091603053435,-9.277531433105468,-0.5817910034179687,2.5067291381835934,33.038167938931295,3.2061068702290076,10.183206106870228,0.0
14.250000953674316,-8.580818749999999,4.115632653808594,11.44667813720703,-8.595419847328245,42.62595419847328,12.01526717557252,-8.444349255371094,0.8786720092773437,1.946485949707031,33.083969465648856,6.534351145038168,10.595419847328245,0.0
14.260001182556152,-7.204152795410156,2.2768857788085937,11.164162341308593,-6.0458015267175576,33.541984732824424,19.46564885496183,-8.856151940917968,-0.03591302490234375,1.1540052001953125,10.65648854961832,17.72519083969466,13.648854961832061,0.0
14.270000696182251,-6.074089611816406,0.016759411621093748,11.556811413574218,11.099236641221374,32.83969465648855,23.862595419847327,-9.160215551757812,-0.7254431030273437,1.8626888916015625,-2.183206106870229,22.625954198473284,17.435114503816795,0.0
14.280001163482666,-9.471461767578125,2.104503259277344,11.705251916503906,36.87022900763359,33.20610687022901,29.221374045801525,-11.2240173828125,-3.028665100097656,2.35589443359375,14.106870229007633,25.358778625954198,17.954198473282442,0.0
14.290110349655151,-9.270348828125,3.35188232421875,7.800309008789062,51.52671755725191,33.63358778625954,38.29007633587786,-11.769895361328125,-2.4684219116210935,1.8100164550781248,35.14503816793893,25.404580152671755,18.16793893129771,0.0
14.30000114440918,-8.240842114257813,2.7341782958984373,2.607285607910156,41.23664122137404,37.969465648854964,40.67175572519084,-10.067617980957031,-1.6927005737304686,-0.603338818359375,21.419847328244273,25.46564885496183,23.6793893129771,0.0
14.310013771057129,-9.133879333496093,1.8650830932617186,2.6312276245117188,13.419847328244275,44.36641221374046,30.68702290076336,-10.070012182617187,-0.9600748657226562,-0.0383072265625,8.0,23.984732824427482,19.31297709923664,0.0
14.320054531097412,-9.363722692871093,1.5921441040039062,2.722207287597656,-13.755725190839694,46.10687022900763,17.908396946564885,-9.418789331054686,1.2952630981445312,-0.2059013427734375,3.3435114503816794,33.770992366412216,19.0381679389313,0.0
14.330000877380371,-9.512163195800781,0.8834604125976562,4.158728283691406,-32.16793893129771,44.12213740458015,11.145038167938932,-9.744400756835937,1.3838485595703125,0.9145850341796874,-10.549618320610687,39.38931297709924,22.732824427480917,0.0
14.340000867843628,-8.233659509277343,-0.93852705078125,6.294356164550781,-24.427480916030536,47.14503816793893,11.145038167938932,-9.962273107910155,0.34715924072265625,0.40462008056640625,-13.954198473282442,40.396946564885496,24.671755725190838,0.0
14.350062847137451,-8.724470849609375,-0.5674257934570313,7.9463553100585935,-8.763358778625955,47.25190839694657,7.251908396946565,-9.995791931152343,1.0486603271484374,1.4245499877929686,-30.38167938931298,39.02290076335878,24.03053435114504,0.0
14.360000610351562,-6.339845996093749,-2.5139117431640625,4.685452648925781,0.48854961832061067,46.0763358778626,7.251908396946565,-11.159373937988281,-0.6823474731445313,1.35990654296875,-27.64885496183206,36.656488549618324,24.366412213740457,0.0
14.370001077651978,-3.6727053466796873,-6.253654736328125,-0.9337386474609375,-3.984732824427481,47.267175572519086,1.1908396946564885,-11.17852755126953,-1.0079588989257813,1.5705962890624998,-18.65648854961832,29.022900763358777,22.259541984732824,0.0
14.380000829696655,-4.592078784179687,-6.610390783691406,0.00239420166015625,33.29770992366412,65.5114503816794,-6.885496183206107,-11.918335864257811,-0.8475473876953125,2.2481553588867187,-30.9618320610687,22.65648854961832,18.198473282442748,0.0
14.390001058578491,-7.036558679199218,-2.365471240234375,1.6136919189453125,61.221374045801525,81.93893129770993,-16.290076335877863,-12.76827745361328,-1.6735469604492186,2.1930887207031247,-30.03053435114504,19.114503816793892,15.404580152671755,0.0
14.40000057220459,-8.573636145019531,0.373495458984375,2.0350714111328125,70.22900763358778,85.45038167938931,-19.14503816793893,-14.532804077148437,-3.5913024902343746,3.9815573608398434,-22.85496183206107,6.99236641221374,14.106870229007633,0.0
14.410001039505005,-9.811438403320311,3.394977954101562,1.7956512451171873,75.89312977099236,91.74045801526718,-18.595419847328245,-14.207192651367187,-2.454056701660156,3.8379052612304685,-9.16030534351145,-2.4427480916030535,9.98473282442748,0.0
14.420001029968262,-10.05564697265625,4.721365673828124,2.3726538452148436,64.83969465648855,89.89312977099236,-16.458015267175572,-13.55357559814453,-1.8842367065429686,2.3870190551757813,1.5114503816793894,-20.15267175572519,6.0458015267175576,0.0
14.430001020431519,-10.869675537109375,5.884947680664062,2.0278888061523435,56.29007633587786,93.66412213740458,-13.908396946564885,-13.314155432128905,-1.3192051147460937,3.0621839233398433,-5.526717557251908,-26.641221374045802,3.5572519083969465,0.0
14.440014600753784,-9.868899243164062,4.414907861328125,0.2920926025390625,35.404580152671755,89.25190839694656,-10.351145038167939,-12.363657373046875,-0.6344634399414062,2.7198130859375,0.4732824427480916,-33.343511450381676,1.5725190839694656,0.0
14.450000762939453,-10.781090075683593,4.80755693359375,2.3487118286132813,23.31297709923664,86.82442748091603,-9.633587786259541,-11.891999645996092,-0.09576806640624999,2.8036101440429686,0.44274809160305345,-40.06106870229008,0.5343511450381679,0.0
14.46000075340271,-7.520187414550781,0.612915625,-0.6560112548828124,23.83206106870229,82.0,-3.3740458015267176,-11.322179650878905,0.2059013427734375,2.942473840332031,-4.0458015267175576,-45.17557251908397,-0.13740458015267176,0.0
14.470000743865967,-8.070853796386718,-1.5155296508789062,0.3495534423828125,58.0,97.57251908396947,-0.21374045801526717,-10.103531005859374,-0.07900865478515624,2.8323405639648436,5.480916030534351,-48.778625954198475,-2.687022900763359,0.0
14.480000734329224,-10.292672937011718,1.7693150268554687,0.9720458740234375,64.56488549618321,98.50381679389314,-3.2213740458015265,-9.97903251953125,0.2154781494140625,1.5634136840820312,9.236641221374045,-57.786259541984734,-6.427480916030534,0.0
14.49000072479248,-8.86812294921875,1.4820108276367188,0.8499415893554687,56.213740458015266,92.10687022900764,0.22900763358778625,-9.909600671386718,1.5227122558593749,1.3766659545898436,-5.66412213740458,-60.88549618320611,-7.145038167938932,0.0
14.500067949295044,-9.267954626464844,2.6767174560546874,1.3623007446289062,65.31297709923665,100.07633587786259,3.0229007633587788,-10.785878479003905,-1.5203180541992187,3.0837317382812497,-18.977099236641223,-66.85496183206106,-6.030534351145038,0.0
14.510000944137573,-11.197681164550781,4.656722229003906,2.8754361938476563,51.87786259541985,98.54961832061069,-2.3206106870229006,-10.342951171874999,-1.659181750488281,2.1260510742187497,6.687022900763359,-67.81679389312977,-7.66412213740458,0.0
14.52000117301941,-11.240776794433593,5.659892724609374,2.059013427734375,21.17557251908397,84.51908396946565,-5.4961832061068705,-10.177751257324218,-0.4836287353515625,1.2306196533203124,4.99236641221374,-77.7557251908397,-9.740458015267176,0.0
14.530000925064087,-8.686163623046875,0.603338818359375,0.5267243652343749,7.66412213740458,73.58778625954199,-2.9770992366412212,-8.353369592285155,1.5705962890624998,0.29927520751953124,-11.038167938931299,-76.04580152671755,-14.229007633587786,0.0
14.540001153945923,-7.936778503417968,-2.518700146484375,0.5051765502929687,29.954198473282442,82.4885496183206,-0.33587786259541985,-9.555258825683593,-1.3479355346679687,1.0582371337890624,-21.14503816793893,-75.12977099236642,-13.236641221374045,0.0
14.55000114440918,-9.694122521972655,0.8882488159179687,2.7916391357421872,41.786259541984734,85.92366412213741,-5.755725190839694,-10.24718310546875,-2.24097275390625,0.967257470703125,-0.7022900763358778,-79.08396946564885,-16.53435114503817,0.0
14.560000658035278,-10.721235034179687,3.0621839233398433,3.258508459472656,39.969465648854964,81.96946564885496,-8.961832061068701,-9.241618408203124,-0.3184288208007812,0.6464344482421874,-11.022900763358779,-80.41221374045801,-22.18320610687023,0.0
14.570000886917114,-10.66137999267578,3.670311145019531,2.4684219116210935,15.221374045801527,70.22900763358778,-12.900763358778626,-9.504980590820312,-1.6400281372070311,0.1388636962890625,-4.5038167938931295,-77.7557251908397,-23.572519083969464,0.0
14.580084323883057,-10.041281762695311,3.670311145019531,2.530671154785156,4.030534351145038,62.48854961832061,-15.358778625954198,-9.83777462158203,-0.55545478515625,0.1005564697265625,4.259541984732825,-78.8854961832061,-28.65648854961832,0.0
14.590000867843628,-10.647014782714843,4.934449621582031,3.0693665283203124,-9.312977099236642,54.045801526717554,-16.53435114503817,-9.236830004882812,0.48123453369140623,-0.622492431640625,-7.984732824427481,-72.45801526717557,-30.18320610687023,0.0
14.600000619888306,-9.349357482910156,2.942473840332031,1.235408056640625,-21.633587786259543,44.36641221374046,-14.931297709923664,-10.223241088867187,-1.2808978881835937,0.06464344482421874,3.6946564885496183,-68.35114503816794,-26.18320610687023,0.0
14.610000848770142,-9.370905297851563,3.0621839233398433,1.3766659545898436,-17.87786259541985,41.25190839694657,-13.86259541984733,-10.151415039062499,0.1580173095703125,-0.967257470703125,13.297709923664122,-67.78625954198473,-27.770992366412212,0.0
14.62000060081482,-11.666944689941406,5.734112976074218,3.450044592285156,-19.206106870229007,39.9236641221374,-14.916030534351146,-10.266336718749999,0.5195417602539062,0.6943184814453125,-4.534351145038168,-63.14503816793893,-26.65648854961832,0.0
14.630173206329346,-10.939107385253905,4.872200378417968,2.29843359375,-34.534351145038165,28.53435114503817,-12.82442748091603,-11.188104357910156,-0.833182177734375,0.6296750366210937,14.946564885496183,-59.45038167938932,-25.954198473282442,0.0
14.640000820159912,-9.701305126953125,2.5234885498046875,1.4820108276367188,-28.48854961832061,27.61832061068702,-10.213740458015268,-10.766724865722656,0.45010991210937495,0.3016694091796875,21.572519083969464,-59.099236641221374,-28.65648854961832,0.0
14.650001049041748,-10.967837805175781,3.057395520019531,1.6927005737304686,-31.068702290076335,25.236641221374047,-10.335877862595419,-10.32379755859375,0.21308394775390624,1.0654197387695312,8.931297709923664,-54.36641221374046,-28.50381679389313,0.0
14.660000801086426,-10.263942517089843,1.8195932617187498,1.1731588134765625,-28.793893129770993,23.587786259541986,-9.16030534351145,-11.188104357910156,-0.6081272216796875,1.5059528442382812,28.83969465648855,-52.12213740458015,-25.16030534351145,0.0
14.670000791549683,-9.112331518554686,-1.0175357055664063,0.0,-16.47328244274809,23.954198473282442,-7.129770992366412,-10.366893188476562,0.5267243652343749,1.2976572998046874,28.458015267175572,-58.2442748091603,-26.519083969465647,0.0
14.6803560256958,-12.181698046874999,3.0334535034179684,2.418143676757812,-3.7251908396946565,31.17557251908397,-11.786259541984732,-8.90643017578125,1.22583125,1.7836802368164062,19.603053435114504,-52.778625954198475,-28.65648854961832,0.0
14.690000772476196,-10.560823522949217,3.5769372802734374,2.2170307373046874,-22.061068702290076,23.221374045801525,-13.98473282442748,-10.237606298828124,0.2442085693359375,2.4205378784179685,17.893129770992367,-51.725190839694655,-24.35114503816794,0.0
14.700000762939453,-10.168174450683592,2.530671154785156,0.411802685546875,-26.99236641221374,21.328244274809162,-14.65648854961832,-10.450690246582031,0.48123453369140623,2.913743420410156,19.297709923664122,-56.48854961832061,-23.587786259541986,0.0
14.710000991821289,-10.687716210937499,3.0119056884765625,1.0534487304687499,-29.770992366412212,21.00763358778626,-14.717557251908397,-9.04050546875,1.216254443359375,2.437297290039062,8.183206106870228,-56.93129770992366,-26.045801526717558,0.0
14.720000743865967,-10.050858569335936,2.7198130859375,0.4644751220703125,-33.70992366412214,21.480916030534353,-13.49618320610687,-10.04846436767578,-0.7781155395507812,2.8275521606445313,6.916030534351145,-57.221374045801525,-23.221374045801525,0.0
14.730000734329224,-9.406818322753905,1.7477672119140624,0.17238251953125,-33.51145038167939,23.129770992366414,-12.82442748091603,-11.066000073242186,-0.7445967163085937,3.7110125732421873,16.595419847328245,-64.99236641221374,-22.0,0.0
14.740050554275513,-9.0021982421875,-1.13006318359375,-0.55545478515625,-21.358778625954198,25.358778625954198,-9.923664122137405,-9.370905297851563,0.3232172241210937,2.887407202148437,9.114503816793894,-67.74045801526718,-24.549618320610687,0.0
14.750000476837158,-12.380416784667968,4.4005426513671875,3.5098996337890624,-2.8244274809160306,39.98473282442748,-13.603053435114504,-9.952696301269532,-1.158793603515625,4.764461303710937,18.03053435114504,-72.21374045801527,-22.229007633587788,0.0
14.760001182556152,-10.026916552734374,3.8857892944335934,0.584185205078125,-31.66412213740458,28.198473282442748,-13.557251908396946,-8.839392529296875,-0.13646949462890623,2.9041666137695312,16.137404580152673,-78.18320610687023,-23.374045801526716,0.0
14.770109415054321,-9.131485131835937,1.6639701538085936,-0.5889736083984375,-32.916030534351144,27.389312977099237,-11.145038167938932,-9.536105212402344,0.062249243164062495,4.161122485351562,3.8625954198473282,-76.04580152671755,-20.85496183206107,0.0
14.780001163482666,-12.631807958984375,5.118803149414062,2.3726538452148436,-49.32824427480916,26.641221374045802,-15.099236641221374,-8.839392529296875,0.4165910888671875,3.7205893798828122,1.6793893129770991,-78.04580152671755,-20.33587786259542,0.0
