timestamp,Thigh_L_Acc_X,Thigh_L_Acc_Y,Thigh_L_Acc_Z,Thigh_L_Gyr_X,Thigh_L_Gyr_Y,Thigh_L_Gyr_Z,Thigh_R_Acc_X,Thigh_R_Acc_Y,Thigh_R_Acc_Z,Thigh_R_Gyr_X,Thigh_R_Gyr_Y,Thigh_R_Gyr_Z,gpio_output
10.000000476837158,5.449202978515625,-1.4867992309570313,0.5363011718749999,-37.267175572519086,105.19083969465649,35.69465648854962,-13.740323327636718,0.258573779296875,2.403778466796875,7.984732824427481,2.946564885496183,2.198473282442748,0.0
10.010000705718994,1.2282254516601563,-2.0829554443359375,6.56968935546875,-21.16030534351145,131.0229007633588,18.610687022900763,-12.136208215332031,1.3958195678710936,0.14604630126953125,24.106870229007633,3.786259541984733,5.938931297709924,1.0
10.020000457763672,-1.9776105712890624,-13.548787194824218,10.82179150390625,34.87022900763359,138.67175572519085,12.213740458015268,-14.226346264648436,0.6416460449218749,-0.016759411621093748,21.236641221374047,18.778625954198475,8.51908396946565,1.0
10.030000925064087,-17.300501196289062,-9.581595043945311,14.618995336914061,117.74045801526718,164.19847328244273,-0.8091603053435115,-13.61103643798828,3.8857892944335934,-2.2170307373046874,6.549618320610687,21.51145038167939,10.82442748091603,1.0
10.040001153945923,-22.594081066894528,0.45010991210937495,10.098742602539062,127.63358778625954,139.34351145038167,-22.33587786259542,-15.061922644042967,1.197100830078125,-0.49799394531249996,-18.702290076335878,35.23664122137404,20.35114503816794,1.0
10.050000667572021,-24.025813659667968,6.5385647338867185,10.788272680664061,97.14503816793894,121.20610687022901,-26.65648854961832,-13.974955090332031,-3.3399113159179685,1.0390835205078124,-37.74045801526717,36.62595419847328,21.480916030534353,1.0
10.060000896453857,-3.4093431640625,-10.319009155273436,3.1387983764648437,81.58778625954199,73.89312977099236,-9.648854961832061,-16.07706414794922,-0.5674257934570313,-0.20829554443359374,-37.51145038167939,26.106870229007633,13.786259541984732,1.0
10.070000648498535,-0.5889736083984375,-9.318232861328125,1.9321207397460936,164.94656488549617,115.40458015267176,-19.984732824427482,-14.698003991699219,-0.16519991455078123,1.1252747802734375,-54.778625954198475,25.87786259541985,10.977099236641221,1.0
10.08020806312561,2.7246014892578123,-11.410765112304686,-6.4834980957031245,159.17557251908397,104.99236641221374,-48.213740458015266,-15.148113903808593,-3.0310593017578125,2.231395947265625,-40.74809160305343,28.091603053435115,12.213740458015268,1.0
10.09000039100647,-7.213729602050781,-5.686228942871093,-4.201823913574218,194.5648854961832,127.74045801526718,-73.66412213740458,-17.90862841796875,-5.899312890625,3.356670727539062,-6.0458015267175576,11.465648854961833,17.81679389312977,1.0
10.100000619888306,-15.0164328125,4.218583325195312,-4.086902233886718,183.5114503816794,119.54198473282443,-92.4885496183206,-17.300501196289062,-4.108450048828125,1.6424223388671875,12.320610687022901,-14.595419847328245,14.13740458015267,1.0
10.110044717788696,-20.09692873535156,13.936647863769531,-1.0702081420898437,138.06106870229007,109.80152671755725,-92.50381679389314,-14.429853405761717,-0.45010991210937495,0.3112462158203125,24.33587786259542,-31.893129770992367,7.038167938931298,1.0
10.12000036239624,-17.56865178222656,15.595829614257811,0.36391865234375,65.32824427480917,87.74045801526718,-80.03053435114504,-12.717999218749998,0.565031591796875,1.1109095703125,20.30534351145038,-36.213740458015266,4.687022900763359,1.0
10.130000591278076,-13.115436694335937,10.558429321289061,-0.842758984375,-10.458015267175572,65.09923664122137,-66.58015267175573,-11.595118640136718,-2.233790148925781,2.81558115234375,23.19083969465649,-38.091603053435115,5.00763358778626,1.0
10.140076160430908,-10.579977136230468,4.42448466796875,-1.3239935180664062,-27.862595419847327,62.88549618320611,-58.916030534351144,-9.80665,-5.202600207519531,3.5242648437499997,43.52671755725191,-49.14503816793893,3.1603053435114505,1.0
10.15000033378601,-6.809109521484374,-0.3327940307617187,-2.499546533203125,-3.3282442748091605,68.58015267175573,-53.587786259541986,-8.494627490234375,-3.641580725097656,1.189918225097656,54.79389312977099,-58.595419847328245,-3.2519083969465647,1.0
10.160000562667847,-7.388506323242187,1.618480322265625,-1.005564697265625,15.587786259541986,78.29007633587786,-55.87786259541985,-7.582436657714843,-3.2225954345703123,0.8547299926757812,53.20610687022901,-56.732824427480914,-6.9465648854961835,1.0
10.170000553131104,-6.947973217773437,2.3487118286132813,-1.0630255371093749,29.572519083969464,88.10687022900764,-56.67175572519084,-8.319850769042969,-4.529829541015625,1.0510545288085937,65.98473282442748,-58.213740458015266,-7.511450381679389,1.0
10.18000054359436,-10.340556970214843,3.3351229125976563,1.149216796875,29.267175572519083,90.45801526717557,-57.25190839694657,-10.709264025878905,-5.422866760253906,-0.6009446166992187,86.35114503816794,-66.0,-7.038167938931298,1.0
10.190000772476196,-11.283872424316405,4.474762902832031,2.492363928222656,22.3206106870229,90.19847328244275,-57.63358778625954,-8.750807067871094,-0.2920926025390625,-6.248866333007812,89.83206106870229,-74.54961832061069,-15.770992366412214,1.0
10.200000762939453,-9.126696728515624,2.1835119140624997,2.4061726684570313,11.114503816793894,81.22137404580153,-54.213740458015266,-10.386046801757812,1.1013327636718748,-6.299144567871093,82.80916030534351,-60.656488549618324,-16.9618320610687,1.0
10.21000075340271,-9.009380847167968,2.2098481323242187,3.2561142578125,4.778625954198473,75.43511450381679,-55.06870229007634,-10.149020837402343,3.124433166503906,-7.4699091796875,75.38931297709924,-58.458015267175576,-22.045801526717558,0.0
10.220022916793823,-8.987833032226561,0.8307879760742187,2.961627453613281,4.6106870229007635,73.2824427480916,-56.76335877862596,-10.053252770996092,1.3096283081054687,-5.355829113769531,55.55725190839695,-43.93893129770992,-21.374045801526716,0.0
10.230000495910645,-8.552088330078124,0.9361328491210937,2.829946362304687,10.076335877862595,73.6793893129771,-57.587786259541986,-10.32379755859375,-0.17477672119140625,-3.42849677734375,60.62595419847328,-41.05343511450382,-23.862595419847327,0.0
10.24000072479248,-8.032546569824218,-0.22026655273437498,1.7477672119140624,11.358778625954198,68.87022900763358,-59.55725190839695,-9.816226806640625,0.7781155395507812,-1.5083470458984374,64.4885496183206,-41.038167938931295,-25.709923664122137,0.0
10.250000476837158,-8.259995727539062,-1.707065783691406,0.45489831542968745,30.061068702290076,73.55725190839695,-58.58015267175573,-8.008604553222655,3.114856359863281,-0.33039982910156246,55.52671755725191,-42.38167938931298,-28.35114503816794,0.0
10.260000705718994,-13.539210388183593,7.37414111328125,4.505887524414062,22.290076335877863,79.80152671755725,-62.50381679389313,-8.051700183105469,1.5682020874023437,2.2098481323242187,50.83969465648855,-37.87786259541985,-23.0381679389313,0.0
10.270000696182251,-11.511321582031249,4.055777612304687,1.6903063720703124,-12.946564885496183,58.36641221374046,-58.74809160305343,-8.073247998046874,0.488417138671875,2.849099975585937,55.93893129770992,-46.62595419847328,-18.16793893129771,0.0
10.280068397521973,-17.041927416992188,11.228805786132812,4.685452648925781,-29.129770992366414,58.25954198473283,-57.81679389312977,-9.13627353515625,0.33518823242187495,2.408566870117187,57.603053435114504,-57.725190839694655,-15.938931297709924,0.0
10.290000677108765,-9.605537060546874,1.3742717529296875,0.6584054565429687,-45.38931297709924,40.36641221374046,-45.55725190839695,-8.987833032226561,2.3822306518554686,1.5825672973632812,45.23664122137404,-66.18320610687023,-17.053435114503817,0.0
10.300107717514038,-11.71482872314453,1.678335363769531,1.6615759521484375,-40.10687022900763,41.267175572519086,-41.267175572519086,-10.412383020019531,0.9959878906249999,2.068590234375,40.74809160305343,-71.17557251908397,-15.282442748091603,0.0
10.310000658035278,-8.55448253173828,0.5195417602539062,0.16759411621093748,-36.213740458015266,39.51145038167939,-41.908396946564885,-9.911994873046874,0.8930372192382812,1.905784521484375,27.282442748091604,-79.89312977099236,-15.49618320610687,0.0
10.320001125335693,-15.243881970214844,8.066065393066406,4.766855505371093,-58.030534351145036,39.603053435114504,-46.717557251908396,-10.409988818359375,1.3934253662109375,1.2665326782226562,20.83969465648855,-89.6030534351145,-14.244274809160306,0.0
10.330000400543213,-9.153032946777342,2.059013427734375,-1.0845733520507812,-90.44274809160305,20.061068702290076,-40.229007633587784,-10.687716210937499,0.8595183959960937,1.2593500732421874,8.183206106870228,-95.77099236641222,-11.86259541984733,0.0
10.340001106262207,-17.003620190429686,9.797073193359374,3.787627026367187,-106.16793893129771,27.557251908396946,-40.274809160305345,-9.708487731933593,0.7398083129882812,1.3431471313476562,-10.473282442748092,-98.25954198473282,-10.549618320610687,0.0
10.350000381469727,-9.97184991455078,4.273649963378906,1.1228805786132812,-164.51908396946564,-7.893129770992366,-31.709923664122137,-10.081983190917969,0.5530605834960938,1.2880804931640624,-18.458015267175572,-105.57251908396947,-9.954198473282442,0.0
10.360000371932983,-17.621324218749997,9.888052856445311,5.9591679321289055,-155.80152671755727,1.6488549618320612,-24.977099236641223,-10.460267053222656,-1.1444283935546875,2.1547814941406247,-36.19847328244275,-100.97709923664122,-7.770992366412214,0.0
10.37000060081482,-11.37006368408203,0.26815058593749996,1.2856862915039062,-179.23664122137404,-27.114503816793892,-7.893129770992366,-10.24000050048828,-0.39264907226562495,0.8595183959960937,-36.74809160305343,-109.6030534351145,-11.526717557251908,0.0
10.380000591278076,-12.600683337402343,-0.4381389038085937,1.3120225097656248,-130.6259541984733,-17.572519083969464,4.900763358778626,-12.413935607910156,-3.0310593017578125,1.7908628417968748,-32.80916030534351,-108.07633587786259,-9.19083969465649,0.0
10.390000581741333,-8.307879760742187,-6.260837341308593,0.6488286499023437,-90.94656488549619,-14.198473282442748,10.549618320610687,-12.289437121582031,-2.559401574707031,1.39821376953125,-22.549618320610687,-110.80916030534351,-11.587786259541986,0.0
10.40000057220459,-9.794678991699218,-2.7844565307617186,1.8650830932617186,-49.70992366412214,2.3053435114503817,1.450381679389313,-10.342951171874999,-2.291250988769531,1.4341267944335936,-9.587786259541986,-113.52671755725191,-14.65648854961832,0.0
10.410000324249268,-8.252813122558594,-1.4101847778320311,0.9864110839843749,-36.01526717557252,5.816793893129771,-10.030534351145038,-9.777919580078125,-0.86191259765625,0.7972691528320313,8.748091603053435,-113.8473282442748,-16.045801526717558,0.0
10.420000553131104,-8.530540515136718,-1.1372457885742187,-0.7230489013671875,-6.183206106870229,18.412213740458014,-16.717557251908396,-9.212887988281249,-0.3136404174804687,0.7326257080078125,11.068702290076336,-106.65648854961832,-14.992366412213741,0.0
10.43000078201294,-9.842563024902343,1.8076222534179687,1.448492004394531,7.984732824427481,38.36641221374046,-24.16793893129771,-6.7803791015625,0.9959878906249999,0.36631285400390623,2.763358778625954,-96.18320610687023,-15.282442748091603,0.0
10.440000295639038,-11.688492504882811,4.934449621582031,2.528276953125,-7.343511450381679,38.82442748091603,-28.106870229007633,-8.810662109374999,-0.15562310791015624,1.2713210815429687,1.4045801526717556,-86.80916030534351,-10.977099236641221,0.0
10.450000762939453,-9.835380419921874,2.578555187988281,0.7350199096679687,-14.061068702290076,32.396946564885496,-20.748091603053435,-7.0652890991210935,2.0350714111328125,0.105344873046875,-14.702290076335878,-81.8473282442748,-12.702290076335878,0.0
10.460000276565552,-11.461043347167967,4.000710974121094,2.195482922363281,-20.244274809160306,36.656488549618324,-13.068702290076336,-8.346186987304687,0.16759411621093748,1.3192051147460937,-29.022900763358777,-69.93893129770993,-9.206106870229007,0.0
10.470000743865967,-11.389217297363281,2.7533319091796873,1.889025109863281,-38.94656488549618,28.03053435114504,-11.404580152671755,-12.210428466796873,-2.39420166015625,2.518700146484375,-23.87786259541985,-66.77862595419847,-5.938931297709924,0.0
10.480000495910645,-10.388441003417968,1.1037269653320312,1.0654197387695312,-23.87786259541985,31.64885496183206,-10.610687022900763,-12.145785021972655,-3.517082238769531,2.221819140625,-12.916030534351146,-74.03053435114504,-8.0,0.0
10.490015506744385,-9.011775048828124,-1.177947216796875,-0.612915625,-15.236641221374045,28.137404580152673,-10.625954198473282,-11.077971081542968,-2.925714428710937,1.4772224243164063,2.564885496183206,-85.78625954198473,-13.114503816793894,0.0
10.500000476837158,-10.395623608398436,0.9217676391601562,-0.45010991210937495,-7.374045801526718,30.519083969465647,-16.061068702290076,-9.473855969238281,-2.2002713256835937,2.3391350219726563,-0.32061068702290074,-79.81679389312977,-16.33587786259542,0.0
10.510000705718994,-10.984597216796875,1.608903515625,-0.00718260498046875,-20.396946564885496,29.72519083969466,-17.893129770992367,-9.701305126953125,-2.3630770385742186,2.518700146484375,9.48091603053435,-82.38167938931298,-15.618320610687023,0.0
10.520000457763672,-10.9941740234375,1.6424223388671875,-0.11731588134765625,-19.480916030534353,29.72519083969466,-16.83969465648855,-7.465120776367187,-0.229843359375,1.9321207397460936,2.2595419847328246,-79.86259541984732,-18.213740458015266,0.0
10.530000686645508,-10.572794531249999,0.239420166015625,0.055066638183593745,-24.03053435114504,32.12213740458015,-12.427480916030534,-8.79150849609375,-0.5961562133789062,2.6408044311523438,5.32824427480916,-74.3969465648855,-13.908396946564885,0.0
10.540000915527344,-9.22485899658203,-1.2378022583007813,-0.0430956298828125,-9.648854961832061,38.51908396946565,-11.34351145038168,-5.781997009277344,0.9840168823242187,0.93852705078125,-2.381679389312977,-73.06870229007633,-16.290076335877863,0.0
10.550000429153442,-9.821015209960937,-0.19393033447265623,1.465251416015625,-11.389312977099237,46.717557251908396,-16.732824427480917,-5.7317187744140625,-0.19871873779296872,1.254561669921875,-10.076335877862595,-57.37404580152672,-13.16030534351145,0.0
10.560001134872437,-10.398017810058594,-0.6105214233398437,2.592920397949219,-16.366412213740457,47.51145038167939,-20.0,-6.6319385986328125,-1.0390835205078124,0.25139117431640623,-5.847328244274809,-51.48091603053435,-11.770992366412214,0.0
10.570000410079956,-10.900800158691405,0.06703764648437499,2.9855694702148434,-9.893129770992367,47.02290076335878,-21.61832061068702,-4.50109912109375,-0.0430956298828125,-1.4413093994140624,-9.419847328244275,-39.969465648854964,-12.916030534351146,0.0
10.580000877380371,-10.472238061523436,0.8403647827148437,3.6679169433593746,-12.580152671755725,42.900763358778626,-21.267175572519083,-4.292803576660156,-0.5506663818359374,-2.0278888061523435,-14.916030534351146,-22.53435114503817,-11.251908396946565,0.0
10.590000867843628,-10.687716210937499,1.24498486328125,4.3239281982421875,-14.16793893129771,37.12977099236641,-19.541984732824428,-6.713341455078124,-2.521094348144531,-2.2385785522460937,-5.9541984732824424,-10.381679389312977,-6.412213740458015,0.0
10.600000858306885,-10.726023437499999,1.678335363769531,4.7189714721679685,-6.137404580152672,31.46564885496183,-18.99236641221374,-6.481103894042969,-2.269703173828125,-2.868253588867187,4.229007633587786,-1.83206106870229,-7.465648854961832,0.0
10.610000610351562,-11.702857714843748,2.4133552734375,5.011064074707031,-6.534351145038168,22.53435114503817,-16.366412213740457,-6.375759020996093,-1.9847931762695312,-2.7748797241210936,15.633587786259541,7.755725190839694,-7.8320610687022905,0.0
10.620000839233398,-11.389217297363281,3.7158009765625,4.984727856445312,-11.511450381679388,11.267175572519085,-13.664122137404581,-6.040570788574218,-1.8124106567382812,-2.7365724975585937,24.35114503816794,17.419847328244273,-7.755725190839694,0.0
10.630001783370972,-10.958260998535156,3.4572271972656248,4.75009609375,-12.305343511450381,2.595419847328244,-9.49618320610687,-6.48589229736328,-1.905784521484375,-2.2840683837890623,31.64885496183206,26.80916030534351,-6.961832061068702,0.0
10.640000581741333,-9.512163195800781,1.3383587280273437,3.9264907226562498,-4.5038167938931295,-4.290076335877862,-4.854961832061068,-5.801150622558594,-1.2785036865234374,-2.3127988037109373,35.31297709923664,33.23664122137404,-8.458015267175572,0.0
10.65000057220459,-9.363722692871093,1.9632453613281249,4.431667272949219,4.625954198473282,-5.419847328244275,-6.473282442748092,-4.891353991699218,-0.04548983154296875,-1.6041151123046875,33.02290076335878,42.900763358778626,-10.885496183206106,0.0
10.660082578659058,-11.568782421875,4.742913488769531,7.098807922363281,-8.030534351145038,-11.236641221374045,-11.129770992366412,-5.398924743652343,0.4165910888671875,0.29927520751953124,25.893129770992367,51.38931297709924,-9.48091603053435,0.0
10.670000553131104,-12.181698046874999,4.388571643066406,7.352593298339843,-19.83206106870229,-27.206106870229007,-10.50381679389313,-5.76523759765625,0.7876923461914062,0.5889736083984375,12.320610687022901,60.88549618320611,-7.877862595419847,0.0
10.68000054359436,-11.616666455078125,3.220201232910156,7.706935144042968,-18.80916030534351,-43.954198473282446,-2.717557251908397,-5.990292553710937,1.8148048583984373,-0.373495458984375,-1.1908396946564885,72.0,-4.290076335877862,0.0
10.690000772476196,-13.4458365234375,4.04141240234375,9.883264453125,-19.419847328244273,-57.48091603053435,-1.282442748091603,-8.482656481933594,0.6847416748046875,-0.3399766357421875,-11.251908396946565,81.8473282442748,1.282442748091603,0.0
10.700000524520874,-14.676456176757812,3.086125939941406,11.568782421875,-21.954198473282442,-82.6412213740458,-1.3282442748091603,-9.718064538574218,0.7493851196289062,-0.12449848632812499,-16.50381679389313,82.41221374045801,3.282442748091603,0.0
10.71000075340271,-15.600618017578125,2.1212626708984375,13.464990136718749,-3.053435114503817,-111.57251908396947,4.702290076335878,-10.905588562011719,0.3758896606445312,2.588131994628906,-27.64885496183206,87.46564885496183,6.030534351145038,0.0
10.720000743865967,-19.558233361816406,3.459621398925781,17.841590771484373,10.183206106870228,-139.2824427480916,9.16030534351145,-12.588712329101561,-1.3910311645507811,4.7189714721679685,-27.786259541984734,77.8473282442748,9.099236641221374,0.0
10.730000495910645,-20.803218225097655,4.197035510253906,17.355567834472655,22.977099236641223,-181.78625954198472,17.984732824427482,-11.362881079101562,-2.0183119995117185,5.193023400878906,-35.969465648854964,73.81679389312977,6.427480916030534,0.0
10.740000486373901,-22.139182751464844,5.57370146484375,15.691597680664062,26.702290076335878,-216.53435114503816,31.87786259541985,-12.076353173828124,-4.266467358398438,6.373364819335937,-29.251908396946565,72.06106870229007,7.694656488549619,0.0
10.750000476837158,-19.9197578125,2.77727392578125,10.98699141845703,35.32824427480916,-248.44274809160305,49.66412213740458,-11.58075343017578,-2.370259643554687,4.934449621582031,-22.137404580152673,66.4885496183206,6.961832061068702,0.0
10.760000705718994,-15.595829614257811,0.411802685546875,4.094084838867187,41.49618320610687,-257.69465648854964,68.65648854961832,-11.499350573730467,-0.7326257080078125,4.012681982421875,-8.16793893129771,63.45038167938932,11.770992366412214,0.0
10.770000696182251,-11.805808386230469,-4.3454760131835934,-3.7517140014648436,27.755725190839694,-248.7175572519084,80.90076335877863,-11.415553515625,2.1883003173828124,2.1739351074218747,2.6106870229007635,54.534351145038165,17.114503816793892,0.0
10.780000686645508,-11.628637463378906,-7.943961108398437,-5.834669445800781,53.20610687022901,-231.22137404580153,83.38931297709924,-8.700528833007812,3.6583401367187496,-0.011971008300781249,-7.1603053435114505,45.69465648854962,18.396946564885496,0.0
10.790000677108765,-9.124302526855468,-8.334215979003906,-7.115567333984375,86.50381679389314,-219.6946564885496,72.04580152671755,-9.126696728515624,1.8746598999023436,0.7685387329101562,-26.793893129770993,56.13740458015267,25.129770992366414,0.0
10.8000009059906,-11.449072338867186,-6.488286499023437,-4.012681982421875,103.93893129770993,-193.05343511450383,60.0763358778626,-10.723629235839843,-0.9337386474609375,0.5961562133789062,-28.671755725190838,54.656488549618324,32.0763358778626,0.0
10.810000658035278,-13.77144794921875,-3.318363500976562,1.5035586425781249,125.49618320610686,-175.00763358778627,45.083969465648856,-10.764330664062498,-0.38307226562499996,-0.22505495605468748,-40.01526717557252,60.18320610687023,36.274809160305345,0.0
10.820000648498535,-17.43457648925781,3.9264907226562498,6.679822631835937,118.59541984732824,-163.9236641221374,36.16793893129771,-11.741164941406248,-2.8131869506835936,0.07900865478515624,-42.045801526717554,64.30534351145039,39.00763358778626,0.0
10.830000400543213,-18.011579089355468,5.6311623046875,6.098031628417968,88.94656488549619,-172.8854961832061,36.10687022900763,-12.19366905517578,-4.764461303710937,0.5913678100585937,-38.01526717557252,67.64885496183206,36.717557251908396,0.0
10.840000867843628,-18.677167150878905,6.296750366210937,5.042188696289062,68.74809160305344,-176.5648854961832,42.58015267175573,-10.120290417480469,-4.6064439941406246,-0.48123453369140623,-27.328244274809162,63.45038167938932,27.282442748091604,0.0
10.850000619888306,-16.440982800292968,4.321533996582031,2.2361843505859373,43.9236641221374,-190.06106870229007,49.6793893129771,-8.59278975830078,-4.153939880371094,-0.4860229370117187,-17.96946564885496,64.09160305343511,21.61832061068702,0.0
10.860000848770142,-11.633425866699218,1.4532804077148436,-0.373495458984375,29.84732824427481,-193.0229007633588,54.717557251908396,-9.564835632324218,-5.310339282226562,0.5698199951171875,-7.66412213740458,68.82442748091603,20.85496183206107,0.0
10.87000060081482,-11.061211669921875,3.3159692993164063,-0.1292868896484375,10.580152671755725,-181.80152671755727,53.16030534351145,-4.73094248046875,-2.3367408203125,-3.1771056030273437,-0.24427480916030533,57.38931297709924,12.534351145038167,0.0
10.880000591278076,-8.923189587402343,4.541800549316406,-0.19153613281249998,-4.1679389312977095,-174.90076335877862,57.06870229007634,2.454056701660156,8.8489693359375,-9.995791931152343,-55.12977099236641,77.89312977099236,5.7251908396946565,0.0
10.890000581741333,-3.754108203125,5.044582897949218,-1.7597382202148437,-21.251908396946565,-162.6259541984733,68.06106870229007,-5.015852478027344,6.399701037597656,-3.5601778686523438,-154.41221374045801,158.67175572519085,34.48854961832061,0.0
10.90000057220459,-1.9632453613281249,1.7693150268554687,-1.6065093139648436,-39.86259541984733,-140.59541984732823,79.0381679389313,8.913612780761719,26.64746447753906,-24.370578698730466,-225.0381679389313,147.49618320610688,46.99236641221374,0.0
10.910000562667847,0.5889736083984375,2.901772412109375,-1.6615759521484375,-28.50381679389313,-102.77862595419847,75.02290076335878,-14.135366601562499,23.563732739257812,-16.87912170410156,-474.2290076335878,282.85496183206106,79.0381679389313,0.0
10.920000553131104,-7.649474304199218,5.049371301269531,0.26815058593749996,-45.541984732824424,-87.22137404580153,66.35114503816794,-20.530279235839842,-20.278888061523435,10.599130749511717,-342.21374045801525,274.03053435114504,129.2824427480916,0.0
10.930001020431519,-1.649604943847656,-7.850587243652344,-5.588066674804687,-22.870229007633586,-91.23664122137404,64.35114503816794,-20.01552587890625,-33.53318845214844,7.723694555664062,-106.91603053435115,208.8091603053435,128.13740458015266,0.0
10.940000772476196,2.887407202148437,-13.680468286132811,-5.487510205078125,46.33587786259542,-39.23664122137404,57.099236641221374,-8.674192614746094,-25.548525915527343,1.1875240234375,78.21374045801527,139.46564885496184,75.31297709923665,0.0
10.950000762939453,-0.8595183959960937,-3.4715924072265625,0.0047884033203125,89.23664122137404,6.290076335877862,36.091603053435115,-5.058948107910156,-5.410895751953125,-5.791573815917968,157.1908396946565,91.92366412213741,30.03053435114504,0.0
10.96000051498413,2.4779987182617185,5.928043310546875,0.258573779296875,59.038167938931295,2.763358778625954,30.15267175572519,-11.609483850097655,-9.342174877929686,4.96078583984375,128.3969465648855,104.70229007633588,30.870229007633586,0.0
10.970000743865967,-3.9552211425781247,13.20881055908203,3.758896606445312,6.961832061068702,12.717557251908397,27.770992366412212,-12.744335437011719,-0.02154781494140625,3.447650390625,147.98473282442748,60.38167938931298,21.480916030534353,0.0
10.980000734329224,-2.4660277099609376,11.269507214355468,2.310404602050781,-28.80916030534351,16.47328244274809,34.82442748091603,-23.365014001464843,-7.599196069335937,15.77539473876953,147.48091603053436,73.31297709923665,27.51145038167939,0.0
10.990000486373901,-1.6400281372070311,7.134720947265625,1.3144167114257812,-66.0,13.618320610687023,40.19847328244275,-12.785036865234375,5.705382556152343,3.4093431640625,166.18320610687022,22.091603053435115,6.351145038167939,0.0
11.000000238418579,4.627991809082031,-3.7708676147460936,-2.427720483398437,-71.81679389312977,20.641221374045802,43.66412213740458,-16.7402580078125,3.687070556640625,8.710105639648438,92.83969465648855,31.84732824427481,2.381679389312977,0.0
11.010000705718994,0.8068459594726562,-5.123591552734375,0.2442085693359375,-55.98473282442748,50.29007633587786,27.49618320610687,-12.038045947265624,8.741230261230468,2.521094348144531,55.86259541984733,12.091603053435115,-5.847328244274809,0.0
11.020000696182251,18.09298194580078,-20.209456213378903,-15.217545751953125,-10.763358778625955,52.25954198473283,28.717557251908396,-14.03241593017578,-1.2904746948242187,9.382876306152344,1.9083969465648856,34.70229007633588,3.236641221374046,0.0
11.030000686645508,11.77228956298828,-21.581333764648438,-9.236830004882812,136.793893129771,170.3206106870229,4.030534351145038,-9.495403784179686,1.350329736328125,3.277662072753906,2.5343511450381677,7.282442748091603,-0.07633587786259542,0.0
11.040000438690186,-2.940079638671875,-5.453991381835937,-0.9121908325195311,174.03053435114504,203.00763358778627,-55.12977099236641,-10.436325036621094,-1.2042834350585936,2.499546533203125,-15.755725190839694,11.740458015267176,-0.8549618320610687,0.0
11.050000667572021,-7.723694555664062,2.844311572265625,6.212953308105468,143.206106870229,176.65648854961833,-75.12977099236642,-15.442600708007811,-7.819462622070312,5.683834741210937,-27.587786259541986,33.9236641221374,11.145038167938932,0.0
11.060000896453857,-22.07693350830078,4.73094248046875,23.16868946533203,168.13740458015266,156.50381679389312,-59.45038167938932,-16.05791053466797,-9.023746057128905,3.6679169433593746,9.923664122137405,10.183206106870228,20.27480916030534,0.0
11.070000648498535,-38.295255554199215,26.446351538085935,19.043480004882813,147.55725190839695,100.3206106870229,-42.06106870229008,-14.638148950195312,-3.5601778686523438,-2.6791116577148437,15.587786259541986,-13.557251908396946,18.9618320610687,0.0
11.080000638961792,-20.930110913085937,0.6416460449218749,4.991910461425781,37.969465648854964,36.61068702290076,-23.374045801526716,-13.524845178222655,-2.1547814941406247,-1.2617442749023438,-11.618320610687023,-0.9770992366412213,17.16030534351145,0.0
11.090000629425049,-17.216704138183594,-0.8283937744140625,4.347870214843749,73.7557251908397,75.06870229007633,-14.045801526717558,-13.601459631347655,-4.192247106933594,1.0175357055664063,-10.870229007633588,7.893129770992366,14.80916030534351,0.0
11.100000619888306,-3.948038537597656,0.0,-0.1771709228515625,80.22900763358778,61.38931297709924,-14.82442748091603,-14.85602130126953,-3.593696691894531,2.1906945190429687,10.198473282442748,4.0458015267175576,10.83969465648855,0.0
11.110000610351562,2.250549560546875,-0.00718260498046875,-1.8052280517578123,113.3587786259542,75.19083969465649,-18.717557251908396,-13.888763830566406,-0.9552864624023437,0.814028564453125,25.49618320610687,-2.885496183206107,6.412213740458015,0.0
11.12000060081482,2.588131994628906,-4.565742565917969,-1.9512743530273435,100.33587786259542,74.80916030534351,-43.603053435114504,-14.094665173339843,0.24660277099609373,-0.6871358764648438,38.70229007633588,-6.6106870229007635,1.4961832061068703,0.0
11.130000352859497,-5.858611462402344,-2.2840683837890623,-2.0063409912109376,106.54961832061069,85.77099236641222,-66.59541984732824,-15.942988854980468,-1.2832920898437499,-1.2617442749023438,56.51908396946565,-14.244274809160306,2.3053435114503817,0.0
11.140000343322754,-10.620678564453124,0.5243301635742187,-2.5665841796874997,101.02290076335878,84.51908396946565,-76.22900763358778,-15.861585998535155,-0.4381389038085937,-2.3511060302734372,64.51908396946565,-22.259541984732824,3.1908396946564888,0.0
11.15000057220459,-14.604630126953124,4.57771357421875,1.3335703247070312,87.52671755725191,86.06106870229007,-75.92366412213741,-13.82172618408203,1.8435352783203125,-3.6248213134765623,55.61832061068702,-31.404580152671755,1.9389312977099236,0.0
11.160000562667847,-17.14248388671875,8.12113203125,4.204218115234375,42.87022900763359,76.0,-77.22137404580153,-13.967772485351562,0.3711012573242187,-2.250549560546875,53.00763358778626,-38.19847328244275,1.083969465648855,0.0
11.170000553131104,-13.881581225585936,7.201758593749999,2.1691467041015624,6.427480916030534,67.6030534351145,-74.33587786259542,-11.544840405273437,2.1691467041015624,-2.398990063476562,39.61832061068702,-43.57251908396947,-3.480916030534351,0.0
11.18000054359436,-9.179369165039063,2.482787121582031,-0.7972691528320313,-6.595419847328245,59.32824427480916,-67.78625954198473,-10.929530578613281,0.8475473876953125,-1.0869675537109373,36.30534351145038,-42.045801526717554,-4.8396946564885495,0.0
11.190000772476196,-8.14028564453125,-0.5722141967773438,-2.0087351928710935,9.022900763358779,63.6793893129771,-66.1526717557252,-8.37012900390625,-0.2346317626953125,-0.6248866333007812,39.12977099236641,-48.85496183206107,-6.564885496183206,0.0
11.200000524520874,-8.662221606445312,2.8275521606445313,-0.8810662109374999,35.587786259541986,79.93893129770993,-69.63358778625954,-8.269572534179687,-0.11013327636718749,-1.1420341918945311,42.76335877862596,-51.11450381679389,-8.335877862595419,0.0
11.21000075340271,-7.690175732421874,3.5601778686523438,-2.442085693359375,37.63358778625954,84.80916030534351,-69.17557251908397,-9.473855969238281,-2.023100402832031,0.25139117431640623,52.47328244274809,-49.603053435114504,-6.8396946564885495,0.0
11.220000505447388,-8.271966735839843,5.916072302246094,-1.8770541015625,32.6412213740458,91.8473282442748,-68.29007633587786,-10.139444030761718,-1.3910311645507811,-0.5865794067382812,71.89312977099236,-67.55725190839695,-9.267175572519085,0.0
11.230000495910645,-7.958326318359375,6.9527616210937495,-1.3048399047851562,20.977099236641223,97.38931297709924,-64.54961832061069,-9.275137231445312,0.622492431640625,-3.555389465332031,63.23664122137404,-72.10687022900764,-10.946564885496183,0.0
11.240000486373901,-9.533711010742186,6.639121203613281,0.239420166015625,-6.870229007633588,94.7175572519084,-60.85496183206107,-10.158597644042969,1.5705962890624998,-5.003881469726562,64.10687022900764,-68.68702290076335,-11.267175572519085,0.0
11.250000476837158,-8.760383874511719,3.3973721557617185,1.3431471313476562,-12.778625954198473,95.95419847328245,-59.16030534351145,-9.835380419921874,2.70065947265625,-4.953603234863281,49.00763358778626,-61.267175572519086,-9.664122137404581,0.0
11.260000705718994,-8.391676818847655,2.3535002319335936,1.6352397338867186,-18.091603053435115,91.86259541984732,-57.87786259541985,-11.166556542968749,1.9416975463867185,-3.2513258544921873,42.916030534351144,-57.16030534351145,-7.450381679389313,0.0
11.27000093460083,-7.230489013671875,-0.08858546142578125,1.5275006591796874,-10.473282442748092,90.4885496183206,-56.70229007633588,-9.519345800781249,3.284844677734375,-3.4069489624023435,24.3206106870229,-57.343511450381676,-8.83969465648855,0.0
11.280000448226929,-8.09479581298828,1.2761094848632812,2.7533319091796873,-13.34351145038168,86.73282442748092,-57.45038167938932,-9.260772021484375,2.109291662597656,-1.85790048828125,14.687022900763358,-51.7557251908397,-6.030534351145038,0.0
11.290000915527344,-7.843404638671874,-0.8667010009765624,0.842758984375,-6.076335877862595,85.02290076335878,-57.37404580152672,-9.10993731689453,1.3359645263671873,-0.258573779296875,15.84732824427481,-53.404580152671755,-4.458015267175573,0.0
11.300000429153442,-10.091559997558592,1.3359645263671873,2.109291662597656,-4.106870229007634,82.35114503816794,-59.17557251908397,-7.6231380859375,1.68551796875,0.07422025146484375,9.603053435114504,-59.64885496183206,-5.511450381679389,0.0
11.310000658035278,-8.379705810546875,-0.3806780639648437,0.32561142578124996,1.9236641221374047,80.35114503816794,-56.29007633587786,-7.548917834472656,3.6583401367187496,-0.143652099609375,-5.145038167938932,-62.33587786259542,-6.519083969465649,0.0
11.320000886917114,-14.456189624023436,8.396465222167969,4.276044165039062,-18.244274809160306,78.25954198473282,-60.091603053435115,-8.674192614746094,0.7015010864257812,1.5059528442382812,-14.625954198473282,-58.29007633587786,-2.564885496183206,0.0
11.330000638961792,-10.843339318847656,4.108450048828125,1.2689268798828124,-48.87022900763359,61.17557251908397,-55.267175572519086,-9.775525378417969,-0.6560112548828124,1.886630908203125,-9.114503816793894,-64.12213740458016,-2.7480916030534353,0.0
11.340000867843628,-12.981361401367186,6.847416748046874,1.838746875,-52.80916030534351,59.25190839694657,-51.343511450381676,-11.678915698242188,-2.427720483398437,3.0741549316406247,4.442748091603053,-71.52671755725191,-4.320610687022901,0.0
11.350000619888306,-7.038952880859375,-1.0893617553710937,-0.5793968017578125,-51.49618320610687,48.35114503816794,-40.62595419847328,-10.144232434082031,0.229843359375,1.0678139404296874,10.229007633587786,-92.36641221374046,-13.251908396946565,0.0
11.360000610351562,-14.312537524414061,5.073313317871094,3.754108203125,-56.33587786259542,52.62595419847328,-42.47328244274809,-10.651803186035156,0.3016694091796875,1.4221557861328125,13.954198473282442,-101.95419847328245,-15.664122137404581,0.0
11.37000060081482,-8.79150849609375,-0.05746083984375,0.00718260498046875,-60.76335877862596,44.091603053435115,-39.14503816793893,-11.863269226074218,1.2689268798828124,1.0390835205078124,17.206106870229007,-111.40458015267176,-13.679389312977099,0.0
11.380000591278076,-8.418013037109375,-0.3854664672851562,-0.16041151123046873,-58.44274809160305,39.31297709923664,-38.29007633587786,-11.841721411132811,0.5363011718749999,1.668758557128906,9.312977099236642,-115.57251908396947,-10.610687022900763,0.0
11.390000581741333,-8.875305554199219,0.3232172241210937,0.105344873046875,-55.83206106870229,45.343511450381676,-41.14503816793893,-12.42351241455078,1.3479355346679687,2.1691467041015624,-0.030534351145038167,-117.31297709923665,-7.755725190839694,0.0
11.400000810623169,-14.214375256347655,6.488286499023437,3.42849677734375,-87.43511450381679,38.35114503816794,-46.51908396946565,-11.79144317626953,0.93852705078125,2.5953145996093747,-15.84732824427481,-119.70992366412214,-5.358778625954199,0.0
11.410000562667847,-10.441113439941406,0.0909796630859375,-0.6009446166992187,-111.77099236641222,23.740458015267176,-37.465648854961835,-10.632649572753905,2.1787235107421874,1.7166425903320313,-29.72519083969466,-125.72519083969466,-5.1603053435114505,0.0
11.420000553131104,-13.01727442626953,4.544194750976562,2.01112939453125,-105.57251908396947,29.053435114503817,-32.10687022900763,-9.737218151855469,1.8818425048828125,0.9840168823242187,-44.656488549618324,-126.70229007633588,-3.3893129770992365,0.0
11.43000078201294,-9.698910925292969,-0.316034619140625,-0.7326257080078125,-116.51908396946565,22.015267175572518,-27.17557251908397,-10.237606298828124,0.9816226806640624,1.39821376953125,-52.99236641221374,-124.91603053435115,-2.33587786259542,0.0
11.440000295639038,-13.24711778564453,3.4931402221679684,1.7860744384765623,-101.93893129770993,26.076335877862597,-25.389312977099237,-11.195286962890624,-1.0773907470703123,2.3487118286132813,-62.412213740458014,-116.61068702290076,0.33587786259541985,0.0
11.450000762939453,-9.212887988281249,-1.0079588989257813,-0.1580173095703125,-105.7557251908397,18.35114503816794,-22.244274809160306,-9.399635717773437,-0.02154781494140625,0.9169792358398436,-65.93893129770993,-119.49618320610686,-3.8473282442748094,0.0
11.460000276565552,-15.279794995117186,3.1771056030273437,2.370259643554687,-96.25954198473282,25.358778625954198,-23.938931297709924,-10.122684619140625,-1.0079588989257813,1.1468225952148436,-62.67175572519084,-114.3206106870229,-4.549618320610687,0.0
11.470000743865967,-10.807426293945312,-0.0143652099609375,0.01915361328125,-104.90076335877863,14.549618320610687,-20.366412213740457,-9.74200655517578,-1.8459294799804686,1.7669208251953124,-63.282442748091604,-107.38931297709924,-7.4961832061068705,0.0
11.480000257492065,-11.93270107421875,2.003946789550781,1.944091748046875,-93.22137404580153,17.557251908396946,-16.53435114503817,-8.760383874511719,-1.3551181396484375,0.8858546142578124,-54.80916030534351,-107.61832061068702,-10.992366412213741,0.0
11.490000486373901,-11.116278308105468,0.1867477294921875,1.3192051147460937,-90.51908396946565,13.740458015267176,-15.053435114503817,-9.76116016845703,-2.1930887207031247,1.7094599853515624,-48.36641221374046,-98.42748091603053,-11.297709923664122,0.0
11.500000476837158,-12.023680737304687,1.149216796875,2.252943762207031,-74.51908396946565,15.282442748091603,-11.86259541984733,-9.509768994140625,-1.5107412475585937,0.8882488159179687,-37.23664122137404,-101.17557251908397,-13.19083969465649,0.0
11.510000705718994,-10.259154113769531,0.1484405029296875,1.687912170410156,-66.94656488549619,8.946564885496183,-9.969465648854962,-9.83777462158203,-2.080561242675781,1.9512743530273435,-33.37404580152672,-91.45038167938931,-13.770992366412214,0.0
11.520000696182251,-8.418013037109375,-1.7621324218749999,0.6368576416015624,-39.770992366412216,14.610687022900763,-6.580152671755725,-9.064447485351561,-1.3766659545898436,0.9145850341796874,-26.198473282442748,-94.94656488549619,-15.526717557251908,0.0
11.530000686645508,-8.681375219726561,-0.833182177734375,1.0199299072265624,-8.82442748091603,25.435114503816795,-9.98473282442748,-7.896077075195312,-1.7190367919921874,1.6903063720703124,-31.17557251908397,-83.12977099236642,-18.045801526717558,0.0
11.540000915527344,-12.682086193847656,3.6583401367187496,3.8690298828125,-27.16030534351145,20.580152671755727,-19.31297709923664,-7.975085729980468,-2.5809493896484375,1.5227122558593749,-19.00763358778626,-81.2824427480916,-19.755725190839694,0.0
11.550000667572021,-11.291055029296874,2.863465185546875,2.4013842651367185,-23.282442748091604,15.969465648854962,-19.267175572519083,-6.6271501953125,-0.8379705810546875,0.8475473876953125,-22.80916030534351,-73.14503816793894,-23.83206106870229,0.0
11.560000896453857,-11.858480822753906,4.103661645507812,2.308010400390625,-28.091603053435115,14.0,-8.82442748091603,-6.660669018554687,-1.4101847778320311,1.426944189453125,-27.709923664122137,-60.656488549618324,-23.49618320610687,0.0
11.570000410079956,-9.210493786621093,1.5658078857421873,-0.24181436767578124,-33.89312977099237,6.015267175572519,0.33587786259541985,-8.070853796386718,-2.147598889160156,2.0973206542968748,-24.0,-51.11450381679389,-21.572519083969464,0.0
11.580000877380371,-12.447454431152343,3.4572271972656248,1.9800047729492187,-30.80916030534351,12.717557251908397,2.885496183206107,-6.959944226074218,-1.9919757812499999,1.2952630981445312,-18.38167938931298,-51.06870229007634,-21.83206106870229,0.0
11.59000039100647,-10.953472595214842,0.55545478515625,0.6488286499023437,-38.01526717557252,6.549618320610687,3.7099236641221376,-7.819462622070312,-2.3032219970703123,1.62805712890625,-7.740458015267175,-45.63358778625954,-22.137404580152673,0.0
11.600000619888306,-8.262389929199218,-2.346317626953125,-1.1755530151367186,-22.717557251908396,7.297709923664122,4.793893129770993,-6.545747338867187,-1.9488801513671874,1.5873557006835937,-3.7557251908396947,-41.41984732824427,-24.763358778625953,0.0
11.610000610351562,-9.200916979980468,-2.0159177978515626,-0.1771709228515625,-8.916030534351146,17.984732824427482,-1.6946564885496183,-7.3837179199218745,-2.3343466186523436,1.7860744384765623,5.572519083969466,-34.778625954198475,-24.65648854961832,0.0
11.62000060081482,-12.052411157226562,1.1420341918945311,2.2673089721679687,-22.65648854961832,18.458015267175572,-13.755725190839694,-6.797138513183594,-2.272097375488281,1.6903063720703124,12.793893129770993,-30.015267175572518,-26.38167938931298,0.0
11.630000591278076,-10.218452685546874,-0.2059013427734375,0.9433154541015625,-13.893129770992367,17.786259541984734,-15.572519083969466,-6.926425402832031,-1.4700398193359374,1.6424223388671875,18.53435114503817,-25.068702290076335,-26.38167938931298,0.0
11.640000581741333,-11.410765112304686,1.2761094848632812,1.8363526733398436,-23.51145038167939,15.267175572519085,-15.16030534351145,-6.4092778442382805,-0.928950244140625,1.3718775512695311,23.587786259541986,-23.480916030534353,-26.259541984732824,0.0
11.65000057220459,-10.412383020019531,0.4165910888671875,1.0534487304687499,-17.66412213740458,12.549618320610687,-12.045801526717558,-6.552929943847656,-0.5817910034179687,1.7956512451171873,22.33587786259542,-14.717557251908397,-25.19083969465649,0.0
11.660000562667847,-10.520122094726561,-0.5243301635742187,1.659181750488281,-0.2595419847328244,21.557251908396946,-10.244274809160306,-5.801150622558594,-0.1388636962890625,1.2497732666015624,20.641221374045802,-10.778625954198473,-24.076335877862597,0.0
11.670000553131104,-8.384494213867187,0.02154781494140625,1.0295067138671874,4.99236641221374,21.984732824427482,-13.34351145038168,-6.248866333007812,-0.5315127685546874,1.4317325927734375,22.50381679389313,-3.4198473282442747,-21.61832061068702,0.0
11.680000305175781,-9.356540087890625,0.7757213378906249,1.6735469604492186,6.183206106870229,21.87786259541985,-18.47328244274809,-5.719747766113281,-0.39983167724609375,1.0702081420898437,22.47328244274809,1.8778625954198473,-20.396946564885496,0.0
11.690000772476196,-9.981426721191406,1.9129671264648436,2.7533319091796873,2.854961832061069,20.33587786259542,-18.045801526717558,-5.255272644042968,0.45489831542968745,0.34715924072265625,20.259541984732824,8.610687022900763,-19.16030534351145,0.0
11.700000524520874,-10.371681591796875,2.3295582153320313,3.4452561889648434,0.732824427480916,17.755725190839694,-15.572519083969466,-3.6080619018554687,0.967257470703125,-0.8954314208984374,13.84732824427481,17.00763358778626,-17.328244274809162,0.0
11.71000075340271,-10.565611926269531,2.693476867675781,4.13718046875,-2.6412213740458017,14.13740458015267,-12.106870229007633,-4.965574243164062,0.5195417602539062,-0.3064578125,8.488549618320612,33.465648854961835,-13.282442748091603,0.0
11.720000505447388,-9.765948571777344,3.2704794677734372,4.833893151855468,-11.221374045801527,6.259541984732825,-9.83206106870229,-5.267243652343749,-0.737414111328125,-0.48123453369140623,10.854961832061068,42.38167938931298,-8.778625954198473,0.0
11.730000495910645,-10.87206973876953,3.392583752441406,5.633556506347656,-23.69465648854962,-9.83206106870229,-7.603053435114504,-4.809951135253906,0.08140285644531249,-1.4796166259765624,13.16030534351145,50.595419847328245,-8.748091603053435,0.0
11.740000486373901,-9.945513696289062,0.8212111694335937,5.248090039062499,-13.32824427480916,-17.862595419847327,-2.0,-3.2321722412109373,1.8818425048828125,-2.31758720703125,5.587786259541985,63.6793893129771,-9.083969465648854,0.0
11.750000238418579,-10.216058483886718,1.2042834350585936,6.806715319824218,-2.732824427480916,-18.259541984732824,-0.3816793893129771,-5.61200869140625,0.16998831787109375,0.5386953735351562,-7.572519083969466,82.30534351145039,-2.8244274809160306,0.0
11.760000705718994,-11.310208642578125,1.848323681640625,8.810662109374999,-10.244274809160306,-30.12213740458015,-6.488549618320611,-8.030152368164062,-1.1228805786132812,1.7310078002929687,-7.145038167938932,80.2442748091603,0.21374045801526717,0.0
11.770000696182251,-12.574347119140624,3.392583752441406,9.749189160156249,-12.610687022900763,-49.20610687022901,-9.954198473282442,-9.526528405761718,-1.455674609375,2.9376854370117185,-14.01526717557252,85.70992366412214,0.04580152671755725,0.0
11.780000686645508,-13.081917871093749,2.7629087158203123,10.462661254882812,-11.465648854961833,-69.41984732824427,-5.984732824427481,-12.878410729980468,-2.310404602050781,3.603273498535156,-9.557251908396946,84.54961832061069,-0.33587786259541985,0.0
11.790000677108765,-14.635754748535156,2.272097375488281,11.84890401611328,-5.465648854961832,-91.17557251908397,-6.442748091603053,-14.693215588378905,-2.080561242675781,5.200206005859375,-13.48091603053435,83.66412213740458,-2.2748091603053435,0.0
11.8000009059906,-17.97087766113281,4.206612316894531,14.669273571777342,-7.129770992366412,-119.7557251908397,-5.00763358778626,-16.278177087402344,-2.0638018310546875,6.229712719726562,-13.297709923664122,73.2824427480916,-5.022900763358779,0.0
11.810000658035278,-18.18875001220703,3.4069489624023435,13.730746520996092,6.2748091603053435,-154.6259541984733,0.4732824427480916,-15.911864233398436,-3.0166940917968748,6.054935998535156,-10.366412213740459,62.534351145038165,-6.106870229007634,0.0
11.820000648498535,-19.86229697265625,3.1459809814453124,12.318167541503906,30.702290076335878,-179.05343511450383,12.442748091603054,-14.305354919433594,-2.463633508300781,5.061342309570312,-0.6106870229007634,51.3587786259542,-4.427480916030534,0.0
11.830000638961792,-19.864691174316405,4.893748193359374,9.823409411621093,39.02290076335878,-204.90076335877862,23.740458015267176,-9.507374792480467,0.29448680419921874,1.3335703247070312,6.564885496183206,40.0,-1.618320610687023,0.0
11.840000867843628,-20.118476550292968,5.659892724609374,7.793126403808594,28.213740458015266,-224.793893129771,39.41984732824427,-5.655104321289063,3.5051112304687497,-1.5945383056640625,0.549618320610687,42.58015267175573,1.633587786259542,0.0
11.850000619888306,-19.821595544433592,2.398990063476562,5.966350537109375,10.931297709923664,-240.0916030534351,57.099236641221374,-6.545747338867187,3.0430303100585934,-1.2617442749023438,-7.8320610687022905,57.9236641221374,13.114503816793894,0.0
11.860000610351562,-19.24219874267578,-0.2442085693359375,2.023100402832031,-6.2748091603053435,-246.70229007633588,73.16030534351145,-4.189852905273438,5.949591125488281,-4.5585599609375,-24.045801526717558,57.43511450381679,16.671755725190838,0.0
11.870000839233398,-15.715539697265624,-1.024718310546875,-0.6368576416015624,-6.931297709923665,-252.54961832061068,84.54961832061069,-6.586448767089843,4.019864587402344,-1.7741034301757812,-66.68702290076335,93.34351145038168,27.34351145038168,0.0
11.880000591278076,-14.444218615722656,-3.488351818847656,-0.507570751953125,-1.2213740458015268,-249.00763358778627,90.47328244274809,-8.762778076171875,1.388636962890625,-1.656787548828125,-94.70229007633588,114.04580152671755,39.16030534351145,0.0
11.890000581741333,-10.05564697265625,-4.264073156738281,-3.7900212280273435,23.34351145038168,-244.01526717557252,84.25954198473282,-13.579911816406248,-1.8626888916015625,0.12449848632812499,-104.33587786259542,127.90839694656489,48.87022900763359,0.0
11.90000033378601,-10.788272680664061,-2.806004345703125,-1.917755529785156,46.25954198473283,-222.29007633587787,75.7557251908397,-4.101267443847656,0.5339069702148437,-5.887341882324218,-108.03053435114504,113.89312977099236,41.98473282442748,0.0
11.910000324249268,-9.277531433105468,-3.2800562744140622,-1.0079588989257813,71.61832061068702,-202.90076335877862,66.94656488549619,-13.922282653808592,0.07422025146484375,-0.5578489868164063,-145.08396946564886,149.6030534351145,47.20610687022901,0.0
11.920000553131104,-11.566388220214844,-0.4381389038085937,2.3965958618164063,80.07633587786259,-180.3969465648855,59.908396946564885,-11.209652172851563,-1.3287819213867187,-1.0103531005859374,-121.45038167938931,136.76335877862596,56.6412213740458,0.0
11.93000078201294,-12.028469140624999,-1.4437036010742186,0.565031591796875,73.64885496183206,-172.8091603053435,49.954198473282446,-16.7402580078125,-6.950367419433594,2.9855694702148434,-89.45038167938931,130.7175572519084,65.16030534351145,0.0
11.940000534057617,-15.691597680664062,0.30406361083984373,3.3686417358398435,69.77099236641222,-154.91603053435114,43.74045801526717,-6.040570788574218,2.578555187988281,-5.240907434082031,-65.58778625954199,98.30534351145039,50.19847328244275,0.0
11.950001001358032,-13.757082739257811,0.19632453613281248,2.703053674316406,74.73282442748092,-153.55725190839695,44.35114503816794,-7.726088757324218,2.616862414550781,-4.618415002441406,-113.63358778625954,122.21374045801527,48.38167938931298,0.0
11.96000051498413,-12.284648718261717,-0.2609679809570312,3.258508459472656,67.16030534351145,-149.09923664122138,46.656488549618324,-1.70467158203125,4.829104748535156,-6.782773303222656,-109.20610687022901,104.27480916030534,46.2442748091603,0.0
11.970000743865967,-11.671733093261718,1.4437036010742186,2.5905261962890624,57.61832061068702,-142.35114503816794,43.038167938931295,-8.767566479492187,-2.454056701660156,-2.1619640991210938,-138.82442748091603,142.42748091603053,58.6412213740458,0.0
11.980000495910645,-3.825934252929687,-3.9839515624999997,-3.5122938354492184,61.099236641221374,-141.84732824427482,49.465648854961835,-8.279149340820313,-5.523423229980469,-0.5889736083984375,-83.90839694656489,132.91603053435114,62.2442748091603,0.0
11.99000072479248,-5.758054992675781,-0.6727706665039062,-1.438915197753906,67.6030534351145,-109.83206106870229,43.282442748091604,-9.988609326171874,-6.648698010253906,-0.33758243408203126,-32.25954198473283,131.87786259541986,64.21374045801527,0.0
12.000000476837158,-0.9145850341796874,-3.2728736694335936,-4.584896179199219,77.1145038167939,-99.3587786259542,45.61832061068702,-9.873687646484374,-3.778050219726562,-2.094926452636719,16.931297709923665,117.63358778625954,58.0,0.0
12.010000705718994,-6.332663391113281,1.419761584472656,-1.9632453613281249,72.19847328244275,-63.19083969465649,38.2442748091603,-10.572794531249999,-3.6535517333984373,-0.584185205078125,20.213740458015266,121.00763358778626,58.88549618320611,0.0
12.020000696182251,-1.5921441040039062,-1.1755530151367186,-5.798756420898437,75.09923664122137,-54.01526717557252,43.51145038167939,-10.187328063964843,-0.023942016601562498,-1.889025109863281,31.419847328244273,109.14503816793894,51.51145038167939,0.0
12.030000686645508,-5.03740029296875,2.868253588867187,-2.9041666137695312,66.7175572519084,-22.30534351145038,39.61832061068702,-11.631031665039062,-2.2744915771484373,0.6153098266601562,9.877862595419847,116.01526717557252,53.66412213740458,0.0
12.040000915527344,-6.665457421875,6.265625744628906,-2.291250988769531,22.870229007633586,-28.80916030534351,38.16793893129771,-11.875240234375,-1.6400281372070311,1.0486603271484374,24.458015267175572,104.01526717557252,50.56488549618321,0.0
12.050000429153442,-4.446032482910156,6.160280871582031,-2.7581203125,-7.587786259541985,-19.862595419847327,40.76335877862596,-11.872846032714843,-3.7110125732421873,1.8267758666992187,8.763358778625955,102.62595419847328,51.98473282442748,0.0
12.060001134872437,-0.5195417602539062,2.4660277099609376,-4.374206433105469,-35.37404580152672,-17.633587786259543,44.045801526717554,-11.499350573730467,-5.2624552490234375,2.6982652709960937,25.46564885496183,89.72519083969466,46.50381679389313,0.0
12.070000410079956,-1.22583125,1.7501614135742187,-1.1707646118164061,-31.358778625954198,11.419847328244275,42.6412213740458,-12.375628381347655,-5.365405920410156,1.388636962890625,36.87022900763359,76.53435114503817,37.37404580152672,0.0
12.080000877380371,4.264073156738281,-0.8092401611328125,-1.407790576171875,-10.50381679389313,23.51145038167939,45.57251908396947,-7.999027746582031,-1.637633935546875,-0.16759411621093748,21.908396946564885,64.59541984732824,23.52671755725191,0.0
12.09000039100647,1.216254443359375,3.5410242553710933,0.9409212524414062,13.877862595419847,57.93893129770992,39.7557251908397,-9.356540087890625,-2.530671154785156,2.8945898071289062,-2.2748091603053435,72.6412213740458,21.206106870229007,0.0
12.100000619888306,7.151480358886718,-4.161122485351562,-2.863465185546875,39.29770992366412,68.73282442748092,43.87786259541985,-11.401188305664062,-5.4899044067382805,4.6830584472656245,16.27480916030534,68.41221374045801,20.717557251908396,0.0
12.110000610351562,0.6512228515624999,-1.7214309936523438,2.4779987182617185,92.79389312977099,116.94656488549619,36.3206106870229,-9.916783276367187,-2.8107927490234372,2.5546131713867184,25.709923664122137,53.083969465648856,16.412213740458014,0.0
12.12000060081482,-1.1444283935546875,2.3630770385742186,4.84586416015625,103.89312977099236,121.52671755725191,23.6793893129771,-11.903970654296874,-1.6304513305664061,3.0789433349609374,18.15267175572519,52.47328244274809,9.389312977099237,0.0
12.130000352859497,-6.720524060058593,8.410830432128906,9.344569079589844,82.19847328244275,122.67175572519083,13.541984732824428,-11.690886706542969,-0.2657563842773437,1.4987702392578124,2.763358778625954,44.229007633587784,3.3587786259541983,0.0
12.140000581741333,-4.144363073730468,5.779602807617187,8.781931689453124,25.923664122137403,96.18320610687023,13.16030534351145,-16.915034729003906,-2.250549560546875,6.37815322265625,-0.9770992366412213,49.64885496183206,4.305343511450381,0.0
12.15000033378601,-6.6702458251953125,4.972756848144531,11.784260571289062,1.7709923664122138,85.14503816793894,5.038167938931298,-13.393164086914062,1.7717092285156248,1.216254443359375,-9.618320610687023,33.63358778625954,1.786259541984733,0.0
12.160000801086426,-2.2960393920898436,-1.0223241088867188,10.366893188476562,-11.816793893129772,61.66412213740458,-0.5954198473282443,-15.758635327148436,-4.7931917236328125,4.932055419921875,4.2748091603053435,36.19847328244275,7.8320610687022905,0.0
12.170000553131104,-6.045359191894531,-1.3287819213867187,9.737218151855469,12.564885496183207,60.74809160305343,-16.045801526717558,-12.61504854736328,3.277662072753906,-1.5370774658203123,3.7557251908396947,17.435114503816795,2.9770992366412212,0.0
12.18000054359436,-3.9336733276367184,-11.422736120605467,5.125985754394531,49.05343511450382,52.732824427480914,-14.732824427480915,-14.602235925292968,0.30885201416015623,-1.8267758666992187,-22.946564885496183,24.793893129770993,9.725190839694656,0.0
12.190000534057617,-12.816161486816405,-9.042899670410156,6.366182214355469,156.33587786259542,96.47328244274809,-15.557251908396946,-12.222399475097655,2.501940734863281,-5.185840795898438,-38.33587786259542,22.15267175572519,12.488549618320612,0.0
12.200000762939453,-13.577517614746093,-3.0406361083984375,4.517858532714843,163.81679389312978,89.54198473282443,-33.98473282442748,-19.421763867187497,-9.624690673828125,5.154716174316406,-15.877862595419847,40.229007633587784,27.64885496183206,0.0
12.21000075340271,-14.525621472167968,3.603273498535156,7.129932543945312,147.48091603053436,86.90076335877863,-43.786259541984734,-14.49928525390625,-6.536170532226562,0.316034619140625,46.76335877862596,7.679389312977099,25.801526717557252,0.0
12.220189332962036,-11.860875024414062,11.568782421875,5.999869360351562,108.47328244274809,59.83206106870229,-44.68702290076336,-18.160019592285156,-7.079654309082031,3.3446997192382812,74.29007633587786,4.519083969465649,22.33587786259542,0.0
12.230028867721558,-6.823474731445312,9.821015209960937,-0.9504980590820312,43.64885496183206,43.32824427480916,-45.00763358778626,-14.302960717773436,0.565031591796875,-3.1555577880859373,73.7557251908397,-11.893129770992367,2.549618320610687,0.0
12.240000247955322,-7.656656909179687,6.299144567871093,-2.568978381347656,-5.404580152671755,38.0763358778626,-54.213740458015266,-17.09220565185547,-1.8938135131835936,1.1061211669921875,71.90839694656489,-8.488549618320612,0.8244274809160306,0.0
12.250000476837158,-7.958326318359375,0.1484405029296875,-4.07971962890625,-18.412213740458014,32.18320610687023,-59.49618320610687,-15.337255834960937,-0.4333505004882812,-1.1540052001953125,93.96946564885496,-36.93129770992366,0.22900763358778625,0.0
12.260000467300415,-8.379705810546875,-1.678335363769531,-4.2880151733398435,8.198473282442748,46.19847328244275,-61.51145038167939,-13.61103643798828,2.2553379638671873,-3.284844677734375,75.64885496183206,-45.41984732824427,1.6488549618320612,0.0
12.270000696182251,-11.465831750488281,2.674323254394531,-2.408566870117187,25.923664122137403,65.5114503816794,-67.06870229007633,-11.645396875,1.3646949462890625,-0.36631285400390623,49.00763358778626,-44.717557251908396,3.3893129770992365,0.0
12.280000448226929,-13.395558288574218,5.439626171875,-1.4006079711914061,26.259541984732824,76.70229007633588,-65.77099236641222,-10.953472595214842,0.45968671875,0.4955997436523437,51.099236641221374,-52.97709923664122,5.145038167938932,0.0
12.290000677108765,-11.540052001953125,5.947196923828125,-1.946485949707031,25.282442748091604,87.58778625954199,-58.56488549618321,-10.40041201171875,0.7900865478515624,0.8571241943359375,29.251908396946565,-57.49618320610687,5.1603053435114505,0.0
12.3000009059906,-10.75714805908203,6.823474731445312,-1.7812860351562498,9.908396946564885,88.3969465648855,-54.56488549618321,-10.532093103027343,1.4149731811523436,0.8355763793945312,19.267175572519083,-63.603053435114504,2.16793893129771,0.0
12.310000658035278,-8.947131604003905,6.421248852539062,-0.6153098266601562,4.0,91.52671755725191,-51.7557251908397,-10.330980163574218,-1.6136919189453125,0.201112939453125,11.694656488549619,-61.3587786259542,1.1755725190839694,0.0
12.320000648498535,-9.504980590820312,5.276820458984375,-0.6919242797851562,-12.305343511450381,86.68702290076335,-51.23664122137404,-10.369287390136718,-3.9145197143554684,-0.10773907470703124,18.442748091603054,-68.87022900763358,-3.572519083969466,0.0
12.330000638961792,-9.552864624023437,4.541800549316406,0.4333505004882812,-18.16793893129771,87.6793893129771,-50.74809160305343,-11.188104357910156,-4.671087438964843,0.49799394531249996,35.52671755725191,-80.45801526717557,-10.83969465648855,0.0
12.340000867843628,-8.21690009765625,1.8315642700195311,0.14125789794921875,-23.480916030534353,84.1526717557252,-48.38167938931298,-10.735600244140624,-1.3670891479492187,-2.214636535644531,50.70229007633588,-102.21374045801527,-23.770992366412212,0.0
12.350000619888306,-8.647856396484375,2.8706477905273435,1.3623007446289062,-30.99236641221374,84.68702290076335,-49.25190839694657,-11.475408557128906,0.40940848388671874,-2.5737667846679684,44.656488549618324,-99.98473282442748,-28.396946564885496,0.0
12.360000610351562,-8.51617530517578,0.39743747558593745,0.9696516723632812,-38.67175572519084,81.69465648854961,-48.229007633587784,-14.259865087890624,1.199495031738281,-1.4437036010742186,46.62595419847328,-94.0,-29.328244274809162,0.0
12.37000060081482,-10.568006127929687,0.2154781494140625,2.7581203125,-30.03053435114504,86.06106870229007,-50.16793893129771,-11.781866369628906,4.261678955078125,-4.584896179199219,50.16793893129771,-104.74809160305344,-30.38167938931298,0.0
12.380000591278076,-9.813832604980469,-0.354341845703125,2.612074011230469,-21.83206106870229,83.80152671755725,-50.48854961832061,-11.987767712402343,3.948038537597656,-2.5905261962890624,31.52671755725191,-89.57251908396947,-27.31297709923664,0.0
12.390000581741333,-10.122684619140625,0.7565677246093749,3.2632968627929686,-13.297709923664122,86.33587786259542,-51.64885496183206,-8.793902697753905,5.410895751953125,-4.031835595703125,29.404580152671755,-91.00763358778626,-28.3206106870229,0.0
12.40000033378601,-10.031704956054687,-0.22505495605468748,2.319981408691406,-10.870229007633588,80.09160305343511,-52.93129770992366,-9.749189160156249,3.9145197143554684,-3.2130186279296873,18.48854961832061,-85.69465648854961,-22.9618320610687,0.0
12.410000562667847,-12.028469140624999,4.177881896972656,4.441244079589843,-8.305343511450381,81.93893129770993,-55.41984732824427,-8.173804467773436,4.199429711914062,-2.31758720703125,-2.9770992366412212,-73.38931297709924,-19.862595419847327,0.0
12.420000553131104,-15.030798022460937,9.600748657226562,5.571307263183593,-63.66412213740458,57.74045801526717,-56.0,-9.586383447265625,0.4955997436523437,-0.06703764648437499,-0.33587786259541985,-67.45038167938931,-12.335877862595419,0.0
12.43000078201294,-9.967061511230469,0.062249243164062495,-0.023942016601562498,-68.91603053435115,44.47328244274809,-45.969465648854964,-8.588001354980468,2.003946789550781,-1.369483349609375,4.152671755725191,-73.6793893129771,-10.442748091603054,0.0
12.440000534057617,-14.173673828124999,3.5098996337890624,3.5003228271484375,-52.38167938931298,49.43511450381679,-41.954198473282446,-9.107543115234375,-0.612915625,0.5291185668945312,-6.67175572519084,-63.43511450381679,-7.694656488549619,0.0
12.450000762939453,-9.428366137695312,-0.7110778930664062,0.46686932373046874,-43.969465648854964,42.19847328244275,-37.61832061068702,-10.864887133789061,-2.0183119995117185,0.8212111694335937,20.229007633587788,-74.19847328244275,-9.587786259541986,0.0
12.460000276565552,-10.907982763671875,2.7964275390625,0.8954314208984374,-39.465648854961835,41.343511450381676,-39.954198473282446,-11.279084020996093,-1.4628572143554686,0.11252747802734374,26.229007633587788,-80.83969465648855,-13.083969465648854,0.0
12.470000743865967,-8.652644799804687,-0.5027823486328125,-0.6200982299804687,-35.49618320610687,38.62595419847328,-35.05343511450382,-9.737218151855469,-0.5363011718749999,-0.6272808349609375,40.97709923664122,-97.3587786259542,-20.290076335877863,0.0
12.480000495910645,-8.542511523437499,-0.2442085693359375,-0.9600748657226562,-19.709923664122137,44.29007633587786,-32.99236641221374,-11.073182678222656,0.46686932373046874,0.01915361328125,37.465648854961835,-100.90076335877863,-22.580152671755727,0.0
12.490000486373901,-11.566388220214844,3.35188232421875,1.3239935180664062,-33.16030534351145,41.221374045801525,-36.656488549618324,-12.543222497558594,-0.51714755859375,1.9919757812499999,30.900763358778626,-97.16030534351145,-21.69465648854962,0.0
12.500000238418579,-16.218322045898436,8.724470849609375,4.209006518554688,-59.343511450381676,41.69465648854962,-40.94656488549618,-11.149797131347656,-0.43574470214843747,2.0470424194335934,27.404580152671755,-107.38931297709924,-20.595419847328245,0.0
12.510000705718994,-10.843339318847656,3.5051112304687497,0.2537853759765625,-93.00763358778626,19.114503816793892,-31.64885496183206,-9.622296472167967,1.7334020019531249,0.46686932373046874,14.931297709923664,-118.82442748091603,-22.091603053435115,0.0
12.520000696182251,-10.539275708007812,-0.08379705810546874,-0.258573779296875,-69.72519083969466,27.954198473282442,-21.81679389312977,-10.096348400878906,1.6448165405273436,1.4820108276367188,-3.0229007633587788,-117.14503816793894,-19.572519083969464,0.0
12.530000686645508,-17.379509851074218,8.037334973144532,6.610390783691406,-81.32824427480917,34.274809160305345,-27.984732824427482,-12.758700646972656,-1.5466542724609373,3.778050219726562,-15.84732824427481,-108.06106870229007,-14.290076335877863,0.0
12.540000915527344,-11.439495532226562,4.0222587890625,1.927332336425781,-141.14503816793894,-3.6030534351145036,-25.419847328244273,-11.659762084960937,-2.2074539306640624,3.0047230834960934,-13.557251908396946,-119.81679389312977,-16.244274809160306,0.0
12.550000429153442,-8.985438830566405,-2.422932080078125,-1.3000515014648437,-102.35114503816794,1.1450381679389312,-7.236641221374046,-10.314220751953124,-1.3024457031249999,1.8602946899414061,-18.3206106870229,-126.2442748091603,-19.358778625954198,0.0
12.560000896453857,-16.515203051757812,3.0358477050781247,6.5505357421875,-93.02290076335878,14.106870229007633,-11.129770992366412,-8.966285217285156,-0.9792284790039062,1.0199299072265624,-20.68702290076336,-127.45038167938931,-22.717557251908396,0.0
12.570000648498535,-11.085153686523437,1.3670891479492187,2.4301146850585935,-125.49618320610686,-13.572519083969466,-13.34351145038168,-9.603142858886718,-0.062249243164062495,0.6727706665039062,-14.412213740458014,-128.5801526717557,-24.366412213740457,0.0
12.58000111579895,-13.057975854492186,0.9097966308593749,2.8898014038085935,-103.5114503816794,-11.86259541984733,-5.374045801526718,-9.514557397460937,-0.17956512451171874,0.5410895751953124,-17.66412213740458,-123.89312977099236,-21.541984732824428,0.0
12.590000629425049,-8.70771143798828,-1.3383587280273437,1.407790576171875,-89.52671755725191,-12.213740458015268,1.0076335877862594,-10.627861169433594,-0.4572925170898437,1.5945383056640625,-15.17557251908397,-115.57251908396947,-18.442748091603054,0.0
12.600000619888306,-9.830592016601562,-1.4149731811523436,2.674323254394531,-58.534351145038165,-0.6564885496183206,-0.4732824427480916,-8.959102612304687,-1.2306196533203124,1.5298948608398437,-16.99236641221374,-107.2824427480916,-17.17557251908397,0.0
12.610000848770142,-7.654262707519531,-2.8107927490234372,1.9919757812499999,-44.99236641221374,2.0610687022900764,-8.702290076335878,-7.168239770507812,-0.5530605834960938,0.6584054565429687,-11.19083969465649,-105.90839694656489,-18.702290076335878,0.0
12.62000060081482,-7.4220251464843745,-2.2290017456054687,1.2282254516601563,-9.435114503816793,15.19083969465649,-13.786259541984732,-8.444349255371094,-2.1356278808593747,2.365471240234375,-6.748091603053435,-92.91603053435115,-15.908396946564885,0.0
12.630000591278076,-9.488221179199218,0.00718260498046875,2.8610709838867185,4.2748091603053435,31.206106870229007,-22.442748091603054,-6.725312463378906,-0.93852705078125,1.3215993164062498,-3.954198473282443,-89.86259541984732,-18.885496183206108,0.0
12.640000820159912,-11.329362255859374,3.404554760742187,3.3542765258789062,-0.42748091603053434,30.519083969465647,-28.65648854961832,-8.034940771484374,-1.956062756347656,2.6599580444335937,0.3511450381679389,-76.41221374045801,-17.709923664122137,0.0
12.65000033378601,-9.133879333496093,1.697488977050781,1.4508862060546874,6.030534351145038,30.290076335877863,-22.35114503816794,-8.339004382324218,-1.5059528442382812,2.0278888061523435,10.83969465648855,-77.69465648854961,-16.65648854961832,0.0
12.660000562667847,-9.267954626464844,2.7246014892578123,1.3527239379882812,12.0,34.12213740458015,-19.114503816793892,-4.513070129394531,0.7110778930664062,0.2154781494140625,0.6564885496183206,-74.58015267175573,-21.083969465648856,0.0
12.670000553131104,-9.081206896972656,2.5139117431640625,1.0127473022460938,10.641221374045802,38.97709923664122,-15.374045801526718,-6.818686328125,-0.34715924072265625,2.0183119995117185,-10.076335877862595,-55.725190839694655,-16.549618320610687,0.0
12.68000054359436,-9.4618849609375,4.13718046875,2.231395947265625,2.763358778625954,44.25954198473283,-15.48091603053435,-7.264007836914062,-1.7669208251953124,1.7286135986328124,-11.129770992366412,-54.13740458015267,-14.458015267175572,0.0
12.690000772476196,-9.512163195800781,2.7916391357421872,0.9935936889648437,-3.969465648854962,36.534351145038165,-15.358778625954198,-7.005434057617187,-2.2936451904296873,1.37906015625,-2.2748091603053435,-57.55725190839695,-15.053435114503817,0.0
12.700000524520874,-9.17458076171875,1.0438719238281249,0.42377369384765623,5.038167938931298,42.47328244274809,-12.778625954198473,-8.228871105957031,-3.4715924072265625,3.0454245117187497,3.282442748091603,-50.01526717557252,-14.992366412213741,0.0
12.71000075340271,-9.37808790283203,0.5386953735351562,0.2442085693359375,6.519083969465649,46.213740458015266,-15.038167938931299,-8.540117321777343,-3.380612744140625,3.0142998901367184,18.595419847328245,-51.25190839694657,-15.740458015267176,0.0
12.720000505447388,-9.588777648925781,-0.05746083984375,0.09576806640624999,9.557251908396946,49.11450381679389,-18.27480916030534,-3.2920272827148436,0.5195417602539062,0.3184288208007812,18.85496183206107,-56.70229007633588,-24.50381679389313,0.0
12.730000495910645,-10.946289990234375,3.5577836669921874,1.5179238525390624,-2.9160305343511452,54.88549618320611,-20.198473282442748,-4.903325,-0.5291185668945312,1.9201497314453124,8.198473282442748,-33.14503816793893,-20.916030534351144,0.0
12.740000486373901,-10.740388647460938,2.6503812377929687,2.114080065917969,-27.61832061068702,50.717557251908396,-19.801526717557252,-6.1818286865234375,-1.35990654296875,1.66636435546875,9.908396946564885,-26.748091603053435,-16.244274809160306,0.0
12.750000476837158,-10.108319409179687,1.7597382202148437,1.1085153686523437,-21.022900763358777,50.51908396946565,-14.65648854961832,-6.248866333007812,-1.1635820068359375,1.0438719238281249,13.770992366412214,-23.068702290076335,-15.389312977099237,0.0
12.760000705718994,-9.830592016601562,0.9935936889648437,1.5825672973632812,-22.366412213740457,52.091603053435115,-14.717557251908397,-4.8650177734375,-0.33039982910156246,0.14125789794921875,12.885496183206106,-17.129770992366414,-16.870229007633586,0.0
12.770000696182251,-9.842563024902343,0.7445967163085937,1.9728221679687499,-21.61832061068702,53.404580152671755,-15.068702290076336,-5.236119030761718,-0.11252747802734374,0.1484405029296875,9.694656488549619,-0.32061068702290074,-13.83206106870229,0.0
12.780000686645508,-10.196904870605469,0.9457096557617187,2.798821740722656,-20.412213740458014,55.25190839694657,-15.251908396946565,-5.760449194335937,-0.9097966308593749,-0.6272808349609375,15.236641221374045,4.763358778625954,-9.633587786259541,0.0
12.790000677108765,-10.175357055664062,0.814028564453125,2.683900061035156,-10.106870229007633,53.86259541984733,-16.38167938931298,-4.8123453369140625,-0.9265560424804687,-0.7924807495117187,14.977099236641221,13.84732824427481,-10.244274809160306,0.0
12.8000009059906,-11.343727465820312,2.1499930908203124,3.9552211425781247,-11.664122137404581,52.458015267175576,-16.702290076335878,-4.584896179199219,1.1013327636718748,-0.9361328491210937,12.67175572519084,22.259541984732824,-11.633587786259541,0.0
12.810000896453857,-10.374075793457031,3.0526071166992184,3.8139632446289062,-14.900763358778626,41.725190839694655,-14.961832061068701,-4.094084838867187,2.2601263671875,-1.1085153686523437,-1.633587786259542,38.85496183206107,-10.030534351145038,0.0
12.820000648498535,-9.923965881347655,2.521094348144531,4.860229370117187,-17.908396946564885,31.236641221374047,-10.0,-5.123591552734375,1.2210428466796874,-1.8100164550781248,-13.267175572519085,56.44274809160305,-2.6564885496183206,0.0
12.830000638961792,-11.808202587890625,2.7629087158203123,7.524975817871093,-21.954198473282442,20.900763358778626,-11.786259541984732,-7.316680273437499,-0.09337386474609374,-3.1220389648437497,-10.65648854961832,68.10687022900764,3.3893129770992365,0.0
12.840000867843628,-13.046004846191405,2.8323405639648436,8.774749084472656,-21.46564885496183,0.061068702290076333,-13.16030534351145,-6.58884296875,1.0749965454101562,-4.963180041503906,-15.923664122137405,77.57251908396947,0.8549618320610687,0.0
12.850000619888306,-11.980585107421874,0.97683427734375,8.149862451171874,-7.541984732824427,-19.00763358778626,-9.206106870229007,-9.447519750976562,-0.8116343627929687,-1.8291700683593748,-19.893129770992367,91.58778625954199,3.099236641221374,0.0
12.860000610351562,-13.575123413085937,1.9704279663085937,10.309432348632813,0.6259541984732825,-37.41984732824427,-9.34351145038168,-10.716446630859375,-1.0558429321289062,1.7884686401367187,-26.045801526717558,89.40458015267176,4.3816793893129775,0.0
12.87000060081482,-16.359579943847656,4.460397692871093,12.466608044433594,-6.366412213740458,-61.587786259541986,-12.702290076335878,-14.693215588378905,-4.182670300292968,6.591237170410156,-27.755725190839694,85.92366412213741,4.442748091603053,0.0
12.880000591278076,-18.883068493652342,7.062894897460937,14.250288281249999,-11.083969465648854,-89.2824427480916,-8.305343511450381,-16.929399938964842,-6.105214233398437,8.535328918457031,-21.19083969465649,78.83969465648855,0.7633587786259542,0.0
12.890000343322754,-18.997990173339844,6.658274816894531,14.528015673828124,-11.725190839694656,-128.44274809160305,5.4961832061068705,-17.085023046874998,-6.279990954589843,7.884106066894531,2.6564885496183206,62.76335877862596,-3.9236641221374047,0.0
12.90000057220459,-21.250933935546875,6.730100866699218,16.172832214355466,-1.0076335877862594,-159.08396946564886,18.610687022900763,-14.343662145996094,-3.84987626953125,4.848258361816406,23.480916030534353,50.70229007633588,-6.213740458015267,0.0
12.910000324249268,-21.313183178710936,5.456385583496093,16.608576916503907,16.65648854961832,-193.58778625954199,33.31297709923664,-9.861716638183593,0.01915361328125,0.9145850341796874,31.984732824427482,44.06106870229008,-4.641221374045801,0.0
12.920000553131104,-22.098481323242186,5.233724829101562,14.937424157714842,41.66412213740458,-219.96946564885496,49.05343511450382,-7.369352709960937,2.003946789550781,-1.2785036865234374,28.83969465648855,43.69465648854962,0.04580152671755725,0.0
12.93000078201294,-19.783288317871094,1.2665326782226562,10.441113439941406,32.68702290076336,-254.99236641221373,53.541984732824424,-6.509834313964843,0.93852705078125,-1.5490484741210937,19.52671755725191,54.2442748091603,6.732824427480916,0.0
12.940000534057617,-18.452112194824217,-3.3207577026367185,9.68454571533203,33.343511450381676,-274.0458015267176,52.12213740458015,-6.356605407714843,0.3184288208007812,-1.8698714965820311,12.717557251908397,63.969465648854964,9.83206106870229,0.0
12.950000762939453,-15.531186169433592,-5.125985754394531,3.2249896362304686,40.56488549618321,-279.9541984732824,54.61068702290076,-7.474697583007812,-1.3646949462890625,-0.5674257934570313,15.022900763358779,73.5114503816794,12.122137404580153,0.0
12.960000276565552,-12.648567370605468,-6.121973645019531,-1.22583125,42.229007633587784,-262.42748091603056,60.36641221374046,-7.005434057617187,8.655039001464843,-3.84987626953125,6.0458015267175576,76.06106870229007,6.9465648854961835,0.0
12.970000743865967,-9.382876306152344,-6.1626750732421876,-4.216189123535156,51.587786259541986,-244.5801526717557,63.282442748091604,-5.125985754394531,6.828263134765624,-1.3527239379882812,-50.80916030534351,113.12977099236642,14.641221374045802,0.0
12.980000495910645,-6.426037255859375,-5.521029028320312,-6.050147595214844,56.19847328244275,-223.14503816793894,60.58015267175573,-3.303998291015625,8.705317236328124,-4.065354418945312,-86.50381679389314,119.41984732824427,27.267175572519083,0.0
12.990000486373901,-3.699041564941406,-4.580107775878906,-4.199429711914062,72.8854961832061,-196.19847328244273,49.23664122137404,-12.052411157226562,5.449202978515625,-0.10295067138671875,-148.0,158.94656488549617,46.732824427480914,0.0
13.000000476837158,-6.469132885742187,-1.4317325927734375,0.1292868896484375,77.48091603053435,-164.41221374045801,41.81679389312977,-14.350844750976561,3.4428619873046875,-0.6871358764648438,-157.5114503816794,156.44274809160305,59.25190839694657,0.0
13.010000944137573,-10.568006127929687,2.7437551025390623,3.6343981201171873,82.38167938931298,-138.76335877862596,32.42748091603053,-16.697162377929686,-6.244077929687499,3.4763808105468748,-142.93129770992365,148.45801526717557,65.0381679389313,0.0
13.020000696182251,-13.972560888671874,2.645592834472656,4.651933825683593,82.41221374045801,-130.3053435114504,23.282442748091604,-8.09479581298828,-3.488351818847656,-2.0302830078125,-107.96946564885496,115.89312977099236,52.6412213740458,0.0
13.030000686645508,-16.699556579589842,4.264073156738281,5.200206005859375,71.12977099236642,-133.80152671755727,14.488549618320612,-8.904035974121093,-3.172317199707031,-1.7764976318359373,-129.84732824427482,126.19847328244275,49.038167938931295,0.0
13.040000438690186,-17.02037960205078,3.2249896362304686,4.486733911132812,53.221374045801525,-144.76335877862596,23.0381679389313,-9.866505041503906,-9.8449572265625,3.5051112304687497,-75.63358778625954,121.43511450381679,50.47328244274809,0.0
13.050000667572021,-15.82567297363281,2.4061726684570313,2.2864625854492187,42.51908396946565,-156.18320610687022,32.54961832061068,-1.917755529785156,-2.9664158569335934,-5.363011718749999,-41.969465648854964,81.2824427480916,39.770992366412216,0.0
13.060000896453857,-12.914323754882812,3.383006945800781,1.448492004394531,38.62595419847328,-162.10687022900763,41.37404580152672,-2.463633508300781,5.643133312988281,-8.391676818847655,-90.87022900763358,100.58015267175573,33.282442748091604,0.0
13.070000410079956,-9.93354268798828,2.7269956909179687,1.908178723144531,34.50381679389313,-161.9083969465649,50.10687022900763,-7.7979148071289055,-1.216254443359375,-0.8068459594726562,-125.66412213740458,131.17557251908397,40.19847328244275,0.0
13.080000877380371,-7.237671618652343,1.4053963745117186,-0.22026655273437498,19.786259541984734,-164.3206106870229,53.3587786259542,-11.585541833496093,-8.441955053710936,2.142810485839844,-55.541984732824424,117.64885496183206,51.14503816793893,0.0
13.09000039100647,-3.507505432128906,-1.7573440185546874,-2.806004345703125,30.213740458015266,-154.53435114503816,56.717557251908396,-13.043610644531249,-5.068524914550781,-0.9121908325195311,5.572519083969466,99.40458015267176,49.81679389312977,0.0
13.100000619888306,-1.9105729248046874,-2.1595698974609374,-1.62805712890625,48.916030534351144,-118.99236641221374,52.83969465648855,-12.026074938964843,-2.693476867675781,-0.8020575561523438,9.587786259541986,102.19847328244275,47.57251908396947,0.0
13.110000610351562,-4.316745593261719,0.8882488159179687,-0.8810662109374999,51.770992366412216,-95.22137404580153,46.16793893129771,-11.015721838378905,-1.9033903198242186,-1.1109095703125,25.404580152671755,99.41984732824427,43.02290076335878,0.0
13.12000060081482,0.699106884765625,-1.4915876342773438,-4.697423657226563,64.91603053435115,-76.73282442748092,50.94656488549618,-9.516951599121093,0.9888052856445312,-1.4221557861328125,13.83206106870229,98.94656488549619,43.343511450381676,0.0
13.130000591278076,-6.313509777832031,4.355052819824219,-0.2609679809570312,49.00763358778626,-43.908396946564885,42.274809160305345,-10.781090075683593,-2.243366955566406,1.0678139404296874,17.801526717557252,101.46564885496183,46.6412213740458,0.0
13.140000343322754,-3.440467785644531,2.592920397949219,-2.4061726684570313,31.6793893129771,-40.0,46.70229007633588,-7.127538342285156,1.5586252807617187,-2.070984436035156,15.572519083969466,94.35114503816794,38.83969465648855,0.0
13.15000057220459,-4.802768530273437,3.8762124877929685,-1.1635820068359375,8.900763358778626,-20.732824427480917,43.31297709923664,-10.687716210937499,-3.5960908935546874,0.6775590698242188,9.770992366412214,97.87786259541984,41.541984732824424,0.0
13.160000324249268,-2.9496564453125,3.21780703125,-1.5155296508789062,-14.473282442748092,-16.50381679389313,42.62595419847328,-9.878476049804688,-0.5985504150390625,-1.3311761230468748,15.801526717557252,86.79389312977099,30.870229007633586,0.0
13.170000314712524,-2.375048046875,3.2321722412109373,0.6344634399414062,-24.641221374045802,-1.4961832061068703,42.62595419847328,-12.296619726562499,-2.3487118286132813,1.3623007446289062,-8.534351145038167,94.1526717557252,28.290076335877863,0.0
13.180000305175781,-1.2976572998046874,3.134009973144531,1.5873557006835937,-36.93129770992366,2.213740458015267,42.33587786259542,-10.594342346191405,-1.8219874633789062,1.7956512451171873,-5.66412213740458,84.62595419847328,22.16793893129771,0.0
13.190000534057617,-1.4006079711914061,3.414131567382812,2.4444798950195312,-39.6793893129771,13.877862595419847,40.961832061068705,-11.046846459960937,0.047884033203124995,0.584185205078125,-12.549618320610687,72.8854961832061,17.81679389312977,0.0
13.200000524520874,-1.618480322265625,4.036623999023437,3.1794998046874996,-42.13740458015267,22.9618320610687,38.51908396946565,-12.109871997070313,-1.8076222534179687,2.5522189697265625,-38.94656488549618,71.00763358778626,16.900763358778626,0.0
13.210000991821289,-2.940079638671875,5.260061047363281,4.010287780761718,-51.49618320610687,27.46564885496183,37.603053435114504,-10.766724865722656,-2.971204260253906,2.518700146484375,-41.23664122137404,59.69465648854962,15.068702290076336,0.0
13.220000505447388,-3.1603461914062496,4.8650177734375,4.197035510253906,-63.12977099236641,30.18320610687023,39.099236641221374,-16.376339355468748,-6.308721374511719,5.6407391113281244,-29.954198473282442,59.64885496183206,18.595419847328245,0.0
13.230000495910645,-2.3319524169921872,3.9049429077148434,4.414907861328125,-62.93129770992366,38.61068702290076,40.33587786259542,-11.494562170410155,-1.8219874633789062,1.2641384765625,-32.396946564885496,40.35114503816794,12.061068702290076,0.0
13.240000486373901,-2.9185318237304685,3.986345764160156,6.414066247558593,-59.465648854961835,43.541984732824424,37.847328244274806,-16.211139440917968,-10.242394702148436,8.865728747558594,-2.687022900763359,47.51145038167939,18.198473282442748,0.0
13.250000476837158,-3.1651345947265623,3.1459809814453124,7.204152795410156,-50.091603053435115,46.18320610687023,32.61068702290076,-10.05564697265625,-0.6392518432617187,-0.21068974609375,15.969465648854962,21.19083969465649,7.374045801526718,0.0
13.260000705718994,-2.8706477905273435,2.1164742675781247,6.959944226074218,-45.05343511450382,46.152671755725194,24.793893129770993,-11.982979309082031,2.829946362304687,-1.6831237670898436,1.8931297709923665,13.679389312977099,3.8931297709923665,0.0
13.270000696182251,-3.69664736328125,-4.094084838867187,7.024587670898437,-31.450381679389313,47.20610687022901,17.480916030534353,-17.72906329345703,-3.69664736328125,5.84185205078125,-14.83969465648855,40.36641221374046,14.687022900763358,0.0
13.280000686645508,-2.7461493041992187,-15.105018273925781,3.342305517578125,19.572519083969464,62.030534351145036,15.206106870229007,-13.512874169921874,-3.806780639648437,0.9361328491210937,20.946564885496183,13.129770992366412,14.473282442748092,0.0
13.290000438690186,-13.929465258789062,-6.433219860839843,6.4092778442382805,73.41984732824427,89.8473282442748,-7.847328244274809,-13.299790222167967,-0.8164227661132812,-2.6192566162109374,31.0381679389313,-3.1603053435114505,15.129770992366412,0.0
13.3000009059906,3.19865341796875,-19.773711511230466,-7.769184387207031,160.5801526717557,96.30534351145039,-2.2290076335877864,-18.66040773925781,-6.617573388671874,4.072537023925781,29.587786259541986,23.84732824427481,22.610687022900763,0.0
13.3100004196167,-2.9472622436523435,-14.207192651367187,1.7429788085937499,273.87786259541986,175.16030534351145,-25.083969465648856,-13.903129040527343,-5.137956762695312,-0.13407529296874998,85.26717557251908,-15.923664122137405,12.946564885496183,0.0
13.320000648498535,-3.1651345947265623,-3.5721488769531247,1.4532804077148436,298.77862595419845,168.74809160305344,-52.80916030534351,-16.335637927246093,-5.626373901367187,2.741360900878906,86.59541984732824,-5.32824427480916,6.427480916030534,0.0
13.330000638961792,-14.525621472167968,16.5870291015625,2.4564509033203126,256.8396946564886,172.13740458015266,-60.61068702290076,-13.175291735839844,2.6001030029296874,-1.7956512451171873,69.96946564885496,-13.938931297709924,-4.3816793893129775,0.0
13.340001106262207,-19.098546643066406,23.994689038085937,6.215347509765625,108.3206106870229,117.86259541984732,-65.37404580152672,-15.777788940429687,3.9935283691406247,-1.678335363769531,35.43511450381679,-11.007633587786259,-3.801526717557252,0.0
13.350000619888306,-6.040570788574218,0.28969840087890625,-2.7150246826171873,36.36641221374046,60.916030534351144,-46.16793893129771,-18.432958581542966,1.3958195678710936,-0.05027823486328125,30.442748091603054,-10.50381679389313,7.709923664122138,0.0
13.360000610351562,-6.0884548217773435,-8.66940421142578,-0.17477672119140625,81.70992366412214,81.29770992366412,-52.01526717557252,-16.455348010253907,-1.180341418457031,0.4261678955078125,33.63358778625954,-24.38167938931298,17.068702290076335,0.0
13.37000060081482,-12.643778967285156,-0.016759411621093748,1.8555062866210936,93.02290076335878,88.30534351145039,-77.86259541984732,-13.893552233886718,-0.39983167724609375,0.5291185668945312,35.48091603053435,-35.83206106870229,13.206106870229007,0.0
13.380000352859497,-15.533580371093748,8.425195642089843,0.40462008056640625,65.55725190839695,79.86259541984732,-80.3969465648855,-12.670115185546875,-0.086191259765625,1.0702081420898437,30.778625954198475,-46.70229007633588,7.419847328244275,0.0
13.390000343322754,-13.520056774902343,5.382165332031249,-0.16759411621093748,39.14503816793893,76.44274809160305,-71.52671755725191,-11.731588134765625,-1.446097802734375,2.212242333984375,24.290076335877863,-57.603053435114504,2.381679389312977,0.0
13.40000033378601,-9.943119494628906,2.4899697265625,-1.886630908203125,28.916030534351144,76.16793893129771,-70.33587786259542,-13.474566943359374,2.518700146484375,1.4604630126953124,24.82442748091603,-68.85496183206106,-4.259541984732825,0.0
13.410000324249268,-9.121908325195312,4.903325,-1.7860744384765623,20.396946564885496,79.74045801526718,-73.22137404580153,-9.8449572265625,-1.8219874633789062,0.622492431640625,20.65648854961832,-77.7557251908397,-8.122137404580153,0.0
13.420000553131104,-7.436390356445312,2.961627453613281,-2.492363928222656,16.12213740458015,82.79389312977099,-71.02290076335878,-10.687716210937499,-4.223371728515625,1.3072341064453123,30.061068702290076,-82.35114503816794,-10.625954198473282,0.0
13.43000078201294,-9.548076220703125,3.3351229125976563,-1.5945383056640625,16.3206106870229,90.36641221374046,-70.70229007633588,-12.524068884277343,-3.797203833007812,-1.438915197753906,58.87022900763359,-100.45801526717557,-18.3206106870229,0.0
13.440000534057617,-11.654973681640625,4.3813890380859375,0.201112939453125,22.458015267175572,101.02290076335878,-69.69465648854961,-14.906299536132812,-3.859453076171875,-2.252943762207031,68.87022900763358,-99.29770992366412,-23.49618320610687,0.0
13.450001001358032,-8.429984045410155,3.095702746582031,-0.0526724365234375,17.267175572519083,100.33587786259542,-66.01526717557252,-9.167398156738281,1.66636435546875,-7.7787611938476555,74.41221374045801,-109.26717557251908,-32.10687022900763,0.0
13.46000051498413,-10.838550915527343,4.733336682128906,2.157175695800781,6.961832061068702,100.12213740458016,-65.80152671755725,-10.74517705078125,3.375824340820312,-7.740453967285156,72.12213740458016,-102.76335877862596,-31.083969465648856,0.0
13.470000743865967,-9.935936889648437,4.369418029785156,2.427720483398437,0.7175572519083969,99.48091603053435,-64.51908396946565,-11.961431494140625,3.488351818847656,-5.868188269042968,64.09160305343511,-91.52671755725191,-26.3206106870229,0.0
13.480000495910645,-8.825027319335938,2.913743420410156,2.4013842651367185,-9.770992366412214,92.59541984732824,-63.282442748091604,-11.635820068359374,3.5242648437499997,-4.050989208984375,48.47328244274809,-77.29770992366412,-21.84732824427481,0.0
13.490000486373901,-7.132326745605468,-0.40222587890625,1.2904746948242187,0.5801526717557252,91.69465648854961,-60.29007633587786,-9.418789331054686,3.3207577026367185,-4.122815258789062,48.229007633587784,-76.4885496183206,-22.27480916030534,0.0
13.500000238418579,-14.875174914550781,12.016498132324218,7.996633544921875,-27.96946564885496,86.59541984732824,-68.42748091603053,-9.33978067626953,1.8555062866210936,-1.9129671264648436,32.85496183206107,-65.14503816793894,-19.31297709923664,0.0
13.510000705718994,-11.77947216796875,6.536170532226562,2.882618798828125,-86.7175572519084,52.18320610687023,-61.37404580152672,-8.894459167480468,1.6232687255859375,-0.928950244140625,36.0763358778626,-68.12213740458016,-19.6793893129771,0.0
13.520000457763672,-6.488286499023437,-1.158793603515625,-0.1484405029296875,-72.01526717557252,44.70229007633588,-48.25954198473283,-8.087613208007811,1.6017209106445311,-0.277727392578125,28.717557251908396,-70.51908396946565,-17.69465648854962,0.0
13.530000448226929,-7.053318090820312,-0.9337386474609375,1.6519991455078125,-54.534351145038165,50.33587786259542,-45.93893129770992,-8.564059338378906,0.229843359375,0.7278373046875,27.61832061068702,-71.16030534351145,-15.725190839694656,0.0
13.540001153945923,-13.335703247070311,2.7198130859375,4.57771357421875,-61.70992366412214,46.213740458015266,-50.44274809160305,-8.999804040527343,0.06703764648437499,0.7062894897460937,38.61068702290076,-82.85496183206106,-17.053435114503817,0.0
13.550000667572021,-9.4618849609375,0.40222587890625,2.2673089721679687,-32.44274809160305,53.465648854961835,-45.16030534351145,-9.80665,-0.3950432739257812,1.0654197387695312,38.74809160305343,-87.2824427480916,-17.572519083969464,0.0
13.560000896453857,-9.892841259765625,2.7916391357421872,2.8945898071289062,-37.083969465648856,46.0,-42.76335877862596,-10.041281762695311,-0.38307226562499996,0.9816226806640624,39.14503816793893,-93.31297709923665,-19.572519083969464,0.0
13.570000648498535,-8.046911779785155,0.8259995727539062,0.18435352783203124,-43.00763358778626,38.61068702290076,-40.61068702290076,-9.014169250488282,0.6751648681640625,-0.11252747802734374,45.64885496183206,-109.8473282442748,-24.16793893129771,0.0
13.580000877380371,-15.351621044921874,13.66849727783203,5.106832141113281,-73.17557251908397,32.80916030534351,-43.57251908396947,-10.958260998535156,0.7422025146484375,0.5434837768554687,44.595419847328245,-114.29007633587786,-23.099236641221374,0.0
13.590000629425049,-11.066000073242186,6.754042883300781,2.422932080078125,-137.29770992366412,-0.4732824427480916,-33.45038167938932,-11.073182678222656,2.308010400390625,0.277727392578125,39.11450381679389,-121.14503816793894,-23.0381679389313,0.0
13.600000381469727,-17.973271862792966,9.725247143554688,6.87614716796875,-147.87786259541986,-3.0076335877862594,-21.328244274809162,-12.406753002929687,0.6655880615234374,2.269703173828125,24.549618320610687,-119.77099236641222,-15.022900763358779,0.0
13.610000610351562,-11.324573852539062,2.059013427734375,1.8602946899414061,-178.67175572519085,-36.2442748091603,-4.580152671755725,-14.233528869628906,1.7956512451171873,2.480392919921875,20.47328244274809,-131.78625954198472,-11.389312977099237,0.0
13.62000060081482,-13.2159931640625,-0.3806780639648437,2.96881005859375,-140.36641221374046,-30.549618320610687,10.305343511450381,-12.275071911621094,2.4109610717773435,1.3455413330078123,-2.2748091603053435,-140.41221374045801,-10.335877862595419,0.0
13.630000591278076,-7.963114721679687,-5.015852478027344,1.005564697265625,-108.59541984732824,-26.80916030534351,14.396946564885496,-9.658209497070311,2.1787235107421874,1.4796166259765624,-20.671755725190838,-143.89312977099237,-9.84732824427481,0.0
13.640000820159912,-12.006921325683592,0.689530078125,3.995922570800781,-82.50381679389314,-16.442748091603054,0.5190839694656488,-10.110713610839843,0.28012159423828126,2.4875755249023435,-36.85496183206107,-141.3740458015267,-5.32824427480916,0.0
13.65000057220459,-9.756371765136718,0.8355763793945312,1.5897499023437498,-86.91603053435115,-22.33587786259542,-9.893129770992367,-8.82981572265625,0.11731588134765625,1.7717092285156248,-45.81679389312977,-142.67175572519085,-5.267175572519084,0.0
13.660000562667847,-10.383652600097655,0.5793968017578125,0.6416460449218749,-57.49618320610687,-7.419847328244275,-5.893129770992366,-8.858546142578124,-0.15083470458984374,1.4772224243164063,-56.68702290076336,-137.23664122137404,-4.442748091603053,0.0
13.670000553131104,-14.633360546874998,1.5634136840820312,4.556165759277343,-43.52671755725191,24.3206106870229,-10.045801526717558,-8.913612780761719,-1.5849614990234373,2.588131994628906,-61.80152671755725,-127.52671755725191,-4.0458015267175576,0.0
13.68000054359436,-7.369352709960937,-0.9026140258789062,0.8259995727539062,-37.87786259541985,30.47328244274809,-11.221374045801527,-7.747636572265624,-0.9504980590820312,2.748543505859375,-59.9236641221374,-122.83969465648855,-7.847328244274809,0.0
13.690000772476196,-6.232106921386718,-1.484405029296875,-0.12210428466796874,-22.259541984732824,45.11450381679389,-10.702290076335878,-9.41639512939453,-1.4700398193359374,3.038241906738281,-49.587786259541986,-120.0,-8.427480916030534,0.0
13.700000286102295,-6.806715319824218,-1.199495031738281,0.201112939453125,-16.091603053435115,58.274809160305345,-16.091603053435115,-8.568847741699217,-0.6943184814453125,2.1356278808593747,-50.88549618320611,-114.65648854961832,-13.84732824427481,0.0
13.71000051498413,-8.020575561523437,-0.3280056274414062,0.6177040283203125,-14.274809160305344,68.33587786259542,-19.328244274809162,-10.759542260742187,-1.6448165405273436,1.9776105712890624,-34.01526717557252,-113.92366412213741,-13.572519083969466,0.0
13.720000743865967,-8.020575561523437,-0.6057330200195312,0.7517793212890624,-10.320610687022901,73.57251908396947,-23.770992366412212,-8.724470849609375,-0.19153613281249998,1.0989385620117187,-34.045801526717554,-111.69465648854961,-17.00763358778626,0.0
13.730000495910645,-9.126696728515624,1.1156979736328125,1.2976572998046874,-10.870229007633588,76.61068702290076,-27.328244274809162,-10.73799444580078,-2.104503259277344,2.023100402832031,-25.114503816793892,-104.99236641221374,-12.83969465648855,0.0
13.74000072479248,-10.105925207519531,1.4915876342773438,1.8626888916015625,-12.183206106870228,75.0381679389313,-29.16030534351145,-7.886500268554687,-0.105344873046875,0.009576806640625,-26.290076335877863,-107.63358778625954,-15.618320610687023,0.0
13.750000476837158,-11.334150659179686,3.9240965209960934,2.288856787109375,-18.99236641221374,69.87786259541984,-28.076335877862597,-8.468291271972657,-1.5370774658203123,1.3431471313476562,-30.18320610687023,-94.16793893129771,-13.358778625954198,0.0
13.760000705718994,-11.587936035156249,3.440467785644531,2.4684219116210935,-30.671755725190838,64.80916030534351,-24.442748091603054,-7.970297326660156,-1.37906015625,0.5746083984375,-27.84732824427481,-91.77099236641222,-13.877862595419847,0.0
13.770000696182251,-10.606313354492187,2.8706477905273435,1.8219874633789062,-30.50381679389313,62.045801526717554,-20.931297709923665,-6.775590698242187,-1.0127473022460938,0.7852981445312499,-35.38931297709924,-79.46564885496183,-16.427480916030536,0.0
13.780000686645508,-10.563217724609375,2.8323405639648436,1.4987702392578124,-39.64885496183206,59.770992366412216,-18.244274809160306,-6.179434484863281,-2.365471240234375,0.5315127685546874,-33.41984732824427,-68.2442748091603,-15.007633587786259,0.0
13.790000438690186,-9.287108239746093,4.355052819824219,0.36152445068359373,-54.25954198473283,46.42748091603053,-13.969465648854962,-7.45075556640625,-4.074931225585937,1.2234370483398436,-22.198473282442748,-60.2442748091603,-12.641221374045802,0.0
13.8000009059906,-10.635043774414061,0.9983820922851562,1.6208745239257811,-51.23664122137404,49.52671755725191,-12.67175572519084,-5.839457849121094,-2.205059729003906,0.40222587890625,-12.320610687022901,-60.091603053435115,-16.396946564885496,0.0
13.810000658035278,-10.122684619140625,0.16998831787109375,2.3726538452148436,-38.33587786259542,52.70229007633588,-9.923664122137405,-5.054159704589844,-2.032677209472656,0.6775590698242188,-9.816793893129772,-46.36641221374046,-18.38167938931298,0.0
13.820000886917114,-9.428366137695312,0.12449848632812499,2.8898014038085935,-33.89312977099237,53.17557251908397,-12.793893129770993,-4.678270043945313,-1.5155296508789062,0.5889736083984375,-5.7251908396946565,-36.045801526717554,-19.389312977099237,0.0
13.830000638961792,-9.770736975097655,0.02154781494140625,3.066972326660156,-22.30534351145038,50.88549618320611,-15.32824427480916,-6.421248852539062,-2.5163059448242184,1.1013327636718748,3.2061068702290076,-26.18320610687023,-19.236641221374047,0.0
13.840000629425049,-9.943119494628906,0.4477157104492187,3.0885201416015624,-4.412213740458015,49.969465648854964,-17.19083969465649,-6.354211206054687,-2.2074539306640624,1.2737152832031249,11.755725190839694,-18.38167938931298,-20.793893129770993,0.0
13.850000619888306,-10.091559997558592,0.7038952880859375,2.6815058593749996,3.480916030534351,46.62595419847328,-17.31297709923664,-6.5601125488281244,-1.8100164550781248,1.2569558715820313,21.236641221374047,-12.870229007633588,-21.72519083969466,0.0
13.860000610351562,-11.214440576171874,1.5083470458984374,3.0813375366210938,8.946564885496183,44.18320610687023,-17.282442748091604,-5.61200869140625,-1.1468225952148436,1.0103531005859374,25.328244274809162,-5.801526717557252,-22.38167938931298,0.0
13.870000839233398,-10.965443603515624,1.1947066284179686,2.760514514160156,7.32824427480916,36.534351145038165,-14.778625954198473,-6.617573388671874,-1.0007762939453124,0.9600748657226562,31.480916030534353,0.9312977099236641,-20.38167938931298,0.0
13.880000591278076,-11.142614526367186,0.4860229370117187,3.057395520019531,11.603053435114504,33.12977099236641,-13.557251908396946,-5.61200869140625,0.19153613281249998,0.6105214233398437,31.87786259541985,6.122137404580153,-19.572519083969464,0.0
13.890000581741333,-9.730035546875,1.2904746948242187,2.683900061035156,10.16793893129771,26.18320610687023,-12.870229007633588,-6.275202551269531,-0.15322890625,1.4101847778320311,27.587786259541986,19.022900763358777,-16.35114503816794,0.0
13.90000057220459,-11.058817468261719,1.419761584472656,3.7229835815429686,3.5267175572519083,18.427480916030536,-12.961832061068701,-4.012681982421875,1.917755529785156,0.11013327636718749,22.48854961832061,22.0,-15.725190839694656,0.0
13.910000562667847,-10.654197387695312,1.1731588134765625,3.306392492675781,4.961832061068702,9.557251908396946,-11.801526717557252,-5.240907434082031,1.0103531005859374,1.0319009155273438,11.49618320610687,37.43511450381679,-11.145038167938932,0.0
13.920000553131104,-11.042058056640624,1.1013327636718748,4.146757275390625,4.091603053435114,5.541984732824427,-13.129770992366412,-5.446808776855469,1.0558429321289062,0.6368576416015624,-0.3816793893129771,48.67175572519084,-9.022900763358779,0.0
13.93000078201294,-11.087547888183593,1.4796166259765624,4.402936853027343,6.3816793893129775,-0.33587786259541985,-16.48854961832061,-6.438008264160156,-1.199495031738281,1.4341267944335936,-10.717557251908397,64.22900763358778,-6.595419847328245,0.0
13.940000295639038,-12.174515441894531,2.3774422485351563,5.786785412597656,-2.427480916030534,-8.244274809160306,-18.763358778625953,-7.769184387207031,-1.8363526733398436,0.8667010009765624,-0.48854961832061067,65.45038167938931,-5.145038167938932,0.0
13.950000762939453,-12.220005273437499,3.323151904296875,5.817910034179687,-9.389312977099237,-25.114503816793892,-18.916030534351144,-7.297526660156249,0.507570751953125,0.02154781494140625,-0.183206106870229,73.23664122137404,-6.519083969465649,0.0
13.96000051498413,-13.453019128417967,5.1882349975585935,7.694964135742187,-16.48854961832061,-36.6412213740458,-14.717557251908397,-9.203311181640624,0.7852981445312499,1.1516109985351561,-3.0229007633587788,87.20610687022901,-1.0229007633587786,0.0
13.970000505447388,-13.273454003906249,4.304774584960938,8.271966735839843,-22.106870229007633,-53.32824427480916,-9.86259541984733,-10.04846436767578,0.8403647827148437,1.8746598999023436,-2.0916030534351147,86.2442748091603,3.0076335877862594,0.0
13.980000495910645,-15.157690710449218,5.465962390136719,10.081983190917969,-20.045801526717558,-68.38167938931298,-6.183206106870229,-11.468225952148437,-0.6751648681640625,4.44363828125,-4.778625954198473,91.89312977099236,4.458015267175573,0.0
13.990000486373901,-15.320496423339844,4.000710974121094,10.426748229980468,-26.366412213740457,-93.31297709923665,1.8931297709923665,-12.641384765624998,-2.3870190551757813,5.485116003417969,2.854961832061069,84.29007633587786,3.236641221374046,0.0
14.000000238418579,-16.639701538085937,4.067748620605468,11.726799731445311,-14.290076335877863,-111.26717557251908,7.541984732824427,-12.23915888671875,-3.347093920898437,6.442796667480469,7.862595419847328,79.98473282442748,1.5114503816793894,0.0
14.010000705718994,-17.063475231933595,2.5713725830078125,12.945448376464842,-7.251908396946565,-130.68702290076337,13.633587786259541,-11.959037292480469,-2.346317626953125,5.679046337890624,18.47328244274809,70.4885496183206,3.1297709923664123,0.0
14.020000696182251,-19.177555297851562,3.4524387939453125,14.427459204101561,9.786259541984732,-154.67175572519085,18.27480916030534,-9.74200655517578,0.0909796630859375,2.942473840332031,22.900763358778626,63.69465648854962,5.465648854961832,0.0
14.030000686645508,-19.615694201660155,1.2378022583007813,14.808137268066405,29.51145038167939,-180.74809160305344,25.00763358778626,-8.559270935058594,2.5809493896484375,0.5913678100585937,18.137404580152673,63.37404580152672,9.17557251908397,0.0
14.040000915527344,-19.36909143066406,2.4444798950195312,12.753912243652342,45.48091603053435,-201.23664122137404,31.893129770992367,-6.967126831054687,1.9991583862304687,-0.7230489013671875,1.3129770992366412,67.78625954198473,13.557251908396946,0.0
14.050000429153442,-17.41542287597656,1.0893617553710937,9.279925634765624,48.62595419847328,-222.0,40.48854961832061,-6.9360022094726554,0.43574470214843747,-0.9888052856445312,-13.679389312977099,77.7557251908397,17.00763358778626,0.0
14.060000896453857,-14.006079711914062,-0.5458779785156249,5.413289953613281,51.343511450381676,-226.4885496183206,51.221374045801525,-2.4133552734375,4.4819455078125,-3.737348791503906,-41.49618320610687,84.83969465648855,11.679389312977099,0.0
14.070000410079956,-11.298237634277344,-1.7956512451171873,1.1324573852539062,42.274809160305345,-222.93129770992365,58.76335877862596,-5.1331683593749995,2.748543505859375,-1.5969325073242187,-74.3969465648855,119.20610687022901,20.900763358778626,0.0
14.080000638961792,-8.540117321777343,-3.5218706420898434,-2.96881005859375,38.412213740458014,-213.1908396946565,63.9236641221374,-2.8012159423828122,6.3709706176757805,-4.2688615600585935,-104.42748091603053,133.6030534351145,30.595419847328245,0.0
14.090000629425049,-5.635950708007812,-3.864241479492187,-5.166687182617188,55.603053435114504,-199.6030534351145,61.9236641221374,-10.484209069824217,3.1507693847656246,-1.13006318359375,-146.29007633587787,169.14503816793894,44.13740458015267,0.0
14.100000619888306,-4.936843823242187,-2.932897033691406,-5.284003063964843,61.14503816793893,-177.86259541984734,57.57251908396947,-7.8721350585937495,8.224082702636718,-5.499481213378906,-172.24427480916032,171.5267175572519,54.58015267175573,0.0
14.110000848770142,-5.173869787597656,-2.7916391357421872,-1.3215993164062498,69.14503816793894,-157.26717557251908,44.82442748091603,-17.283741784667967,1.1875240234375,-0.5913678100585937,-217.4351145038168,194.10687022900763,66.50381679389314,0.0
14.12000060081482,-8.609549169921875,-1.5634136840820312,2.7748797241210936,84.06106870229007,-134.91603053435114,33.29770992366412,-10.773907470703124,-0.8882488159179687,-1.0702081420898437,-178.38167938931298,156.70229007633588,66.13740458015268,0.0
14.130000352859497,-13.91749425048828,1.1731588134765625,5.140350964355468,87.41984732824427,-124.30534351145039,17.52671755725191,-14.733917016601561,-8.384494213867187,3.536235852050781,-168.0916030534351,161.86259541984734,70.3969465648855,0.0
14.140000581741333,-15.626954235839843,1.5514426757812498,4.218583325195312,86.97709923664122,-125.69465648854961,18.671755725190838,-5.410895751953125,-1.5107412475585937,-5.837063647460937,-103.22137404580153,110.42748091603053,59.29770992366412,0.0
14.15000033378601,-17.264588171386716,4.173093493652344,3.9743747558593747,80.80916030534351,-126.77862595419847,21.14503816793893,-8.712499841308594,-4.319139794921875,-2.185906115722656,-116.33587786259542,136.36641221374046,59.9236641221374,0.0
14.160000562667847,-14.54956348876953,1.3838485595703125,1.24498486328125,73.96946564885496,-136.36641221374046,34.79389312977099,-8.734047656249999,-10.723629235839843,1.3742717529296875,-50.2442748091603,117.89312977099236,62.152671755725194,0.0
14.170000553131104,-15.5144267578125,3.4428619873046875,1.7956512451171873,62.99236641221374,-142.18320610687022,39.31297709923664,-8.125920434570313,-7.723694555664062,-2.01112939453125,12.396946564885496,94.47328244274809,56.42748091603053,0.0
14.18000054359436,-10.97502041015625,2.81558115234375,-0.6751648681640625,55.23664122137404,-152.01526717557252,51.14503816793893,-11.109095703125,-4.6998178588867185,-2.0781670410156248,47.587786259541986,89.61832061068702,49.38931297709924,0.0
14.190000534057617,-9.442731347656249,2.940079638671875,-0.39983167724609375,38.47328244274809,-147.05343511450383,57.38931297709924,-11.080365283203124,-0.9528922607421875,-2.5067291381835934,55.83206106870229,87.48091603053435,43.86259541984733,0.0
14.200000762939453,-5.485116003417969,1.3311761230468748,-0.8738836059570312,28.625954198473284,-141.9083969465649,59.93893129770992,-9.835380419921874,1.3862427612304686,-2.2361843505859373,44.56488549618321,88.79389312977099,41.267175572519086,0.0
14.21000075340271,-4.034229797363281,1.6615759521484375,-1.1348515869140625,27.81679389312977,-117.3587786259542,57.32824427480916,-8.939948999023438,4.505887524414062,-1.668758557128906,4.595419847328245,99.06870229007633,43.11450381679389,0.0
14.220000505447388,0.7781155395507812,-2.530671154785156,-5.166687182617188,38.12213740458015,-102.45801526717557,59.45038167938932,-11.298237634277344,-0.7685387329101562,1.8363526733398436,-1.8931297709923665,105.86259541984732,50.274809160305345,0.0
14.230000495910645,-2.896984008789062,-0.44053310546874996,-1.637633935546875,44.83969465648855,-63.37404580152672,52.88549618320611,-8.959102612304687,0.086191259765625,-0.3016694091796875,-0.8702290076335878,100.03053435114504,51.6793893129771,0.0
14.240000486373901,-1.5131354492187499,0.316034619140625,-2.446874096679687,52.42748091603053,-45.57251908396947,50.2442748091603,-10.560823522949217,-3.5577836669921874,1.0534487304687499,11.526717557251908,97.70992366412214,51.29770992366412,0.0
14.250000238418579,-5.403713146972656,4.352658618164062,-0.06943184814453125,30.061068702290076,-28.625954198473284,43.05343511450382,-8.298302954101562,-1.2689268798828124,-1.3910311645507811,8.625954198473282,85.87786259541984,42.99236641221374,0.0
14.260000705718994,-2.29843359375,3.248931652832031,-2.1883003173828124,6.183206106870229,-28.9618320610687,47.7557251908397,-11.291055029296874,-8.166621862792969,2.446874096679687,10.854961832061068,86.47328244274809,42.0,0.0
14.270000696182251,-2.916137622070312,3.009511486816406,-0.507570751953125,-4.534351145038168,-6.076335877862595,50.091603053435115,-9.794678991699218,-6.241683728027343,0.6679822631835937,38.01526717557252,62.16793893129771,30.198473282442748,0.0
14.280000448226929,-2.6192566162109374,4.5968671875,1.5705962890624998,-18.885496183206108,5.877862595419847,47.16030534351145,-12.732364428710937,-6.349422802734375,2.93050283203125,40.229007633587784,57.083969465648856,22.106870229007633,0.0
14.290000677108765,-1.9823989746093749,5.758054992675781,2.3343466186523436,-29.81679389312977,7.984732824427481,48.33587786259542,-9.627084875488281,0.9457096557617187,-0.20829554443359374,20.916030534351144,43.02290076335878,8.854961832061068,0.0
14.3000009059906,-1.9536685546875,5.61200869140625,4.206612316894531,-35.221374045801525,18.16793893129771,50.274809160305345,-13.869610217285155,-8.161833459472655,8.240842114257813,22.0,52.396946564885496,13.007633587786259,0.0
14.310000658035278,-3.418919970703125,5.2648494506835934,5.135562561035156,-52.30534351145038,19.374045801526716,49.16030534351145,-11.037269653320312,0.6871358764648438,2.2481553588867187,48.16793893129771,24.977099236641223,2.6717557251908395,0.0
14.320000886917114,-3.8379052612304685,4.077325427246094,6.023811376953125,-61.43511450381679,23.14503816793893,49.221374045801525,-15.624560034179687,-5.8610056640625,7.6231380859375,23.862595419847327,36.83969465648855,6.519083969465649,0.0
14.330000877380371,-3.8235400512695312,2.9975404785156248,6.6271501953125,-68.01526717557252,20.885496183206108,48.6412213740458,-11.204863769531249,-1.0199299072265624,3.42849677734375,54.80916030534351,1.4351145038167938,-0.8244274809160306,0.0
14.340000867843628,-3.5793314819335937,1.407790576171875,9.062053283691405,-70.44274809160305,22.015267175572518,43.83206106870229,-20.305224279785154,-9.246406811523437,8.049305981445311,54.16793893129771,11.633587786259541,6.061068702290076,0.0
14.350000619888306,-2.31758720703125,-0.8667010009765624,9.641450085449218,-56.412213740458014,22.045801526717558,40.0,-8.588001354980468,-0.7302315063476562,-1.139639990234375,96.1526717557252,-35.282442748091604,-9.969465648854962,0.0
14.360000848770142,-0.7230489013671875,-2.3511060302734372,7.240065820312499,-39.9236641221374,23.46564885496183,30.916030534351144,-14.834473486328124,-1.7693150268554687,1.678335363769531,75.31297709923665,-27.87786259541985,-11.618320610687023,0.0
14.37000060081482,-0.679953271484375,-4.908113403320312,5.729324572753906,28.03053435114504,52.85496183206107,16.900763358778626,-9.495403784179686,4.197035510253906,-2.8754361938476563,55.37404580152672,-34.900763358778626,-22.0,0.0
14.380000591278076,9.430760339355468,-14.578293908691405,-6.476315490722656,73.29770992366412,58.778625954198475,9.389312977099237,-13.845668200683592,3.5865140869140624,-0.40462008056640625,39.20610687022901,-25.69465648854962,-12.992366412213741,0.0
14.390000343322754,-2.0781670410156248,-13.936647863769531,-3.3399113159179685,145.6030534351145,127.17557251908397,-7.297709923664122,-10.457872851562499,5.377376928710937,-5.027823486328125,5.404580152671755,-18.015267175572518,0.21374045801526717,0.0
14.40000033378601,-5.913678100585937,-12.77546005859375,-4.405331054687499,203.38931297709922,146.90076335877862,-34.0763358778626,-14.693215588378905,3.5314474487304683,-4.139574670410156,-10.488549618320612,5.343511450381679,12.992366412213741,0.0
14.410000562667847,-16.845602880859374,-0.229843359375,4.8123453369140625,252.65648854961833,172.90076335877862,-58.0763358778626,-14.013262316894531,1.3407529296874998,-3.201047619628906,-41.7557251908397,16.03053435114504,19.64885496183206,0.0
14.420000791549683,-8.588001354980468,-4.860229370117187,3.308786694335937,257.78625954198475,147.8320610687023,-54.51908396946565,-13.807360974121092,-0.6775590698242188,-1.120486376953125,-51.541984732824424,27.49618320610687,20.68702290076336,0.0
14.43000078201294,-14.686032983398437,10.931924780273437,3.7804444213867185,294.7022900763359,177.31297709923663,-50.274809160305345,-14.432247607421875,-2.3774422485351563,-0.9097966308593749,-46.87022900763359,27.633587786259543,19.16030534351145,0.0
14.440000534057617,-13.838485595703125,15.409081884765625,-1.1133037719726562,179.55725190839695,133.61832061068702,-57.37404580152672,-13.951013073730469,-2.0087351928710935,-0.38786066894531246,-45.11450381679389,25.61832061068702,13.297709923664122,0.0
14.450000524520874,-14.372392565917968,16.857573889160154,0.1388636962890625,88.53435114503817,107.14503816793894,-55.80152671755725,-16.67561456298828,-5.183446594238281,0.8978256225585937,-25.96946564885496,16.83969465648855,15.358778625954198,0.0
14.460000276565552,-13.551181396484374,13.295001818847656,1.139639990234375,-12.885496183206106,66.80916030534351,-62.70229007633588,-17.207127331542967,-6.581660363769531,1.0845733520507812,-0.7175572519083969,-6.229007633587786,14.381679389312977,0.0
14.470000743865967,-13.49611475830078,8.63109698486328,0.28490999755859375,-79.2824427480916,40.38167938931298,-64.06106870229007,-15.868768603515624,-4.247313745117188,0.5219359619140624,21.19083969465649,-31.96946564885496,8.274809160305344,0.0
14.480000495910645,-8.8489693359375,-0.8954314208984374,-2.6958710693359373,-80.18320610687023,39.14503816793893,-55.64885496183206,-13.582306018066406,-2.461239306640625,1.5777788940429687,33.70992366412214,-46.61068702290076,3.6030534351145036,0.0
14.490000486373901,-8.693346228027343,-3.4261025756835934,-2.626439221191406,-56.50381679389313,54.045801526717554,-53.3587786259542,-11.880028637695311,-2.925714428710937,1.2114660400390624,47.099236641221374,-61.603053435114504,-2.6717557251908395,0.0
14.500000476837158,-7.644685900878906,-4.103661645507812,-2.8203695556640622,-9.007633587786259,78.93129770992367,-54.18320610687023,-10.228029492187499,-0.7613561279296874,-0.7350199096679687,52.656488549618324,-71.6030534351145,-10.15267175572519,0.0
14.510000467300415,-10.350133776855468,-1.1276689819335937,0.15322890625,34.045801526717554,104.30534351145039,-56.85496183206107,-8.767566479492187,0.21308394775390624,-1.4628572143554686,48.030534351145036,-67.80152671755725,-14.763358778625955,0.0
14.520000696182251,-9.0788126953125,2.0183119995117185,0.8954314208984374,42.47328244274809,106.91603053435115,-57.98473282442748,-9.981426721191406,-0.9648632690429687,-1.6519991455078125,60.94656488549618,-64.73282442748092,-15.740458015267176,0.0
14.530000686645508,-9.485826977539062,5.686228942871093,0.3806780639648437,29.236641221374047,104.65648854961832,-59.282442748091604,-9.334992272949219,1.5705962890624998,-4.000710974121094,55.32824427480916,-66.4885496183206,-17.893129770992367,0.0
14.540000915527344,-12.399570397949217,6.8785413696289055,2.8706477905273435,8.580152671755725,99.78625954198473,-59.465648854961835,-10.326191760253906,0.29927520751953124,-3.718195178222656,54.48854961832061,-56.12213740458015,-16.519083969465647,0.0
14.550000667572021,-8.916006982421875,3.7325603881835936,0.8307879760742187,-10.15267175572519,85.70992366412214,-56.80916030534351,-8.932766394042968,3.7517140014648436,-7.287949853515625,50.33587786259542,-55.37404580152672,-18.519083969465647,0.0
14.560000896453857,-8.90643017578125,3.208230224609375,1.458068811035156,-16.427480916030536,81.31297709923665,-55.25190839694657,-10.481814868164061,3.6080619018554687,-5.686228942871093,39.786259541984734,-33.38931297709924,-10.534351145038167,0.0
14.570000410079956,-8.087613208007811,0.8475473876953125,1.4101847778320311,-17.587786259541986,76.79389312977099,-52.56488549618321,-9.753977563476562,2.882618798828125,-4.860229370117187,42.29007633587786,-29.84732824427481,-9.007633587786259,0.0
14.580000877380371,-12.816161486816405,6.1076084350585935,4.994304663085937,-18.99236641221374,80.7175572519084,-54.656488549618324,-10.141838232421874,3.0550013183593747,-3.3686417358398435,40.79389312977099,-27.328244274809162,-8.488549618320612,0.0
14.590000629425049,-7.144297753906249,1.158793603515625,0.928950244140625,-43.86259541984733,58.030534351145036,-48.36641221374046,-8.482656481933594,4.266467358398438,-2.6503812377929687,23.83206106870229,-27.282442748091604,-11.84732824427481,0.0
14.600000619888306,-11.513715783691406,4.290409374999999,3.6176387084960937,-46.82442748091603,58.94656488549618,-47.74045801526717,-8.8489693359375,2.5330653564453125,-0.34237083740234375,9.083969465648854,-19.17557251908397,-8.412213740458014,0.0
14.610000848770142,-9.674968908691406,2.4851813232421875,2.269703173828125,-62.79389312977099,48.458015267175576,-46.732824427480914,-8.413224633789062,0.20350714111328125,0.7948749511718749,12.229007633587786,-27.603053435114504,-7.969465648854962,0.0
14.62000036239624,-8.992621435546875,0.4955997436523437,0.3327940307617187,-59.7557251908397,43.19083969465649,-44.97709923664122,-10.548852514648438,-2.288856787109375,2.1930887207031247,21.740458015267176,-32.79389312977099,-6.122137404580153,0.0
14.630000591278076,-8.52335791015625,-1.16837041015625,0.201112939453125,-48.6412213740458,46.030534351145036,-42.79389312977099,-10.340556970214843,-1.465251416015625,2.152387292480469,37.31297709923664,-48.2442748091603,-11.221374045801527,0.0
14.640000581741333,-14.42267080078125,2.760514514160156,4.158728283691406,-47.80152671755725,49.221374045801525,-46.091603053435115,-9.713276135253906,-1.3862427612304686,1.7501614135742187,38.10687022900763,-56.213740458015266,-15.374045801526718,0.0
14.65000057220459,-9.131485131835937,0.24899697265624998,0.5506663818359374,-42.54961832061068,50.33587786259542,-41.93893129770992,-9.981426721191406,-0.22744915771484372,1.455674609375,49.404580152671755,-68.54961832061069,-17.17557251908397,0.0
14.660000562667847,-12.662932580566405,5.506663818359375,2.5067291381835934,-53.404580152671755,46.87022900763359,-44.99236641221374,-10.615890161132812,-0.5386953735351562,1.7764976318359373,42.74809160305343,-73.52671755725191,-16.396946564885496,0.0
14.670000553131104,-9.093177905273437,0.3016694091796875,0.016759411621093748,-43.55725190839695,52.68702290076336,-40.36641221374046,-7.6470801025390625,1.6232687255859375,0.12210428466796874,30.99236641221374,-84.58015267175573,-20.48854961832061,0.0
14.68000054359436,-18.22705723876953,13.421894506835937,4.5585599609375,-77.05343511450381,48.62595419847328,-46.717557251908396,-9.928754284667969,0.842758984375,0.737414111328125,20.015267175572518,-84.58015267175573,-18.15267175572519,0.0
14.690000534057617,-12.51928048095703,6.955155822753905,1.0486603271484374,-148.6259541984733,7.236641221374046,-38.62595419847328,-9.955090502929687,0.82360537109375,0.6296750366210937,7.282442748091603,-88.54961832061069,-16.12213740458015,0.0
14.700000762939453,-14.214375256347655,5.0206408813476555,2.779668127441406,-144.36641221374046,9.022900763358779,-21.00763358778626,-8.717288244628906,0.5482721801757812,0.8164227661132812,-12.351145038167939,-89.95419847328245,-13.84732824427481,0.0
14.71000075340271,-9.3852705078125,-1.8004396484374998,-0.09337386474609374,-135.38931297709922,2.9923664122137406,-8.641221374045802,-9.373299499511718,0.9888052856445312,0.4070142822265625,-20.99236641221374,-94.62595419847328,-13.053435114503817,0.0
14.720000505447388,-16.041151123046873,4.007893579101562,7.117961535644531,-121.69465648854961,11.007633587786259,-11.877862595419847,-11.022904443359375,-1.0462661254882812,1.9009961181640624,-28.870229007633586,-90.12213740458016,-8.01526717557252,0.0
14.730000257492065,-10.510545288085936,1.3072341064453123,2.7198130859375,-139.7709923664122,-7.9541984732824424,-10.442748091603054,-10.251971508789062,-0.02633621826171875,1.2856862915039062,-27.954198473282442,-94.09160305343511,-9.297709923664122,0.0
14.74000072479248,-11.116278308105468,0.2920926025390625,1.6424223388671875,-102.01526717557252,-4.854961832061068,1.816793893129771,-10.539275708007812,-0.5817910034179687,1.7405846069335937,-22.229007633587788,-96.09160305343511,-6.305343511450381,0.0
14.750000715255737,-7.874529260253905,-4.017470385742187,1.0582371337890624,-75.7557251908397,-0.9312977099236641,3.5114503816793894,-10.261548315429687,-0.1771709228515625,1.2952630981445312,-19.282442748091604,-94.16793893129771,-4.687022900763359,0.0
14.760000467300415,-8.736441857910156,-2.5258827514648434,1.8124106567382812,-49.41984732824427,11.236641221374045,-3.5267175572519083,-8.813056311035156,0.42377369384765623,0.12210428466796874,-14.396946564885496,-96.22900763358778,-6.183206106870229,0.0
14.770000457763672,-8.437166650390624,-1.9105729248046874,1.467645617675781,-32.54961832061068,17.938931297709924,-15.114503816793894,-10.072406384277343,-0.7829039428710937,0.8212111694335937,-9.511450381679388,-87.64885496183206,-5.221374045801527,0.0
14.780000686645508,-8.358157995605469,-1.1516109985351561,1.3479355346679687,-4.091603053435114,31.297709923664122,-19.557251908396946,-9.296685046386719,0.16041151123046873,-0.32082302246093747,-7.297709923664122,-86.51908396946565,-7.633587786259542,0.0
14.790000677108765,-8.968679418945312,0.679953271484375,1.5155296508789062,8.16793893129771,36.2442748091603,-23.053435114503817,-9.435548742675781,-1.177947216796875,0.6200982299804687,-10.335877862595419,-77.77099236641222,-7.679389312977099,0.0
