timestamp,Thigh_L_Acc_X,Thigh_L_Acc_Y,Thigh_L_Acc_Z,Thigh_L_Gyr_X,Thigh_L_Gyr_Y,Thigh_L_Gyr_Z,Thigh_R_Acc_X,Thigh_R_Acc_Y,Thigh_R_Acc_Z,Thigh_R_Gyr_X,Thigh_R_Gyr_Y,Thigh_R_Gyr_Z,gpio_output
10.000000476837158,-10.08677159423828,1.6017209106445311,1.3263877197265623,-17.862595419847327,46.94656488549618,3.282442748091603,-8.82263311767578,1.5418658691406248,-0.8403647827148437,-25.587786259541986,-8.091603053435115,14.687022900763358,0.0
10.010000705718994,-10.75714805908203,0.7541735229492187,2.1906945190429687,-13.267175572519085,50.44274809160305,1.9236641221374047,-8.595183959960938,1.1707646118164061,-1.0462661254882812,-31.893129770992367,-8.946564885496183,15.557251908396946,1.0
10.020000696182251,-8.95670841064453,-1.20667763671875,1.4724340209960938,-7.633587786259542,46.83969465648855,-0.8091603053435115,-9.255983618164063,-1.1276689819335937,-0.488417138671875,-28.946564885496183,-8.67175572519084,19.114503816793892,1.0
10.030000686645508,-9.572018237304688,-1.1875240234375,1.9009961181640624,5.6183206106870225,50.091603053435115,-5.435114503816794,-9.598354455566406,-0.6871358764648438,-2.01112939453125,-21.328244274809162,-15.16030534351145,18.33587786259542,1.0
10.040000677108765,-8.176198669433592,-1.1013327636718748,0.9552864624023437,12.687022900763358,45.19083969465649,-9.068702290076336,-9.191340173339842,-1.6807295654296874,-2.250549560546875,-20.83969465648855,-17.52671755725191,16.610687022900763,1.0
10.05000114440918,-9.488221179199218,0.51714755859375,2.559401574707031,20.3206106870229,48.656488549618324,-12.427480916030534,-11.693280908203125,-0.2059013427734375,-2.3056161987304686,-17.923664122137403,-14.900763358778626,15.725190839694656,1.0
10.060000658035278,-9.447519750976562,2.152387292480469,2.7365724975585937,13.679389312977099,43.74045801526717,-13.725190839694656,-8.91840118408203,-1.4149731811523436,-1.446097802734375,-19.709923664122137,-11.282442748091603,15.770992366412214,1.0
10.070000886917114,-9.801861596679688,2.7246014892578123,2.437297290039062,6.351145038167939,40.2442748091603,-11.633587786259541,-9.45470235595703,-3.1507693847656246,-1.1875240234375,-10.992366412213741,-8.50381679389313,13.145038167938932,1.0
10.080000400543213,-8.698134631347656,1.5346832641601562,0.7302315063476562,6.763358778625954,35.52671755725191,-7.66412213740458,-9.172186560058593,-3.399766357421875,-1.0127473022460938,1.7251908396946565,-13.404580152671755,7.66412213740458,1.0
10.090000867843628,-9.239224206542968,1.3958195678710936,0.5674257934570313,13.34351145038168,40.30534351145038,-6.137404580152672,-10.838550915527343,-3.287238879394531,-0.0143652099609375,16.244274809160306,-12.687022900763358,5.221374045801527,1.0
10.100000619888306,-9.746794958496093,1.158793603515625,0.6607996582031249,10.122137404580153,39.61832061068702,-7.00763358778626,-8.935160595703124,-2.2553379638671873,-1.1109095703125,28.946564885496183,-21.49618320610687,-1.1908396946564885,1.0
10.110000610351562,-12.404358801269531,1.9895815795898437,1.5753846923828123,-0.9770992366412213,36.778625954198475,-8.50381679389313,-7.728482958984374,-1.6903063720703124,-1.5203180541992187,52.01526717557252,-36.19847328244275,-4.625954198473282,1.0
10.12000036239624,-12.631807958984375,3.5434184570312497,2.2026655273437497,-10.83969465648855,31.14503816793893,-9.282442748091603,-8.24802471923828,1.62805712890625,-1.7118541870117185,31.84732824427481,-31.61832061068702,-7.709923664122138,1.0
10.130000591278076,-10.405200415039062,1.3814543579101561,0.46686932373046874,-20.68702290076336,25.938931297709924,-6.061068702290076,-8.52335791015625,2.540247961425781,0.02154781494140625,17.893129770992367,-20.061068702290076,-5.847328244274809,1.0
10.140000343322754,-10.283096130371094,1.0941501586914062,0.86191259765625,-28.763358778625953,23.52671755725191,-6.320610687022901,-10.019733947753906,0.06703764648437499,1.0893617553710937,17.541984732824428,-20.442748091603054,0.3511450381679389,1.0
10.15000057220459,-10.694898815917968,1.2952630981445312,0.8403647827148437,-26.106870229007633,25.083969465648856,-9.17557251908397,-10.788272680664061,0.00239420166015625,0.9169792358398436,16.244274809160306,-27.282442748091604,-0.4732824427480916,1.0
10.160000562667847,-10.953472595214842,1.3838485595703125,0.8475473876953125,-30.763358778625953,24.396946564885496,-9.007633587786259,-10.524910498046875,1.678335363769531,-0.45010991210937495,0.8854961832061069,-27.908396946564885,-2.6259541984732824,1.0
10.170000553131104,-10.180145458984374,1.5442600708007812,1.4508862060546874,-31.19083969465649,26.442748091603054,-7.267175572519084,-8.303091357421874,2.7557261108398436,-1.3000515014648437,-17.297709923664122,-24.85496183206107,-3.2061068702290076,1.0
10.18000078201294,-10.295067138671874,1.5562310791015623,1.5394716674804687,-39.64885496183206,24.977099236641223,-7.435114503816794,-9.7683427734375,0.6631938598632812,-0.5889736083984375,-25.251908396946565,-17.954198473282442,2.595419847328244,1.0
10.190000534057617,-9.904812268066406,1.0893617553710937,1.3239935180664062,-36.80916030534351,25.053435114503817,-7.190839694656488,-9.787496386718749,-0.076614453125,-1.0390835205078124,-25.17557251908397,-19.603053435114504,3.2213740458015265,1.0
10.200000762939453,-10.103531005859374,1.1061211669921875,1.707065783691406,-31.862595419847327,24.595419847328245,-6.488549618320611,-9.694122521972655,-0.5434837768554687,-1.2832920898437499,-22.106870229007633,-21.87786259541985,1.8931297709923665,1.0
10.21000051498413,-9.8449572265625,0.45489831542968745,1.39821376953125,-23.51145038167939,24.30534351145038,-4.366412213740458,-10.74517705078125,-1.7549498168945312,-0.8690952026367187,-10.67175572519084,-23.053435114503817,-0.0,0.0
10.220000743865967,-10.304643945312499,0.8499415893554687,1.946485949707031,-17.404580152671755,24.458015267175572,-3.6793893129770994,-11.504138977050781,-1.7812860351562498,-0.5027823486328125,6.3816793893129775,-27.954198473282442,-2.381679389312977,0.0
10.230000257492065,-9.854534033203125,0.5267243652343749,1.8459294799804686,-7.603053435114504,24.0,-3.7404580152671754,-9.883264453125,1.0606313354492187,-1.707065783691406,7.419847328244275,-31.862595419847327,-7.419847328244275,0.0
10.240000486373901,-10.263942517089843,1.946485949707031,2.370259643554687,-8.122137404580153,22.396946564885496,-4.748091603053435,-8.391676818847655,2.1978771240234374,-0.9864110839843749,-4.549618320610687,-24.091603053435115,-6.320610687022901,0.0
10.250000476837158,-9.557653027343749,2.023100402832031,2.3774422485351563,-10.687022900763358,20.65648854961832,-3.83206106870229,-9.469067565917967,0.5865794067382812,0.2537853759765625,-9.419847328244275,-13.648854961832061,-0.5343511450381679,0.0
10.260000705718994,-10.884040747070312,2.896984008789062,3.229778039550781,-16.16793893129771,16.47328244274809,-4.366412213740458,-11.183315954589844,-0.7733271362304687,0.8643067993164062,-0.9312977099236641,-13.083969465648854,3.0076335877862594,0.0
10.270000696182251,-9.70369932861328,1.2473790649414063,1.7429788085937499,-3.6793893129770994,14.0,-1.5114503816793894,-9.816226806640625,-1.7525556152343749,0.28012159423828126,8.83969465648855,-21.480916030534353,1.099236641221374,0.0
10.280000686645508,-10.577582934570312,1.9033903198242186,2.4133552734375,-3.312977099236641,11.770992366412214,-0.15267175572519084,-9.967061511230469,-1.6807295654296874,0.3232172241210937,21.083969465648856,-24.442748091603054,-1.2671755725190839,0.0
10.290065288543701,-9.332598071289063,0.70868369140625,1.3838485595703125,5.603053435114504,11.435114503816793,0.16793893129770993,-9.255983618164063,0.8643067993164062,-1.2234370483398436,17.572519083969464,-25.862595419847327,-6.1679389312977095,0.0
10.300000667572021,-9.404424121093749,2.0063409912109376,2.04943662109375,2.366412213740458,11.099236641221374,-1.0381679389312977,-9.09796630859375,1.0462661254882812,-0.12210428466796874,1.083969465648855,-14.854961832061068,-5.572519083969466,0.0
10.310000896453857,-9.502586389160156,2.176329309082031,1.9632453613281249,-2.717557251908397,10.274809160305344,-1.633587786259542,-8.398859423828124,1.0821791503906248,-0.4477157104492187,-6.2748091603053435,-13.86259541984733,-4.1679389312977095,0.0
10.320022106170654,-10.072406384277343,2.8610709838867185,1.9752163696289062,-7.358778625954199,8.076335877862595,-1.099236641221374,-9.801861596679688,-0.3902548706054687,0.296881005859375,-7.9541984732824424,-11.465648854961833,-0.7175572519083969,0.0
10.330000877380371,-9.560047229003906,1.8076222534179687,1.235408056640625,-7.893129770992366,7.404580152671755,1.7251908396946565,-9.694122521972655,-0.3711012573242187,0.5219359619140624,-9.32824427480916,-12.351145038167939,-1.3282442748091603,0.0
10.34000039100647,-9.639055883789062,1.5682020874023437,1.1085153686523437,-9.648854961832061,7.190839694656488,3.404580152671756,-9.993397729492187,-0.6177040283203125,0.948103857421875,-7.267175572519084,-13.099236641221374,-2.5343511450381677,0.0
10.350000858306885,-9.476250170898437,1.2282254516601563,0.8786720092773437,-10.67175572519084,7.251908396946565,3.6793893129770994,-10.273519323730468,-1.2042834350585936,1.3838485595703125,-3.0381679389312977,-14.198473282442748,-1.7404580152671756,0.0
10.360000610351562,-9.361328491210937,0.7015010864257812,0.6847416748046875,-10.580152671755725,8.01526717557252,2.9160305343511452,-9.756371765136718,-1.6998831787109374,1.8626888916015625,4.641221374045801,-19.908396946564885,-2.351145038167939,0.0
10.37000036239624,-9.631873278808593,0.44053310546874996,0.49799394531249996,-9.557251908396946,8.183206106870228,1.1908396946564885,-11.401188305664062,-2.0063409912109376,2.849099975585937,20.50381679389313,-26.580152671755727,-1.3587786259541985,0.0
10.380000591278076,-9.591171850585937,-0.3280056274414062,0.1197100830078125,-5.099236641221374,8.931297709923664,0.0916030534351145,-10.998962426757812,-0.4836287353515625,1.3359645263671873,32.045801526717554,-41.48091603053435,-4.717557251908397,0.0
10.390000581741333,-9.440337145996093,0.11013327636718749,0.3136404174804687,0.4122137404580153,11.297709923664122,-2.564885496183206,-9.282319836425781,2.118868469238281,0.4644751220703125,14.580152671755725,-43.099236641221374,-8.50381679389313,0.0
10.40000057220459,-9.789890588378906,1.6400281372070311,0.8954314208984374,-5.877862595419847,13.068702290076336,-3.5419847328244276,-8.978256225585938,0.9600748657226562,1.458068811035156,-0.07633587786259542,-35.83206106870229,-5.267175572519084,0.0
10.410000562667847,-9.701305126953125,1.898601916503906,0.6967126831054687,-13.038167938931299,13.511450381679388,-3.480916030534351,-10.982203015136719,-0.12210428466796874,2.6886884643554687,0.5190839694656488,-37.51145038167939,-0.061068702290076333,0.0
10.420000791549683,-9.880870251464843,1.8052280517578123,0.28012159423828126,-12.931297709923664,13.221374045801527,-3.5267175572519083,-10.060435375976562,1.3551181396484375,1.5394716674804687,-9.297709923664122,-45.43511450381679,-2.3206106870229006,0.0
10.43000054359436,-9.442731347656249,1.5610194824218748,-0.181959326171875,-11.404580152671755,15.572519083969466,-1.282442748091603,-8.090007409667969,2.1308394775390624,1.678335363769531,-29.541984732824428,-39.770992366412216,-3.66412213740458,0.0
10.440000772476196,-11.3389390625,2.1021090576171875,1.5801730957031248,-17.81679389312977,22.15267175572519,-1.4809160305343512,-8.80347950439453,1.6232687255859375,1.3359645263671873,-43.23664122137404,-32.99236641221374,-1.7404580152671756,0.0
10.450000286102295,-11.3772462890625,3.399766357421875,1.39821376953125,-26.732824427480917,17.83206106870229,-2.2290076335877864,-10.098742602539062,-0.37828386230468747,1.5873557006835937,-47.083969465648856,-32.33587786259542,1.297709923664122,0.0
10.46000051498413,-10.943895788574219,2.5737667846679684,0.9840168823242187,-35.083969465648856,13.648854961832061,-1.3893129770992367,-10.089165795898436,-0.29448680419921874,1.1420341918945311,-48.94656488549618,-33.81679389312977,-0.061068702290076333,0.0
10.470000267028809,-9.986215124511718,1.2832920898437499,0.488417138671875,-29.908396946564885,15.48091603053435,1.6641221374045803,-10.781090075683593,-1.93451494140625,2.2266075439453124,-43.52671755725191,-33.267175572519086,-0.8244274809160306,0.0
10.480000495910645,-9.682151513671874,0.612915625,0.3950432739257812,-30.03053435114504,14.351145038167939,2.9923664122137406,-12.04762275390625,-3.450044592285156,1.9895815795898437,-23.572519083969464,-42.33587786259542,-2.030534351145038,0.0
10.490000486373901,-9.926360083007811,-0.055066638183593745,0.2753331909179687,-20.27480916030534,15.19083969465649,0.42748091603053434,-11.84890401611328,-3.0933085449218747,1.9728221679687499,-1.6946564885496183,-54.0763358778626,-4.564885496183206,0.0
10.500000476837158,-9.70369932861328,-0.3495534423828125,0.32082302246093747,-12.122137404580153,16.47328244274809,-1.4045801526717556,-8.75320126953125,0.277727392578125,-0.3687070556640625,-4.580152671755725,-60.42748091603053,-12.778625954198473,0.0
10.510000944137573,-9.871293444824218,0.8283937744140625,0.8355763793945312,-12.259541984732824,18.366412213740457,-3.8473282442748094,-8.525752111816406,0.45968671875,0.33518823242187495,-16.442748091603054,-46.732824427480914,-12.641221374045802,0.0
10.520000696182251,-9.952696301269532,1.3455413330078123,1.4604630126953124,-22.259541984732824,17.114503816793892,-4.0458015267175576,-9.708487731933593,-0.8595183959960937,0.9528922607421875,-13.969465648854962,-43.38931297709924,-8.961832061068701,0.0
10.530001163482666,-10.01015714111328,1.4317325927734375,0.9002198242187499,-16.885496183206108,16.763358778625953,-4.473282442748092,-8.762778076171875,0.27293898925781246,0.04548983154296875,-16.625954198473284,-42.85496183206107,-10.076335877862595,0.0
10.540000677108765,-10.211270080566406,1.924938134765625,1.6256629272460936,-17.49618320610687,16.519083969465647,-3.236641221374046,-7.050923889160156,0.622492431640625,-0.6679822631835937,-24.33587786259542,-35.32824427480916,-12.335877862595419,0.0
10.5500009059906,-9.97903251953125,1.6136919189453125,1.6472107421875,-20.48854961832061,14.977099236641221,-1.450381679389313,-8.702923034667968,-1.2521674682617188,0.5099649536132812,-24.900763358778626,-21.801526717557252,-9.816793893129772,0.0
10.5600004196167,-9.598354455566406,0.9504980590820312,1.3934253662109375,-17.801526717557252,12.702290076335878,-0.061068702290076333,-8.786720092773438,-2.195482922363281,0.3232172241210937,-15.526717557251908,-20.549618320610687,-10.320610687022901,0.0
10.570000648498535,-7.738059765625,-1.4245499877929686,0.07900865478515624,0.9007633587786259,12.885496183206106,0.8244274809160306,-9.18655177001953,-2.789244934082031,0.5626373901367188,-4.641221374045801,-17.64885496183206,-12.564885496183207,0.0
10.580000638961792,-9.667786303710937,-1.1061211669921875,1.917755529785156,14.16793893129771,19.96946564885496,-4.427480916030534,-9.516951599121093,-3.5003228271484375,1.1061211669921875,9.297709923664122,-14.931297709923664,-15.129770992366412,0.0
10.590000629425049,-10.551246716308594,0.1867477294921875,2.5139117431640625,19.862595419847327,19.419847328244273,-9.34351145038168,-8.360552197265624,-1.9632453613281249,-0.08858546142578125,21.297709923664122,-17.893129770992367,-19.786259541984734,0.0
10.600000619888306,-9.830592016601562,2.0877438476562498,1.944091748046875,21.66412213740458,13.893129770992367,-10.67175572519084,-9.49300958251953,-2.3582886352539063,1.120486376953125,25.81679389312977,-10.01526717557252,-18.50381679389313,0.0
10.610000848770142,-11.049240661621093,2.0446482177734375,2.6671406494140624,16.198473282442748,12.274809160305344,-9.17557251908397,-8.932766394042968,-1.1252747802734375,0.9600748657226562,29.984732824427482,-9.954198473282442,-18.85496183206107,0.0
10.62000060081482,-11.947066284179687,3.2321722412109373,2.786850732421875,15.648854961832061,10.732824427480915,-6.916030534351145,-9.179369165039063,-0.6512228515624999,1.3000515014648437,34.19847328244275,-10.82442748091603,-17.862595419847327,0.0
10.630000591278076,-10.675745202636719,2.4109610717773435,1.5682020874023437,7.190839694656488,2.946564885496183,-3.66412213740458,-8.805873706054687,-0.27293898925781246,1.4030021728515625,33.9236641221374,-9.954198473282442,-17.49618320610687,0.0
10.640000343322754,-9.734823950195311,1.6136919189453125,0.7996633544921875,9.893129770992367,2.183206106870229,-1.0381679389312977,-8.441955053710936,-0.16759411621093748,1.5275006591796874,27.84732824427481,-6.152671755725191,-16.458015267175572,0.0
10.65000033378601,-9.258377819824219,1.199495031738281,0.8283937744140625,5.969465648854962,2.4122137404580153,-1.2671755725190839,-8.590395556640624,-0.5243301635742187,1.9009961181640624,27.52671755725191,-5.557251908396947,-15.511450381679388,0.0
10.660000562667847,-9.495403784179686,1.47482822265625,0.8571241943359375,3.8931297709923665,2.5343511450381677,-2.9923664122137406,-8.95670841064453,-0.9840168823242187,2.384624853515625,27.19083969465649,-4.916030534351145,-15.435114503816793,0.0
10.670000553131104,-9.265560424804686,0.7493851196289062,0.488417138671875,3.114503816793893,2.732824427480916,-3.1603053435114505,-8.89924757080078,-0.9121908325195311,2.4756045166015626,25.633587786259543,-5.709923664122138,-16.03053435114504,0.0
10.68000078201294,-9.083601098632812,0.5626373901367188,0.9217676391601562,10.885496183206106,9.129770992366412,-4.427480916030534,-8.418013037109375,-0.7110778930664062,2.384624853515625,22.9618320610687,-6.870229007633588,-16.610687022900763,0.0
10.690000534057617,-8.264784130859374,0.2154781494140625,0.6057330200195312,7.419847328244275,9.48091603053435,-5.587786259541985,-8.547299926757812,-0.9744400756835937,2.6719290527343746,22.916030534351144,-9.068702290076336,-16.732824427480917,0.0
10.700000762939453,-8.202534887695313,0.16519991455078123,0.3399766357421875,5.572519083969466,7.923664122137405,-6.305343511450381,-8.48505068359375,-0.9888052856445312,2.808398547363281,19.66412213740458,-8.854961832061068,-16.3206106870229,0.0
10.71000051498413,-9.150638745117186,0.7924807495117187,1.5083470458984374,4.122137404580153,10.15267175572519,-7.312977099236641,-7.821856823730468,-0.8403647827148437,2.5474305664062498,16.396946564885496,-9.648854961832061,-15.633587786259541,0.0
10.720000743865967,-9.366116894531249,0.2537853759765625,2.099714855957031,2.045801526717557,9.007633587786259,-7.374045801526718,-7.350199096679687,-0.7398083129882812,2.068590234375,13.587786259541986,-10.320610687022901,-15.236641221374045,0.0
10.730000257492065,-10.59194814453125,0.3711012573242187,3.0358477050781247,4.473282442748092,9.17557251908397,-8.427480916030534,-7.278373046874999,-0.814028564453125,1.5370774658203123,10.854961832061068,-8.641221374045802,-14.16793893129771,0.0
10.740000486373901,-9.995791931152343,0.38307226562499996,2.3918074584960936,7.175572519083969,3.099236641221374,-8.534351145038167,-6.861781958007812,-0.9121908325195311,1.1276689819335937,7.969465648854962,-6.458015267175573,-13.49618320610687,0.0
10.750000715255737,-8.908824377441405,-0.023942016601562498,1.838746875,4.778625954198473,-3.1603053435114505,-8.473282442748092,-6.976703637695312,-0.9552864624023437,0.8834604125976562,5.9541984732824424,-3.618320610687023,-12.51908396946565,0.0
10.760000705718994,-9.782707983398437,0.74699091796875,2.2936451904296873,3.282442748091603,-8.274809160305344,-7.4961832061068705,-6.880935571289062,-0.814028564453125,0.7661445312499999,3.801526717557252,-1.9083969465648856,-10.381679389312977,0.0
10.770000457763672,-10.82179150390625,1.4173673828125,3.373430139160156,9.374045801526718,-7.343511450381679,-7.786259541984733,-6.710947253417968,-0.6248866333007812,0.6392518432617187,1.7404580152671756,-0.8244274809160306,-8.274809160305344,0.0
10.780000686645508,-10.596736547851561,1.3120225097656248,3.3542765258789062,0.9312977099236641,-16.106870229007633,-4.99236641221374,-6.591237170410156,-0.3399766357421875,-0.25139117431640623,1.0076335877862594,0.8244274809160306,-6.152671755725191,0.0
10.790000915527344,-10.946289990234375,1.3215993164062498,3.902548706054687,7.0534351145038165,-18.671755725190838,-1.816793893129771,-7.465120776367187,-0.3687070556640625,-0.08379705810546874,-2.198473282442748,5.145038167938932,-5.00763358778626,0.0
10.800000667572021,-10.838550915527343,1.13006318359375,4.747701892089843,7.8320610687022905,-23.61832061068702,-0.2900763358778626,-8.947131604003905,-1.3359645263671873,0.09816226806640624,-2.7022900763358777,6.366412213740458,-4.030534351145038,0.0
10.810000896453857,-10.651803186035156,1.0031704956054688,5.805939025878906,9.98473282442748,-30.30534351145038,-0.061068702290076333,-10.615890161132812,-2.2864625854492187,0.1292868896484375,2.6717557251908395,7.679389312977099,-4.625954198473282,0.0
10.820000648498535,-10.862492932128905,0.9337386474609375,7.161057165527343,16.3206106870229,-38.87022900763359,0.366412213740458,-12.722787622070312,-2.645592834472656,1.209071838378906,10.473282442748092,7.801526717557252,-6.67175572519084,0.0
10.830000638961792,-11.544840405273437,1.1180921752929687,8.480262280273436,26.38167938931298,-48.87022900763359,-0.015267175572519083,-14.669273571777342,-2.93050283203125,2.379836450195312,16.641221374045802,7.312977099236641,-9.83206106870229,0.0
10.84000039100647,-12.145785021972655,3.2513258544921873,10.54645831298828,36.213740458015266,-63.3587786259542,-0.6717557251908397,-15.167267517089844,-2.1452046874999997,2.4971523315429685,18.900763358778626,6.320610687022901,-12.900763358778626,0.0
10.850000619888306,-14.228740466308594,4.405331054687499,11.25514200439453,29.14503816793893,-85.72519083969466,1.6488549618320612,-17.46091270751953,-0.41898529052734373,3.1962592163085937,29.129770992366414,7.206106870229007,-8.946564885496183,0.0
10.860000610351562,-14.580688110351561,5.011064074707031,10.488997473144531,28.931297709923665,-110.62595419847328,7.557251908396947,-12.378022583007812,2.789244934082031,1.0941501586914062,22.671755725190838,-1.633587786259542,-5.755725190839694,0.0
10.87000060081482,-15.157690710449218,3.4548329956054684,9.583989245605467,20.229007633587788,-139.206106870229,14.305343511450381,-8.975862023925782,3.1771056030273437,0.1867477294921875,12.625954198473282,-0.3816793893129771,0.366412213740458,0.0
10.880000829696655,-15.502455749511718,1.1947066284179686,8.188169677734374,21.221374045801525,-159.45038167938932,20.748091603053435,-8.564059338378906,2.308010400390625,-0.7493851196289062,9.068702290076336,2.015267175572519,9.465648854961833,0.0
10.890000581741333,-15.655684655761718,0.21308394775390624,5.659892724609374,31.34351145038168,-174.29007633587787,24.65648854961832,-9.0021982421875,0.44532150878906246,0.0718260498046875,6.687022900763359,6.732824427480916,12.931297709923664,0.0
10.90000057220459,-15.638925244140625,-1.9105729248046874,1.5586252807617187,35.48091603053435,-182.19847328244273,24.900763358778626,-8.17141026611328,0.5339069702148437,-1.7310078002929687,0.3969465648854962,7.1603053435114505,9.450381679389313,0.0
10.910000324249268,-15.298948608398437,-1.8004396484374998,-1.438915197753906,34.0,-182.67175572519085,23.114503816793892,-8.750807067871094,0.26336218261718747,-1.0271125122070313,-4.931297709923665,15.19083969465649,6.687022900763359,0.0
10.920000791549683,-14.099453576660155,-1.1563994018554686,-3.229778039550781,34.01526717557252,-176.36641221374046,21.00763358778626,-8.379705810546875,0.4333505004882812,-1.7022773803710936,-17.00763358778626,21.328244274809162,4.061068702290076,0.0
10.93000054359436,-12.464213842773436,-0.97683427734375,-3.5673604736328124,33.099236641221374,-163.1145038167939,23.083969465648856,-9.342174877929686,-2.001552587890625,-0.7110778930664062,-14.717557251908397,28.3206106870229,6.656488549618321,0.0
10.940000772476196,-10.589553942871094,-2.568978381347656,-3.421314172363281,43.603053435114504,-147.3740458015267,22.229007633587788,-12.169727038574218,-3.047818713378906,-0.11731588134765625,-10.076335877862595,30.900763358778626,7.587786259541985,0.0
10.950000524520874,-8.240842114257813,-3.1387983764648437,-3.3255461059570313,56.458015267175576,-127.69465648854961,22.519083969465647,-10.505756884765624,-0.40462008056640625,-1.235408056640625,-4.67175572519084,27.908396946564885,1.4045801526717556,0.0
10.96000075340271,-8.166621862792969,-1.7286135986328124,-3.1771056030273437,67.7557251908397,-112.99236641221374,14.900763358778626,-9.069235888671875,0.7422025146484375,-1.3215993164062498,-14.580152671755725,35.14503816793893,1.465648854961832,0.0
10.970000267028809,-7.931990100097655,-0.30885201416015623,-2.2744915771484373,58.732824427480914,-98.21374045801527,9.49618320610687,-10.565611926269531,-1.2665326782226562,0.07900865478515624,-12.977099236641221,42.93129770992366,8.916030534351146,0.0
10.980000257492065,-8.267178332519531,-0.4213794921875,-1.7405846069335937,55.16030534351145,-85.95419847328245,5.267175572519084,-7.3478048950195305,2.0254946044921875,-2.923320227050781,-23.755725190839694,37.49618320610687,9.053435114503817,0.0
10.990000247955322,-8.535328918457031,1.5370774658203123,-1.0965443603515623,54.87022900763359,-71.63358778625954,2.33587786259542,-8.966285217285156,0.28490999755859375,-1.1156979736328125,-42.51908396946565,52.656488549618324,13.511450381679388,0.0
11.000000476837158,-9.473855969238281,1.678335363769531,-0.38786066894531246,36.50381679389313,-64.35114503816794,1.8473282442748091,-8.384494213867187,-0.9169792358398436,-0.5674257934570313,-44.36641221374046,59.770992366412216,18.18320610687023,0.0
11.010000467300415,-9.708487731933593,1.3575123413085937,0.04548983154296875,24.412213740458014,-60.67175572519084,0.24427480916030533,-10.101136804199218,-3.9600095458984375,0.8475473876953125,-31.14503816793893,52.396946564885496,20.946564885496183,0.0
11.020000696182251,-8.147468249511718,0.8116343627929687,-1.7764976318359373,21.282442748091604,-58.93129770992366,1.0229007633587786,-8.760383874511719,-2.3487118286132813,-0.9169792358398436,-26.290076335877863,45.786259541984734,14.763358778625955,0.0
11.030000686645508,-8.990227233886719,1.905784521484375,-1.467645617675781,10.748091603053435,-51.19083969465649,1.5572519083969465,-9.490615380859374,-3.6008792968749996,0.7326257080078125,-25.908396946564885,50.458015267175576,11.16030534351145,0.0
11.040000677108765,-7.6087728759765625,0.9193734375,-2.3032219970703123,-0.07633587786259542,-47.9236641221374,5.221374045801527,-9.682151513671874,-4.067748620605468,0.5410895751953124,-1.282442748091603,44.0763358778626,8.229007633587786,0.0
11.0500009059906,-8.327033374023436,1.438915197753906,-1.7621324218749999,-2.2442748091603053,-36.68702290076336,5.816793893129771,-8.626308581542968,-3.5697546752929687,0.3902548706054687,5.206106870229007,35.52671755725191,2.6106870229007635,0.0
11.0600004196167,-7.560888842773437,1.8818425048828125,-1.6232687255859375,-11.145038167938932,-26.82442748091603,8.732824427480915,-7.223306408691406,-1.8315642700195311,-0.354341845703125,6.213740458015267,32.94656488549618,-3.282442748091603,0.0
11.070000886917114,-6.7037646484375,1.8124106567382812,-1.4317325927734375,-18.702290076335878,-17.297709923664122,12.83969465648855,-7.783549597167968,-0.833182177734375,0.18914193115234373,-0.07633587786259542,39.93893129770992,-1.7099236641221374,0.0
11.080000638961792,-4.163516687011718,1.3359645263671873,-2.1499930908203124,-23.770992366412212,-8.244274809160306,16.076335877862597,-7.8170684204101555,-0.5003881469726562,0.047884033203124995,-12.854961832061068,44.732824427480914,0.8854961832061069,0.0
11.090000629425049,-4.039018200683594,0.33039982910156246,-1.235408056640625,-29.419847328244273,7.770992366412214,15.465648854961833,-10.39322940673828,-2.674323254394531,2.3678654418945313,-7.312977099236641,48.595419847328245,6.549618320610687,0.0
11.100000619888306,-5.221753820800781,1.3575123413085937,0.5434837768554687,-39.06870229007634,18.625954198473284,10.65648854961832,-12.011709729003906,-4.029441394042968,3.8283284545898435,19.61832061068702,41.16030534351145,9.84732824427481,0.0
11.110000610351562,-6.461950280761719,1.2042834350585936,1.458068811035156,-55.725190839694655,19.709923664122137,6.106870229007634,-10.383652600097655,-1.7884686401367187,1.8531120849609375,32.36641221374046,25.389312977099237,3.2519083969465647,0.0
11.12000060081482,-5.942408520507812,-0.2705447875976562,1.8124106567382812,-58.18320610687023,25.954198473282442,5.66412213740458,-9.923965881347655,-0.1867477294921875,0.74699091796875,28.442748091603054,21.61832061068702,0.13740458015267176,0.0
11.130000352859497,-4.465186096191406,-2.5474305664062498,2.1835119140624997,-56.79389312977099,31.954198473282442,4.9465648854961835,-9.83777462158203,0.2561795776367187,1.1516109985351561,23.17557251908397,26.778625954198475,0.4122137404580153,0.0
11.140000820159912,-5.154716174316406,-2.808398547363281,3.5506010620117183,-39.49618320610687,46.6412213740458,0.5801526717557252,-9.871293444824218,-0.5051765502929687,1.7956512451171873,17.893129770992367,27.251908396946565,2.2900763358778624,0.0
11.15000033378601,-4.6064439941406246,-1.7764976318359373,4.096479040527344,-25.49618320610687,54.10687022900763,-6.015267175572519,-9.732429748535155,-1.0103531005859374,1.5322890624999999,16.198473282442748,26.870229007633586,2.687022900763359,0.0
11.160000562667847,-4.783614916992187,-0.9792284790039062,4.630386010742187,-10.396946564885496,57.603053435114504,-10.564885496183207,-10.237606298828124,-0.8786720092773437,1.4891934326171874,16.717557251908396,27.282442748091604,3.0839694656488548,0.0
11.170000553131104,-5.681440539550781,-0.0526724365234375,5.6024318847656245,5.0534351145038165,61.49618320610687,-12.83969465648855,-9.734823950195311,-1.649604943847656,1.458068811035156,14.946564885496183,27.81679389312977,2.9618320610687023,0.0
11.18000078201294,-7.127538342285156,2.020706201171875,7.2903440551757805,14.916030534351146,64.09160305343511,-13.603053435114504,-9.217676391601563,-1.3718775512695311,1.0007762939453124,14.885496183206106,28.625954198473284,2.7022900763358777,0.0
11.190000534057617,-8.070853796386718,3.1268273681640624,8.267178332519531,16.0,59.23664122137404,-13.129770992366412,-9.612719665527344,-1.4508862060546874,1.4053963745117186,16.03053435114504,30.885496183206108,3.5267175572519083,0.0
11.200000762939453,-8.927977990722656,3.9624037475585934,9.081206896972656,13.740458015267176,51.87786259541985,-8.51908396946565,-9.162609753417968,0.0909796630859375,0.3232172241210937,12.15267175572519,30.53435114503817,2.3206106870229006,0.0
11.210000276565552,-9.658209497070311,4.824316345214844,9.555258825683593,8.274809160305344,44.16793893129771,-4.8396946564885495,-9.753977563476562,1.2018892333984375,-0.0526724365234375,3.5877862595419847,34.0763358778626,2.8091603053435112,0.0
11.220000743865967,-9.181763366699219,3.9552211425781247,8.36294639892578,-7.786259541984733,29.374045801526716,-0.5648854961832062,-9.485826977539062,1.927332336425781,0.3327940307617187,-12.13740458015267,42.732824427480914,4.442748091603053,0.0
11.230000495910645,-7.934384301757812,2.8706477905273435,7.041347082519531,-7.038167938931298,23.709923664122137,2.0610687022900764,-10.20887587890625,1.1228805786132812,2.1835119140624997,-33.343511450381676,56.88549618320611,10.442748091603054,0.0
11.240000247955322,-6.998251452636718,2.980781066894531,6.095637426757812,3.1603053435114505,21.81679389312977,4.198473282442748,-10.405200415039062,-1.2282254516601563,2.2266075439453124,-21.49618320610687,53.86259541984733,15.404580152671755,0.0
11.250000476837158,-7.0078282592773435,0.9983820922851562,3.6655227416992187,5.282442748091603,15.16030534351145,4.015267175572519,-11.6837041015625,-1.216254443359375,1.467645617675781,-5.786259541984733,45.19083969465649,15.923664122137405,0.0
11.260000705718994,-5.9017070922851556,-0.09816226806640624,2.1164742675781247,23.84732824427481,19.0381679389313,4.854961832061068,-9.97184991455078,-1.4101847778320311,0.9624690673828125,-4.641221374045801,37.847328244274806,12.854961832061068,0.0
11.270000696182251,-7.280767248535156,1.0821791503906248,1.649604943847656,17.389312977099237,26.80916030534351,-0.6106870229007634,-9.351751684570312,-0.9337386474609375,-0.19871873779296872,0.04580152671755725,36.61068702290076,10.16793893129771,0.0
11.280000686645508,-10.51533369140625,1.5586252807617187,3.497928625488281,5.0534351145038165,32.79389312977099,-8.717557251908397,-11.125855114746093,-0.7062894897460937,-0.47644613037109373,-9.358778625954198,40.274809160305345,12.183206106870228,0.0
11.290000915527344,-12.715605017089842,0.430956298828125,5.6215854980468745,2.122137404580153,34.42748091603053,-8.961832061068701,-10.692504614257812,-1.6352397338867186,0.5315127685546874,-16.38167938931298,43.48091603053435,15.145038167938932,0.0
11.300000667572021,-13.081917871093749,-0.5817910034179687,7.493851196289062,8.83969465648855,28.900763358778626,-8.748091603053435,-11.712434521484374,-4.477157104492187,1.7932570434570312,-9.923664122137405,40.93129770992366,18.16793893129771,0.0
11.310000658035278,-16.33084952392578,0.6272808349609375,9.65342109375,26.610687022900763,27.053435114503817,-10.198473282442748,-11.872846032714843,-6.229712719726562,1.2593500732421874,6.198473282442748,26.641221374045802,15.297709923664122,0.0
11.320000648498535,-18.504784631347654,4.010287780761718,8.547299926757812,33.12977099236641,22.580152671755727,-7.129770992366412,-12.35408056640625,-4.829104748535156,0.9145850341796874,9.221374045801527,22.80916030534351,9.786259541984732,0.0
11.330000877380371,-11.585541833496093,1.4413093994140624,1.5634136840820312,37.6793893129771,12.0,2.9618320610687023,-9.883264453125,-3.3159692993164063,0.1388636962890625,15.282442748091603,11.694656488549619,4.67175572519084,0.0
11.340000629425049,-14.123395593261717,4.242525341796875,3.555389465332031,20.610687022900763,16.18320610687023,2.198473282442748,-11.614272253417967,-2.8610709838867185,0.4477157104492187,21.954198473282442,4.549618320610687,2.7480916030534353,0.0
11.350000619888306,-10.828974108886719,2.5474305664062498,-0.5722141967773438,-0.3969465648854962,2.4885496183206106,0.183206106870229,-12.186486450195313,-1.0606313354492187,0.7062894897460937,17.374045801526716,0.8091603053435115,1.1755725190839694,0.0
11.360000610351562,-6.720524060058593,-0.29448680419921874,-2.3343466186523436,-12.091603053435115,-2.2900763358778624,0.9770992366412213,-12.033257543945313,0.7134720947265625,0.3327940307617187,8.229007633587786,-5.938931297709924,-0.2595419847328244,0.0
11.37000060081482,-4.814739538574218,-2.9951462768554684,-2.327164013671875,-7.984732824427481,3.633587786259542,-2.2290076335877864,-12.442666027832031,1.3168109130859373,-0.18914193115234373,0.2748091603053435,-11.038167938931299,0.8702290076335878,0.0
11.380000352859497,-2.427720483398437,-3.7995980346679685,-2.863465185546875,13.786259541984732,14.290076335877863,-5.603053435114504,-13.022062829589842,1.0175357055664063,0.06943184814453125,-1.7251908396946565,-15.908396946564885,4.0,0.0
11.390000581741333,-5.76523759765625,1.2521674682617188,-0.5267243652343749,14.702290076335878,21.96946564885496,-11.740458015267176,-11.666944689941406,2.152387292480469,-1.13006318359375,-9.16030534351145,-25.404580152671755,3.312977099236641,0.0
11.40000033378601,-7.0269818725585935,2.817975354003906,-0.7900865478515624,12.854961832061068,24.900763358778626,-7.862595419847328,-12.801796276855468,2.214636535644531,-0.17477672119140625,-15.526717557251908,-26.442748091603054,5.694656488549619,0.0
11.410000562667847,-8.403647827148436,3.0454245117187497,-0.16519991455078123,19.51145038167939,38.229007633587784,-0.3816793893129771,-12.133814013671874,0.5770026000976562,0.32561142578124996,-17.984732824427482,-29.114503816793892,9.877862595419847,0.0
11.420000791549683,-8.762778076171875,2.2026655273437497,0.0,17.770992366412212,43.908396946564885,1.6488549618320612,-10.89840595703125,-0.59376201171875,0.9864110839843749,-9.206106870229007,-37.89312977099237,8.458015267175572,0.0
11.430000305175781,-10.319009155273436,2.5953145996093747,1.197100830078125,13.526717557251908,49.83206106870229,-0.732824427480916,-10.766724865722656,0.5626373901367188,0.45489831542968745,-12.763358778625955,-44.396946564885496,7.038167938931298,0.0
11.440000772476196,-9.047688073730468,0.8714894042968749,0.48123453369140623,7.679389312977099,50.88549618320611,-0.9923664122137404,-10.182539660644531,0.17477672119140625,1.1875240234375,-14.229007633587786,-44.44274809160305,5.938931297709924,0.0
11.450000286102295,-10.129867224121092,1.350329736328125,1.905784521484375,8.381679389312977,56.29007633587786,-3.0381679389312977,-9.756371765136718,-2.0278888061523435,1.0989385620117187,-2.0916030534351147,-51.83206106870229,6.900763358778626,0.0
11.46000075340271,-9.689334118652344,0.32082302246093747,1.1348515869140625,6.885496183206107,54.48854961832061,-6.6106870229007635,-7.860164050292968,0.16041151123046873,-1.4891934326171874,3.7404580152671754,-63.969465648854964,2.0763358778625953,0.0
11.470000505447388,-11.243170996093749,1.6807295654296874,2.597708801269531,7.9541984732824424,57.19083969465649,-8.916030534351146,-7.285555651855469,1.6112977172851561,-1.8076222534179687,-9.114503816793894,-59.954198473282446,0.33587786259541985,0.0
11.480000495910645,-10.146626635742187,0.9050082275390624,1.9776105712890624,-5.908396946564886,46.900763358778626,-9.358778625954198,-8.281543542480469,0.8667010009765624,-1.120486376953125,-12.16793893129771,-54.274809160305345,4.061068702290076,0.0
11.49000072479248,-10.548852514648438,2.085349645996094,2.4947581298828125,-8.106870229007633,44.2442748091603,-9.267175572519085,-10.429142431640624,-2.6216508178710938,0.3136404174804687,-9.404580152671755,-49.25190839694657,8.030534351145038,0.0
11.500000715255737,-9.524134204101562,0.8212111694335937,2.2194249389648437,-11.633587786259541,37.05343511450382,-8.396946564885496,-9.91438907470703,-0.5243301635742187,-1.668758557128906,-7.0534351145038165,-54.396946564885496,4.732824427480916,0.0
11.510000705718994,-9.414000927734374,2.214636535644531,2.5809493896484375,-12.534351145038167,32.88549618320611,-6.427480916030534,-9.907206469726562,0.18435352783203124,-2.3678654418945313,-20.15267175572519,-46.83969465648855,2.045801526717557,0.0
11.520000457763672,-9.524134204101562,1.944091748046875,2.6982652709960937,-19.908396946564885,29.49618320610687,-3.572519083969466,-9.349357482910156,-2.1164742675781247,-2.1547814941406247,-20.641221374045802,-40.961832061068705,2.732824427480916,0.0
11.530000686645508,-7.994239343261718,1.4604630126953124,1.7860744384765623,-20.091603053435115,23.587786259541986,-0.5801526717557252,-10.9175595703125,-3.835511059570312,-1.2737152832031249,-3.435114503816794,-39.6793893129771,3.0839694656488548,0.0
11.540000677108765,-10.73799444580078,2.4205378784179685,3.076549133300781,-20.015267175572518,22.732824427480917,-0.7480916030534351,-10.75714805908203,-3.718195178222656,-1.7238251953125,19.450381679389313,-44.80916030534351,-1.297709923664122,0.0
11.55000114440918,-9.112331518554686,0.18914193115234373,1.7525556152343749,-18.641221374045802,14.763358778625955,2.946564885496183,-9.64623848876953,-0.040701428222656245,-4.134786267089844,24.870229007633586,-42.85496183206107,-7.969465648854962,0.0
11.5600004196167,-10.333374365234375,2.3535002319335936,3.6080619018554687,-10.625954198473282,17.297709923664122,3.7099236641221376,-9.603142858886718,2.233790148925781,-4.216189123535156,14.106870229007633,-28.931297709923665,-8.290076335877863,0.0
11.570000886917114,-9.718064538574218,1.946485949707031,3.1076737548828124,-21.740458015267176,9.099236641221374,2.3053435114503817,-10.35492218017578,0.6057330200195312,-2.1643583007812497,8.274809160305344,-11.755725190839694,-3.801526717557252,0.0
11.580000638961792,-10.146626635742187,1.9967641845703124,2.3367408203125,-20.610687022900763,3.3893129770992365,3.0839694656488548,-10.754753857421875,-0.40222587890625,-1.8818425048828125,14.763358778625955,-7.221374045801527,-3.312977099236641,0.0
11.590000629425049,-10.223241088867187,1.429338391113281,1.707065783691406,-11.419847328244275,2.427480916030534,4.900763358778626,-11.161768139648437,-0.6153098266601562,-1.20667763671875,18.198473282442748,-4.2748091603053435,-5.1603053435114505,0.0
11.600000858306885,-11.044452258300781,0.9983820922851562,2.2385785522460937,-9.404580152671755,1.8778625954198473,6.809160305343512,-11.02529864501953,-0.30406361083984373,-0.36152445068359373,24.671755725190838,-2.5343511450381677,-7.4961832061068705,0.0
11.610000371932983,-9.402029919433593,-0.055066638183593745,1.1755530151367186,0.42748091603053434,4.641221374045801,7.00763358778626,-10.359710583496094,0.5530605834960938,-0.30885201416015623,27.786259541984734,-2.50381679389313,-7.786259541984733,0.0
11.62000060081482,-9.157821350097656,0.39264907226562495,0.7038952880859375,0.6106870229007634,4.9465648854961835,4.290076335877862,-10.060435375976562,1.2378022583007813,0.3495534423828125,29.740458015267176,-1.786259541984733,-6.137404580152672,0.0
11.630000352859497,-9.215282189941405,0.9911994873046874,0.25139117431640623,1.816793893129771,7.083969465648855,1.8473282442748091,-9.560047229003906,1.8818425048828125,0.74699091796875,25.87786259541985,-1.9389312977099236,-3.7404580152671754,0.0
11.640000581741333,-9.789890588378906,1.4628572143554686,0.36152445068359373,-0.5801526717557252,9.465648854961833,1.4198473282442747,-9.502586389160156,1.8602946899414061,1.0223241088867188,19.81679389312977,-2.213740458015267,-1.282442748091603,0.0
11.65000033378601,-9.718064538574218,1.47482822265625,0.23223756103515625,-0.5190839694656488,12.305343511450381,2.1068702290076335,-9.227253198242186,1.924938134765625,0.8499415893554687,10.549618320610687,-3.7557251908396947,0.5801526717557252,0.0
11.660000562667847,-9.773131176757811,1.7214309936523438,0.2920926025390625,-4.519083969465649,12.961832061068701,3.236641221374046,-9.3086560546875,1.3120225097656248,0.9145850341796874,1.8473282442748091,-4.870229007633588,1.7557251908396947,0.0
11.670000553131104,-9.78031378173828,1.714248388671875,0.201112939453125,-7.679389312977099,15.450381679389313,3.3282442748091605,-9.471461767578125,0.7900865478515624,0.8978256225585937,-7.526717557251908,-5.267175572519084,2.6106870229007635,0.0
11.680000305175781,-10.216058483886718,1.5682020874023437,0.63206923828125,-13.587786259541986,16.106870229007633,2.7022900763358777,-9.605537060546874,-0.41898529052734373,0.82360537109375,-15.145038167938932,-6.549618320610687,2.2748091603053435,0.0
11.690000295639038,-9.816226806640625,1.4173673828125,0.5602431884765625,-16.259541984732824,16.580152671755727,2.9618320610687023,-9.433154541015625,-1.1659762084960936,0.833182177734375,-19.114503816793892,-9.099236641221374,1.5419847328244274,0.0
11.700000762939453,-10.101136804199218,1.2952630981445312,0.9457096557617187,-19.572519083969464,18.0,2.5801526717557253,-9.91438907470703,-2.437297290039062,1.3263877197265623,-15.694656488549619,-11.206106870229007,1.7709923664122138,0.0
11.71000051498413,-10.474632263183594,0.8475473876953125,1.3168109130859373,-23.984732824427482,17.114503816793892,1.984732824427481,-11.054029064941405,-3.5889082885742187,2.118868469238281,-4.396946564885496,-15.099236641221374,0.6870229007633588,0.0
11.720000743865967,-10.242394702148436,0.3591302490234375,1.3670891479492187,-23.83206106870229,15.969465648854962,2.2442748091603053,-10.137049829101562,-3.775656018066406,1.917755529785156,10.351145038167939,-24.12213740458015,-2.5343511450381677,0.0
11.730000495910645,-10.127473022460936,0.011971008300781249,1.6136919189453125,-19.541984732824428,17.17557251908397,1.3129770992366412,-9.797073193359374,-2.3630770385742186,0.7206546997070312,23.709923664122137,-34.213740458015266,-7.206106870229007,0.0
11.740000247955322,-10.711658227539061,0.9696516723632812,2.346317626953125,-20.229007633587788,18.244274809160306,-0.6564885496183206,-7.975085729980468,0.19393033447265623,-0.46208092041015625,17.282442748091604,-36.01526717557252,-10.091603053435115,0.0
11.750000476837158,-9.354145886230468,0.8786720092773437,1.9512743530273435,-21.358778625954198,18.778625954198475,-0.22900763358778625,-7.359775903320312,0.8667010009765624,-0.1580173095703125,7.526717557251908,-29.297709923664122,-7.633587786259542,0.0
11.760000705718994,-9.337386474609374,1.446097802734375,2.0925322509765625,-28.85496183206107,16.38167938931298,-0.8854961832061069,-9.785102185058593,-0.19393033447265623,0.852335791015625,8.870229007633588,-22.33587786259542,-2.16793893129771,0.0
11.770000696182251,-10.599130749511717,1.9201497314453124,2.2266075439453124,-29.404580152671755,15.114503816793894,-2.519083969465649,-9.411606726074218,-1.2689268798828124,1.0031704956054688,12.885496183206106,-25.00763358778626,-1.6793893129770991,0.0
11.780000686645508,-10.488997473144531,0.6871358764648438,1.9608511596679685,-20.27480916030534,14.274809160305344,0.6717557251908397,-9.169792358398437,-1.2856862915039062,0.7254431030273437,19.6793893129771,-28.53435114503817,-4.549618320610687,0.0
11.790061473846436,-9.540893615722656,-0.0047884033203125,1.4987702392578124,-14.793893129770993,15.038167938931299,1.5725190839694656,-9.004592443847656,0.7637503295898437,-0.02154781494140625,15.17557251908397,-26.793893129770993,-7.022900763358779,0.0
11.800000667572021,-9.323021264648437,0.584185205078125,1.7669208251953124,-14.625954198473282,15.572519083969466,-0.10687022900763359,-7.740453967285156,1.6711527587890624,-0.44532150878906246,3.404580152671756,-22.198473282442748,-5.862595419847328,0.0
11.810000896453857,-8.889670764160156,0.8307879760742187,1.3575123413085937,-15.709923664122137,14.091603053435115,-1.0534351145038168,-8.94473740234375,0.5817910034179687,0.6153098266601562,-5.038167938931298,-15.068702290076336,-0.5801526717557252,0.0
11.820000886917114,-10.407594616699217,1.0678139404296874,2.288856787109375,-10.473282442748092,19.389312977099237,-3.7557251908396947,-9.236830004882812,-0.41419688720703124,0.9504980590820312,-6.183206106870229,-14.931297709923664,0.5190839694656488,0.0
11.830000877380371,-8.611943371582031,1.9800047729492187,1.0582371337890624,-17.557251908396946,10.198473282442748,-4.580152671755725,-9.698910925292969,-0.5865794067382812,0.93852705078125,-5.9541984732824424,-15.099236641221374,0.1984732824427481,0.0
11.84000039100647,-9.782707983398437,1.0175357055664063,0.7613561279296874,-13.114503816793894,11.465648854961833,-2.1374045801526718,-10.357316381835936,-1.37906015625,0.5913678100585937,1.1145038167938932,-20.625954198473284,-0.3053435114503817,0.0
11.850000619888306,-8.52335791015625,-0.9744400756835937,0.02154781494140625,2.3053435114503817,15.083969465648854,-0.5343511450381679,-10.405200415039062,-1.6065093139648436,1.7741034301757812,4.977099236641221,-21.129770992366414,-1.7099236641221374,0.0
11.860000610351562,-8.702923034667968,-0.4644751220703125,0.5578489868164063,6.809160305343512,16.48854961832061,-3.404580152671756,-10.94868419189453,-1.8052280517578123,2.1499930908203124,13.083969465648854,-23.96946564885496,-2.6717557251908395,0.0
11.87000036239624,-8.276755139160155,0.33039982910156246,0.15083470458984374,12.335877862595419,17.31297709923664,-8.229007633587786,-10.333374365234375,-0.6727706665039062,1.1659762084960936,20.80916030534351,-32.42748091603053,-6.748091603053435,0.0
11.880000829696655,-9.418789331054686,2.059013427734375,0.6560112548828124,5.175572519083969,15.679389312977099,-10.183206106870228,-8.142679846191406,0.9504980590820312,0.7278373046875,7.7251908396946565,-33.69465648854962,-10.442748091603054,0.0
11.890000581741333,-10.211270080566406,3.9240965209960934,1.6472107421875,-0.3511450381679389,19.267175572519083,-9.374045801526718,-8.576030346679687,2.0470424194335934,0.6009446166992187,-10.076335877862595,-25.14503816793893,-7.343511450381679,0.0
11.90000033378601,-9.962273107910155,3.881000891113281,1.9321207397460936,-21.17557251908397,14.13740458015267,-6.67175572519084,-8.798691101074219,0.7230489013671875,1.1013327636718748,-20.549618320610687,-18.916030534351144,-4.580152671755725,0.0
11.910000801086426,-9.739612353515625,2.7150246826171873,1.0869675537109373,-19.022900763358777,14.01526717557252,-2.4732824427480917,-9.76116016845703,-0.51714755859375,1.4820108276367188,-22.564885496183205,-15.86259541984733,-3.7251908396946565,0.0
11.920000791549683,-9.169792358398437,0.6847416748046875,0.7565677246093749,-15.435114503816793,14.259541984732824,-0.44274809160305345,-9.90241806640625,-1.4628572143554686,1.5586252807617187,-18.778625954198475,-14.641221374045802,-5.1603053435114505,0.0
11.93000054359436,-10.436325036621094,0.16280571289062498,1.8100164550781248,-1.3129770992366412,21.358778625954198,-3.0839694656488548,-10.067617980957031,-1.7166425903320313,0.82360537109375,-7.847328244274809,-19.740458015267176,-7.358778625954199,0.0
11.940000772476196,-9.466673364257812,0.40462008056640625,1.1468225952148436,5.038167938931298,19.893129770992367,-7.4961832061068705,-9.018957653808593,-1.189918225097656,1.235408056640625,-2.8244274809160306,-19.801526717557252,-10.045801526717558,0.0
11.950000524520874,-10.457872851562499,1.5346832641601562,1.9584569580078124,1.3435114503816794,21.419847328244273,-10.65648854961832,-9.873687646484374,-0.3280056274414062,0.9097966308593749,2.2595419847328246,-20.16793893129771,-10.51908396946565,0.0
11.96000051498413,-11.413159313964844,2.5713725830078125,1.678335363769531,-3.1908396946564888,18.366412213740457,-10.229007633587786,-9.694122521972655,-0.086191259765625,1.1707646118164061,2.045801526717557,-21.083969465648856,-10.717557251908397,0.0
11.970000505447388,-11.652579479980469,3.948038537597656,2.059013427734375,-10.351145038167939,16.442748091603054,-8.900763358778626,-8.973467822265624,1.350329736328125,0.8283937744140625,-7.343511450381679,-21.81679389312977,-11.801526717557252,0.0
11.980000495910645,-10.091559997558592,2.8323405639648436,1.0941501586914062,-20.9618320610687,11.526717557251908,-6.320610687022901,-8.580818749999999,1.1156979736328125,1.7334020019531249,-25.419847328244273,-11.404580152671755,-10.13740458015267,0.0
11.990000486373901,-9.368511096191405,2.068590234375,0.8499415893554687,-24.106870229007633,12.595419847328245,-2.045801526717557,-9.488221179199218,-0.258573779296875,1.6543933471679686,-24.625954198473284,-13.312977099236642,-8.030534351145038,0.0
12.000000238418579,-9.016563452148437,1.2401964599609374,0.2442085693359375,-18.35114503816794,14.122137404580153,-2.6106870229007635,-9.564835632324218,-1.0031704956054688,1.9488801513671874,-24.519083969465647,-11.587786259541986,-8.900763358778626,0.0
12.010000705718994,-9.86411083984375,1.6136919189453125,1.24498486328125,-14.076335877862595,20.0,-4.320610687022901,-9.090783703613281,-1.2330138549804688,1.6472107421875,-22.47328244274809,-10.992366412213741,-10.625954198473282,0.0
12.020000457763672,-8.722076647949219,0.34237083740234375,0.5147533569335937,-11.404580152671755,21.740458015267176,-5.3893129770992365,-9.4618849609375,-1.656787548828125,1.7262193969726563,-15.908396946564885,-11.312977099236642,-11.801526717557252,0.0
12.030000686645508,-9.145850341796875,0.3327940307617187,0.16519991455078123,-5.770992366412214,23.83206106870229,-6.061068702290076,-9.404424121093749,-1.6328455322265625,1.7238251953125,-11.84732824427481,-10.51908396946565,-12.900763358778626,0.0
12.040000915527344,-10.000580334472655,1.2856862915039062,0.8547299926757812,-5.221374045801527,27.557251908396946,-8.778625954198473,-8.683769421386717,-1.1755530151367186,1.43652099609375,-9.557251908396946,-10.885496183206106,-14.229007633587786,0.0
12.0500009059906,-10.735600244140624,1.7932570434570312,1.2473790649414063,-10.183206106870228,27.862595419847327,-9.389312977099237,-9.165003955078124,-1.426944189453125,2.0374656127929685,-5.236641221374046,-9.83206106870229,-13.877862595419847,0.0
12.060000658035278,-10.673351000976561,1.7669208251953124,1.5610194824218748,-10.870229007633588,28.732824427480917,-8.335877862595419,-8.851363537597656,-1.3718775512695311,2.233790148925781,-5.175572519083969,-8.412213740458014,-14.396946564885496,0.0
12.070000886917114,-9.622296472167967,1.419761584472656,1.2665326782226562,-11.48091603053435,27.51145038167939,-6.99236641221374,-9.210493786621093,-1.4796166259765624,2.418143676757812,-0.15267175572519084,-9.694656488549619,-14.335877862595419,0.0
12.080000638961792,-9.746794958496093,1.2880804931640624,0.7134720947265625,-13.099236641221374,26.229007633587788,-7.3893129770992365,-8.973467822265624,-1.0223241088867188,2.6671406494140624,-0.9465648854961832,-8.702290076335878,-14.50381679389313,0.0
12.090000867843628,-10.012551342773437,0.9840168823242187,1.7094599853515624,-15.450381679389313,29.46564885496183,-8.442748091603054,-8.736441857910156,-0.6105214233398437,2.798821740722656,-1.450381679389313,-8.259541984732824,-13.786259541984732,0.0
12.100000619888306,-8.271966735839843,0.430956298828125,0.8499415893554687,-13.038167938931299,27.129770992366414,-7.511450381679389,-8.185775476074218,-0.23702596435546874,2.942473840332031,-5.633587786259542,-7.862595419847328,-12.534351145038167,0.0
12.110000371932983,-8.798691101074219,0.8547299926757812,1.2665326782226562,-9.618320610687023,28.931297709923665,-8.091603053435115,-7.999027746582031,-0.7422025146484375,2.887407202148437,-9.969465648854962,-7.709923664122138,-9.98473282442748,0.0
12.12000036239624,-9.279925634765624,0.16041151123046873,1.7908628417968748,-6.244274809160306,30.48854961832061,-9.16030534351145,-7.7596075805664055,-1.1755530151367186,2.6862942626953124,-14.778625954198473,-6.656488549618321,-9.038167938931299,0.0
12.130000591278076,-9.823409411621093,0.5315127685546874,2.4396914916992185,-3.145038167938931,30.290076335877863,-9.587786259541986,-7.4411787597656245,-1.62805712890625,2.3630770385742186,-16.0,-6.67175572519084,-8.83969465648855,0.0
12.140000820159912,-10.012551342773437,0.8930372192382812,2.798821740722656,0.22900763358778625,28.290076335877863,-9.694656488549619,-7.165845568847656,-1.9512743530273435,2.0829554443359375,-14.290076335877863,-6.183206106870229,-9.129770992366412,0.0
12.15000057220459,-10.053252770996092,0.8690952026367187,3.5218706420898434,-0.0916030534351145,26.30534351145038,-9.877862595419847,-6.452373474121093,-1.697488977050781,1.2641384765625,-13.038167938931299,-4.748091603053435,-9.557251908396946,0.0
12.160000562667847,-10.206481677246094,1.1731588134765625,3.8043864379882812,-3.1908396946564888,20.671755725190838,-8.778625954198473,-5.889736083984375,-1.4030021728515625,0.15083470458984374,-9.938931297709924,-2.0610687022900764,-9.786259541984732,0.0
12.170000553131104,-10.98699141845703,1.2282254516601563,4.474762902832031,-3.6793893129770994,16.38167938931298,-7.526717557251908,-6.663063220214843,-1.5514426757812498,-0.3711012573242187,-3.2061068702290076,4.5038167938931295,-8.030534351145038,0.0
12.18000078201294,-11.566388220214844,2.0446482177734375,5.702988354492187,-6.076335877862595,10.549618320610687,-7.770992366412214,-7.9295958984374995,-1.7429788085937499,0.63206923828125,1.6488549618320612,12.83969465648855,-8.01526717557252,0.0
12.190000772476196,-10.022128149414062,2.2074539306640624,6.198588098144531,-11.618320610687023,-3.3587786259541983,-6.213740458015267,-8.434772448730468,-2.5641899780273434,-0.24181436767578124,6.305343511450381,11.251908396946565,-11.618320610687023,0.0
12.200000524520874,-10.654197387695312,2.128445275878906,7.053318090820312,-6.213740458015267,-8.473282442748092,-3.816793893129771,-10.369287390136718,-3.2824504760742186,0.6967126831054687,13.603053435114504,9.083969465648854,-14.80916030534351,0.0
12.21000051498413,-10.424354028320312,2.152387292480469,7.6279264892578125,-3.435114503816794,-17.96946564885496,-3.450381679389313,-11.937489477539062,-2.9089550170898435,1.8507178833007811,19.69465648854962,6.366412213740458,-18.519083969465647,0.0
12.220000743865967,-10.031704956054687,1.9776105712890624,7.465120776367187,-8.610687022900763,-33.32824427480916,-3.8473282442748094,-14.736311218261719,-2.3630770385742186,3.6152445068359373,20.885496183206108,9.603053435114504,-21.633587786259543,0.0
12.230000495910645,-10.472238061523436,1.7190367919921874,7.438784558105469,1.3587786259541985,-44.01526717557252,-3.8473282442748094,-15.215151550292967,-2.2002713256835937,3.4572271972656248,20.717557251908396,6.519083969465649,-22.610687022900763,0.0
12.240000486373901,-11.348515869140625,2.152387292480469,7.905653881835937,10.244274809160306,-53.770992366412216,-4.458015267175573,-15.72511650390625,0.6416460449218749,2.923320227050781,21.328244274809162,6.213740458015267,-19.572519083969464,0.0
12.250000476837158,-11.820173596191406,1.388636962890625,7.252036828613281,22.290076335877863,-66.36641221374046,-2.4885496183206106,-12.808978881835937,5.334281298828125,1.668758557128906,9.32824427480916,4.854961832061068,-12.80916030534351,0.0
12.260000705718994,-12.351686364746094,0.9409212524414062,6.5026517089843745,39.786259541984734,-77.49618320610686,2.183206106870229,-10.433930834960936,5.307945080566406,1.4820108276367188,-9.206106870229007,10.213740458015268,-1.8931297709923665,0.0
12.270000696182251,-14.051569543457031,2.825157958984375,7.3861121215820305,47.45038167938932,-89.41984732824427,3.404580152671756,-9.639055883789062,1.2904746948242187,0.59376201171875,-10.610687022900763,9.068702290076336,9.221374045801527,0.0
12.280000686645508,-15.64131944580078,3.641580725097656,7.029376074218749,37.00763358778626,-112.42748091603053,2.595419847328244,-8.51617530517578,-0.38307226562499996,-0.9074024291992187,-10.13740458015267,2.213740458015267,8.458015267175572,0.0
12.290000438690186,-16.65646094970703,4.046200805664062,6.059724401855468,27.96946564885496,-137.26717557251908,8.427480916030534,-8.465897070312499,-1.197100830078125,-1.43652099609375,-14.931297709923664,5.00763358778626,5.32824427480916,0.0
12.300000667572021,-17.30768380126953,3.5529952636718747,5.058948107910156,16.870229007633586,-154.50381679389312,15.358778625954198,-9.4618849609375,-3.0502129150390624,0.15083470458984374,-10.488549618320612,9.648854961832061,4.458015267175573,0.0
12.310000896453857,-16.2422640625,1.350329736328125,2.829946362304687,11.694656488549619,-166.85496183206106,19.83206106870229,-10.991779821777342,-3.536235852050781,-1.4413093994140624,-5.862595419847328,7.816793893129771,1.1145038167938932,0.0
12.320000648498535,-14.870386511230468,-0.040701428222656245,1.139639990234375,11.099236641221374,-172.54961832061068,22.564885496183205,-9.447519750976562,-2.6479870361328124,-0.1771709228515625,4.8396946564885495,5.312977099236641,-3.9236641221374047,0.0
12.330000638961792,-13.860033410644531,-0.814028564453125,0.13407529296874998,16.27480916030534,-172.27480916030535,24.106870229007633,-10.366893188476562,-2.1715409057617188,-0.33039982910156246,5.587786259541985,3.114503816793893,-6.732824427480916,0.0
12.34000039100647,-13.623007446289062,-0.9528922607421875,-0.14604630126953125,14.961832061068701,-169.3587786259542,24.65648854961832,-10.122684619140625,-1.4149731811523436,-0.023942016601562498,5.4961832061068705,2.8396946564885495,-7.038167938931298,0.0
12.350000381469727,-12.00213292236328,-1.1109095703125,-1.5634136840820312,16.3206106870229,-165.87786259541986,25.984732824427482,-10.05564697265625,-0.9337386474609375,0.5147533569335937,6.625954198473282,0.9007633587786259,-5.145038167938932,0.0
12.360000610351562,-9.81862100830078,-1.6232687255859375,-1.8507178833007811,19.435114503816795,-157.1908396946565,25.14503816793893,-10.242394702148436,-0.8595183959960937,1.0295067138671874,7.526717557251908,0.2595419847328244,-2.8244274809160306,0.0
12.37000060081482,-10.115502014160155,-0.8020575561523438,-1.7214309936523438,22.900763358778626,-145.22137404580153,21.709923664122137,-9.41639512939453,0.040701428222656245,0.679953271484375,5.938931297709924,-1.0534351145038168,-2.1068702290076335,0.0
12.380000591278076,-9.217676391601563,-0.8882488159179687,-1.465251416015625,21.603053435114504,-135.54198473282443,19.00763358778626,-9.342174877929686,1.2330138549804688,0.11252747802734374,-1.0229007633587786,-0.2748091603053435,-0.7938931297709924,0.0
12.390000581741333,-8.494627490234375,-0.7445967163085937,-1.5658078857421873,19.786259541984734,-118.77862595419847,16.68702290076336,-8.954314208984375,1.697488977050781,0.21787235107421873,-17.267175572519083,4.519083969465649,2.4122137404580153,0.0
12.40000057220459,-8.571241943359375,0.21308394775390624,-1.2114660400390624,15.770992366412214,-105.70992366412214,14.992366412213741,-5.389347937011719,4.460397692871093,-4.434061474609375,-36.13740458015267,2.6259541984732824,0.9465648854961832,0.0
12.410000324249268,-8.796296899414061,1.5394716674804687,-0.29927520751953124,10.091603053435115,-93.1145038167939,12.580152671755725,-9.694122521972655,-0.35673604736328124,-0.0909796630859375,-52.33587786259542,22.12213740458015,11.19083969465649,0.0
12.420000791549683,-8.228871105957031,-0.21308394775390624,-0.6153098266601562,5.038167938931298,-82.47328244274809,10.595419847328245,-10.577582934570312,-3.105279553222656,0.18435352783203124,-45.32824427480916,23.419847328244273,13.664122137404581,0.0
12.430000305175781,-7.8721350585937495,-0.3016694091796875,-0.8355763793945312,5.206106870229007,-73.22137404580153,4.900763358778626,-9.253589416503905,-2.3822306518554686,-1.177947216796875,-45.16030534351145,18.396946564885496,7.511450381679389,0.0
12.440000772476196,-8.269572534179687,0.7422025146484375,-0.97683427734375,0.22900763358778625,-66.62595419847328,1.5572519083969465,-9.737218151855469,-4.220977526855468,-0.201112939453125,-35.66412213740458,22.80916030534351,5.145038167938932,0.0
12.450000524520874,-8.56166513671875,0.8068459594726562,-1.1372457885742187,-7.8320610687022905,-60.229007633587784,0.8702290076335878,-10.32379755859375,-5.238513232421875,-0.09816226806640624,-14.595419847328245,19.66412213740458,3.7557251908396947,0.0
12.46000051498413,-8.027758166503906,0.9265560424804687,-1.5203180541992187,-7.419847328244275,-52.030534351145036,0.6717557251908397,-9.919177478027343,-3.749319799804687,-0.6177040283203125,-5.083969465648855,15.541984732824428,0.8549618320610687,0.0
12.470000505447388,-6.679822631835937,0.7230489013671875,-1.9393033447265624,-9.221374045801527,-44.534351145038165,4.427480916030534,-6.186617089843749,-0.08379705810546874,-2.3247698120117186,-12.030534351145038,16.213740458015266,-3.9083969465648853,0.0
12.480000495910645,-6.785167504882812,1.3024457031249999,-1.35990654296875,-10.13740458015267,-30.091603053435115,6.213740458015267,-7.505822204589843,1.0917559570312498,-1.3910311645507811,-27.46564885496183,32.58015267175573,0.22900763358778625,0.0
12.490000486373901,-7.419630944824219,2.2361843505859373,-0.033518823242187495,-18.427480916030536,-14.580152671755725,6.625954198473282,-8.238447912597655,0.24181436767578124,-0.852335791015625,-39.770992366412216,46.94656488549618,4.625954198473282,0.0
12.500000476837158,-5.427655163574219,0.565031591796875,-1.7764976318359373,-21.450381679389313,-9.98473282442748,9.86259541984733,-7.156268762207031,1.369483349609375,-2.607285607910156,-61.17557251908397,57.587786259541986,4.8396946564885495,0.0
12.510000705718994,-6.517016918945312,2.370259643554687,0.23223756103515625,-16.68702290076336,10.687022900763358,10.717557251908397,-10.275913525390624,-2.748543505859375,1.455674609375,-58.595419847328245,70.82442748091603,10.427480916030534,0.0
12.520000696182251,-7.244854223632812,2.243366955566406,1.2665326782226562,-33.70992366412214,10.305343511450381,10.076335877862595,-9.730035546875,-2.1691467041015624,0.40462008056640625,-40.030534351145036,70.99236641221374,12.748091603053435,0.0
12.5304536819458,-7.266402038574219,1.4101847778320311,1.905784521484375,-29.206106870229007,13.435114503816793,12.732824427480915,-10.711658227539061,-4.584896179199219,2.389413256835937,-19.908396946564885,63.06870229007634,14.335877862595419,0.0
12.540000677108765,-6.49307490234375,-0.26336218261718747,2.6886884643554687,-26.900763358778626,16.916030534351144,14.793893129770993,-11.271901416015623,-4.292803576660156,3.0621839233398433,9.770992366412214,54.68702290076336,14.732824427480915,0.0
12.5500009059906,-6.6343328002929685,-0.36152445068359373,3.1411925781249996,-20.68702290076336,20.916030534351144,12.80916030534351,-10.82179150390625,-2.109291662597656,1.0127473022460938,18.3206106870229,43.770992366412216,11.038167938931299,0.0
12.560000658035278,-6.660669018554687,0.36152445068359373,3.4548329956054684,-14.870229007633588,25.374045801526716,11.389312977099237,-9.816226806640625,-0.13168109130859373,-0.047884033203124995,11.923664122137405,42.99236641221374,9.221374045801527,0.0
12.570000886917114,-5.80354482421875,-0.20829554443359374,3.825934252929687,-9.450381679389313,28.641221374045802,12.778625954198473,-9.53131680908203,-2.375048046875,2.2864625854492187,9.16030534351145,50.62595419847328,13.358778625954198,0.0
12.580000638961792,-5.173869787597656,-1.3192051147460937,4.367023828124999,10.870229007633588,38.12213740458015,11.969465648854962,-9.710881933593749,-2.094926452636719,1.7669208251953124,26.35114503816794,42.900763358778626,15.98473282442748,0.0
12.590000629425049,-5.710170959472656,0.3950432739257812,5.346252307128906,24.412213740458014,45.29770992366412,6.351145038167939,-9.835380419921874,-2.1164742675781247,1.7908628417968748,22.900763358778626,41.786259541984734,14.290076335877863,0.0
12.600000619888306,-6.263231542968749,2.5857377929687497,5.846640454101562,18.717557251908396,43.64885496183206,3.114503816793893,-10.563217724609375,-2.1643583007812497,2.6479870361328124,30.65648854961832,44.16793893129771,13.49618320610687,0.0
12.610000610351562,-6.7803791015625,3.6822821533203123,6.536170532226562,11.786259541984732,40.12213740458015,3.648854961832061,-9.595960253906249,-1.8315642700195311,2.1787235107421874,24.99236641221374,42.58015267175573,11.404580152671755,0.0
12.620000839233398,-7.058106494140625,3.2920272827148436,6.567295153808593,5.267175572519084,38.01526717557252,6.33587786259542,-9.6917283203125,-1.3670891479492187,1.905784521484375,26.061068702290076,39.63358778625954,10.091603053435115,0.0
12.630000591278076,-7.656656909179687,3.0645781249999997,6.921636999511718,-2.16793893129771,34.99236641221374,7.312977099236641,-9.90241806640625,-0.7541735229492187,2.118868469238281,19.251908396946565,37.6793893129771,9.038167938931299,0.0
12.640000581741333,-7.60398447265625,2.3965958618164063,6.038176586914062,-12.977099236641221,26.564885496183205,8.030534351145038,-9.349357482910156,-0.201112939453125,2.8658593872070313,4.763358778625954,38.88549618320611,8.992366412213741,0.0
12.65000057220459,-8.161833459472655,2.408566870117187,5.5641246582031245,-20.106870229007633,24.30534351145038,7.908396946564886,-10.034099157714843,-0.9600748657226562,3.564966271972656,-1.465648854961832,37.74045801526717,11.694656488549619,0.0
12.660000562667847,-5.88015927734375,-0.6177040283203125,2.882618798828125,-15.877862595419847,22.610687022900763,8.488549618320612,-10.421959826660157,-1.3670891479492187,3.3686417358398435,-6.580152671755725,32.97709923664122,13.129770992366412,0.0
12.670000553131104,-6.062118603515625,-0.5506663818359374,2.446874096679687,-6.67175572519084,29.587786259541986,5.419847328244275,-9.363722692871093,-0.6967126831054687,1.6065093139648436,-7.251908396946565,23.114503816793892,12.030534351145038,0.0
12.680000305175781,-5.839457849121094,-0.5434837768554687,1.5729904907226562,-1.6793893129770991,35.55725190839695,0.8244274809160306,-10.524910498046875,-1.3359645263671873,2.1068974609374997,-12.977099236641221,21.083969465648856,13.19083969465649,0.0
12.690000534057617,-6.069301208496094,0.055066638183593745,0.9840168823242187,-4.3816793893129775,41.49618320610687,-2.717557251908397,-9.447519750976562,-0.9313444458007812,1.62805712890625,-20.47328244274809,19.51145038167939,14.412213740458014,0.0
12.700000762939453,-6.612784985351562,0.7254431030273437,0.43574470214843747,-8.488549618320612,47.17557251908397,-3.9236641221374047,-9.291896643066405,-1.01514150390625,1.2785036865234374,-24.18320610687023,18.213740458015266,16.442748091603054,0.0
12.710000276565552,-7.213729602050781,0.411802685546875,1.0654197387695312,0.8854961832061069,59.37404580152672,-4.183206106870229,-9.4618849609375,-1.637633935546875,1.0079588989257813,-29.083969465648856,18.412213740458014,18.427480916030536,0.0
12.720000743865967,-9.56962403564453,-0.34237083740234375,4.149151477050781,6.015267175572519,65.98473282442748,-5.786259541984733,-9.935936889648437,-2.7341782958984373,0.45968671875,-27.52671755725191,19.572519083969464,18.977099236641223,0.0
12.730000495910645,-14.080299963378906,-0.565031591796875,10.534487304687499,18.427480916030536,64.99236641221374,-10.51908396946565,-10.407594616699217,-4.168305090332031,-0.23223756103515625,-23.49618320610687,19.954198473282442,18.671755725190838,0.0
12.740000486373901,-18.502390429687498,1.005564697265625,14.477737438964843,43.93893129770992,58.54961832061068,-9.572519083969466,-10.922347973632812,-5.571307263183593,-0.8188169677734375,-13.816793893129772,18.580152671755727,17.541984732824428,0.0
12.750000476837158,-22.864625854492186,6.121973645019531,14.743493823242186,42.213740458015266,48.47328244274809,-7.236641221374046,-11.350910070800781,-6.2009822998046875,-1.16837041015625,-0.8396946564885496,16.259541984732824,13.86259541984733,0.0
12.760000705718994,-18.54069765625,2.5258827514648434,8.959102612304687,28.137404580152673,35.25190839694657,-1.0534351145038168,-10.182539660644531,-5.073313317871094,-1.5370774658203123,5.175572519083969,13.770992366412214,8.83969465648855,0.0
12.770000457763672,-15.959748266601562,4.005499377441406,5.973533142089844,3.786259541984733,17.633587786259543,4.2748091603053435,-10.029310754394531,-3.67749375,-1.1659762084960936,12.732824427480915,13.32824427480916,5.145038167938932,0.0
12.780000686645508,-12.871228125,2.597708801269531,2.3319524169921872,-22.916030534351144,-0.33587786259541985,4.488549618320611,-10.04846436767578,-1.944091748046875,-0.8595183959960937,15.038167938931299,11.267175572519085,3.633587786259542,0.0
12.790000915527344,-5.820304235839844,-3.641580725097656,-0.9744400756835937,-8.030534351145038,-1.1297709923664123,6.458015267175573,-10.512939489746094,-0.584185205078125,-1.465251416015625,11.877862595419847,8.931297709923664,3.7099236641221376,0.0
12.800000667572021,-1.0582371337890624,-6.459556079101562,-2.3367408203125,5.923664122137405,2.6717557251908395,-0.10687022900763359,-11.427524523925781,-0.09576806640624999,-1.1013327636718748,13.770992366412214,8.687022900763358,5.877862595419847,0.0
12.810000896453857,-1.9656395629882812,-4.520252734375,-1.5969325073242187,28.076335877862597,18.015267175572518,-13.816793893129772,-12.006921325683592,0.9911994873046874,-1.1875240234375,14.67175572519084,8.274809160305344,7.038167938931298,0.0
12.820000648498535,-4.209006518554688,-0.9337386474609375,-1.0366893188476562,32.10687022900763,24.9618320610687,-22.99236641221374,-12.112266198730469,1.3718775512695311,-1.2282254516601563,15.282442748091603,6.015267175572519,7.648854961832061,0.0
12.830000877380371,-6.995857250976562,2.5641899780273434,-0.5913678100585937,29.862595419847327,29.603053435114504,-22.198473282442748,-12.11705460205078,1.9393033447265624,-1.0414777221679687,11.022900763358779,2.7938931297709924,8.366412213740459,0.0
12.840000867843628,-7.582436657714843,2.913743420410156,-1.3024457031249999,29.633587786259543,36.54961832061068,-14.091603053435115,-12.071564770507813,2.051830822753906,-0.5410895751953124,5.8320610687022905,0.16793893129770993,9.618320610687023,0.0
12.850000619888306,-9.239224206542968,3.3159692993164063,-0.4955997436523437,35.02290076335878,51.20610687022901,-7.923664122137405,-12.172121240234373,0.6967126831054687,0.948103857421875,4.106870229007634,-1.5877862595419847,12.381679389312977,0.0
12.860000848770142,-10.232817895507813,4.611232397460937,0.6560112548828124,24.82442748091603,56.88549618320611,-7.3893129770992365,-12.23197628173828,1.6304513305664061,0.7230489013671875,2.045801526717557,-11.511450381679388,11.969465648854962,0.0
12.87000036239624,-11.386823095703125,5.3199160888671875,1.3718775512695311,10.320610687022901,57.64885496183206,-6.778625954198473,-9.545682019042967,1.9584569580078124,0.7685387329101562,-10.595419847328245,-19.114503816793892,11.679389312977099,0.0
12.880000591278076,-11.200075366210937,4.046200805664062,1.7238251953125,-4.351145038167939,55.61832061068702,-3.1755725190839694,-11.176133349609374,0.7709329345703124,2.1116858642578125,-15.694656488549619,-20.48854961832061,15.801526717557252,0.0
12.890000820159912,-11.343727465820312,2.7964275390625,2.4396914916992185,-15.099236641221374,53.31297709923664,-3.5572519083969465,-10.443507641601562,-0.967257470703125,1.8650830932617186,-14.244274809160306,-31.572519083969464,16.47328244274809,0.0
12.90000057220459,-11.082759484863281,1.8459294799804686,2.212242333984375,-18.366412213740457,49.74045801526717,-5.038167938931298,-13.340491650390625,-1.3646949462890625,3.708618371582031,-9.267175572519085,-33.969465648854964,18.18320610687023,0.0
12.910000562667847,-11.190498559570312,1.3551181396484375,2.999934680175781,-20.83969465648855,47.49618320610687,-7.877862595419847,-8.86812294921875,0.9600748657226562,-0.22744915771484372,-26.27480916030534,-46.0,9.17557251908397,0.0
12.920000791549683,-8.870517150878905,-0.5099649536132812,1.2473790649414063,-23.358778625954198,39.725190839694655,-6.656488549618321,-8.8872765625,-0.814028564453125,0.5865794067382812,-35.37404580152672,-42.51908396946565,9.251908396946565,0.0
12.93000054359436,-9.107543115234375,-0.59376201171875,2.023100402832031,-13.86259541984733,46.534351145038165,-8.320610687022901,-9.588777648925781,-3.438073583984375,-0.16998831787109375,-25.61832061068702,-47.98473282442748,8.977099236641221,0.0
12.940001010894775,-8.588001354980468,-0.23223756103515625,1.7741034301757812,-7.0534351145038165,45.7557251908397,-13.877862595419847,-8.700528833007812,-1.8171990600585937,-1.8411410766601561,-24.30534351145038,-52.51908396946565,2.7022900763358777,0.0
12.950000524520874,-8.547299926757812,0.6847416748046875,1.8626888916015625,0.5648854961832062,46.01526717557252,-13.435114503816793,-9.205705383300781,-1.3623007446289062,-1.1563994018554686,-23.297709923664122,-42.42748091603053,0.5801526717557252,0.0
12.960000991821289,-7.802703210449218,0.70868369140625,1.4125789794921875,2.717557251908397,48.595419847328245,-12.992366412213741,-10.69968721923828,-4.367023828124999,-0.4836287353515625,-4.2748091603053435,-37.55725190839695,0.7022900763358778,0.0
12.970000505447388,-8.779537487792968,1.3814543579101561,1.6903063720703124,10.534351145038167,51.099236641221374,-13.557251908396946,-11.01332763671875,-4.426878869628906,-0.21787235107421873,22.213740458015266,-42.16793893129771,-3.7557251908396947,0.0
12.980000495910645,-9.567229833984374,1.8842367065429686,1.407790576171875,10.67175572519084,48.732824427480914,-12.885496183206106,-9.200916979980468,0.08140285644531249,-2.8850130004882812,26.47328244274809,-43.00763358778626,-10.67175572519084,0.0
12.990000486373901,-10.309432348632813,2.8227637573242186,1.5921441040039062,5.32824427480916,46.900763358778626,-9.038167938931299,-7.64229169921875,1.68551796875,-2.91134921875,17.908396946564885,-26.48854961832061,-10.061068702290076,0.0
13.000000476837158,-10.402806213378906,2.499546533203125,1.9704279663085937,-6.412213740458015,40.48854961832061,-6.8396946564885495,-8.985438830566405,1.5418658691406248,-2.5570073730468748,16.3206106870229,-15.923664122137405,-5.419847328244275,0.0
13.010000705718994,-11.417947717285156,2.5163059448242184,2.109291662597656,-12.717557251908397,32.68702290076336,-5.8320610687022905,-10.026916552734374,0.6584054565429687,-1.5011644409179687,11.404580152671755,-9.648854961832061,-2.045801526717557,0.0
13.020000457763672,-10.831368310546875,1.599326708984375,1.8100164550781248,-10.687022900763358,25.984732824427482,-2.2748091603053435,-10.060435375976562,0.622492431640625,-1.1540052001953125,10.427480916030534,-8.320610687022901,-1.6030534351145038,0.0
13.030000686645508,-9.706093530273437,-0.9552864624023437,0.4572925170898437,-10.534351145038167,19.328244274809162,-0.9007633587786259,-9.986215124511718,0.97683427734375,-1.0007762939453124,7.969465648854962,-7.267175572519084,-0.07633587786259542,0.0
13.040000677108765,-12.196063256835936,1.5466542724609373,2.940079638671875,-5.022900763358779,22.106870229007633,-2.3969465648854964,-9.866505041503906,0.9409212524414062,-0.8762778076171874,4.656488549618321,-5.740458015267175,1.0229007633587786,0.0
13.0500009059906,-10.177751257324218,0.45489831542968745,1.8555062866210936,-1.9083969465648856,20.50381679389313,-4.0,-9.7683427734375,0.7589619262695312,-0.43574470214843747,2.2900763358778624,-5.816793893129771,1.984732824427481,0.0
13.060000658035278,-9.430760339355468,0.4955997436523437,1.4221557861328125,-1.4961832061068703,18.48854961832061,-4.3816793893129775,-10.060435375976562,0.1197100830078125,0.17477672119140625,2.2900763358778624,-4.763358778625954,3.068702290076336,0.0
13.070000648498535,-9.215282189941405,1.0127473022460938,1.3096283081054687,-1.1603053435114503,17.587786259541986,-5.251908396946565,-10.50815108642578,-2.0183119995117185,0.9744400756835937,16.198473282442748,-10.854961832061068,3.404580152671756,0.0
13.080000638961792,-9.064447485351561,0.7948749511718749,0.7876923461914062,1.6793893129770991,17.0381679389313,-5.114503816793893,-11.398794104003905,-2.2266075439453124,1.3479355346679687,31.51145038167939,-20.793893129770993,2.2290076335877864,0.0
13.09000039100647,-8.712499841308594,0.5578489868164063,0.6368576416015624,6.137404580152672,19.633587786259543,-4.3816793893129775,-10.146626635742187,0.02154781494140625,0.0430956298828125,34.47328244274809,-30.717557251908396,-3.312977099236641,0.0
13.100000619888306,-8.765172277832031,1.5298948608398437,0.4261678955078125,4.793893129770993,22.076335877862597,-4.625954198473282,-8.63827958984375,2.3774422485351563,-0.4525041137695312,13.129770992366412,-26.717557251908396,-6.793893129770993,0.0
13.110000610351562,-8.798691101074219,2.93050283203125,0.7972691528320313,-8.320610687022901,23.61832061068702,-4.702290076335878,-9.636661682128906,1.6160861206054686,0.24899697265624998,-0.13740458015267176,-18.366412213740457,-2.381679389312977,0.0
13.12000036239624,-9.617508068847656,3.0119056884765625,0.679953271484375,-24.412213740458014,21.389312977099237,-4.8396946564885495,-9.303867651367186,-0.5147533569335937,1.687912170410156,-4.122137404580153,-18.198473282442748,2.183206106870229,0.0
13.130000352859497,-10.177751257324218,2.760514514160156,0.5027823486328125,-24.229007633587788,23.51145038167939,-3.7557251908396947,-9.988609326171874,-1.2282254516601563,1.848323681640625,4.320610687022901,-25.053435114503817,2.8091603053435112,0.0
13.140000820159912,-9.840168823242188,1.6424223388671875,0.20350714111328125,-25.893129770992367,23.267175572519083,-1.099236641221374,-10.022128149414062,-0.6919242797851562,0.23702596435546874,5.908396946564886,-29.450381679389313,-0.9312977099236641,0.0
13.15000057220459,-9.78031378173828,1.608903515625,0.5434837768554687,-26.595419847328245,24.33587786259542,-0.6564885496183206,-9.318232861328125,0.9050082275390624,-0.3902548706054687,-5.587786259541985,-23.984732824427482,-4.244274809160306,0.0
13.160000562667847,-10.424354028320312,2.4779987182617185,1.668758557128906,-35.847328244274806,24.564885496183205,-1.251908396946565,-9.524134204101562,0.055066638183593745,-0.1388636962890625,-13.954198473282442,-17.862595419847327,-2.3969465648854964,0.0
13.170000553131104,-10.149020837402343,2.118868469238281,1.668758557128906,-37.770992366412216,24.99236641221374,-2.4122137404580153,-9.217676391601563,0.05027823486328125,-0.11013327636718749,-23.16030534351145,-13.022900763358779,-1.2061068702290076,0.0
13.18000078201294,-10.347739575195313,2.0159177978515626,1.8555062866210936,-44.229007633587784,21.6793893129771,-1.9083969465648856,-9.785102185058593,-0.8499415893554687,0.15083470458984374,-22.3206106870229,-13.114503816793894,-0.916030534351145,0.0
13.190000772476196,-10.127473022460936,1.218648645019531,1.675941162109375,-38.76335877862596,21.709923664122137,-0.7938931297709924,-10.256759912109374,-1.1468225952148436,0.18435352783203124,-20.763358778625953,-11.908396946564885,-1.8778625954198473,0.0
13.200000524520874,-10.761936462402343,1.1731588134765625,2.4971523315429685,-38.48854961832061,20.16793893129771,-0.3969465648854962,-11.77947216796875,-2.501940734863281,1.0103531005859374,-9.236641221374045,-12.442748091603054,-2.595419847328244,0.0
13.21000051498413,-9.751583361816406,-0.6368576416015624,1.905784521484375,-24.290076335877863,19.954198473282442,-0.6564885496183206,-11.259930407714844,-2.3511060302734372,0.9840168823242187,7.969465648854962,-20.946564885496183,-5.175572519083969,0.0
13.220000505447388,-10.041281762695311,-0.5003881469726562,2.205059729003906,-17.236641221374047,17.786259541984734,-2.50381679389313,-12.208034265136718,-2.4947581298828125,1.6065093139648436,26.931297709923665,-28.519083969465647,-7.8320610687022905,0.0
13.230000495910645,-9.72285294189453,-0.45968671875,1.8339584716796873,-0.07633587786259542,18.870229007633586,-4.916030534351145,-9.488221179199218,1.0869675537109373,-0.40222587890625,22.83969465648855,-34.79389312977099,-14.763358778625955,0.0
13.240000486373901,-9.629479077148437,1.1180921752929687,2.1116858642578125,3.5572519083969465,17.66412213740458,-6.061068702290076,-9.165003955078124,1.1851298217773436,-0.05746083984375,10.763358778625955,-26.106870229007633,-12.51908396946565,0.0
13.250000476837158,-10.108319409179687,2.2553379638671873,2.47081611328125,0.7480916030534351,15.740458015267176,-5.923664122137405,-9.41639512939453,-0.2657563842773437,0.7445967163085937,10.687022900763358,-23.81679389312977,-6.99236641221374,0.0
13.260000705718994,-10.184933862304687,2.2385785522460937,2.0254946044921875,3.9083969465648853,12.916030534351146,-4.625954198473282,-9.85692823486328,-0.15083470458984374,0.469263525390625,11.679389312977099,-25.923664122137403,-5.9541984732824424,0.0
13.270000696182251,-10.096348400878906,2.370259643554687,1.9105729248046874,5.8320610687022905,10.702290076335878,-1.7099236641221374,-7.254431030273437,0.9241618408203125,0.32561142578124996,-0.6717557251908397,-20.427480916030536,-8.122137404580153,0.0
13.280000686645508,-9.952696301269532,2.5426421630859375,1.9680337646484374,0.8702290076335878,9.114503816793894,1.3740458015267176,-7.46272657470703,0.201112939453125,0.8355763793945312,-10.366412213740459,-9.251908396946565,-6.183206106870229,0.0
13.290000915527344,-10.038887561035155,2.147598889160156,1.7118541870117185,-3.114503816793893,6.67175572519084,2.7938931297709924,-9.334992272949219,-1.7357962036132812,0.9720458740234375,-4.106870229007634,-8.961832061068701,-2.8702290076335877,0.0
13.300000667572021,-9.797073193359374,1.5562310791015623,1.2018892333984375,-1.3740458015267176,3.969465648854962,2.717557251908397,-9.402029919433593,-1.9321207397460936,1.2856862915039062,0.0,-10.381679389312977,-4.885496183206107,0.0
13.310000896453857,-9.555258825683593,1.005564697265625,1.13006318359375,-1.0076335877862594,3.282442748091603,3.2977099236641223,-9.356540087890625,-1.455674609375,1.3263877197265623,5.114503816793893,-10.030534351145038,-6.9465648854961835,0.0
13.320000648498535,-9.56962403564453,0.8858546142578124,1.180341418457031,-0.6564885496183206,3.6030534351145036,2.8396946564885495,-9.157821350097656,-1.0941501586914062,1.5418658691406248,8.030534351145038,-10.80916030534351,-7.801526717557252,0.0
13.330000638961792,-9.332598071289063,0.6847416748046875,0.8547299926757812,0.6564885496183206,4.122137404580153,1.465648854961832,-9.34696328125,-0.8044517578125,1.637633935546875,8.977099236641221,-11.816793893129772,-7.114503816793893,0.0
13.340000629425049,-9.677363110351562,1.0654197387695312,0.9433154541015625,-0.4580152671755725,3.877862595419847,0.48854961832061067,-8.98304462890625,-0.34237083740234375,1.9919757812499999,6.015267175572519,-13.19083969465649,-6.641221374045801,0.0
13.350000619888306,-9.447519750976562,0.8307879760742187,0.5458779785156249,0.5801526717557252,4.580152671755725,0.4732824427480916,-9.418789331054686,-0.22026655273437498,2.109291662597656,4.870229007633588,-15.435114503816793,-5.969465648854962,0.0
13.360000610351562,-9.490615380859374,0.7829039428710937,0.47165772705078124,2.4885496183206106,6.0,0.5801526717557252,-9.279925634765624,-0.21787235107421873,2.032677209472656,0.015267175572519083,-16.427480916030536,-5.709923664122138,0.0
13.37000060081482,-8.786720092773438,0.7565677246093749,0.32561142578124996,-2.045801526717557,3.1908396946564888,0.0916030534351145,-9.473855969238281,-0.30885201416015623,2.224213342285156,-2.0,-17.770992366412212,-5.572519083969466,0.0
13.380000591278076,-9.873687646484374,2.2673089721679687,0.8020575561523438,-17.587786259541986,-5.267175572519084,-0.015267175572519083,-8.89924757080078,0.105344873046875,1.8100164550781248,-6.458015267175573,-18.549618320610687,-5.740458015267175,0.0
13.390000581741333,-10.608707556152343,1.5945383056640625,0.7852981445312499,-10.50381679389313,-1.4351145038167938,2.2442748091603053,-9.332598071289063,0.0718260498046875,1.5131354492187499,-9.358778625954198,-18.793893129770993,-4.213740458015267,0.0
13.400001049041748,-9.275137231445312,-0.7398083129882812,0.833182177734375,1.0381679389312977,3.5419847328244276,3.7251908396946565,-9.686939916992188,-0.5003881469726562,1.6807295654296874,-10.198473282442748,-18.229007633587788,-3.0381679389312977,0.0
13.410000562667847,-9.605537060546874,0.6296750366210937,1.3646949462890625,2.213740458015267,4.625954198473282,0.44274809160305345,-9.935936889648437,-0.4836287353515625,0.9265560424804687,-10.13740458015267,-18.717557251908396,-3.49618320610687,0.0
13.420000791549683,-9.835380419921874,0.7398083129882812,0.8786720092773437,3.3587786259541983,2.4885496183206106,-2.183206106870229,-9.129090930175781,-0.45010991210937495,1.01514150390625,-13.068702290076336,-15.84732824427481,-3.8625954198473282,0.0
13.43000054359436,-9.868899243164062,1.0199299072265624,0.8643067993164062,4.824427480916031,2.3053435114503817,-1.1297709923664123,-9.3086560546875,-1.0031704956054688,0.9600748657226562,-11.587786259541986,-14.977099236641221,-3.267175572519084,0.0
13.440000772476196,-9.823409411621093,1.0845733520507812,0.6440402465820312,5.603053435114504,2.6412213740458017,-1.0381679389312977,-9.435548742675781,-1.4628572143554686,1.1324573852539062,-9.404580152671755,-14.366412213740459,-3.801526717557252,0.0
13.450000524520874,-9.586383447265625,1.2641384765625,0.3591302490234375,6.5038167938931295,3.8473282442748094,-1.2061068702290076,-9.433154541015625,-1.637633935546875,1.24498486328125,-5.236641221374046,-13.648854961832061,-5.282442748091603,0.0
13.46000075340271,-9.464279162597656,1.3048399047851562,0.00239420166015625,3.8473282442748094,4.519083969465649,-1.0381679389312977,-9.483432775878907,-1.7693150268554687,1.388636962890625,-1.1297709923664123,-12.946564885496183,-6.351145038167939,0.0
13.470000505447388,-9.334992272949219,1.1827356201171875,-0.07422025146484375,1.465648854961832,6.015267175572519,-1.2366412213740459,-9.394847314453125,-1.6807295654296874,1.4413093994140624,4.564885496183206,-12.793893129770993,-7.786259541984733,0.0
13.480000495910645,-9.488221179199218,1.3215993164062498,0.03591302490234375,-2.015267175572519,7.236641221374046,-1.5725190839694656,-9.241618408203124,-1.3168109130859373,1.2737152832031249,8.351145038167939,-13.083969465648854,-8.396946564885496,0.0
13.490000486373901,-9.320627062988281,1.0965443603515623,0.09576806640624999,-2.595419847328244,8.992366412213741,-1.8015267175572518,-9.26316622314453,-0.9888052856445312,1.37906015625,9.938931297709924,-12.213740458015268,-9.068702290076336,0.0
13.500000476837158,-9.708487731933593,1.3718775512695311,0.3016694091796875,-6.519083969465649,9.49618320610687,-2.16793893129771,-9.306261853027344,-0.8259995727539062,1.4030021728515625,11.419847328244275,-12.061068702290076,-8.900763358778626,0.0
13.510000705718994,-9.617508068847656,0.93852705078125,0.143652099609375,-6.534351145038168,10.473282442748092,-2.198473282442748,-9.169792358398437,-0.833182177734375,1.4867992309570313,11.83206106870229,-11.557251908396946,-9.099236641221374,0.0
13.520000696182251,-9.519345800781249,0.5051765502929687,0.13646949462890623,-5.00763358778626,12.106870229007633,-2.4580152671755724,-10.182539660644531,-1.946485949707031,2.3415292236328122,17.6793893129771,-11.664122137404581,-7.740458015267175,0.0
13.530000686645508,-8.334215979003906,-0.9145850341796874,-0.45010991210937495,11.709923664122137,17.389312977099237,-2.900763358778626,-10.026916552734374,-1.5634136840820312,1.8938135131835936,22.396946564885496,-14.381679389312977,-8.763358778625955,0.0
13.540000677108765,-9.983820922851562,-0.3016694091796875,0.8571241943359375,12.83969465648855,24.259541984732824,-7.862595419847328,-9.380482104492186,-2.013523596191406,2.3511060302734372,28.16793893129771,-17.358778625954198,-9.49618320610687,0.0
13.550000667572021,-8.904035974121093,0.30885201416015623,0.2059013427734375,13.679389312977099,23.129770992366414,-11.526717557251908,-9.361328491210937,-2.094926452636719,2.0159177978515626,37.37404580152672,-22.35114503816794,-10.030534351145038,0.0
13.5600004196167,-9.770736975097655,0.718260498046875,-0.5386953735351562,14.702290076335878,22.47328244274809,-12.51908396946565,-9.473855969238281,-1.0773907470703123,2.0470424194335934,32.29007633587786,-20.061068702290076,-11.267175572519085,0.0
13.570000648498535,-9.7683427734375,1.2641384765625,0.6177040283203125,10.931297709923664,26.65648854961832,-13.297709923664122,-7.541735229492187,0.5674257934570313,0.967257470703125,22.03053435114504,-18.793893129770993,-12.946564885496183,0.0
13.580000638961792,-8.978256225585938,2.1883003173828124,0.2825157958984375,5.648854961832061,26.748091603053435,-12.229007633587786,-8.499415893554687,-0.5195417602539062,1.8650830932617186,13.664122137404581,-11.358778625954198,-11.145038167938932,0.0
13.59000039100647,-10.216058483886718,1.905784521484375,0.7805097412109374,-1.8931297709923665,27.69465648854962,-11.98473282442748,-8.113949426269532,0.0143652099609375,1.4915876342773438,2.8244274809160306,-5.1603053435114505,-11.17557251908397,0.0
13.600000619888306,-8.760383874511719,1.3000515014648437,-0.06943184814453125,-5.465648854961832,26.458015267175572,-9.603053435114504,-9.318232861328125,-1.944091748046875,1.9847931762695312,8.595419847328245,-5.00763358778626,-9.053435114503817,0.0
13.610000610351562,-8.202534887695313,0.24181436767578124,-0.6751648681640625,3.312977099236641,28.229007633587788,-9.038167938931299,-8.032546569824218,-1.1228805786132812,1.4341267944335936,8.412213740458014,-4.427480916030534,-11.801526717557252,0.0
13.62000060081482,-8.858546142578124,0.29927520751953124,0.201112939453125,4.305343511450381,31.786259541984734,-10.442748091603054,-8.113949426269532,-1.0630255371093749,1.4915876342773438,10.427480916030534,-3.053435114503817,-12.427480916030534,0.0
13.630000591278076,-9.112331518554686,0.28012159423828126,0.5602431884765625,6.793893129770993,35.19083969465649,-12.412213740458014,-7.939172705078125,-0.9576806640625,1.4939818359375,9.450381679389313,-1.1450381679389312,-12.335877862595419,0.0
13.640000581741333,-9.258377819824219,0.43574470214843747,0.948103857421875,8.732824427480915,37.32824427480916,-13.633587786259541,-7.4028715332031245,-0.6464344482421874,1.4532804077148436,6.916030534351145,0.04580152671755725,-12.076335877862595,0.0
13.65000057220459,-9.255983618164063,0.7996633544921875,1.3359645263671873,8.83969465648855,37.20610687022901,-14.748091603053435,-7.3932947265625,-0.8403647827148437,1.4820108276367188,5.145038167938932,1.6030534351145038,-11.038167938931299,0.0
13.660000324249268,-10.007762939453125,1.369483349609375,2.094926452636719,7.816793893129771,36.030534351145036,-14.229007633587786,-7.371746911621093,-1.1180921752929687,1.8052280517578123,2.381679389312977,2.33587786259542,-10.030534351145038,0.0
13.670000553131104,-10.572794531249999,1.7860744384765623,3.172317199707031,7.969465648854962,33.00763358778626,-12.244274809160306,-7.529764221191406,-1.218648645019531,1.5298948608398437,1.8931297709923665,1.9541984732824427,-7.740458015267175,0.0
13.680001020431519,-11.001356628417968,2.480392919921875,4.453215087890625,3.9083969465648853,28.412213740458014,-10.412213740458014,-7.524975817871093,-0.9504980590820312,1.0726023437499999,1.984732824427481,1.297709923664122,-6.015267175572519,0.0
13.690000534057617,-11.094730493164063,2.8107927490234372,5.561730456542969,1.465648854961832,18.885496183206108,-8.595419847328245,-8.659827404785156,-1.0869675537109373,0.24899697265624998,3.7099236641221376,3.2213740458015265,-3.0229007633587788,0.0
13.700000762939453,-11.635820068359374,2.920926025390625,7.563283044433593,-0.3053435114503817,9.32824427480916,-5.633587786259542,-9.121908325195312,-0.19871873779296872,-1.3048399047851562,3.0076335877862594,6.091603053435114,-3.068702290076336,0.0
13.71000051498413,-11.010933435058593,3.737348791503906,8.817844714355468,-3.786259541984733,-9.48091603053435,-1.9694656488549618,-11.307814440917968,-1.4173673828125,-0.5195417602539062,4.519083969465649,12.50381679389313,-2.427480916030534,0.0
13.720000505447388,-11.975796704101562,2.2673089721679687,9.943119494628906,-0.732824427480916,-30.977099236641223,2.854961832061069,-13.979743493652343,-2.2266075439453124,0.143652099609375,10.82442748091603,13.267175572519085,-5.083969465648855,0.0
13.730000495910645,-13.421894506835937,2.482787121582031,11.604695446777344,20.16793893129771,-49.541984732824424,6.473282442748092,-14.84883869628906,-2.731784094238281,0.45968671875,16.641221374045802,14.473282442748092,-7.66412213740458,0.0
13.740000247955322,-13.541604589843748,2.389413256835937,12.619836950683593,46.30534351145038,-71.1145038167939,10.961832061068701,-13.192051147460937,-0.7948749511718749,0.0383072265625,25.557251908396946,14.13740458015267,-7.755725190839694,0.0
13.750000238418579,-13.903129040527343,4.386177441406249,12.873622326660156,53.267175572519086,-100.87022900763358,16.244274809160306,-11.37006368408203,1.695094775390625,-0.86191259765625,29.923664122137403,14.412213740458014,-1.6488549618320612,0.0
13.760000705718994,-16.601394311523435,6.016628771972656,12.131419812011718,49.6793893129771,-132.59541984732823,20.610687022900763,-9.212887988281249,3.3542765258789062,-1.8531120849609375,25.053435114503817,15.969465648854962,5.8320610687022905,0.0
13.770000696182251,-17.013196997070313,5.671863732910156,9.22485899658203,36.44274809160305,-171.38931297709922,28.748091603053435,-9.421183532714844,3.3446997192382812,-3.306392492675781,13.801526717557252,22.198473282442748,13.954198473282442,0.0
13.780000686645508,-17.573440185546875,4.690241052246093,7.510610607910156,28.213740458015266,-199.63358778625954,36.35114503816794,-8.128314636230469,1.5179238525390624,-3.246537451171875,-1.8473282442748091,32.030534351145036,20.946564885496183,0.0
13.790000915527344,-18.447323791503905,0.7781155395507812,5.616797094726562,26.595419847328245,-222.2290076335878,46.80916030534351,-11.085153686523437,-1.927332336425781,-2.27927998046875,9.435114503816793,39.43511450381679,22.244274809160306,0.0
13.800000667572021,-17.650054638671875,-2.6862942626953124,1.0797849487304687,47.587786259541986,-225.98473282442748,57.9236641221374,-10.041281762695311,-1.1611878051757811,-3.289633081054687,12.091603053435115,37.02290076335878,13.083969465648854,0.0
13.810000658035278,-16.56069288330078,-4.584896179199219,-2.849099975585937,47.541984732824424,-222.2290076335878,59.221374045801525,-11.142614526367186,-1.455674609375,-1.209071838378906,12.67175572519084,48.36641221374046,12.076335877862595,0.0
13.820000648498535,-14.659696765136719,-6.672640026855468,-5.738901379394531,33.43511450381679,-213.80152671755727,54.274809160305345,-9.97184991455078,-1.7836802368164062,-0.7230489013671875,24.65648854961832,45.38931297709924,9.083969465648854,0.0
13.830000638961792,-12.849680310058593,-8.427589843749999,-5.820304235839844,43.02290076335878,-199.2824427480916,39.61832061068702,-9.165003955078124,0.22266075439453123,-1.5514426757812498,19.908396946564885,45.70992366412214,4.412213740458015,0.0
13.84000039100647,-9.076418493652342,-8.422801440429687,-5.829881042480468,74.4885496183206,-174.59541984732823,28.12213740458015,-8.298302954101562,2.375048046875,-2.2194249389648437,-0.4580152671755725,55.37404580152672,2.1526717557251906,0.0
13.850000381469727,-8.068459594726562,-3.825934252929687,-5.66946953125,88.16793893129771,-147.14503816793894,15.679389312977099,-9.33978067626953,0.239420166015625,0.1388636962890625,-6.2748091603053435,58.10687022900763,7.648854961832061,0.0
13.860000610351562,-5.590460876464843,-1.93451494140625,-4.546588952636719,97.72519083969466,-117.49618320610686,6.0458015267175576,-10.63025537109375,-0.3758896606445312,0.5363011718749999,-6.67175572519084,52.67175572519084,8.870229007633588,0.0
13.87000060081482,-5.999869360351562,0.9169792358398436,-3.5434184570312497,87.6030534351145,-95.0381679389313,-1.1450381679389312,-9.476250170898437,0.86191259765625,-0.13407529296874998,-25.66412213740458,52.87022900763359,3.9389312977099236,0.0
13.880000591278076,-8.030152368164062,3.411737365722656,-2.3439234252929686,71.43511450381679,-77.83206106870229,-2.7786259541984735,-11.044452258300781,-1.6735469604492186,2.602497204589844,-24.763358778625953,52.06106870229008,7.572519083969466,0.0
13.890000581741333,-8.813056311035156,2.427720483398437,-2.0278888061523435,52.70229007633588,-69.14503816793894,-3.0076335877862594,-10.62307276611328,-2.683900061035156,2.3439234252929686,-12.274809160305344,39.43511450381679,10.076335877862595,0.0
13.90000057220459,-8.765172277832031,2.978386865234375,-2.722207287597656,37.23664122137404,-62.99236641221374,-2.33587786259542,-9.093177905273437,-0.97683427734375,0.4644751220703125,-24.137404580152673,33.69465648854962,5.740458015267175,0.0
13.910000562667847,-10.172962854003906,4.853046765136718,-1.7932570434570312,9.938931297709924,-56.30534351145038,-1.4961832061068703,-8.655039001464843,-1.7429788085937499,1.6065093139648436,-42.25954198473283,39.465648854961835,4.977099236641221,0.0
13.920000314712524,-9.835380419921874,5.415684155273437,-1.9393033447265624,-16.091603053435115,-56.61068702290076,4.549618320610687,-11.243170996093749,-4.189852905273438,4.182670300292968,-28.549618320610687,34.900763358778626,10.13740458015267,0.0
13.93000054359436,-8.322244970703125,3.9719805541992184,-2.729389892578125,-32.85496183206107,-54.656488549618324,10.916030534351146,-9.849745629882811,-4.508281726074219,2.6958710693359373,-10.305343511450381,17.587786259541986,6.931297709923665,0.0
13.940000534057617,-6.7277066650390625,2.233790148925781,-3.9815573608398434,-36.70229007633588,-48.79389312977099,16.03053435114504,-8.233659509277343,-2.221819140625,1.5179238525390624,-14.83969465648855,10.229007633587786,0.2900763358778626,0.0
13.950000524520874,-4.991910461425781,2.176329309082031,-3.9432501342773434,-39.29770992366412,-34.732824427480914,20.641221374045802,-8.010998754882811,-1.879448303222656,1.2473790649414063,-19.786259541984734,12.946564885496183,-1.1603053435114503,0.0
13.96000075340271,-5.767631799316406,2.4444798950195312,-2.379836450195312,-49.55725190839695,-16.35114503816794,21.938931297709924,-9.217676391601563,-2.920926025390625,1.927332336425781,-18.748091603053435,16.244274809160306,1.4809160305343512,0.0
13.970000505447388,-5.312733483886719,0.9552864624023437,-2.0087351928710935,-52.900763358778626,-2.732824427480916,23.801526717557252,-9.418789331054686,-2.592920397949219,1.448492004394531,-14.366412213740459,14.290076335877863,2.564885496183206,0.0
13.980000495910645,-4.774038110351563,0.37828386230468747,-0.6631938598632812,-49.51145038167939,17.053435114503817,22.610687022900763,-9.823409411621093,-2.2936451904296873,1.3766659545898436,-6.259541984732825,13.740458015267176,2.732824427480916,0.0
13.990000247955322,-5.992686755371094,1.3144167114257812,1.6136919189453125,-62.54961832061068,27.72519083969466,15.770992366412214,-9.651026892089844,-1.8650830932617186,1.005564697265625,1.786259541984733,14.198473282442748,2.3053435114503817,0.0
14.000000476837158,-5.578489868164062,-0.076614453125,1.5203180541992187,-77.80152671755725,26.50381679389313,11.145038167938932,-9.641450085449218,-1.39821376953125,0.6727706665039062,6.3816793893129775,14.091603053435115,2.3206106870229006,0.0
14.010000705718994,-5.413289953613281,-1.5083470458984374,1.9919757812499999,-75.55725190839695,35.80152671755725,7.206106870229007,-9.74200655517578,-1.1133037719726562,0.9217676391601562,8.183206106870228,14.900763358778626,3.0381679389312977,0.0
14.020000457763672,-4.139574670410156,-3.3303345092773435,2.971204260253906,-71.3587786259542,44.56488549618321,0.9007633587786259,-9.047688073730468,-0.3854664672851562,0.3016694091796875,9.572519083969466,15.572519083969466,2.015267175572519,0.0
14.030000448226929,-4.410119458007812,-4.460397692871093,4.125209460449218,-57.083969465648856,52.152671755725194,-5.816793893129771,-9.504980590820312,-1.2114660400390624,1.254561669921875,10.595419847328245,19.69465648854962,2.351145038167939,0.0
14.040000677108765,-5.197811804199218,-4.371812231445312,5.7125651611328125,-40.412213740458014,57.66412213740458,-14.610687022900763,-9.320627062988281,-0.39264907226562495,0.3064578125,9.465648854961833,20.702290076335878,2.030534351145038,0.0
14.0500009059906,-6.37815322265625,-3.1962592163085937,6.983886242675781,-26.641221374045802,59.587786259541986,-22.671755725190838,-8.70771143798828,0.3495534423828125,0.14604630126953125,3.8473282442748094,22.427480916030536,0.6870229007633588,0.0
14.0600004196167,-7.371746911621093,-0.9265560424804687,7.893682873535155,-13.358778625954198,58.35114503816794,-27.267175572519083,-8.796296899414061,0.3184288208007812,-0.181959326171875,-3.5114503816793894,27.099236641221374,2.2290076335877864,0.0
14.070000886917114,-8.073247998046874,0.32082302246093747,8.695740429687499,-1.3587786259541985,54.35114503816794,-26.15267175572519,-7.601590270996093,0.22266075439453123,-0.39983167724609375,-10.122137404580153,30.061068702290076,2.9618320610687023,0.0
14.080000638961792,-8.264784130859374,2.109291662597656,9.050082275390624,15.16030534351145,50.70229007633588,-21.84732824427481,-8.769960681152343,0.8786720092773437,-0.7517793212890624,-23.984732824427482,36.6412213740458,3.4198473282442747,0.0
14.090000629425049,-9.100360510253905,3.986345764160156,9.160215551757812,20.290076335877863,43.81679389312977,-15.86259541984733,-8.738836059570312,0.47644613037109373,0.3591302490234375,-42.274809160305345,52.213740458015266,5.0534351145038165,0.0
14.100000381469727,-9.026140258789061,5.396530541992187,8.394071020507813,23.709923664122137,34.99236641221374,-8.488549618320612,-11.0707884765625,-2.961627453613281,3.4620156005859375,-26.412213740458014,56.38167938931298,13.786259541984732,0.0
14.110000371932983,-8.315062365722655,5.202600207519531,6.658274816894531,25.84732824427481,26.458015267175572,-2.2900763358778624,-11.145008728027342,-3.6296097167968746,3.564966271972656,-1.7404580152671756,44.900763358778626,14.50381679389313,0.0
14.12000060081482,-8.315062365722655,5.662286926269531,6.179434484863281,26.625954198473284,20.12213740458015,0.8244274809160306,-8.971073620605468,-0.40940848388671874,0.4213794921875,-3.3893129770992365,32.656488549618324,7.541984732824427,0.0
14.130000591278076,-7.618349682617187,5.779602807617187,4.862623571777344,18.916030534351144,10.549618320610687,4.931297709923665,-9.830592016601562,-0.689530078125,2.4301146850585935,-7.8320610687022905,37.29770992366412,9.770992366412214,0.0
14.140000343322754,-6.1267620483398435,3.9815573608398434,2.7246014892578123,24.763358778625953,15.969465648854962,10.51908396946565,-10.398017810058594,-1.3072341064453123,1.7956512451171873,-2.1068702290076335,30.47328244274809,12.564885496183207,0.0
14.15000057220459,-7.4411787597656245,3.1938650146484373,1.7597382202148437,7.358778625954199,17.801526717557252,5.083969465648855,-11.834538806152343,-2.1021090576171875,2.5450363647460934,-3.816793893129771,26.061068702290076,14.763358778625955,0.0
14.160000562667847,-10.134655627441406,2.3295582153320313,2.1883003173828124,-7.969465648854962,21.374045801526716,3.0229007633587788,-10.86009873046875,-1.9512743530273435,1.6232687255859375,-8.885496183206106,21.068702290076335,13.877862595419847,0.0
14.170000553131104,-12.138602416992187,0.20829554443359374,4.685452648925781,-17.52671755725191,21.129770992366414,2.519083969465649,-11.463437548828125,-2.6527754394531247,1.47482822265625,-12.335877862595419,16.68702290076336,14.396946564885496,0.0
14.180000305175781,-13.244723583984374,-1.6041151123046875,7.184999182128906,-1.3740458015267176,26.748091603053435,0.21374045801526717,-11.702857714843748,-3.399766357421875,1.6519991455078125,-16.18320610687023,15.145038167938932,14.900763358778626,0.0
14.190000534057617,-14.183250634765624,0.6105214233398437,8.06367119140625,5.358778625954199,26.595419847328245,-3.068702290076336,-11.669338891601562,-2.916137622070312,1.3575123413085937,-14.763358778625955,11.618320610687023,12.702290076335878,0.0
14.200000762939453,-16.46492481689453,3.88818349609375,7.122749938964843,0.16793893129770993,20.458015267175572,-2.427480916030534,-10.91037696533203,-3.5625720703124997,1.0558429321289062,-10.717557251908397,4.870229007633588,9.969465648854962,0.0
14.21000051498413,-17.58780539550781,5.121197351074218,6.229712719726562,-17.129770992366414,10.0,0.12213740458015267,-11.6070896484375,-4.189852905273438,1.7693150268554687,3.8931297709923665,-3.954198473282443,7.282442748091603,0.0
14.220000743865967,-15.672444067382811,2.214636535644531,2.8203695556640622,-1.6946564885496183,15.740458015267176,5.145038167938932,-11.757924353027343,-2.5809493896484375,1.1133037719726562,-1.5572519083969465,-14.549618320610687,-0.8244274809160306,0.0
14.230000495910645,-10.216058483886718,0.6560112548828124,0.2825157958984375,-21.419847328244273,7.541984732824427,1.3740458015267176,-13.608642236328125,0.12449848632812499,1.0630255371093749,-1.1908396946564885,-19.923664122137403,-6.809160305343512,0.0
14.240000486373901,-9.246406811523437,-0.28730419921875,-0.3280056274414062,-25.51145038167939,7.236641221374046,-2.900763358778626,-12.030863342285155,1.0223241088867188,0.6105214233398437,-14.15267175572519,-25.389312977099237,-9.419847328244275,0.0
14.250000238418579,-6.311115576171875,-2.094926452636719,-1.675941162109375,-14.412213740458014,14.732824427480915,-4.519083969465649,-12.140996618652343,1.6639701538085936,0.33518823242187495,-25.755725190839694,-30.732824427480917,-7.190839694656488,0.0
14.260000705718994,-6.344634399414062,-0.9959878906249999,-1.419761584472656,-10.244274809160306,23.022900763358777,-9.068702290076336,-12.08592998046875,1.139639990234375,0.6105214233398437,-29.64885496183206,-33.89312977099237,-4.778625954198473,0.0
14.270000457763672,-4.987122058105468,-1.1731588134765625,-2.770091320800781,4.0,29.099236641221374,-8.0,-11.14022032470703,0.8810662109374999,0.0383072265625,-29.114503816793892,-41.19083969465649,-2.946564885496183,0.0
14.280000448226929,-6.517016918945312,0.8571241943359375,-1.407790576171875,20.427480916030536,44.35114503816794,-6.305343511450381,-11.554417211914062,0.3112462158203125,-1.0678139404296874,-26.259541984732824,-46.61068702290076,-0.549618320610687,0.0
14.290000915527344,-8.815450512695312,3.0980969482421874,0.32082302246093747,19.099236641221374,50.79389312977099,-6.137404580152672,-12.933477368164061,-1.8148048583984373,-0.0143652099609375,-9.404580152671755,-45.786259541984734,1.5572519083969465,0.0
14.300000667572021,-10.58476553955078,4.247313745117188,1.5969325073242187,10.702290076335878,49.70992366412214,-3.877862595419847,-12.449848632812499,-1.388636962890625,-1.5131354492187499,15.17557251908397,-57.55725190839695,-0.366412213740458,0.0
14.310000896453857,-10.991779821777342,4.582501977539062,2.39420166015625,-1.4961832061068703,44.99236641221374,0.7480916030534351,-10.800243688964843,1.1420341918945311,-2.987963671875,3.2061068702290076,-54.29007633587786,-4.809160305343512,0.0
14.320000886917114,-11.44667813720703,4.070142822265625,2.786850732421875,-20.793893129770993,37.57251908396947,5.8320610687022905,-8.966285217285156,2.4013842651367185,-3.7301661865234372,0.42748091603053434,-47.89312977099237,-4.67175572519084,0.0
14.330000877380371,-11.853692419433592,2.868253588867187,3.248931652832031,-29.81679389312977,33.9236641221374,7.679389312977099,-9.816226806640625,2.0302830078125,-1.0726023437499999,-0.030534351145038167,-35.6793893129771,2.4580152671755724,0.0
14.340000867843628,-6.962338427734375,-2.233790148925781,-0.3495534423828125,-17.893129770992367,26.18320610687023,12.106870229007633,-8.106766821289062,0.7613561279296874,-2.664746447753906,4.99236641221374,-41.02290076335878,4.0458015267175576,0.0
14.350000619888306,-7.012616662597656,-2.6431986328124997,0.8164227661132812,11.954198473282442,38.99236641221374,6.442748091603053,-7.163451367187499,2.398990063476562,-2.9735984619140625,-10.870229007633588,-34.36641221374046,2.946564885496183,0.0
14.360000610351562,-8.540117321777343,-0.9600748657226562,2.04943662109375,22.03053435114504,43.87786259541985,-3.1755725190839694,-8.197746484375,0.15562310791015624,-0.718260498046875,-21.17557251908397,-16.900763358778626,7.450381679389313,0.0
14.37000036239624,-8.300697155761718,-1.2785036865234374,1.2306196533203124,25.709923664122137,39.66412213740458,-8.396946564885496,-8.382100012207031,-1.8076222534179687,-0.7637503295898437,-9.358778625954198,-19.96946564885496,8.274809160305344,0.0
14.380000591278076,-10.259154113769531,1.2737152832031249,2.0973206542968748,40.045801526717554,45.11450381679389,-11.801526717557252,-9.390058911132812,-2.2864625854492187,-0.3854664672851562,-6.5038167938931295,-18.702290076335878,6.8396946564885495,0.0
14.390000581741333,-10.989385620117186,1.707065783691406,2.212242333984375,30.35114503816794,42.01526717557252,-12.717557251908397,-9.157821350097656,-1.467645617675781,-0.9241618408203125,3.114503816793893,-19.66412213740458,1.9541984732824427,0.0
14.40000057220459,-11.003750830078124,2.935291235351562,1.5322890624999999,17.49618320610687,35.847328244274806,-11.572519083969466,-9.306261853027344,-0.8451531860351562,-1.4987702392578124,6.427480916030534,-19.31297709923664,-0.015267175572519083,0.0
14.410000562667847,-11.267113012695312,2.269703173828125,1.618480322265625,-1.5572519083969465,27.84732824427481,-8.305343511450381,-9.756371765136718,-0.258573779296875,-1.678335363769531,8.076335877862595,-17.64885496183206,-0.6870229007633588,0.0
14.420000791549683,-10.687716210937499,1.8507178833007811,1.2018892333984375,-7.480916030534351,24.412213740458014,-3.3587786259541983,-9.60793126220703,0.12210428466796874,-1.5227122558593749,5.923664122137405,-17.31297709923664,-0.22900763358778625,0.0
14.43000054359436,-10.390835205078124,1.1133037719726562,1.13006318359375,-10.106870229007633,20.99236641221374,-0.12213740458015267,-10.261548315429687,0.033518823242187495,-0.6943184814453125,5.572519083969466,-17.61832061068702,0.7022900763358778,0.0
14.440000772476196,-10.13226142578125,1.5921441040039062,1.3670891479492187,-9.603053435114504,21.083969465648856,0.030534351145038167,-10.441113439941406,1.120486376953125,-0.411802685546875,1.1755725190839694,-18.793893129770993,0.9618320610687023,0.0
14.450000524520874,-9.131485131835937,0.9457096557617187,0.5291185668945312,-12.320610687022901,18.778625954198475,0.9312977099236641,-10.060435375976562,1.209071838378906,0.28490999755859375,-6.122137404580153,-17.17557251908397,2.5801526717557253,0.0
14.46000051498413,-9.445125549316407,1.1013327636718748,0.5770026000976562,-13.618320610687023,18.16793893129771,1.9083969465648856,-10.536881506347656,1.180341418457031,0.22505495605468748,-6.030534351145038,-19.19083969465649,3.3282442748091605,0.0
14.470000505447388,-10.022128149414062,1.3192051147460937,0.93852705078125,-14.50381679389313,18.83969465648855,0.44274809160305345,-9.82580361328125,1.0534487304687499,0.011971008300781249,-10.305343511450381,-22.229007633587788,3.3435114503816794,0.0
14.480000257492065,-9.540893615722656,-0.076614453125,-0.023942016601562498,-12.305343511450381,20.229007633587788,0.732824427480916,-10.17056865234375,0.30406361083984373,1.0534487304687499,-11.34351145038168,-20.53435114503817,4.091603053435114,0.0
14.490000486373901,-10.534487304687499,0.20350714111328125,1.0773907470703123,1.7251908396946565,31.541984732824428,-0.9618320610687023,-9.904812268066406,-1.8339584716796873,2.0374656127929685,-9.34351145038168,-20.045801526717558,5.190839694656488,0.0
14.500000715255737,-9.677363110351562,-0.21068974609375,0.9433154541015625,2.0,34.06106870229008,-5.190839694656488,-11.2240173828125,-2.090138049316406,1.1875240234375,16.396946564885496,-33.11450381679389,4.137404580152672,0.0
14.510000705718994,-11.240776794433593,2.04943662109375,1.5418658691406248,1.083969465648855,34.01526717557252,-8.931297709923664,-9.421183532714844,1.3431471313476562,-0.7948749511718749,2.946564885496183,-37.45038167938932,-2.6717557251908395,0.0
14.520000457763672,-8.37012900390625,2.118868469238281,0.24899697265624998,-10.778625954198473,28.12213740458015,-6.305343511450381,-8.20971749267578,1.9895815795898437,-0.689530078125,-18.015267175572518,-28.732824427480917,-4.0,0.0
14.530000686645508,-10.582371337890624,2.712630480957031,1.4939818359375,-20.85496183206107,31.572519083969464,-5.312977099236641,-9.828197814941406,-0.5027823486328125,0.9696516723632812,-23.84732824427481,-20.045801526717558,1.8778625954198473,0.0
14.540000677108765,-10.539275708007812,2.3726538452148436,1.5658078857421873,-23.34351145038168,30.366412213740457,-4.519083969465649,-9.744400756835937,-0.86191259765625,0.6440402465820312,-21.480916030534353,-21.96946564885496,1.1603053435114503,0.0
14.5500009059906,-9.358934289550781,1.6065093139648436,0.45010991210937495,-30.412213740458014,24.259541984732824,-3.801526717557252,-10.084377392578125,-1.905784521484375,0.9504980590820312,-18.870229007633586,-22.519083969465647,-0.2595419847328244,0.0
14.560000658035278,-9.533711010742186,1.5346832641601562,0.28490999755859375,-37.282442748091604,19.709923664122137,-1.2671755725190839,-10.769119067382812,-1.9393033447265624,0.9959878906249999,-12.778625954198473,-22.80916030534351,-2.1068702290076335,0.0
14.570000648498535,-8.465897070312499,-0.32082302246093747,-0.612915625,-24.412213740458014,24.244274809160306,1.465648854961832,-9.612719665527344,-2.461239306640625,0.3758896606445312,-3.8931297709923665,-27.740458015267176,-4.656488549618321,0.0
14.580000638961792,-11.326968054199218,1.9608511596679685,2.5953145996093747,-31.068702290076335,24.091603053435115,-1.4198473282442747,-9.239224206542968,-4.6064439941406246,2.1021090576171875,8.15267175572519,-28.137404580152673,-5.816793893129771,0.0
14.590000629425049,-11.303026037597656,0.6464344482421874,1.5442600708007812,-39.49618320610687,16.27480916030534,-3.801526717557252,-12.205640063476562,-3.564966271972656,0.9864110839843749,41.16030534351145,-45.64885496183206,-8.366412213740459,0.0
14.600000619888306,-9.03332286376953,-1.0869675537109373,-0.29448680419921874,-11.251908396946565,22.015267175572518,-1.6946564885496183,-9.449913952636718,-0.3184288208007812,0.18914193115234373,32.25954198473283,-50.229007633587784,-15.801526717557252,0.0
14.610000610351562,-10.457872851562499,1.1468225952148436,2.3415292236328122,-18.885496183206108,23.022900763358777,-2.2900763358778624,-9.689334118652344,-0.3495534423828125,0.8116343627929687,30.15267175572519,-47.41984732824427,-16.48854961832061,0.0
14.62000060081482,-9.33978067626953,0.7278373046875,1.2521674682617188,-16.717557251908396,22.12213740458015,-6.687022900763359,-8.142679846191406,1.1133037719726562,0.3495534423828125,15.16030534351145,-45.6793893129771,-16.061068702290076,0.0
14.630000591278076,-9.765948571777344,2.422932080078125,2.042254016113281,-23.480916030534353,22.15267175572519,-7.374045801526718,-8.602366564941406,0.7541735229492187,1.668758557128906,4.0458015267175576,-36.229007633587784,-12.229007633587786,0.0
14.640000581741333,-11.06360587158203,2.999934680175781,2.6767174560546874,-35.603053435114504,17.64885496183206,-7.022900763358779,-9.730035546875,-0.6703764648437499,2.5905261962890624,5.419847328244275,-33.954198473282446,-8.381679389312977,0.0
14.65000057220459,-10.319009155273436,1.3215993164062498,1.4867992309570313,-26.091603053435115,17.083969465648856,-4.091603053435114,-9.931148486328125,-1.5753846923828123,1.8124106567382812,9.664122137404581,-37.89312977099237,-10.885496183206106,0.0
14.660000562667847,-9.950302099609374,0.5889736083984375,1.6400281372070311,-19.72519083969466,15.34351145038168,-1.1603053435114503,-8.884882360839843,-0.07422025146484375,0.7206546997070312,7.3893129770992365,-38.229007633587784,-15.282442748091603,0.0
14.670000553131104,-9.49300958251953,0.5458779785156249,1.5969325073242187,-14.213740458015268,14.916030534351146,-0.16793893129770993,-8.863334545898438,0.373495458984375,1.209071838378906,-2.7938931297709924,-27.14503816793893,-14.488549618320612,0.0
14.680001020431519,-9.07163009033203,-0.28969840087890625,1.4341267944335936,-11.740458015267176,13.587786259541986,0.16793893129770993,-9.196128576660156,0.1149216796875,1.0438719238281249,-7.526717557251908,-22.03053435114504,-11.236641221374045,0.0
14.690000534057617,-7.728482958984374,0.6751648681640625,1.7238251953125,-2.33587786259542,14.549618320610687,-2.946564885496183,-9.509768994140625,-0.6416460449218749,1.2952630981445312,-7.3893129770992365,-20.82442748091603,-9.541984732824428,0.0
14.700000762939453,-10.541669909667968,1.7932570434570312,2.2457611572265623,-11.419847328244275,7.343511450381679,-5.526717557251908,-10.031704956054687,-1.7453730102539062,1.8722656982421875,-3.1297709923664123,-20.15267175572519,-9.49618320610687,0.0
14.710000276565552,-10.309432348632813,0.7230489013671875,1.6112977172851561,-0.8091603053435115,5.282442748091603,-1.618320610687023,-11.944672082519531,-2.887407202148437,2.7940333374023436,12.641221374045802,-22.48854961832061,-9.648854961832061,0.0
14.720000743865967,-10.218452685546874,0.13168109130859373,2.0470424194335934,11.129770992366412,3.7557251908396947,0.8549618320610687,-11.595118640136718,-3.1842882080078123,2.003946789550781,30.870229007633586,-33.267175572519086,-12.534351145038167,0.0
14.730000495910645,-9.943119494628906,0.21308394775390624,1.93451494140625,22.076335877862597,2.6259541984732824,-0.32061068702290074,-9.550470422363281,-0.7254431030273437,0.7829039428710937,40.213740458015266,-43.00763358778626,-17.099236641221374,0.0
14.740000486373901,-9.581595043945311,1.369483349609375,1.8722656982421875,27.984732824427482,2.0,-1.6946564885496183,-7.960720520019531,0.9074024291992187,0.6105214233398437,24.885496183206108,-35.64885496183206,-19.221374045801525,0.0
14.750000476837158,-9.488221179199218,2.6982652709960937,2.061407629394531,19.770992366412212,1.2061068702290076,-1.8931297709923665,-9.404424121093749,-0.4836287353515625,2.5665841796874997,18.106870229007633,-26.778625954198475,-14.458015267175572,0.0
14.760000705718994,-9.320627062988281,2.858676782226562,1.1947066284179686,15.557251908396946,-0.4580152671755725,-2.2442748091603053,-10.721235034179687,-1.4173673828125,2.5522189697265625,18.748091603053435,-26.564885496183205,-12.51908396946565,0.0
14.770000457763672,-9.471461767578125,2.6910826660156246,0.41898529052734373,14.549618320610687,-1.2061068702290076,-1.7404580152671756,-10.608707556152343,-1.0845733520507812,2.3439234252929686,17.984732824427482,-26.198473282442748,-14.381679389312977,0.0
