timestamp,Thigh_L_Acc_X,Thigh_L_Acc_Y,Thigh_L_Acc_Z,Thigh_L_Gyr_X,Thigh_L_Gyr_Y,Thigh_L_Gyr_Z,Thigh_R_Acc_X,Thigh_R_Acc_Y,Thigh_R_Acc_Z,Thigh_R_Gyr_X,Thigh_R_Gyr_Y,Thigh_R_Gyr_Z,gpio_output
10.000000238418579,1.5083470458984374,-6.892906579589844,-9.095572106933593,28.427480916030536,50.0763358778626,-20.885496183206108,-14.07072315673828,1.189918225097656,-1.4772224243164063,35.05343511450382,-42.412213740458014,6.152671755725191,0.0
10.010000705718994,-3.124433166503906,-3.756502404785156,-7.8362220336914055,69.98473282442748,85.40458015267176,-25.083969465648856,-11.44667813720703,2.978386865234375,-1.8435352783203125,35.57251908396947,-46.030534351145036,5.709923664122138,1.0
10.02000093460083,-6.368576416015625,-2.085349645996094,-8.264784130859374,98.68702290076335,112.2442748091603,-30.229007633587788,-11.312602844238281,2.0566192260742184,-0.737414111328125,30.549618320610687,-45.770992366412216,6.9465648854961835,1.0
10.030000686645508,-11.089942089843749,2.1619640991210938,-4.209006518554688,118.01526717557252,136.9770992366412,-32.778625954198475,-10.230423693847655,1.7166425903320313,-1.0558429321289062,25.84732824427481,-51.55725190839695,4.473282442748092,1.0
10.040000677108765,-13.271059802246093,4.486733911132812,-0.3016694091796875,96.12213740458016,135.14503816793894,-33.7557251908397,-10.433930834960936,0.7422025146484375,0.3447650390625,11.83206106870229,-49.038167938931295,0.7938931297709924,1.0
10.050000667572021,-16.227898852539063,5.310339282226562,2.7940333374023436,57.69465648854962,124.8854961832061,-35.55725190839695,-9.928754284667969,-0.1197100830078125,0.8044517578125,18.702290076335878,-56.38167938931298,-3.480916030534351,1.0
10.060000658035278,-14.053963745117187,3.6679169433593746,2.4061726684570313,18.3206106870229,105.26717557251908,-36.36641221374046,-12.792219470214842,-1.9321207397460936,1.4915876342773438,33.57251908396947,-55.64885496183206,-2.0,1.0
10.070000648498535,-12.638990563964843,-0.06943184814453125,1.4796166259765624,1.3129770992366412,93.54198473282443,-37.16030534351145,-7.5345526245117185,3.5122938354492184,-2.6671406494140624,27.954198473282442,-71.19083969465649,-10.80916030534351,1.0
10.080000638961792,-9.284714038085937,-1.3527239379882812,-0.20350714111328125,-5.419847328244275,82.50381679389314,-39.51145038167939,-9.976638317871092,3.9743747558593747,-1.62805712890625,1.2671755725190839,-62.458015267175576,-4.625954198473282,1.0
10.090000629425049,-8.851363537597656,-1.8459294799804686,-0.3064578125,-1.3129770992366412,79.00763358778626,-41.51145038167939,-9.289502441406249,5.418078356933593,-3.086125939941406,-17.389312977099237,-62.595419847328245,0.2748091603053435,1.0
10.100000619888306,-9.428366137695312,0.7829039428710937,0.3016694091796875,-0.6870229007633588,77.12977099236642,-46.18320610687023,-10.46984385986328,3.2609026611328122,-2.1978771240234374,-40.76335877862596,-53.63358778625954,10.51908396946565,1.0
10.110000371932983,-9.710881933593749,2.0446482177734375,-0.07422025146484375,-2.1526717557251906,77.63358778625954,-43.45038167938932,-10.414777221679687,0.9983820922851562,-1.5562310791015623,-43.31297709923664,-53.11450381679389,14.351145038167939,1.0
10.12000060081482,-8.657433203124999,1.8028338500976562,-1.3335703247070312,2.16793893129771,79.14503816793894,-38.87022900763359,-8.343792785644531,1.0749965454101562,-3.143586779785156,-54.85496183206107,-52.67175572519084,10.748091603053435,1.0
10.130000591278076,-9.5384994140625,4.673481640625,0.21308394775390624,0.6717557251908397,85.72519083969466,-35.19083969465649,-8.334215979003906,-1.7621324218749999,-0.9840168823242187,-57.11450381679389,-37.51145038167939,9.969465648854962,1.0
10.140000581741333,-8.8489693359375,2.24097275390625,0.45489831542968745,-18.366412213740457,80.61068702290076,-32.13740458015267,-7.687781530761718,-4.024652990722656,-0.622492431640625,-40.36641221374046,-37.93893129770992,7.847328244274809,1.0
10.15000033378601,-8.341398583984375,0.3902548706054687,-0.8355763793945312,-5.480916030534351,79.06870229007633,-28.778625954198475,-9.363722692871093,-5.087678527832031,-0.47644613037109373,-12.931297709923664,-42.06106870229008,3.877862595419847,1.0
10.160000562667847,-12.437877624511717,4.3813890380859375,2.808398547363281,2.2290076335877864,82.93129770992367,-28.68702290076336,-10.771513269042968,-5.691017346191406,0.9361328491210937,20.80916030534351,-48.83969465648855,-1.5572519083969465,1.0
10.170000791549683,-11.420341918945311,3.744531396484375,3.1866824096679687,-18.763358778625953,66.03053435114504,-24.290076335877863,-8.875305554199219,-3.0885201416015624,-0.8906430175781249,36.19847328244275,-61.31297709923664,-13.19083969465649,1.0
10.180000305175781,-14.544775085449217,6.665457421875,5.336675500488281,-39.38931297709924,55.43511450381679,-20.732824427480917,-10.108319409179687,-2.8467057739257813,0.5985504150390625,40.94656488549618,-57.43511450381679,-16.259541984732824,1.0
10.190000534057617,-8.614337573242187,-0.3399766357421875,0.258573779296875,-47.29770992366412,40.67175572519084,-12.061068702290076,-9.706093530273437,-1.0773907470703123,-0.19632453613281248,53.57251908396947,-66.83969465648855,-19.87786259541985,1.0
10.200000524520874,-9.950302099609374,1.8076222534179687,0.737414111328125,-33.66412213740458,36.412213740458014,-10.0,-10.51533369140625,-1.4891934326171874,1.0582371337890624,48.0,-62.74809160305343,-20.03053435114504,1.0
10.21000051498413,-10.184933862304687,1.0917559570312498,1.2737152832031249,-31.923664122137403,35.69465648854962,-9.755725190839694,-9.366116894531249,-0.4333505004882812,0.3447650390625,53.847328244274806,-71.23664122137404,-22.106870229007633,0.0
10.220000505447388,-14.073117358398436,6.062118603515625,5.315127685546875,-42.12213740458015,33.11450381679389,-12.931297709923664,-10.115502014160155,-0.8930372192382812,1.5753846923828123,45.969465648854964,-67.40458015267176,-21.46564885496183,0.0
10.230000257492065,-11.001356628417968,2.2026655273437497,2.3870190551757813,-59.267175572519086,21.16030534351145,-8.045801526717558,-9.356540087890625,0.076614453125,0.5722141967773438,45.954198473282446,-73.52671755725191,-23.267175572519083,0.0
10.240000247955322,-14.877569116210937,5.092466931152344,4.086902233886718,-67.22137404580153,18.076335877862597,-4.99236641221374,-9.26316622314453,-0.03591302490234375,1.218648645019531,30.65648854961832,-65.2824427480916,-22.763358778625953,0.0
10.250000238418579,-10.199299072265624,1.407790576171875,1.0989385620117187,-86.2442748091603,1.9236641221374047,-1.1603053435114503,-10.213664282226562,-0.23702596435546874,1.6112977172851561,32.94656488549618,-66.10687022900764,-21.740458015267176,0.0
10.260000944137573,-11.195286962890624,1.0127473022460938,0.8690952026367187,-67.8473282442748,5.404580152671755,2.8702290076335877,-9.253589416503905,0.6464344482421874,1.1707646118164061,25.053435114503817,-63.98473282442748,-23.267175572519083,0.0
10.270000696182251,-9.409212524414063,-2.109291662597656,-0.2705447875976562,-55.38931297709924,6.259541984732825,6.99236641221374,-10.230423693847655,-0.74699091796875,2.0183119995117185,26.595419847328245,-59.11450381679389,-20.12213740458015,0.0
10.280000925064087,-12.148179223632813,0.7302315063476562,2.4971523315429685,-45.14503816793893,12.564885496183207,4.0,-9.909600671386718,-0.4285620971679687,1.458068811035156,32.76335877862596,-65.23664122137404,-21.206106870229007,0.0
10.290000677108765,-10.599130749511717,-0.3447650390625,0.948103857421875,-50.58015267175573,3.2061068702290076,1.7557251908396947,-8.56166513671875,0.7709329345703124,1.7022773803710936,23.84732824427481,-58.82442748091603,-22.442748091603054,0.0
10.30000114440918,-10.946289990234375,-0.6464344482421874,0.09337386474609374,-36.94656488549618,5.0534351145038165,6.748091603053435,-9.548076220703125,-0.718260498046875,2.6575638427734374,25.236641221374047,-54.900763358778626,-18.641221374045802,0.0
10.310000658035278,-9.090783703613281,-1.0223241088867188,-0.5793968017578125,-24.015267175572518,9.633587786259541,5.908396946564886,-8.20971749267578,0.6943184814453125,1.3646949462890625,21.16030534351145,-58.045801526717554,-21.984732824427482,0.0
10.320000648498535,-9.97184991455078,-0.27293898925781246,-0.47644613037109373,-9.725190839694656,16.885496183206108,3.8473282442748094,-8.513781103515624,-0.00718260498046875,2.9041666137695312,7.893129770992366,-44.29007633587786,-19.938931297709924,0.0
10.330000638961792,-9.380482104492186,-0.4955997436523437,0.02154781494140625,-11.679389312977099,18.68702290076336,1.3435114503816794,-9.842563024902343,-1.5011644409179687,3.1028853515624997,12.83969465648855,-45.89312977099237,-16.290076335877863,0.0
10.34000039100647,-11.384428894042967,1.886630908203125,1.2473790649414063,-11.358778625954198,19.16030534351145,-3.3893129770992365,-9.356540087890625,-0.8978256225585937,3.1172505615234374,14.549618320610687,-49.87786259541985,-18.366412213740457,0.0
10.350000858306885,-9.375693701171874,-0.05027823486328125,-0.82360537109375,-7.984732824427481,18.595419847328245,-0.4580152671755725,-7.017405065917968,0.7422025146484375,2.0302830078125,0.9007633587786259,-49.770992366412216,-21.938931297709924,0.0
10.360000610351562,-8.12113203125,-0.9433154541015625,-1.6807295654296874,-1.8778625954198473,22.33587786259542,3.8625954198473282,-8.528146313476562,0.24660277099609373,3.1292215698242187,-10.0,-39.81679389312977,-17.541984732824428,0.0
10.37000060081482,-12.938265771484375,2.195482922363281,2.1595698974609374,-6.9465648854961835,35.343511450381676,-2.595419847328244,-10.108319409179687,-1.6352397338867186,3.5625720703124997,-10.396946564885496,-37.48091603053435,-12.106870229007633,0.0
10.380000591278076,-9.823409411621093,-1.0223241088867188,-0.7445967163085937,-10.396946564885496,25.450381679389313,-4.1679389312977095,-10.151415039062499,-2.2768857788085937,3.852270471191406,-3.450381679389313,-41.61832061068702,-12.305343511450381,0.0
10.390000343322754,-7.663839514160156,-2.176329309082031,-3.0334535034179684,16.65648854961832,34.18320610687023,0.015267175572519083,-9.809044201660155,-2.578555187988281,3.0741549316406247,5.251908396946565,-50.80916030534351,-15.908396946564885,0.0
10.40000057220459,-8.851363537597656,-1.2497732666015624,-1.7788918334960937,20.213740458015266,44.76335877862596,-7.236641221374046,-6.533776330566406,-0.8044517578125,2.0566192260742184,0.015267175572519083,-50.44274809160305,-22.610687022900763,0.0
10.410000562667847,-9.588777648925781,0.0383072265625,-1.0175357055664063,9.709923664122137,50.0763358778626,-12.641221374045802,-6.629544396972656,-1.68551796875,2.5450363647460934,-7.572519083969466,-41.20610687022901,-22.16793893129771,0.0
10.420000314712524,-8.813056311035156,-0.19632453613281248,-1.6304513305664061,6.442748091603053,53.725190839694655,-14.198473282442748,-7.747636572265624,-1.6017209106445311,2.31758720703125,-6.0458015267175576,-39.404580152671755,-20.778625954198475,0.0
10.43000054359436,-9.507374792480467,0.4740519287109375,-1.908178723144531,10.13740458015267,59.404580152671755,-15.358778625954198,-8.322244970703125,-2.70065947265625,3.134009973144531,-1.1450381679389312,-36.6412213740458,-19.587786259541986,0.0
10.440000534057617,-9.447519750976562,0.5099649536132812,-1.4796166259765624,10.83969465648855,63.25190839694657,-17.328244274809162,-8.221688500976562,-2.003946789550781,2.693476867675781,5.816793893129771,-38.229007633587784,-20.259541984732824,0.0
10.450000524520874,-9.519345800781249,0.74699091796875,-1.3383587280273437,4.290076335877862,64.77862595419847,-19.954198473282442,-6.950367419433594,-0.86191259765625,2.157175695800781,5.847328244274809,-34.778625954198475,-21.49618320610687,0.0
10.46000051498413,-9.418789331054686,0.9864110839843749,-1.0462661254882812,2.2595419847328246,67.14503816793894,-20.946564885496183,-5.786785412597656,0.6727706665039062,1.8052280517578123,-3.5572519083969465,-25.49618320610687,-20.916030534351144,0.0
10.470000505447388,-9.229647399902344,1.0845733520507812,-0.6392518432617187,-3.0229007633587788,67.22137404580153,-19.893129770992367,-7.417236743164062,-0.82360537109375,2.602497204589844,-5.526717557251908,-16.82442748091603,-15.358778625954198,0.0
10.480000495910645,-9.679757312011718,1.1420341918945311,-0.09337386474609374,1.8931297709923665,67.74045801526718,-22.015267175572518,-7.029376074218749,-1.024718310546875,2.243366955566406,-5.282442748091603,-14.01526717557252,-14.961832061068701,0.0
10.490000486373901,-9.49300958251953,0.21308394775390624,0.08379705810546874,7.7251908396946565,67.37404580152672,-20.732824427480917,-7.096413720703125,-1.1563994018554686,1.889025109863281,-3.8625954198473282,-10.15267175572519,-14.381679389312977,0.0
10.500000238418579,-10.077194787597655,0.201112939453125,0.6847416748046875,13.282442748091603,65.23664122137404,-20.900763358778626,-6.880935571289062,-1.1875240234375,1.6831237670898436,-1.5877862595419847,-5.129770992366412,-13.587786259541986,0.0
10.510000705718994,-11.087547888183593,0.967257470703125,2.104503259277344,17.236641221374047,62.2442748091603,-23.19083969465649,-5.870582470703124,-0.20350714111328125,1.1540052001953125,-2.8091603053435112,-0.6717557251908397,-12.0,0.0
10.52000093460083,-11.034875451660156,1.3766659545898436,2.920926025390625,17.435114503816795,55.37404580152672,-21.64885496183206,-6.3973068359375,-0.7206546997070312,1.35990654296875,-1.633587786259542,5.984732824427481,-7.7251908396946565,0.0
10.530000925064087,-11.662156286621093,1.4820108276367188,3.5577836669921874,19.480916030534353,45.465648854961835,-19.6793893129771,-5.980715747070312,-0.8068459594726562,0.9696516723632812,-3.5877862595419847,10.946564885496183,-5.557251908396947,0.0
10.540000915527344,-11.93270107421875,3.517082238769531,4.939238024902344,21.450381679389313,34.67175572519084,-16.137404580152673,-4.927267016601562,-0.21787235107421873,0.08858546142578125,-7.969465648854962,15.633587786259541,-4.67175572519084,0.0
10.550000667572021,-12.988544006347656,4.027047192382812,6.655880615234374,15.541984732824428,18.396946564885496,-11.221374045801527,-4.355052819824219,-0.1197100830078125,-0.229843359375,-14.274809160305344,25.46564885496183,-2.1374045801526718,0.0
10.5600004196167,-11.707646118164062,2.887407202148437,7.48906279296875,16.061068702290076,0.2595419847328244,-5.282442748091603,-4.479551306152343,-0.35194764404296874,-0.5099649536132812,-17.053435114503817,33.083969465648856,0.9618320610687023,0.0
10.570000648498535,-8.997409838867187,-0.48123453369140623,6.792350109863281,28.564885496183205,-18.259541984732824,-0.21374045801526717,-5.882553479003906,-0.7852981445312499,-0.5315127685546874,-17.236641221374047,43.725190839694655,3.3893129770992365,0.0
10.580000877380371,-11.765106958007811,2.77727392578125,9.222464794921875,29.801526717557252,-31.557251908396946,-3.3435114503816794,-6.193799694824218,-1.7717092285156248,-0.7565677246093749,-12.854961832061068,49.038167938931295,3.1755725190839694,0.0
10.590000629425049,-11.590330236816406,4.551377355957031,9.727641345214844,16.396946564885496,-50.534351145038165,-5.557251908396947,-8.341398583984375,-0.8020575561523438,0.8475473876953125,-12.641221374045802,56.35114503816794,-0.6564885496183206,0.0
10.600000619888306,-13.156138122558593,7.015010864257812,9.835380419921874,4.854961832061068,-67.16030534351145,0.2748091603053435,-14.11621298828125,-3.294421484375,5.475539196777343,-12.229007633587786,62.16793893129771,-1.6946564885496183,0.0
10.610000848770142,-13.70680450439453,7.429207751464843,9.4618849609375,-3.6030534351145036,-88.82442748091603,7.770992366412214,-20.482395202636717,-5.7149593627929685,7.620743884277343,-2.1068702290076335,60.152671755725194,-8.01526717557252,0.0
10.62000060081482,-17.42260548095703,8.659827404785156,11.133037719726563,-8.274809160305344,-105.87786259541984,12.51908396946565,-22.828712829589843,-5.925649108886718,8.801085302734375,12.595419847328245,55.48091603053435,-12.641221374045802,0.0
10.630000591278076,-18.727445385742186,6.385335827636719,11.844115612792969,-17.755725190839694,-136.06106870229007,16.091603053435115,-18.148048583984373,-0.23223756103515625,4.80755693359375,35.16030534351145,37.32824427480916,-4.595419847328245,0.0
10.640000581741333,-20.80561242675781,5.724536169433593,13.371616271972655,-7.465648854961832,-165.2824427480916,20.229007633587788,-10.51533369140625,4.237736938476562,0.5003881469726562,31.236641221374047,32.274809160305345,6.977099236641221,0.0
10.650001049041748,-19.788076721191405,2.2577321655273437,14.439430212402343,5.587786259541985,-204.50381679389312,28.045801526717558,-7.122749938964843,4.477157104492187,-1.6472107421875,21.893129770992367,31.114503816793892,12.0,0.0
10.660000562667847,-18.090587744140624,0.40940848388671874,9.612719665527344,20.458015267175572,-229.66412213740458,32.534351145038165,-5.111620544433594,3.995922570800781,-3.842693664550781,5.435114503816794,33.541984732824424,14.366412213740459,0.0
10.670001029968262,-18.741810595703125,-1.6424223388671875,7.314286071777343,10.641221374045802,-250.0763358778626,26.732824427480917,-5.801150622558594,0.8690952026367187,-4.556165759277343,-8.244274809160306,45.954198473282446,17.389312977099237,0.0
10.68000078201294,-16.761805822753907,-2.961627453613281,1.2928688964843749,-0.5648854961832062,-269.70992366412213,26.82442748091603,-8.432378247070313,-2.7198130859375,-4.254496350097656,-1.282442748091603,55.25190839694657,17.52671755725191,0.0
10.690001010894775,-14.556746093749998,-3.478775012207031,-6.775590698242187,1.4198473282442747,-270.2442748091603,34.16793893129771,-9.284714038085937,-1.6136919189453125,-4.352658618164062,5.66412213740458,61.63358778625954,11.48091603053435,0.0
10.700000524520874,-15.856797595214843,-2.24097275390625,-9.60793126220703,-3.801526717557252,-257.60305343511453,41.41984732824427,-10.481814868164061,-0.5746083984375,-2.655169641113281,8.946564885496183,74.80916030534351,9.007633587786259,0.0
10.710000276565552,-14.688427185058593,-4.955997436523437,-6.9527616210937495,-6.076335877862595,-249.1145038167939,45.57251908396947,-11.81777939453125,1.2521674682617188,-2.0374656127929685,14.595419847328245,75.86259541984732,11.267175572519085,0.0
10.720000743865967,-15.049951635742186,-8.391676818847655,-5.549759448242187,26.946564885496183,-232.25954198473283,40.79389312977099,-12.358868969726561,2.0470424194335934,-0.22026655273437498,7.969465648854962,77.78625954198473,18.82442748091603,0.0
10.730000495910645,-14.099453576660155,-8.2743609375,-3.9935283691406247,60.045801526717554,-216.10687022900763,31.633587786259543,-12.610260144042968,0.8595183959960937,0.5410895751953124,5.221374045801527,73.83206106870229,23.099236641221374,0.0
10.740000247955322,-13.555969799804688,-4.584896179199219,-2.5713725830078125,95.69465648854961,-189.95419847328245,21.52671755725191,-12.65335577392578,-0.16041151123046873,0.49799394531249996,-2.1068702290076335,69.40458015267176,24.9618320610687,0.0
10.750000476837158,-13.230358374023437,-2.281674182128906,-1.5490484741210937,99.55725190839695,-173.05343511450383,12.916030534351146,-12.69166300048828,-1.2210428466796874,0.47165772705078124,-8.977099236641221,72.59541984732824,26.595419847328245,0.0
10.760001182556152,-12.923900561523437,0.34237083740234375,-1.1180921752929687,86.03053435114504,-161.48091603053436,11.358778625954198,-9.41639512939453,-1.599326708984375,-1.5945383056640625,0.33587786259541985,64.53435114503817,24.12213740458015,0.0
10.770000696182251,-11.109095703125,2.932897033691406,-1.8052280517578123,62.85496183206107,-158.44274809160305,10.244274809160306,-8.259995727539062,-0.3136404174804687,-1.8531120849609375,-7.022900763358779,70.01526717557252,24.793893129770993,0.0
10.780000925064087,-9.749189160156249,3.787627026367187,-3.1220389648437497,49.06870229007634,-151.45038167938932,17.389312977099237,-4.285620971679688,3.1316157714843746,-5.576095666503906,-34.13740458015267,81.37404580152672,24.412213740458014,0.0
10.790000677108765,-8.815450512695312,5.116408947753906,-1.8363526733398436,26.85496183206107,-137.95419847328245,23.0381679389313,-6.552929943847656,1.4101847778320311,-3.806780639648437,-53.93893129770992,104.30534351145039,33.87786259541985,0.0
10.8000009059906,-3.7229835815429686,0.7062894897460937,-5.329492895507812,20.290076335877863,-126.29007633587786,32.412213740458014,-4.5968671875,2.7820623291015623,-7.613561279296874,-71.57251908396947,114.62595419847328,36.38167938931298,0.0
10.810000896453857,-4.766855505371093,1.1563994018554686,-3.6439749267578123,25.0381679389313,-97.02290076335878,31.16030534351145,-7.252036828613281,-1.1635820068359375,-5.992686755371094,-102.06106870229007,141.8320610687023,39.74045801526717,0.0
10.820000410079956,-0.469263525390625,-2.664746447753906,-7.79552060546875,33.14503816793893,-83.09923664122137,34.74809160305343,-4.955997436523437,-2.473210314941406,-5.317521887207031,-97.90839694656489,150.99236641221373,35.05343511450382,0.0
10.830000877380371,-4.316745593261719,0.316034619140625,-5.559336254882812,41.954198473282446,-44.0,28.412213740458014,-14.937424157714842,-6.023811376953125,-1.3479355346679687,-85.93893129770993,175.2824427480916,34.99236641221374,0.0
10.840000629425049,-2.750937707519531,-0.35194764404296874,-8.78432589111328,39.43511450381679,-29.984732824427482,25.46564885496183,-7.175422375488281,-5.6191912963867185,-2.655169641113281,-44.99236641221374,153.38931297709922,23.282442748091604,0.0
10.850000619888306,-4.070142822265625,0.22744915771484372,-7.611167077636718,51.55725190839695,3.83206106870229,28.290076335877863,-9.172186560058593,-7.912836486816405,1.3742717529296875,-23.954198473282442,149.3587786259542,21.083969465648856,0.0
10.860000371932983,-3.0454245117187497,0.011971008300781249,-8.343792785644531,45.69465648854962,23.69465648854962,28.53435114503817,-10.146626635742187,-10.206481677246094,5.635950708007812,35.93893129770992,127.41984732824427,19.96946564885496,0.0
10.87000036239624,-5.485116003417969,2.741360900878906,-4.905719201660156,35.43511450381679,47.603053435114504,24.33587786259542,-11.884817041015625,-7.043741284179687,5.159504577636718,89.54198473282443,96.6412213740458,16.47328244274809,0.0
10.880000591278076,-1.7381904052734374,0.6105214233398437,-6.131550451660156,-6.809160305343512,42.51908396946565,24.671755725190838,-9.957484704589843,0.9959878906249999,2.7341782958984373,71.86259541984732,71.48091603053435,1.5419847328244274,0.0
10.890000343322754,-5.178658190917968,5.329492895507812,0.5147533569335937,-42.595419847328245,58.0763358778626,20.793893129770993,-14.391546179199217,-1.2880804931640624,9.095572106933593,57.847328244274806,69.83206106870229,4.290076335877862,0.0
10.90000033378601,-3.928884924316406,3.289633081054687,5.4779333984375,-90.58015267175573,46.30534351145038,18.244274809160306,-13.807360974121092,-0.43574470214843747,9.495403784179686,60.961832061068705,51.3587786259542,5.145038167938932,0.0
10.910001039505005,-1.867477294921875,-0.3806780639648437,7.031770275878906,-86.82442748091603,47.23664122137404,19.358778625954198,-12.804190478515624,-0.3112462158203125,7.6231380859375,54.01526717557252,24.3206106870229,7.9541984732824424,0.0
10.920000553131104,0.5722141967773438,-3.9504327392578125,5.5545478515625,-67.02290076335878,49.43511450381679,20.946564885496183,-14.9781255859375,-0.5363011718749999,8.398859423828124,44.99236641221374,14.687022900763358,8.396946564885496,0.0
10.93000078201294,-2.0446482177734375,-3.2609026611328122,8.832209924316405,-40.10687022900763,64.67175572519083,12.870229007633588,-11.844115612792969,-0.9911994873046874,5.374982727050781,39.587786259541986,-3.5419847328244276,6.244274809160306,0.0
10.940000534057617,0.51714755859375,-6.2392895263671875,7.728482958984374,-11.603053435114504,62.19847328244275,4.458015267175573,-10.28549033203125,1.1540052001953125,3.919308117675781,10.442748091603054,-8.977099236641221,3.83206106870229,0.0
10.950000762939453,-3.6727053466796873,-3.306392492675781,10.0748005859375,40.656488549618324,83.92366412213741,-4.534351145038168,-9.481038574218749,1.6927005737304686,3.3590649291992185,-8.67175572519084,-11.038167938931299,4.106870229007634,0.0
10.96000051498413,-4.936843823242187,-0.3327940307617187,9.574412438964844,56.458015267175576,80.59541984732824,-17.19083969465649,-9.255983618164063,1.1156979736328125,3.821145849609375,-36.47328244274809,0.9923664122137404,6.488549618320611,0.0
10.970000505447388,-6.797138513183594,2.35589443359375,9.947907897949218,57.725190839694655,71.3587786259542,-26.458015267175572,-7.987056738281249,1.1563994018554686,2.0733786376953125,-59.74045801526717,8.80916030534351,9.297709923664122,0.0
10.980000495910645,-3.038241906738281,0.9337386474609375,4.244919543457031,57.74045801526717,56.88549618320611,-28.091603053435115,-7.862558251953125,-2.5570073730468748,2.4947581298828125,-68.99236641221374,18.778625954198475,14.900763358778626,0.0
10.990000486373901,-3.438073583984375,6.282385156249999,-1.254561669921875,51.19083969465649,67.98473282442748,-31.022900763358777,-8.628702783203124,-2.8107927490234372,0.9504980590820312,-65.12977099236642,22.458015267175572,13.221374045801527,0.0
11.000000715255737,-2.7557261108398436,4.824316345214844,-9.598354455566406,19.053435114503817,73.23664122137404,-27.66412213740458,-12.794613671875,-5.576095666503906,1.446097802734375,-54.42748091603053,26.076335877862597,10.961832061068701,0.0
11.010000944137573,-11.243170996093749,2.6001030029296874,-4.103661645507812,21.129770992366414,98.9618320610687,-20.778625954198475,-11.496956372070311,-5.315127685546875,1.0486603271484374,-51.63358778625954,26.48854961832061,4.809160305343512,0.0
11.02000093460083,-22.42169854736328,0.8259995727539062,10.972626208496093,54.48854961832061,103.29770992366412,-6.244274809160306,-13.898340637207031,-3.5386300537109374,0.9816226806640624,-53.847328244274806,17.786259541984734,-2.198473282442748,0.0
11.030000686645508,-27.940333374023435,-1.2785036865234374,18.614917907714844,80.21374045801527,81.63358778625954,3.267175572519084,-15.464148522949218,-3.1220389648437497,2.6479870361328124,-66.42748091603053,9.267175572519085,-2.763358778625954,0.0
11.040000915527344,-29.273903698730468,3.995922570800781,12.926294763183593,43.9236641221374,38.62595419847328,-6.290076335877862,-16.22071624755859,-5.015852478027344,4.7022120605468745,-56.88549618320611,-7.877862595419847,1.816793893129771,0.0
11.050000667572021,-26.33621826171875,9.239224206542968,8.808267907714843,-10.916030534351146,3.66412213740458,-11.007633587786259,-16.75941162109375,-8.051700183105469,6.380547424316406,-41.603053435114504,-28.03053435114504,3.2213740458015265,0.0
11.060000896453857,-17.099388256835937,3.2154128295898436,1.5586252807617187,-40.229007633587784,-19.770992366412212,-4.183206106870229,-15.66047305908203,-4.8698061767578125,4.800374328613281,-19.282442748091604,-57.603053435114504,-4.229007633587786,0.0
11.070000648498535,-7.589619262695312,-0.277727392578125,-3.852270471191406,-30.091603053435115,-11.358778625954198,-3.3740458015267176,-14.101847778320312,-2.461239306640625,2.6216508178710938,-1.2366412213740459,-78.27480916030534,-7.740458015267175,0.0
11.080000638961792,-2.4133552734375,-1.917755529785156,-6.315903979492187,-34.47328244274809,-6.580152671755725,-10.610687022900763,-14.506467858886717,-1.8938135131835936,1.0486603271484374,14.244274809160306,-88.35114503816794,-8.274809160305344,0.0
11.09000039100647,-1.0654197387695312,-3.5721488769531247,-7.955932116699218,-15.816793893129772,18.702290076335878,-12.13740458015267,-14.475343237304687,-2.8802245971679685,0.12210428466796874,33.63358778625954,-96.65648854961832,-7.786259541984733,0.0
11.100000858306885,0.277727392578125,-4.261678955078125,-8.475473876953124,9.129770992366412,45.7557251908397,-13.374045801526718,-12.296619726562499,-1.0558429321289062,-2.9089550170898435,44.80916030534351,-107.81679389312977,-13.969465648854962,0.0
11.110000610351562,-3.366247534179687,-2.2361843505859373,-6.789955908203124,28.213740458015266,75.26717557251908,-17.572519083969464,-10.237606298828124,-1.199495031738281,-3.778050219726562,60.534351145038165,-112.99236641221374,-18.748091603053435,0.0
11.12000060081482,-6.926425402832031,0.181959326171875,-4.560954162597656,38.961832061068705,96.01526717557252,-23.46564885496183,-11.104307299804686,1.0893617553710937,-5.099649536132812,51.45038167938932,-107.23664122137404,-24.412213740458014,0.0
11.130000591278076,-10.09395419921875,2.7054478759765623,-1.8435352783203125,34.76335877862596,107.22137404580153,-25.786259541984734,-11.441889733886718,1.180341418457031,-3.7038299682617186,42.29007633587786,-98.41221374045801,-25.068702290076335,0.0
11.140000820159912,-11.896788049316406,3.5769372802734374,0.06943184814453125,20.427480916030536,106.04580152671755,-24.442748091603054,-10.843339318847656,1.687912170410156,-3.83072265625,33.38931297709924,-94.19847328244275,-22.641221374045802,0.0
11.150000810623169,-14.080299963378906,2.971204260253906,2.2864625854492187,2.2290076335877864,102.91603053435115,-25.00763358778626,-9.524134204101562,3.6296097167968746,-4.843469958496094,14.091603053435115,-83.06870229007633,-20.03053435114504,0.0
11.160000562667847,-14.341267944335936,1.1180921752929687,3.450044592285156,-12.488549618320612,91.7557251908397,-25.435114503816795,-10.951078393554686,1.66636435546875,-1.9416975463867185,9.786259541984732,-68.54961832061069,-13.709923664122137,0.0
11.170001029968262,-12.559981909179687,-1.2665326782226562,2.5737667846679684,-18.106870229007633,76.29007633587786,-25.923664122137403,-11.348515869140625,1.4030021728515625,-2.212242333984375,20.80916030534351,-70.54961832061069,-10.854961832061068,0.0
11.18000078201294,-10.747571252441405,-1.8722656982421875,1.7788918334960937,-7.541984732824427,68.25954198473282,-27.49618320610687,-9.64623848876953,3.756502404785156,-2.9640216552734375,14.213740458015268,-68.41221374045801,-12.580152671755725,0.0
11.190001010894775,-10.058041174316406,-0.3758896606445312,2.166752502441406,-6.931297709923665,62.38167938931298,-28.38167938931298,-8.894459167480468,3.1747114013671873,-1.7669208251953124,0.16793893129770993,-58.12213740458015,-9.603053435114504,0.0
11.200000762939453,-10.869675537109375,0.26815058593749996,2.2577321655273437,-11.206106870229007,58.35114503816794,-29.984732824427482,-10.141838232421874,0.9169792358398436,-0.7541735229492187,7.145038167938932,-53.9236641221374,-2.4885496183206106,0.0
11.21000051498413,-8.267178332519531,0.0,0.086191259765625,-6.809160305343512,49.98473282442748,-28.519083969465647,-10.077194787597655,-0.27293898925781246,-0.6153098266601562,27.297709923664122,-60.68702290076336,0.8549618320610687,0.0
11.220000505447388,-9.382876306152344,1.3623007446289062,0.21308394775390624,2.33587786259542,53.61832061068702,-27.068702290076335,-9.011775048828124,1.3455413330078123,-1.5634136840820312,31.206106870229007,-63.267175572519086,-1.83206106870229,0.0
11.230000495910645,-9.244012609863281,1.2138602416992186,-0.19393033447265623,-0.9465648854961832,53.81679389312977,-23.81679389312977,-8.973467822265624,0.15322890625,-1.0534487304687499,26.580152671755727,-59.9236641221374,-3.83206106870229,0.0
11.240000486373901,-10.66137999267578,1.8291700683593748,1.2569558715820313,-2.2748091603053435,55.80152671755725,-22.50381679389313,-9.852139831542969,-0.4381389038085937,-0.33039982910156246,35.16030534351145,-61.06870229007634,-2.519083969465649,0.0
11.250000715255737,-6.710947253417968,-0.7517793212890624,-0.7972691528320313,4.030534351145038,53.70992366412214,-21.328244274809162,-8.341398583984375,0.9457096557617187,-1.3838485595703125,22.702290076335878,-62.961832061068705,-4.809160305343512,0.0
11.260000944137573,-8.781931689453124,2.7461493041992187,0.5793968017578125,11.083969465648854,57.57251908396947,-21.786259541984734,-9.830592016601562,-1.3431471313476562,0.3950432739257812,19.908396946564885,-57.66412213740458,-1.5877862595419847,0.0
11.270000696182251,-8.109161022949218,1.429338391113281,-0.32082302246093747,0.8396946564885496,50.0,-22.35114503816794,-9.670180505371093,-0.38786066894531246,-0.13646949462890623,19.770992366412212,-63.7557251908397,-4.458015267175573,0.0
11.280000925064087,-9.93354268798828,4.819527941894531,0.5099649536132812,-0.916030534351145,49.969465648854964,-22.106870229007633,-9.852139831542969,-0.49320554199218747,0.29448680419921874,5.6183206106870225,-58.412213740458014,-6.748091603053435,0.0
11.290000677108765,-12.160150231933594,3.9887399658203124,1.7860744384765623,-21.52671755725191,44.091603053435115,-18.076335877862597,-10.50815108642578,-1.9919757812499999,1.4437036010742186,10.15267175572519,-60.0763358778626,-6.351145038167939,0.0
11.300000667572021,-14.470554833984375,8.169016064453125,4.352658618164062,-36.12213740458015,39.267175572519086,-18.091603053435115,-10.311826550292968,-1.4796166259765624,0.7852981445312499,11.557251908396946,-67.70992366412214,-10.335877862595419,0.0
11.310000658035278,-10.78348427734375,3.794809631347656,1.4221557861328125,-50.30534351145038,30.27480916030534,-12.793893129770993,-8.8872765625,-0.040701428222656245,0.7541735229492187,0.3511450381679389,-63.267175572519086,-15.114503816793894,0.0
11.320000410079956,-11.02529864501953,2.9281086303710935,1.0223241088867188,-55.969465648854964,24.137404580152673,-3.6946564885496183,-12.67250938720703,-3.2321722412109373,3.2249896362304686,9.908396946564885,-56.2442748091603,-10.076335877862595,0.0
11.330000877380371,-10.685322009277343,1.2593500732421874,0.3327940307617187,-47.7557251908397,22.68702290076336,-4.641221374045801,-11.880028637695311,-3.0310593017578125,1.8315642700195311,30.061068702290076,-75.12977099236642,-15.083969465648854,0.0
11.340000629425049,-11.020510241699219,1.7573440185546874,0.33758243408203126,-43.51145038167939,23.297709923664122,-4.229007633587786,-11.305420239257812,-2.712630480957031,2.403778466796875,31.84732824427481,-75.64885496183206,-20.83969465648855,0.0
11.350000381469727,-10.342951171874999,0.00239420166015625,0.5027823486328125,-44.10687022900763,26.045801526717558,-1.297709923664122,-10.752359655761719,-1.6136919189453125,1.8052280517578123,44.045801526717554,-83.61832061068702,-25.603053435114504,0.0
11.360000371932983,-11.176133349609374,1.0749965454101562,0.6200982299804687,-42.595419847328245,27.389312977099237,-3.6030534351145036,-11.020510241699219,-1.7764976318359373,2.9448680419921875,43.00763358778626,-80.16793893129771,-25.923664122137403,0.0
11.37000060081482,-10.079588989257813,-0.05027823486328125,0.17956512451171874,-41.770992366412216,27.96946564885496,-3.312977099236641,-8.63827958984375,0.7972691528320313,0.93852705078125,42.0,-85.61832061068702,-29.52671755725191,0.0
11.380000352859497,-10.666168395996094,1.2306196533203124,0.39743747558593745,-43.20610687022901,27.923664122137403,-3.4656488549618323,-9.433154541015625,0.24660277099609373,2.1906945190429687,36.091603053435115,-76.67175572519083,-25.541984732824428,0.0
11.390000820159912,-9.617508068847656,0.3184288208007812,-0.24660277099609373,-39.17557251908397,29.282442748091604,-1.4809160305343512,-7.635109094238281,1.9632453613281249,1.0654197387695312,27.96946564885496,-76.36641221374046,-24.427480916030536,0.0
11.40000057220459,-9.938331091308592,0.8978256225585937,-0.40462008056640625,-35.81679389312977,32.56488549618321,0.16793893129770993,-7.37414111328125,1.2306196533203124,1.905784521484375,15.19083969465649,-64.79389312977099,-19.893129770992367,0.0
11.410000801086426,-9.318232861328125,0.40462008056640625,-0.26815058593749996,-36.83969465648855,32.70229007633588,1.1450381679389312,-7.903259680175781,0.1197100830078125,2.4516625,11.32824427480916,-61.9236641221374,-14.687022900763358,0.0
11.420000791549683,-9.744400756835937,-0.316034619140625,-1.3838485595703125,-29.72519083969466,33.61832061068702,0.9007633587786259,-6.260837341308593,2.8993782104492185,0.5961562133789062,-1.816793893129771,-58.30534351145038,-16.396946564885496,0.0
11.43000078201294,-9.957484704589843,-0.7972691528320313,-1.2689268798828124,-16.80916030534351,44.25954198473283,0.8702290076335878,-5.209782812499999,2.3247698120117186,0.9983820922851562,-26.045801526717558,-41.969465648854964,-12.687022900763358,0.0
11.440000534057617,-9.801861596679688,-0.8044517578125,-0.2154781494140625,-16.977099236641223,52.97709923664122,-2.5801526717557253,-7.053318090820312,0.6631938598632812,1.8291700683593748,-29.83206106870229,-34.412213740458014,-4.717557251908397,0.0
11.450000524520874,-8.971073620605468,-1.2904746948242187,-1.0486603271484374,-9.86259541984733,52.19847328244275,-6.595419847328245,-7.656656909179687,-0.3758896606445312,1.7645266235351562,-29.87786259541985,-32.58015267175573,-3.633587786259542,0.0
11.46000075340271,-10.340556970214843,-0.062249243164062495,-0.6823474731445313,3.0229007633587788,58.13740458015267,-7.038167938931298,-7.218518005371093,-0.6416460449218749,1.5418658691406248,-33.86259541984733,-28.85496183206107,-5.740458015267175,0.0
11.470000505447388,-9.801861596679688,0.28490999755859375,-0.36152445068359373,-1.5114503816793894,58.54961832061068,-8.687022900763358,-8.0062103515625,-1.678335363769531,2.0925322509765625,-32.213740458015266,-25.709923664122137,-6.961832061068702,0.0
11.480000734329224,-10.319009155273436,0.6631938598632812,0.16280571289062498,1.251908396946565,59.725190839694655,-10.51908396946565,-7.273584643554687,-1.5514426757812498,1.8219874633789062,-33.52671755725191,-24.702290076335878,-9.770992366412214,0.0
11.490000247955322,-9.694122521972655,0.5722141967773438,0.5482721801757812,-3.8625954198473282,58.3206106870229,-12.305343511450381,-8.020575561523437,-2.2457611572265623,2.4396914916992185,-29.786259541984734,-22.244274809160306,-10.488549618320612,0.0
11.500000476837158,-9.725247143554688,-0.8379705810546875,0.26336218261718747,0.16793893129770993,57.49618320610687,-14.625954198473282,-7.211335400390625,-1.7094599853515624,2.001552587890625,-28.641221374045802,-20.946564885496183,-12.458015267175572,0.0
11.510000467300415,-9.976638317871092,0.9121908325195311,0.46208092041015625,3.969465648854962,59.954198473282446,-18.366412213740457,-8.054094384765625,-2.760514514160156,2.5546131713867184,-21.083969465648856,-18.48854961832061,-11.938931297709924,0.0
11.52000117301941,-8.456320263671875,1.6136919189453125,0.03591302490234375,-14.488549618320612,48.19847328244275,-23.954198473282442,-7.003039855957031,-1.867477294921875,1.9321207397460936,-17.129770992366414,-17.297709923664122,-13.145038167938932,0.0
11.530000686645508,-9.430760339355468,0.4261678955078125,-0.6607996582031249,1.099236641221374,50.97709923664122,-20.0,-7.7763669921875,-2.4660277099609376,2.133233679199219,-11.908396946564885,-12.534351145038167,-11.572519083969466,0.0
11.540000677108765,-9.64623848876953,-0.5698199951171875,-0.6751648681640625,12.366412213740459,55.19083969465649,-18.870229007633586,-7.213729602050781,-2.0925322509765625,1.668758557128906,-7.022900763358779,-10.946564885496183,-12.076335877862595,0.0
11.550000667572021,-9.68454571533203,-0.32561142578124996,-0.3758896606445312,15.725190839694656,56.83969465648855,-23.786259541984734,-7.3837179199218745,-2.0159177978515626,1.7669208251953124,-1.9236641221374047,-6.99236641221374,-11.557251908396946,0.0
11.560000658035278,-9.7683427734375,0.6967126831054687,0.36631285400390623,16.48854961832061,55.98473282442748,-27.64885496183206,-6.988674645996094,-1.5921441040039062,1.47482822265625,0.32061068702290074,-3.7404580152671754,-11.32824427480916,0.0
11.570000886917114,-10.199299072265624,0.7948749511718749,0.6464344482421874,16.580152671755727,54.47328244274809,-28.793893129770993,-6.864176159667968,-0.8690952026367187,1.0965443603515623,0.0,1.2366412213740459,-10.580152671755725,0.0
11.580000877380371,-10.579977136230468,1.1420341918945311,0.8451531860351562,18.900763358778626,53.05343511450382,-26.396946564885496,-7.187393383789062,-1.149216796875,1.1947066284179686,-1.2671755725190839,8.931297709923664,-8.534351145038167,0.0
11.590000629425049,-10.931924780273437,1.0127473022460938,1.388636962890625,19.267175572519083,48.961832061068705,-23.16030534351145,-7.314286071777343,-0.8212111694335937,0.33758243408203126,3.7709923664122136,10.396946564885496,-7.816793893129771,0.0
11.600000619888306,-10.970232006835937,2.1547814941406247,2.3535002319335936,19.435114503816795,42.916030534351144,-23.709923664122137,-6.68461103515625,0.023942016601562498,-0.11013327636718749,3.1297709923664123,18.412213740458014,-7.694656488549619,0.0
11.610000371932983,-11.417947717285156,1.5682020874023437,3.3782185424804685,11.48091603053435,34.54961832061068,-21.87786259541985,-5.590460876464843,1.2114660400390624,-1.218648645019531,-3.0229007633587788,26.12213740458015,-7.816793893129771,0.0
11.62000060081482,-10.527304699707031,1.9656395629882812,3.5386300537109374,15.511450381679388,24.80916030534351,-18.137404580152673,-6.449979272460937,0.11731588134765625,-0.105344873046875,-9.694656488549619,39.70992366412214,-3.9236641221374047,0.0
11.630000591278076,-10.014945544433592,0.5267243652343749,3.42849677734375,15.083969465648854,14.229007633587786,-14.946564885496183,-6.823474731445312,-1.4341267944335936,0.08379705810546874,-11.022900763358779,47.06870229007634,-1.984732824427481,0.0
11.640000820159912,-12.39238779296875,3.5577836669921874,5.231330627441406,18.885496183206108,9.557251908396946,-16.732824427480917,-6.545747338867187,-1.9488801513671874,-0.48123453369140623,-8.580152671755725,52.82442748091603,-1.8625954198473282,0.0
11.650000810623169,-10.405200415039062,0.9816226806640624,4.158728283691406,20.33587786259542,-3.5877862595419847,-14.213740458015268,-6.481103894042969,-0.852335791015625,-0.8451531860351562,-8.091603053435115,60.48854961832061,-3.1603053435114505,0.0
11.660000801086426,-11.987767712402343,3.6439749267578123,5.8226984375,19.83206106870229,-8.748091603053435,-13.435114503816793,-9.160215551757812,-1.7597382202148437,2.1619640991210938,-12.534351145038167,73.12977099236642,-1.1297709923664123,0.0
11.670000791549683,-11.741164941406248,4.185064501953125,6.452373474121093,11.893129770992367,-22.53435114503817,-14.366412213740459,-13.498508959960937,-3.660734338378906,4.948814831542968,-0.9312977099236641,70.73282442748092,0.4580152671755725,0.0
11.68000054359436,-13.517662573242188,6.904877587890625,8.17141026611328,-3.1603053435114505,-40.900763358778626,-12.320610687022901,-15.224728356933593,-1.879448303222656,5.363011718749999,10.580152671755725,61.3587786259542,-3.786259541984733,0.0
11.690000772476196,-14.992490795898437,8.765172277832031,8.846575134277343,-12.259541984732824,-63.603053435114504,-4.931297709923665,-16.869544897460937,-1.1156979736328125,7.295132458496093,14.15267175572519,61.725190839694655,-2.8244274809160306,0.0
11.700000524520874,-15.682020874023436,7.429207751464843,10.213664282226562,-24.18320610687023,-85.80152671755725,4.366412213740458,-16.50562624511719,-1.8076222534179687,5.777208605957031,24.595419847328245,48.51908396946565,1.251908396946565,0.0
11.71000075340271,-17.197550524902343,10.66137999267578,11.437101330566406,-46.67175572519084,-131.17557251908397,14.748091603053435,-11.877634436035155,1.2210428466796874,2.1212626708984375,25.435114503816795,36.778625954198475,4.152671755725191,0.0
11.720000505447388,-20.1112939453125,6.749254479980468,14.180856433105468,-40.61068702290076,-157.08396946564886,20.106870229007633,-9.052476477050782,2.882618798828125,1.2282254516601563,10.763358778625955,40.56488549618321,9.19083969465649,0.0
11.730000495910645,-18.102558752441404,1.1563994018554686,14.276624499511717,-20.47328244274809,-189.38931297709922,34.16793893129771,-7.716511950683593,1.9321207397460936,0.0430956298828125,-2.2290076335877864,41.83206106870229,16.549618320610687,0.0
11.740000486373901,-18.344373120117186,1.7190367919921874,10.778695874023438,-7.190839694656488,-216.59541984732823,39.14503816793893,-7.156268762207031,0.6943184814453125,-1.9632453613281249,-12.15267175572519,43.80152671755725,19.297709923664122,0.0
11.750000476837158,-15.71793389892578,-2.212242333984375,5.980715747070312,-12.458015267175572,-241.16030534351145,34.33587786259542,-7.472303381347656,-0.0718260498046875,-3.0933085449218747,-19.0381679389313,49.98473282442748,18.900763358778626,0.0
11.760000467300415,-16.12015977783203,-2.003946789550781,1.7956512451171873,-6.0,-249.95419847328245,35.43511450381679,-7.491456994628906,-1.5322890624999999,-3.3327287109375,-26.610687022900763,62.30534351145038,17.6793893129771,0.0
11.770000696182251,-12.974178796386719,-2.9089550170898435,-5.65031591796875,-10.916030534351146,-253.3587786259542,42.229007633587784,-8.441955053710936,-1.4939818359375,-3.536235852050781,-27.801526717557252,69.83206106870229,15.694656488549619,0.0
11.780000925064087,-13.678074084472655,-3.380612744140625,-8.722076647949219,-8.381679389312977,-238.2290076335878,51.221374045801525,-9.402029919433593,-1.6998831787109374,-2.6144682128906247,-25.69465648854962,71.0381679389313,16.137404580152673,0.0
11.790000677108765,-13.189656945800781,-5.88015927734375,-7.6231380859375,-1.2366412213740459,-225.66412213740458,56.2442748091603,-10.536881506347656,-0.2825157958984375,-0.9145850341796874,-31.450381679389313,80.67175572519083,18.763358778625953,0.0
11.8000009059906,-16.594211706542968,-4.632780212402343,-3.1387983764648437,12.274809160305344,-211.54198473282443,53.63358778625954,-11.195286962890624,0.06943184814453125,-0.8547299926757812,-28.946564885496183,76.87022900763358,23.282442748091604,0.0
11.810000658035278,-17.477672119140625,-4.402936853027343,-2.365471240234375,31.450381679389313,-203.48091603053436,46.44274809160305,-13.223175769042967,-2.0829554443359375,0.6081272216796875,-26.9618320610687,78.77862595419847,29.893129770992367,0.0
11.820000648498535,-18.057068920898438,-2.379836450195312,-0.34237083740234375,50.06106870229008,-185.86259541984734,43.87786259541985,-11.269507214355468,-0.9026140258789062,-0.7996633544921875,-22.35114503816794,71.87786259541984,28.977099236641223,0.0
11.830000638961792,-16.122553979492185,-1.5777788940429687,-0.9241618408203125,53.16030534351145,-178.73282442748092,38.717557251908396,-11.832144604492187,-3.2345664428710936,0.277727392578125,-7.9541984732824424,67.81679389312977,28.931297709923665,0.0
11.840000629425049,-13.982137695312499,-0.9026140258789062,-0.7038952880859375,45.93893129770992,-167.81679389312978,32.13740458015267,-7.625532287597656,-0.05027823486328125,-2.4205378784179685,-0.9618320610687023,60.38167938931298,20.458015267175572,0.0
11.850000858306885,-12.334926953124999,0.06464344482421874,-1.3455413330078123,31.770992366412212,-163.0229007633588,27.52671755725191,-7.845798840332031,-0.7541735229492187,-2.710236279296875,-13.526717557251908,74.29007633587786,20.793893129770993,0.0
11.860000848770142,-9.641450085449218,-0.622492431640625,-3.323151904296875,24.35114503816794,-155.46564885496184,28.061068702290076,-8.343792785644531,-2.5378537597656248,-2.068590234375,-1.2213740458015268,79.8473282442748,24.885496183206108,0.0
11.87000060081482,-7.235277416992187,0.8283937744140625,-3.1411925781249996,17.16030534351145,-141.54198473282443,23.31297709923664,-8.465897070312499,-1.2761094848632812,-3.5410242553710933,-0.7938931297709924,86.61068702290076,24.732824427480917,0.0
11.880000591278076,-3.028665100097656,-1.7597382202148437,-5.5090580200195305,25.358778625954198,-128.8091603053435,25.328244274809162,-6.507440112304687,0.6009446166992187,-5.351040710449219,-12.732824427480915,94.41221374045801,19.81679389312977,0.0
11.890000820159912,-4.005499377441406,-1.0342951171875,-4.304774584960938,33.770992366412216,-98.42748091603053,22.442748091603054,-7.747636572265624,0.5602431884765625,-4.7931917236328125,-27.954198473282442,111.78625954198473,19.389312977099237,0.0
11.900000810623169,0.17956512451171874,-3.7301661865234372,-7.584830859375,50.091603053435115,-74.03053435114504,22.198473282442748,-9.801861596679688,-1.1947066284179686,-3.246537451171875,-21.00763358778626,122.76335877862596,21.17557251908397,0.0
11.910000801086426,-4.587290380859375,0.7948749511718749,-4.2137949218749995,54.61068702290076,-40.74809160305343,18.091603053435115,-12.885593334960937,-5.097255334472656,0.023942016601562498,-14.427480916030534,134.5801526717557,23.34351145038168,0.0
11.920000314712524,-2.0542250244140625,-1.0486603271484374,-7.587225061035156,54.35114503816794,-30.27480916030534,17.068702290076335,-9.4618849609375,-2.839523168945312,-0.23223756103515625,1.083969465648855,129.63358778625954,16.061068702290076,0.0
11.93000054359436,-5.0014872680664055,1.6927005737304686,-5.585672473144531,58.778625954198475,-1.0076335877862594,18.610687022900763,-9.193734375,-2.844311572265625,0.9983820922851562,2.6564885496183206,125.52671755725191,14.366412213740459,0.0
11.940000534057617,-4.486733911132812,2.138022082519531,-5.214571215820312,47.11450381679389,8.717557251908397,20.442748091603054,-9.583989245605467,-0.7733271362304687,1.1348515869140625,24.015267175572518,107.93893129770993,12.854961832061068,0.0
11.950000762939453,-4.910507604980468,3.1603461914062496,-2.31758720703125,36.778625954198475,18.900763358778626,23.46564885496183,-11.367669482421874,-2.5665841796874997,4.280832568359375,23.022900763358777,102.2442748091603,15.664122137404581,0.0
11.96000051498413,-5.863399865722656,3.31357509765625,1.7645266235351562,3.49618320610687,11.969465648854962,24.30534351145038,-10.66856259765625,-1.3383587280273437,3.9336733276367184,37.81679389312977,82.53435114503817,14.793893129770993,0.0
11.970000505447388,-5.190629199218749,1.7669208251953124,3.0813375366210938,5.862595419847328,24.85496183206107,26.748091603053435,-10.594342346191405,-0.28969840087890625,3.73495458984375,27.633587786259543,69.12977099236642,13.694656488549619,0.0
11.980000734329224,-3.687070556640625,2.408566870117187,4.5322237426757805,-15.389312977099237,19.66412213740458,21.923664122137403,-11.858480822753906,-0.6464344482421874,4.836287353515624,12.091603053435115,60.595419847328245,11.145038167938932,0.0
11.990000247955322,-3.758896606445312,3.6439749267578123,6.387730029296875,-31.938931297709924,13.923664122137405,20.732824427480917,-10.982203015136719,-0.07422025146484375,4.290409374999999,0.030534351145038167,47.19083969465649,9.83206106870229,0.0
12.000000476837158,-3.9312791259765625,2.834734765625,8.288726147460936,-32.396946564885496,20.610687022900763,24.641221374045802,-11.233594189453123,-0.8355763793945312,4.122815258789062,-10.381679389312977,35.61832061068702,11.740458015267176,0.0
12.010000705718994,-4.422090466308593,2.442085693359375,9.03332286376953,-36.58015267175573,25.129770992366414,25.923664122137403,-10.31661495361328,-1.4508862060546874,4.170699291992188,-24.625954198473284,31.435114503816795,10.961832061068701,0.0
12.02000093460083,-3.5314474487304683,-0.36391865234375,7.912836486816405,-43.93893129770992,22.290076335877863,20.519083969465647,-10.101136804199218,-1.0917559570312498,3.641580725097656,-32.62595419847328,27.954198473282442,9.923664122137405,0.0
12.030000686645508,-4.192247106933594,-1.7238251953125,7.975085729980468,-19.6793893129771,37.786259541984734,9.938931297709924,-9.667786303710937,-1.3263877197265623,3.6559459350585937,-41.847328244274806,25.206106870229007,9.17557251908397,0.0
12.040000915527344,-1.9536685546875,-3.287238879394531,5.353434912109375,0.3053435114503817,37.06870229007634,-2.3969465648854964,-9.672574707031249,-0.8475473876953125,3.3494881225585935,-44.62595419847328,20.53435114503817,7.435114503816794,0.0
12.050000667572021,-3.6176387084960937,-0.7326257080078125,6.167463476562499,41.603053435114504,56.13740458015267,-11.877862595419847,-8.904035974121093,-1.2761094848632812,2.940079638671875,-55.63358778625954,18.198473282442748,6.900763358778626,0.0
12.060000658035278,-2.4061726684570313,1.85790048828125,4.115632653808594,40.47328244274809,56.50381679389313,-23.374045801526716,-9.97184991455078,-1.7429788085937499,3.227383837890625,-62.42748091603053,16.3206106870229,6.412213740458015,0.0
12.070000648498535,-2.8131869506835936,4.46279189453125,1.4030021728515625,23.709923664122137,59.19083969465649,-29.770992366412212,-9.682151513671874,-2.5641899780273434,3.0837317382812497,-70.03053435114504,13.679389312977099,5.7251908396946565,0.0
12.080000638961792,-1.6807295654296874,3.4165257690429685,-4.73094248046875,0.8549618320610687,60.16793893129771,-27.66412213740458,-10.998962426757812,-3.5697546752929687,4.036623999023437,-73.66412213740458,13.099236641221374,5.221374045801527,0.0
12.09000039100647,-7.275978845214843,3.0262708984374997,-5.487510205078125,-21.49618320610687,73.08396946564885,-21.87786259541985,-10.443507641601562,-3.7924154296875,2.6791116577148437,-82.53435114503817,3.618320610687023,0.6106870229007634,0.0
12.100000858306885,-14.623783740234375,-0.201112939453125,1.0941501586914062,-5.923664122137405,77.37404580152672,-11.816793893129772,-13.989320300292968,-6.519411120605469,5.145139367675781,-75.74045801526718,2.2900763358778624,4.244274809160306,0.0
12.110000371932983,-23.951593408203124,-5.2456958374023435,13.254300390625,55.52671755725191,88.77862595419847,2.2748091603053435,-13.239935180664062,-4.565742565917969,2.269703173828125,-70.99236641221374,-21.587786259541986,-3.5572519083969465,0.0
12.12000060081482,-26.836606408691406,-4.110844250488281,14.166491223144531,98.07633587786259,71.78625954198473,-1.6946564885496183,-14.324508532714843,-6.263231542968749,3.2513258544921873,-64.80916030534351,-28.717557251908396,-3.3740458015267176,0.0
12.130001068115234,-29.348123950195312,5.971138940429687,11.549628808593749,82.7175572519084,54.900763358778626,-14.076335877862595,-14.774618444824219,-8.192958081054687,2.7437551025390623,-32.70229007633588,-40.12213740458015,-5.465648854961832,0.0
12.140000581741333,-21.557391748046875,7.024587670898437,6.203376501464843,25.17557251908397,17.862595419847327,-17.603053435114504,-17.839196569824217,-10.828974108886719,5.7508723876953125,8.473282442748092,-51.80152671755725,-6.488549618320611,0.0
12.150000810623169,-14.331691137695312,5.42047255859375,-0.08858546142578125,-24.213740458015266,-2.213740458015267,-17.282442748091604,-14.947000964355468,-4.491522314453125,-1.3024457031249999,44.61068702290076,-85.26717557251908,-16.595419847328245,0.0
12.160000562667847,-5.1140147460937495,0.3806780639648437,-7.378929516601562,-48.595419847328245,-7.236641221374046,-14.259541984732824,-17.8128603515625,-2.645592834472656,-0.6272808349609375,55.66412213740458,-90.93129770992367,-17.954198473282442,0.0
12.170001029968262,-1.1133037719726562,-3.134009973144531,-8.635885388183594,-36.2442748091603,10.122137404580153,-10.900763358778626,-14.405911389160156,1.2378022583007813,-3.4261025756835934,57.465648854961835,-96.82442748091603,-20.15267175572519,0.0
12.18000054359436,0.17238251953125,-5.193023400878906,-9.234435803222656,-21.587786259541986,28.366412213740457,-15.893129770992367,-14.104241979980468,3.9145197143554684,-5.533000036621093,54.70229007633588,-97.43511450381679,-16.30534351145038,0.0
12.190000772476196,-2.1930887207031247,-4.505887524414062,-8.398859423828124,10.320610687022901,65.09923664122137,-23.419847328244273,-13.881581225585936,3.1459809814453124,-5.7891796142578125,46.79389312977099,-90.21374045801527,-11.145038167938932,0.0
12.200000524520874,-4.972756848144531,-2.2266075439453124,-7.271190441894531,30.33587786259542,89.06870229007633,-31.389312977099237,-11.614272253417967,3.1411925781249996,-5.872976672363281,35.587786259541986,-81.25190839694656,-10.366412213740459,0.0
12.21000051498413,-9.466673364257812,1.68551796875,-4.283226770019531,38.56488549618321,107.74045801526718,-36.94656488549618,-11.168950744628905,1.2401964599609374,-4.335899206542969,30.885496183206108,-71.86259541984732,-9.83206106870229,0.0
12.220000267028809,-13.057975854492186,4.350264416503906,-0.6344634399414062,30.946564885496183,117.16030534351145,-37.63358778625954,-10.613495959472656,1.0223241088867188,-4.608838195800781,27.893129770992367,-63.70992366412214,-11.893129770992367,0.0
12.230000495910645,-15.490484741210937,4.546588952636719,2.511517541503906,12.65648854961832,114.44274809160305,-33.11450381679389,-10.670956799316405,3.028665100097656,-4.917690209960937,20.48854961832061,-50.62595419847328,-13.374045801526718,0.0
12.240000247955322,-13.117830895996093,3.8690298828125,3.0142998901367184,-7.145038167938932,100.42748091603053,-30.061068702290076,-10.251971508789062,3.306392492675781,-3.8690298828125,8.870229007633588,-42.13740458015267,-14.091603053435115,0.0
12.250000715255737,-11.48498536376953,1.6615759521484375,3.258508459472656,-18.778625954198475,87.41984732824427,-28.366412213740457,-10.793061083984375,2.0542250244140625,-2.085349645996094,2.931297709923664,-36.732824427480914,-10.0,0.0
12.260000944137573,-10.64222637939453,0.22744915771484372,2.4564509033203126,-22.85496183206107,75.29770992366412,-28.366412213740457,-8.966285217285156,2.8850130004882812,-2.6096798095703124,-1.786259541984733,-42.01526717557252,-8.763358778625955,0.0
12.270000457763672,-8.621520178222656,0.201112939453125,1.7501614135742187,-19.66412213740458,64.90076335877863,-27.938931297709924,-9.260772021484375,2.7940333374023436,-1.3934253662109375,-9.206106870229007,-38.87022900763359,-5.114503816793893,0.0
12.280000686645508,-10.17056865234375,0.6536170532226562,2.2553379638671873,-13.969465648854962,58.94656488549618,-26.885496183206108,-9.938331091308592,0.4429273071289062,0.6751648681640625,-4.213740458015267,-35.31297709923664,0.22900763358778625,0.0
12.290000677108765,-9.414000927734374,-0.05985504150390625,1.22583125,-11.908396946564885,51.80152671755725,-25.083969465648856,-8.894459167480468,-0.07422025146484375,0.0909796630859375,6.198473282442748,-45.17557251908397,-1.9083969465648856,0.0
12.3000009059906,-10.103531005859374,1.0199299072265624,1.4891934326171874,-0.21374045801526717,53.81679389312977,-22.702290076335878,-9.284714038085937,-1.3144167114257812,0.7661445312499999,19.49618320610687,-46.79389312977099,-2.519083969465649,0.0
12.310000658035278,-7.996633544921875,-0.033518823242187495,-0.05985504150390625,4.0,53.00763358778626,-19.709923664122137,-7.663839514160156,-1.350329736328125,0.34715924072265625,34.88549618320611,-54.916030534351144,-7.343511450381679,0.0
12.320000648498535,-9.636661682128906,1.8148048583984373,1.4604630126953124,-0.916030534351145,51.6793893129771,-19.6793893129771,-9.81862100830078,-1.9656395629882812,0.29448680419921874,51.6793893129771,-59.465648854961835,-8.854961832061068,0.0
12.330000638961792,-10.785878479003905,2.5139117431640625,2.157175695800781,-15.34351145038168,50.06106870229008,-20.671755725190838,-8.678981018066406,-0.05985504150390625,-0.7493851196289062,59.267175572519086,-70.74809160305344,-11.633587786259541,0.0
12.34000039100647,-12.53843409423828,2.461239306640625,2.9975404785156248,-13.32824427480916,53.6793893129771,-19.587786259541986,-9.042899670410156,-0.3806780639648437,0.13168109130859373,45.7557251908397,-65.14503816793894,-9.679389312977099,0.0
12.350000619888306,-10.685322009277343,0.5913678100585937,1.7597382202148437,-30.80916030534351,41.099236641221374,-17.0381679389313,-8.238447912597655,0.7852981445312499,-1.0869675537109373,44.595419847328245,-72.56488549618321,-10.549618320610687,0.0
12.360000610351562,-13.642161059570311,3.88818349609375,3.9049429077148434,-21.770992366412212,47.969465648854964,-19.068702290076335,-10.180145458984374,-0.9457096557617187,0.6464344482421874,30.702290076335878,-65.34351145038168,-6.3816793893129775,0.0
12.37000060081482,-10.479420666503906,0.9792284790039062,1.8195932617187498,-33.37404580152672,41.45038167938932,-16.061068702290076,-8.78432589111328,0.3950432739257812,-0.5291185668945312,26.427480916030536,-71.86259541984732,-9.648854961832061,0.0
12.380000352859497,-13.338097448730467,5.667075329589843,3.787627026367187,-44.778625954198475,30.137404580152673,-14.854961832061068,-10.637437976074217,-2.185906115722656,1.4508862060546874,13.664122137404581,-63.63358778625954,-7.312977099236641,0.0
12.390000820159912,-10.587159741210938,1.9919757812499999,1.6400281372070311,-39.61832061068702,30.442748091603054,-9.083969465648854,-9.634267480468749,-1.16837041015625,0.45010991210937495,14.351145038167939,-70.16793893129771,-11.358778625954198,0.0
12.40000033378601,-11.17852755126953,2.9975404785156248,1.3311761230468748,-42.3206106870229,24.80916030534351,-7.221374045801527,-11.200075366210937,-3.0621839233398433,1.8243816650390623,11.129770992366412,-66.83969465648855,-11.068702290076336,0.0
12.410000801086426,-10.893617553710937,2.214636535644531,1.3168109130859373,-47.57251908396947,21.17557251908397,-5.877862595419847,-10.448296044921875,-2.7461493041992187,1.438915197753906,23.129770992366414,-73.90839694656489,-15.709923664122137,0.0
12.420000553131104,-10.637437976074217,1.8507178833007811,1.3359645263671873,-46.35114503816794,18.595419847328245,-5.343511450381679,-10.58476553955078,-2.3511060302734372,1.7357962036132812,22.977099236641223,-70.87022900763358,-17.770992366412212,0.0
12.430001020431519,-9.993397729492187,1.2042834350585936,1.6400281372070311,-46.213740458015266,17.96946564885496,-2.2290076335877864,-10.651803186035156,-1.7597382202148437,1.8028338500976562,35.9236641221374,-74.45801526717557,-19.66412213740458,0.0
12.440000534057617,-10.235212097167969,1.1133037719726562,1.1085153686523437,-39.61832061068702,14.259541984732824,0.04580152671755725,-10.237606298828124,-1.2018892333984375,2.1906945190429687,34.213740458015266,-71.86259541984732,-21.16030534351145,0.0
12.450000762939453,-10.302249743652343,1.1180921752929687,1.5873557006835937,-35.847328244274806,16.106870229007633,3.2977099236641223,-11.109095703125,-0.9337386474609375,2.4301146850585935,43.19083969465649,-71.6030534351145,-19.022900763358777,0.0
12.46000051498413,-10.225635290527343,0.47644613037109373,1.3527239379882812,-30.9618320610687,14.15267175572519,3.8931297709923665,-9.81862100830078,0.6248866333007812,1.0199299072265624,40.54961832061068,-73.16030534351145,-21.297709923664122,0.0
12.470000505447388,-10.029310754394531,1.1516109985351561,0.852335791015625,-25.358778625954198,15.664122137404581,5.648854961832061,-9.227253198242186,0.35673604736328124,1.2234370483398436,34.045801526717554,-64.30534351145039,-17.984732824427482,0.0
12.480000495910645,-10.110713610839843,0.26336218261718747,0.8786720092773437,-27.893129770992367,13.022900763358779,5.541984732824427,-9.888052856445311,0.20829554443359374,1.2042834350585936,37.20610687022901,-62.29007633587786,-14.106870229007633,0.0
12.49000072479248,-10.216058483886718,0.22266075439453123,0.373495458984375,-17.83206106870229,14.83969465648855,4.244274809160306,-6.828263134765624,1.5921441040039062,-0.612915625,21.328244274809162,-60.534351145038165,-15.877862595419847,0.0
12.500000476837158,-10.43871923828125,0.4908113403320312,0.4836287353515625,-18.80916030534351,14.351145038167939,5.038167938931298,-6.854599353027344,1.2210428466796874,-0.06464344482421874,5.603053435114504,-48.900763358778626,-13.435114503816793,0.0
12.510000705718994,-10.386046801757812,0.239420166015625,0.6392518432617187,-14.67175572519084,17.099236641221374,4.366412213740458,-8.080430603027343,0.24660277099609373,0.5698199951171875,-0.9770992366412213,-40.83969465648855,-8.488549618320612,0.0
12.52000093460083,-10.761936462402343,0.1388636962890625,0.5315127685546874,-12.01526717557252,16.50381679389313,2.6717557251908395,-8.853757739257812,-0.8810662109374999,1.0534487304687499,-3.0229007633587788,-34.48854961832061,-8.061068702290076,0.0
12.530000686645508,-10.079588989257813,-0.181959326171875,-0.28012159423828126,-3.114503816793893,19.709923664122137,2.2442748091603053,-8.21690009765625,-0.3854664672851562,1.0175357055664063,-5.251908396946565,-30.366412213740457,-9.816793893129772,0.0
12.540000915527344,-10.793061083984375,-0.07900865478515624,0.08379705810546874,-5.465648854961832,21.84732824427481,0.48854961832061067,-8.243236315917969,-0.7110778930664062,1.6041151123046875,-5.267175572519084,-24.99236641221374,-9.053435114503817,0.0
12.550000429153442,-8.719682446289061,-1.0103531005859374,-1.024718310546875,13.526717557251908,29.61832061068702,0.030534351145038167,-8.355763793945313,-0.5315127685546874,1.8195932617187498,-4.2748091603053435,-22.83969465648855,-8.549618320610687,0.0
12.560000658035278,-7.022193469238281,0.33039982910156246,-1.1707646118164061,-3.5419847328244276,20.977099236641223,-2.9618320610687023,-8.015787158203125,-0.5506663818359374,1.7741034301757812,-5.66412213740458,-21.87786259541985,-9.34351145038168,0.0
12.570000410079956,-9.672574707031249,-1.465251416015625,-1.0319009155273438,22.625954198473284,34.0,-4.6106870229007635,-8.358157995605469,-0.41419688720703124,1.9129671264648436,-7.572519083969466,-18.717557251908396,-8.549618320610687,0.0
12.580000638961792,-8.511386901855468,-1.2593500732421874,-0.8714894042968749,33.70992366412214,43.00763358778626,-6.488549618320611,-7.960720520019531,-0.4836287353515625,1.5777788940429687,-10.473282442748092,-17.786259541984734,-9.297709923664122,0.0
12.590000867843628,-9.435548742675781,-0.06943184814453125,0.09576806640624999,27.6793893129771,45.02290076335878,-14.106870229007633,-8.580818749999999,-1.2856862915039062,1.7334020019531249,-8.50381679389313,-15.770992366412214,-8.916030534351146,0.0
12.600000858306885,-10.383652600097655,1.6041151123046875,0.26815058593749996,25.954198473282442,44.961832061068705,-18.015267175572518,-8.429984045410155,-1.5921441040039062,1.4030021728515625,-8.870229007633588,-14.51908396946565,-9.709923664122137,0.0
12.610000610351562,-10.486603271484375,2.233790148925781,0.354341845703125,18.03053435114504,43.083969465648856,-16.580152671755727,-8.410830432128906,-1.7310078002929687,1.158793603515625,-7.572519083969466,-13.221374045801527,-10.65648854961832,0.0
12.62000060081482,-10.527304699707031,2.6862942626953124,0.6368576416015624,11.755725190839694,41.74045801526717,-14.610687022900763,-7.682993127441406,-1.2761094848632812,1.005564697265625,-7.786259541984733,-11.86259541984733,-11.694656488549619,0.0
12.630001068115234,-10.225635290527343,2.750937707519531,0.4429273071289062,3.5419847328244276,38.33587786259542,-12.687022900763358,-8.59278975830078,-1.9033903198242186,1.3718775512695311,-5.511450381679389,-9.17557251908397,-10.396946564885496,0.0
12.640000581741333,-10.168174450683592,2.2840683837890623,0.23223756103515625,1.6030534351145038,37.17557251908397,-11.84732824427481,-7.908048083496094,-1.7262193969726563,1.3455413330078123,-5.145038167938932,-7.404580152671755,-11.587786259541986,0.0
12.650001049041748,-10.189722265624999,2.6144682128906247,0.612915625,-4.763358778625954,38.396946564885496,-11.221374045801527,-8.212111694335936,-1.9488801513671874,1.5729904907226562,-1.7099236641221374,-5.022900763358779,-11.34351145038168,0.0
12.660000562667847,-9.746794958496093,2.4013842651367185,0.43574470214843747,-11.038167938931299,35.37404580152672,-10.290076335877863,-8.224082702636718,-1.7262193969726563,1.6160861206054686,1.3129770992366412,-3.8931297709923665,-11.435114503816793,0.0
12.670000791549683,-10.632649572753905,1.189918225097656,0.7757213378906249,-12.458015267175572,37.63358778625954,-9.32824427480916,-8.585607153320312,-1.5275006591796874,1.7477672119140624,4.076335877862595,-1.7404580152671756,-10.67175572519084,0.0
12.68000054359436,-9.830592016601562,0.4572925170898437,0.7972691528320313,-9.465648854961833,39.725190839694655,-8.702290076335878,-7.999027746582031,-0.45010991210937495,1.4724340209960938,3.7709923664122136,-0.8396946564885496,-11.358778625954198,0.0
12.690000772476196,-9.720458740234374,0.4261678955078125,1.1037269653320312,-10.641221374045802,40.229007633587784,-10.183206106870228,-7.879317663574218,0.5123591552734374,1.9752163696289062,-5.022900763358779,7.114503816793893,-10.900763358778626,0.0
12.700000524520874,-8.961496813964843,-0.507570751953125,0.70868369140625,-7.893129770992366,40.74809160305343,-10.931297709923664,-7.481880187988281,0.6847416748046875,1.6400281372070311,-15.099236641221374,13.557251908396946,-7.969465648854962,0.0
12.71000051498413,-8.796296899414061,-0.076614453125,0.36631285400390623,0.2748091603053435,42.54961832061068,-12.045801526717558,-8.042123376464843,-1.3431471313476562,2.3247698120117186,-18.549618320610687,17.450381679389313,-4.366412213740458,0.0
12.720000505447388,-9.873687646484374,0.143652099609375,1.0989385620117187,2.3206106870229006,40.94656488549618,-14.900763358778626,-9.485826977539062,-3.2609026611328122,3.0909143432617188,-6.5038167938931295,14.259541984732824,-2.2900763358778624,0.0
12.730000734329224,-9.840168823242188,0.2705447875976562,1.8028338500976562,9.083969465648854,36.83969465648855,-17.022900763358777,-7.414842541503906,-1.886630908203125,2.3535002319335936,-0.8396946564885496,10.16793893129771,-5.923664122137405,0.0
12.740000486373901,-12.12423720703125,1.8938135131835936,3.9264907226562498,4.809160305343512,31.099236641221374,-17.480916030534353,-6.497863305664062,-0.699106884765625,1.678335363769531,-0.6412213740458015,10.045801526717558,-6.793893129770993,0.0
12.750000476837158,-11.769895361328125,3.318363500976562,5.6215854980468745,0.8854961832061069,16.946564885496183,-15.267175572519085,-5.9017070922851556,-0.19632453613281248,1.16837041015625,-6.183206106870229,14.702290076335878,-4.6106870229007635,0.0
12.760000467300415,-12.227187878417968,2.7581203125,6.505045910644531,-4.442748091603053,-2.381679389312977,-10.351145038167939,-5.647921716308593,0.105344873046875,0.6536170532226562,-12.83969465648855,18.625954198473284,-1.4961832061068703,0.0
12.770000457763672,-11.444283935546874,0.7565677246093749,6.461950280761719,-3.6030534351145036,-23.954198473282442,-6.290076335877862,-5.485116003417969,-0.28969840087890625,-0.584185205078125,-17.81679389312977,22.427480916030536,2.1068702290076335,0.0
12.780000925064087,-11.504138977050781,2.1787235107421874,8.664615808105468,-0.0916030534351145,-40.74809160305343,-7.709923664122138,-5.556942053222656,-0.229843359375,-1.7764976318359373,-16.900763358778626,29.129770992366414,6.106870229007634,0.0
12.790000915527344,-12.057199560546874,2.7437551025390623,11.662156286621093,-13.801526717557252,-68.70229007633588,-9.954198473282442,-6.9719152343749995,0.6296750366210937,-1.455674609375,-14.229007633587786,35.00763358778626,7.801526717557252,0.0
12.800000667572021,-13.898340637207031,4.853046765136718,15.380351464843748,-14.13740458015267,-97.08396946564885,-7.6183206106870225,-10.532093103027343,0.086191259765625,1.649604943847656,-17.96946564885496,45.98473282442748,8.351145038167939,0.0
12.810000658035278,-13.541604589843748,4.7022120605468745,16.8168724609375,-3.816793893129771,-135.61832061068702,3.1603053435114505,-12.725181823730468,-1.5490484741210937,2.6384102294921874,-20.870229007633586,45.69465648854962,5.526717557251908,0.0
12.820000648498535,-15.409081884765625,6.756437084960937,18.040309509277343,8.992366412213741,-167.45038167938932,12.290076335877863,-15.550339782714843,-3.897760302734375,4.240131140136718,-22.458015267175572,46.778625954198475,2.4732824427480917,0.0
12.830013990402222,-15.425841296386718,6.574477758789062,16.4338001953125,10.961832061068701,-204.4732824427481,19.52671755725191,-16.876727502441405,-5.932831713867187,5.829881042480468,-18.610687022900763,48.67175572519084,1.0687022900763359,0.0
12.840000629425049,-16.634913134765625,4.915296008300781,13.567940808105467,19.17557251908397,-230.8091603053435,26.99236641221374,-16.359579943847656,-5.446808776855469,4.745307690429687,8.488549618320612,39.7557251908397,5.770992366412214,0.0
12.850000381469727,-15.33486163330078,-0.19871873779296872,4.1563340820312495,18.977099236641223,-255.9236641221374,29.66412213740458,-12.459425439453124,0.201112939453125,2.1356278808593747,28.106870229007633,30.580152671755727,9.19083969465649,0.0
12.860000610351562,-17.994819677734373,-0.7972691528320313,-0.7445967163085937,16.35114503816794,-254.83969465648855,32.36641221374046,-8.537723120117187,2.607285607910156,1.3958195678710936,20.916030534351144,33.786259541984734,13.083969465648854,0.0
12.87000060081482,-18.588581689453125,-2.8945898071289062,-4.216189123535156,5.282442748091603,-253.05343511450383,40.3206106870229,-7.898471276855468,1.7788918334960937,0.737414111328125,18.50381679389313,33.66412213740458,17.862595419847327,0.0
12.880000591278076,-19.191920507812497,-6.9719152343749995,-4.3263223999023435,30.427480916030536,-238.01526717557252,46.38167938931298,-6.301538769531249,2.29843359375,-0.8643067993164062,3.6793893129770994,33.11450381679389,16.885496183206108,0.0
12.890000820159912,-16.594211706542968,-8.250418920898436,-4.836287353515624,60.732824427480914,-222.44274809160305,46.30534351145038,-7.625532287597656,0.8834604125976562,-1.6065093139648436,-11.755725190839694,42.48854961832061,17.709923664122137,0.0
12.900012493133545,-13.500903161621093,-7.735665563964844,-5.2073886108398435,90.74809160305344,-195.38931297709922,36.94656488549618,-9.91438907470703,-2.269703173828125,-1.0199299072265624,-20.213740458015266,53.45038167938932,22.290076335877863,0.0
12.910001039505005,-13.148955517578123,-3.404554760742187,-3.5529952636718747,103.98473282442748,-167.86259541984734,24.717557251908396,-9.574412438964844,-3.1316157714843746,-2.9951462768554684,-16.946564885496183,44.54961832061068,15.099236641221374,0.0
12.920000791549683,-13.067552661132812,1.5035586425781249,-0.33039982910156246,97.87786259541984,-151.98473282442748,13.801526717557252,-11.087547888183593,-2.4444798950195312,-2.6288334228515624,-26.106870229007633,58.76335877862596,12.427480916030534,0.0
12.93000078201294,-10.307038146972655,1.1875240234375,-0.4572925170898437,86.51908396946565,-143.98473282442748,15.34351145038168,-11.044452258300781,-4.80755693359375,-2.090138049316406,-14.610687022900763,61.49618320610687,12.83969465648855,0.0
12.940000534057617,-8.959102612304687,1.6304513305664061,0.0909796630859375,75.08396946564885,-132.94656488549617,12.396946564885496,-8.020575561523437,-1.8100164550781248,-4.350264416503906,-12.82442748091603,57.38931297709924,8.305343511450381,0.0
12.950000762939453,-8.825027319335938,4.115632653808594,0.6751648681640625,61.587786259541986,-123.98473282442748,8.961832061068701,-9.682151513671874,-2.906560815429687,-2.6240450195312497,-15.19083969465649,76.29007633587786,10.427480916030534,0.0
12.96000051498413,-8.748412866210938,4.908113403320312,0.6967126831054687,32.42748091603053,-119.52671755725191,11.770992366412214,-9.540893615722656,-2.4947581298828125,-2.4061726684570313,-1.5267175572519085,84.56488549618321,11.98473282442748,0.0
12.970000505447388,-6.114791040039062,2.3032219970703123,-2.1212626708984375,25.450381679389313,-115.54198473282443,18.061068702290076,-9.246406811523437,-2.1883003173828124,-2.4205378784179685,9.17557251908397,87.46564885496183,13.282442748091603,0.0
12.980000495910645,-4.747701892089843,0.4477157104492187,-2.808398547363281,27.96946564885496,-95.0381679389313,24.977099236641223,-6.983886242675781,0.7038952880859375,-3.42849677734375,7.709923664122138,93.2824427480916,9.404580152671755,0.0
12.990000486373901,-7.563283044433593,3.153163586425781,-1.1013327636718748,22.0,-72.68702290076335,26.03053435114504,-9.775525378417969,0.51714755859375,-2.0638018310546875,4.198473282442748,108.87022900763358,13.83206106870229,0.0
13.000000715255737,1.20667763671875,-2.3367408203125,-7.9463553100585935,29.236641221374047,-68.80916030534351,35.41984732824427,-7.491456994628906,1.7022773803710936,-3.6750995483398436,-1.984732824427481,111.17557251908397,13.84732824427481,0.0
13.010000705718994,-3.8570588745117185,1.5418658691406248,-3.5673604736328124,28.625954198473284,-29.770992366412212,30.900763358778626,-10.955866796875,-0.6751648681640625,-0.2346317626953125,-20.977099236641223,132.0916030534351,20.763358778625953,0.0
13.02000117301941,-3.1004911499023438,1.438915197753906,-5.513846423339843,11.389312977099237,-27.282442748091604,30.106870229007633,-10.972626208496093,-2.597708801269531,0.7685387329101562,-9.389312977099237,133.70992366412213,23.099236641221374,0.0
13.030000686645508,-5.755660791015624,2.1595698974609374,-4.163516687011718,5.557251908396947,-8.01526717557252,32.35114503816794,-12.445060229492187,-4.680664245605469,1.5729904907226562,5.282442748091603,127.69465648854961,27.64885496183206,0.0
13.040000915527344,-7.050923889160156,1.905784521484375,-2.360682836914062,-9.450381679389313,2.366412213740458,34.25954198473283,-9.203311181640624,-2.0781670410156248,-0.7924807495117187,31.64885496183206,105.55725190839695,21.51145038167939,0.0
13.050000667572021,-4.8889597900390624,0.5099649536132812,-1.66636435546875,-5.679389312977099,7.816793893129771,40.16793893129771,-9.943119494628906,-1.5490484741210937,0.062249243164062495,44.48854961832061,95.8473282442748,18.106870229007633,0.0
13.060000658035278,-5.820304235839844,-0.3495534423828125,2.616862414550781,-22.33587786259542,5.923664122137405,39.52671755725191,-8.499415893554687,-0.05027823486328125,0.239420166015625,47.954198473282446,87.16030534351145,15.404580152671755,0.0
13.070000648498535,-3.248931652832031,-2.3726538452148436,2.8323405639648436,-19.633587786259543,15.893129770992367,34.93129770992366,-10.218452685546874,2.205059729003906,-0.737414111328125,37.93893129770992,81.98473282442748,15.236641221374045,0.0
13.080000638961792,-4.240131140136718,-0.13168109130859373,4.383783239746093,-33.19083969465649,13.572519083969466,22.412213740458014,-10.955866796875,2.250549560546875,1.6998831787109374,13.572519083969466,90.85496183206106,16.549618320610687,0.0
13.090000867843628,-6.373364819335937,1.9009961181640624,6.926425402832031,-39.41984732824427,11.053435114503817,17.297709923664122,-10.144232434082031,1.2880804931640624,2.3965958618164063,-3.1755725190839694,88.16793893129771,19.862595419847327,0.0
13.100000858306885,-3.0406361083984375,-0.6655880615234374,5.999869360351562,-22.50381679389313,6.961832061068702,21.51145038167939,-11.700463513183593,-1.1611878051757811,4.091690637207031,-12.412213740458014,86.47328244274809,25.358778625954198,0.0
13.110000610351562,-2.6575638427734374,-0.9744400756835937,7.343016491699219,6.229007633587786,20.83969465648855,19.954198473282442,-11.494562170410155,-1.7405846069335937,3.892971899414062,-18.671755725190838,74.3206106870229,24.595419847328245,0.0
13.12000060081482,-1.675941162109375,-2.269703173828125,6.967126831054687,17.374045801526716,24.564885496183205,12.488549618320612,-11.994950317382811,-2.114080065917969,3.8666356811523435,-30.977099236641223,68.83969465648855,21.786259541984734,0.0
13.130000591278076,-3.9791631591796874,-0.0909796630859375,8.169016064453125,35.45038167938932,42.93129770992366,5.358778625954199,-11.623849060058593,-2.7150246826171873,4.594472985839843,-39.725190839694655,56.85496183206107,18.15267175572519,0.0
13.140000581741333,-2.645592834472656,-1.0797849487304687,5.547365246582031,33.11450381679389,44.717557251908396,-2.0610687022900764,-12.291831323242187,-3.1076737548828124,6.217741711425781,-44.93129770992366,50.030534351145036,16.82442748091603,0.0
13.150000810623169,-6.241683728027343,2.7629087158203123,6.48589229736328,42.0,56.900763358778626,-7.709923664122138,-9.6917283203125,-3.7134067749023436,5.106832141113281,-51.099236641221374,37.38931297709924,12.793893129770993,0.0
13.160000562667847,-6.287173559570312,5.044582897949218,4.802768530273437,22.748091603053435,49.52671755725191,-12.610687022900763,-10.158597644042969,-4.036623999023437,4.340687609863281,-51.099236641221374,27.64885496183206,8.916030534351146,0.0
13.170000791549683,-6.210559106445312,7.074865905761718,3.239354846191406,2.854961832061069,48.97709923664122,-14.396946564885496,-10.026916552734374,-3.907337109375,3.7612908081054686,-59.55725190839695,22.33587786259542,7.083969465648855,0.0
13.180000305175781,-4.153939880371094,4.453215087890625,-0.277727392578125,-18.35114503816794,42.3206106870229,-12.854961832061068,-11.360486877441405,-4.340687609863281,3.778050219726562,-61.00763358778626,21.404580152671755,6.015267175572519,0.0
13.190000772476196,-3.303998291015625,3.900154504394531,-2.6001030029296874,-17.251908396946565,52.152671755725194,-10.366412213740459,-10.304643945312499,-3.284844677734375,3.6343981201171873,-69.2824427480916,17.31297709923664,5.022900763358779,0.0
13.200000524520874,-6.021417175292968,0.4381389038085937,-3.296815686035156,-34.29007633587786,58.0763358778626,-9.17557251908397,-12.267889306640624,-2.360682836914062,2.4851813232421875,-64.77862595419847,11.633587786259541,5.984732824427481,0.0
13.210000276565552,-14.015656518554687,-1.1659762084960936,5.073313317871094,-8.335877862595419,73.26717557251908,-5.145038167938932,-12.911929553222656,-3.6487633300781246,2.051830822753906,-63.98473282442748,3.572519083969466,7.923664122137405,0.0
13.220000267028809,-21.614852587890624,-2.422932080078125,15.308525415039062,34.091603053435115,76.67175572519083,0.5801526717557252,-13.893552233886718,-3.9743747558593747,2.2840683837890623,-63.57251908396947,-7.32824427480916,4.442748091603053,0.0
13.230000495910645,-22.12721174316406,-3.3446997192382812,12.823344091796875,61.93893129770992,61.70992366412214,-0.7022900763358778,-15.962142468261717,-5.942408520507812,4.857835168457031,-56.595419847328245,-15.374045801526718,4.931297709923665,0.0
13.240000486373901,-25.297134741210936,5.521029028320312,10.16338604736328,47.404580152671755,49.12977099236641,-10.030534351145038,-15.971719274902343,-7.850587243652344,5.293579870605469,-27.862595419847327,-40.54961832061068,1.7099236641221374,0.0
13.250000238418579,-20.453664782714842,7.7763669921875,3.909731311035156,-2.3969465648854964,21.557251908396946,-13.648854961832061,-14.240711474609375,-3.5506010620117183,2.4516625,-16.015267175572518,-69.25190839694656,-11.145038167938932,0.0
13.260000944137573,-12.322955944824217,5.947196923828125,-2.379836450195312,-62.534351145038165,5.267175572519084,-10.748091603053435,-14.803348864746093,-0.7445967163085937,1.9512743530273435,-25.81679389312977,-81.38931297709924,-17.053435114503817,0.0
13.27000093460083,-1.407790576171875,-3.1196447631835937,-8.073247998046874,-62.19847328244275,9.221374045801527,-4.641221374045801,-17.377115649414062,-4.0988732421875,3.287238879394531,-3.66412213740458,-86.04580152671755,-10.427480916030534,0.0
13.280000925064087,2.138022082519531,-7.644685900878906,-9.65342109375,-39.55725190839695,23.34351145038168,-12.458015267175572,-15.229516760253905,-2.0829554443359375,0.9600748657226562,24.458015267175572,-110.76335877862596,-12.366412213740459,0.0
13.290000677108765,-0.47884033203125,-7.40526573486328,-8.695740429687499,-10.549618320610687,54.51908396946565,-27.938931297709924,-13.263877197265625,3.5984850952148437,-4.292803576660156,29.96946564885496,-125.0381679389313,-19.587786259541986,0.0
13.300001382827759,-4.151545678710937,-2.7078420776367187,-7.048529687499999,18.732824427480917,81.92366412213741,-38.152671755725194,-12.80658468017578,4.88417138671875,-6.524199523925781,22.85496183206107,-118.50381679389314,-21.480916030534353,0.0
13.310000658035278,-8.755595471191405,3.0550013183593747,-4.405331054687499,30.290076335877863,103.00763358778626,-43.80152671755725,-12.540828295898438,3.8857892944335934,-6.514622717285156,8.564885496183207,-102.4885496183206,-16.80916030534351,0.0
13.320000410079956,-12.404358801269531,6.0142345703124995,-1.7118541870117185,17.022900763358777,109.6793893129771,-40.94656488549618,-13.460201733398437,3.438073583984375,-5.717353564453124,4.870229007633588,-91.45038167938931,-11.694656488549619,0.0
13.330000638961792,-14.736311218261719,7.513004809570312,0.5722141967773438,-6.076335877862595,108.16793893129771,-31.083969465648856,-11.774683764648437,2.6503812377929687,-5.085284326171875,-6.1679389312977095,-80.94656488549619,-7.358778625954199,0.0
13.340000629425049,-16.213533642578124,7.582436657714843,3.7900212280273435,-29.282442748091604,100.07633587786259,-23.66412213740458,-10.644620581054687,1.9632453613281249,-5.0757075195312495,-16.015267175572518,-64.30534351145039,-6.519083969465649,0.0
13.350000619888306,-13.692439294433592,4.4005426513671875,3.342305517578125,-51.64885496183206,83.14503816793894,-15.954198473282442,-11.992556115722655,-0.033518823242187495,-2.059013427734375,-19.64885496183206,-46.274809160305345,-3.2519083969465647,0.0
13.360000610351562,-11.58075343017578,1.8052280517578123,2.73896669921875,-58.74809160305343,65.3587786259542,-10.335877862595419,-12.138602416992187,-2.023100402832031,-0.9696516723632812,-4.076335877862595,-52.67175572519084,-5.099236641221374,0.0
13.37000060081482,-9.581595043945311,-0.8978256225585937,1.9656395629882812,-51.41984732824427,57.87786259541985,-11.511450381679388,-11.631031665039062,-1.9321207397460936,-0.6727706665039062,19.84732824427481,-62.76335877862596,-7.648854961832061,0.0
13.380000591278076,-8.894459167480468,-2.446874096679687,1.448492004394531,-36.0763358778626,55.603053435114504,-12.778625954198473,-10.510545288085936,0.70868369140625,-1.0749965454101562,35.603053435114504,-72.16793893129771,-13.206106870229007,0.0
13.390000820159912,-6.835445739746094,-1.8339584716796873,0.7517793212890624,-15.877862595419847,55.06870229007634,-16.16793893129771,-9.34696328125,1.8411410766601561,-0.488417138671875,27.34351145038168,-71.19083969465649,-15.526717557251908,0.0
13.40000057220459,-9.447519750976562,-0.612915625,1.37906015625,-15.450381679389313,53.12977099236641,-19.053435114503817,-9.777919580078125,1.467645617675781,-0.12689268798828124,34.229007633587784,-76.03053435114504,-14.534351145038167,0.0
13.410000801086426,-8.070853796386718,1.20667763671875,1.01514150390625,-5.526717557251908,55.29770992366412,-20.442748091603054,-8.79150849609375,2.176329309082031,-0.26815058593749996,22.396946564885496,-77.78625954198473,-14.061068702290076,0.0
13.420000553131104,-10.149020837402343,3.6272155151367187,2.3726538452148436,-12.916030534351146,57.32824427480916,-20.015267175572518,-10.369287390136718,0.5291185668945312,1.1516109985351561,25.129770992366414,-73.5114503816794,-10.83969465648855,0.0
13.43000078201294,-9.241618408203124,1.0869675537109373,1.2282254516601563,-18.137404580152673,54.35114503816794,-17.34351145038168,-8.844180932617187,1.369483349609375,0.10295067138671875,24.82442748091603,-82.35114503816794,-12.900763358778626,0.0
13.440000295639038,-11.870451831054687,3.2728736694335936,2.4061726684570313,-20.99236641221374,57.86259541984733,-16.946564885496183,-10.24000050048828,0.00239420166015625,1.687912170410156,23.0381679389313,-78.3206106870229,-10.580152671755725,0.0
13.450000524520874,-8.78432589111328,0.040701428222656245,0.9600748657226562,-30.870229007633586,50.10687022900763,-13.007633587786259,-8.537723120117187,0.49799394531249996,0.17477672119140625,25.603053435114504,-87.6030534351145,-14.122137404580153,0.0
13.46000051498413,-12.46900224609375,2.626439221191406,3.4548329956054684,-30.061068702290076,51.74045801526717,-13.694656488549619,-10.496180078124999,-1.3311761230468748,1.3455413330078123,21.908396946564885,-83.72519083969466,-11.893129770992367,0.0
13.470000505447388,-9.37808790283203,-1.7501614135742187,0.603338818359375,-35.93893129770992,42.229007633587784,-10.778625954198473,-8.343792785644531,-0.4213794921875,0.20829554443359374,16.625954198473284,-89.0381679389313,-15.251908396946565,0.0
13.480000734329224,-14.15452021484375,4.498704919433593,4.520252734375,-30.50381679389313,42.93129770992366,-12.946564885496183,-9.861716638183593,-0.8786720092773437,0.9121908325195311,14.854961832061068,-87.19083969465649,-14.13740458015267,0.0
13.490000486373901,-10.644620581054687,1.465251416015625,2.583343591308594,-37.3587786259542,39.221374045801525,-14.67175572519084,-9.94072529296875,-0.9959878906249999,1.1180921752929687,7.862595419847328,-84.61068702290076,-14.946564885496183,0.0
13.500000476837158,-9.516951599121093,2.0278888061523435,1.4508862060546874,-36.56488549618321,35.083969465648856,-8.946564885496183,-8.564059338378906,0.0909796630859375,-0.5291185668945312,0.732824427480916,-85.34351145038168,-18.229007633587788,0.0
13.510000467300415,-11.228805786132812,4.11802685546875,2.1715409057617188,-41.541984732824424,33.954198473282446,-10.274809160305344,-9.727641345214844,-2.710236279296875,1.4891934326171874,-3.236641221374046,-72.68702290076335,-15.49618320610687,0.0
13.520000457763672,-10.886434948730468,2.3127988037109373,1.8818425048828125,-55.038167938931295,26.458015267175572,-7.541984732824427,-9.119514123535156,-1.8602946899414061,1.0271125122070313,3.984732824427481,-76.09160305343511,-16.900763358778626,0.0
13.530000448226929,-10.388441003417968,1.9608511596679685,1.3814543579101561,-50.29007633587786,27.480916030534353,-5.0534351145038165,-8.552088330078124,-1.678335363769531,0.9792284790039062,0.8854961832061069,-69.64885496183206,-17.908396946564885,0.0
13.540001153945923,-11.204863769531249,1.599326708984375,2.2840683837890623,-56.99236641221374,27.587786259541986,-3.5572519083969465,-9.583989245605467,-3.0621839233398433,1.9393033447265624,11.32824427480916,-67.8473282442748,-16.9618320610687,0.0
13.550000667572021,-9.342174877929686,-0.6703764648437499,0.3184288208007812,-46.0,26.061068702290076,-1.9236641221374047,-7.7763669921875,-0.9935936889648437,0.7876923461914062,11.34351145038168,-70.73282442748092,-21.633587786259543,0.0
13.560000658035278,-12.196063256835936,2.4013842651367185,3.105279553222656,-42.916030534351144,33.221374045801525,-2.7022900763358777,-9.296685046386719,-1.438915197753906,2.6216508178710938,10.091603053435115,-60.79389312977099,-18.885496183206108,0.0
13.570000886917114,-9.976638317871092,-0.12210428466796874,1.8171990600585937,-48.01526717557252,26.198473282442748,-2.8702290076335877,-10.556035119628906,-1.848323681640625,3.0621839233398433,21.267175572519083,-64.74809160305344,-16.427480916030536,0.0
13.580000638961792,-10.467449658203124,0.36152445068359373,1.5610194824218748,-36.717557251908396,24.68702290076336,-0.5190839694656488,-9.018957653808593,0.2920926025390625,1.6831237670898436,22.0,-70.79389312977099,-19.52671755725191,0.0
13.590000629425049,-10.350133776855468,0.603338818359375,1.8459294799804686,-29.709923664122137,26.12213740458015,-0.8091603053435115,-9.035717065429687,-0.1005564697265625,2.7269956909179687,13.908396946564885,-62.656488549618324,-16.85496183206107,0.0
13.600000858306885,-10.594342346191405,0.679953271484375,2.7246014892578123,-32.62595419847328,24.244274809160306,-1.3587786259541985,-10.263942517089843,-1.3479355346679687,2.9951462768554684,18.38167938931298,-63.98473282442748,-13.083969465648854,0.0
13.610000610351562,-9.354145886230468,-0.7302315063476562,1.197100830078125,-19.83206106870229,20.82442748091603,-1.8625954198473282,-8.458714465332031,0.5363011718749999,1.5011644409179687,13.068702290076336,-67.38931297709924,-15.49618320610687,0.0
13.62000036239624,-10.658985791015624,1.2521674682617188,2.0661960327148434,-4.763358778625954,31.328244274809162,-2.9770992366412212,-6.9910688476562495,0.33518823242187495,1.7357962036132812,-2.854961832061069,-57.19083969465649,-15.145038167938932,0.0
13.630000591278076,-8.650250598144531,-1.0678139404296874,0.7805097412109374,-12.045801526717558,26.47328244274809,-2.8091603053435112,-9.229647399902344,-1.6448165405273436,3.2034418212890623,-0.5190839694656488,-51.49618320610687,-10.16793893129771,0.0
13.640000581741333,-8.030152368164062,-0.009576806640625,-0.9983820922851562,-8.16793893129771,16.82442748091603,-2.1374045801526718,-8.468291271972657,-1.3646949462890625,2.1787235107421874,5.786259541984733,-54.97709923664122,-10.458015267175572,0.0
13.650000810623169,-7.592013464355468,-1.4125789794921875,-1.659181750488281,12.412213740458014,24.763358778625953,-2.717557251908397,-6.861781958007812,-0.14125789794921875,1.9632453613281249,-0.6259541984732825,-50.412213740458014,-12.80916030534351,0.0
13.660000324249268,-8.674192614746094,-0.5195417602539062,-0.3399766357421875,17.786259541984734,38.213740458015266,-4.824427480916031,-6.1650692749023435,0.5267243652343749,1.2952630981445312,-10.290076335877863,-41.23664122137404,-11.633587786259541,0.0
13.670001029968262,-9.402029919433593,1.1061211669921875,0.622492431640625,11.923664122137405,43.06870229007634,-11.114503816793894,-7.879317663574218,-0.7206546997070312,2.0254946044921875,-14.244274809160306,-30.061068702290076,-6.778625954198473,0.0
13.68000054359436,-9.512163195800781,0.6655880615234374,0.13407529296874998,12.183206106870228,43.83206106870229,-11.450381679389313,-7.618349682617187,-0.6296750366210937,1.5801730957031248,-13.32824427480916,-28.885496183206108,-6.5038167938931295,0.0
13.690000772476196,-9.624690673828125,1.369483349609375,-0.47165772705078124,15.786259541984732,46.74809160305343,-10.366412213740459,-7.888894470214844,-1.2593500732421874,1.7836802368164062,-9.84732824427481,-25.96946564885496,-6.595419847328245,0.0
13.700000286102295,-8.963891015625,0.6727706665039062,-0.9169792358398436,17.96946564885496,50.93129770992366,-9.923664122137405,-7.831433630371094,-1.197100830078125,1.8555062866210936,-6.854961832061068,-22.595419847328245,-7.267175572519084,0.0
13.71000051498413,-9.196128576660156,0.7422025146484375,-0.9792284790039062,15.48091603053435,55.083969465648856,-10.534351145038167,-8.0828248046875,-1.2713210815429687,2.0757728393554684,-3.053435114503817,-19.603053435114504,-7.7251908396946565,0.0
13.720000505447388,-9.437942944335937,0.9720458740234375,-1.0414777221679687,12.916030534351146,59.038167938931295,-12.198473282442748,-8.128314636230469,-1.0319009155273438,2.176329309082031,-1.1908396946564885,-16.549618320610687,-7.893129770992366,0.0
13.730000495910645,-9.212887988281249,0.74699091796875,-1.2473790649414063,11.908396946564885,62.93129770992366,-12.717557251908397,-7.613561279296874,-0.6751648681640625,2.114080065917969,-1.8778625954198473,-15.404580152671755,-8.687022900763358,0.0
13.740000486373901,-9.5001921875,1.2832920898437499,-0.8810662109374999,9.34351145038168,66.35114503816794,-13.450381679389313,-8.149862451171874,-1.4173673828125,2.592920397949219,0.21374045801526717,-12.641221374045802,-8.259541984732824,0.0
13.750000476837158,-9.629479077148437,1.467645617675781,-0.93852705078125,6.778625954198473,68.54961832061069,-15.557251908396946,-8.219294299316406,-1.1875240234375,2.655169641113281,-0.07633587786259542,-11.099236641221374,-8.580152671755725,0.0
13.760000467300415,-9.435548742675781,1.0223241088867188,-0.9576806640625,4.9465648854961835,71.95419847328245,-16.0,-7.9295958984374995,-1.3048399047851562,2.8802245971679685,0.16793893129770993,-9.786259541984732,-9.389312977099237,0.0
13.770000696182251,-9.165003955078124,1.218648645019531,-1.1827356201171875,0.5954198473282443,73.90839694656489,-17.52671755725191,-7.484274389648437,-0.7302315063476562,2.7198130859375,-2.549618320610687,-8.366412213740459,-9.633587786259541,0.0
13.780001163482666,-9.694122521972655,2.118868469238281,-0.7733271362304687,-7.770992366412214,74.65648854961832,-21.053435114503817,-7.982268334960937,-0.7709329345703124,2.7365724975585937,-2.900763358778626,-6.412213740458015,-8.366412213740459,0.0
13.790000438690186,-9.287108239746093,1.4173673828125,-0.6775590698242188,-10.473282442748092,73.77099236641222,-22.549618320610687,-8.001421948242188,-0.59376201171875,2.6623522460937497,-5.129770992366412,-4.473282442748092,-7.694656488549619,0.0
13.8000009059906,-9.983820922851562,1.1133037719726562,0.09816226806640624,-13.877862595419847,72.51908396946565,-23.51145038167939,-7.723694555664062,-0.14125789794921875,2.3822306518554686,-9.664122137404581,-2.4580152671755724,-8.412213740458014,0.0
13.810000658035278,-10.678139404296875,1.1635820068359375,0.8834604125976562,-15.770992366412214,69.31297709923665,-25.419847328244273,-7.228094812011718,0.3327940307617187,2.0159177978515626,-16.442748091603054,1.4198473282442747,-7.587786259541985,0.0
13.820000410079956,-10.663774194335938,1.9033903198242186,1.838746875,-16.65648854961832,64.2442748091603,-24.931297709923665,-7.594407666015624,-0.354341845703125,1.9847931762695312,-20.900763358778626,5.7251908396946565,-5.267175572519084,0.0
13.830000638961792,-15.94777725830078,6.593631372070312,6.382941625976562,-43.57251908396947,55.02290076335878,-28.015267175572518,-8.073247998046874,-0.23702596435546874,2.0733786376953125,-26.83969465648855,13.801526717557252,-3.877862595419847,0.0
13.840000629425049,-13.311761230468749,4.434061474609375,4.513070129394531,-59.32824427480916,32.51908396946565,-19.022900763358777,-8.070853796386718,-0.6607996582031249,1.4628572143554686,-26.244274809160306,15.755725190839694,-2.0763358778625953,0.0
13.850000619888306,-10.31661495361328,1.4796166259765624,2.5474305664062498,-40.87022900763359,20.793893129770993,-3.099236641221374,-7.876923461914062,-1.0319009155273438,1.3144167114257812,-27.51145038167939,24.290076335877863,-0.2748091603053435,0.0
13.860000610351562,-10.915165368652342,-0.2059013427734375,2.7246014892578123,-25.022900763358777,12.290076335877863,0.030534351145038167,-6.526593725585937,-0.7900865478515624,-0.040701428222656245,-23.419847328244273,24.885496183206108,-0.9465648854961832,0.0
13.87000060081482,-11.329362255859374,-1.209071838378906,3.9719805541992184,-20.47328244274809,6.8396946564885495,-5.358778625954199,-5.272032055664062,-0.15562310791015624,-0.8259995727539062,-25.541984732824428,36.10687022900763,-0.7022900763358778,0.0
13.880000591278076,-12.129025610351562,0.4955997436523437,5.870582470703124,-12.458015267175572,1.9389312977099236,-9.770992366412214,-6.098031628417968,-1.3527239379882812,-0.5219359619140624,-25.938931297709924,48.229007633587784,2.8396946564885495,0.0
13.890000820159912,-10.488997473144531,1.0462661254882812,5.791573815917968,-7.587786259541985,-9.969465648854962,-9.725190839694656,-5.863399865722656,-2.1930887207031247,-1.1109095703125,-25.46564885496183,56.61068702290076,4.0458015267175576,0.0
13.90000057220459,-10.656591589355468,3.4668040039062498,6.500257507324219,-2.8091603053435112,-19.61832061068702,-8.595419847328245,-7.6470801025390625,-2.829946362304687,0.5410895751953124,-21.893129770992367,69.46564885496183,5.343511450381679,0.0
13.910000801086426,-11.33175645751953,3.411737365722656,6.677428430175781,-10.045801526717558,-30.83969465648855,-5.66412213740458,-12.061987963867187,-4.517858532714843,5.032611889648437,-3.4656488549618323,72.58015267175573,8.030534351145038,0.0
13.920000314712524,-12.55758770751953,5.164292980957031,7.510610607910156,-6.442748091603053,-43.29770992366412,-2.2442748091603053,-14.544775085449217,-3.4715924072265625,7.388506323242187,17.282442748091604,62.045801526717554,3.2061068702290076,0.0
13.93000078201294,-13.13219610595703,5.616797094726562,7.793126403808594,-9.801526717557252,-56.213740458015266,0.8091603053435115,-15.47611953125,-2.327164013671875,8.346186987304687,25.72519083969466,60.10687022900763,-1.1908396946564885,0.0
13.940000295639038,-15.562310791015625,5.992686755371094,9.679757312011718,-18.85496183206107,-72.90076335877863,4.564885496183206,-14.947000964355468,-1.47482822265625,6.138733056640625,34.900763358778626,51.14503816793893,-0.6564885496183206,0.0
13.950000524520874,-18.21987463378906,6.059724401855468,11.590330236816406,-26.076335877862597,-101.29770992366412,4.8396946564885495,-12.53843409423828,1.39821376953125,3.153163586425781,31.633587786259543,43.55725190839695,2.732824427480916,0.0
13.960000276565552,-19.364303027343748,5.480327600097656,13.936647863769531,-24.68702290076336,-131.70992366412213,7.587786259541985,-8.659827404785156,4.225765930175781,0.34237083740234375,9.98473282442748,44.10687022900763,5.343511450381679,0.0
13.970000743865967,-20.25734024658203,4.04141240234375,17.901445812988282,-16.732824427480917,-167.2824427480916,16.198473282442748,-7.805097412109374,3.8474820678710935,-0.2920926025390625,-12.900763358778626,54.10687022900763,13.83206106870229,0.0
13.980000495910645,-19.86229697265625,2.6192566162109374,17.24543455810547,16.35114503816794,-207.05343511450383,30.076335877862597,-8.322244970703125,0.0909796630859375,-1.5634136840820312,-24.80916030534351,56.091603053435115,23.81679389312977,0.0
13.990000486373901,-16.531962463378907,-1.5394716674804687,12.751518041992187,27.16030534351145,-240.76335877862596,34.18320610687023,-8.573636145019531,-1.1563994018554686,-3.342305517578125,-25.083969465648856,58.29007633587786,24.35114503816794,0.0
14.000000476837158,-14.9781255859375,-3.859453076171875,6.636727001953124,30.076335877862597,-266.2290076335878,33.06870229007634,-7.5153990112304685,-1.9823989746093749,-3.545812658691406,-29.51145038167939,69.66412213740458,20.82442748091603,0.0
14.010000705718994,-12.72997022705078,-3.873818286132812,-1.4963760375976562,14.65648854961832,-278.8396946564886,32.656488549618324,-9.598354455566406,-1.0438719238281249,-2.8514941772460936,-26.3206106870229,84.27480916030534,21.17557251908397,0.0
14.02000093460083,-11.288660827636718,-4.4819455078125,-6.9719152343749995,5.0534351145038165,-276.6106870229008,35.6793893129771,-9.890447058105469,-0.8834604125976562,-2.039859814453125,-22.748091603053435,88.99236641221374,23.6793893129771,0.0
14.030000686645508,-11.990161914062499,-6.610390783691406,-7.905653881835937,11.32824427480916,-265.587786259542,39.45038167938932,-10.996568225097656,-1.6232687255859375,1.0007762939453124,-16.213740458015266,96.87022900763358,28.015267175572518,0.0
14.040000677108765,-11.700463513183593,-9.437942944335937,-7.8362220336914055,37.969465648854964,-248.76335877862596,35.93893129770992,-8.688557824707031,1.4939818359375,-1.1061211669921875,-12.458015267175572,87.16030534351145,27.068702290076335,0.0
14.050000429153442,-12.758700646972656,-8.655039001464843,-3.9791631591796874,78.62595419847328,-219.89312977099237,22.549618320610687,-11.801019982910155,0.28730419921875,0.43574470214843747,-18.82442748091603,91.5114503816794,32.29007633587786,0.0
14.060000658035278,-13.699621899414062,-6.636727001953124,-3.8187516479492185,116.35114503816794,-191.55725190839695,15.221374045801527,-9.545682019042967,2.123656872558594,-1.7214309936523438,-20.38167938931298,83.81679389312977,32.2442748091603,0.0
14.070000648498535,-12.80658468017578,-3.0693665283203124,-2.712630480957031,137.49618320610688,-159.93893129770993,5.847328244274809,-12.897564343261719,-0.6512228515624999,0.612915625,-31.755725190839694,96.33587786259542,36.6412213740458,0.0
14.080000638961792,-11.61906065673828,0.12449848632812499,-2.27927998046875,128.74809160305344,-137.7709923664122,-1.099236641221374,-9.030928662109375,-2.5522189697265625,-0.14125789794921875,-23.251908396946565,93.77099236641222,34.12213740458015,0.0
14.090000629425049,-12.935871569824219,3.852270471191406,-1.2785036865234374,104.8854961832061,-125.87786259541984,-5.114503816793893,-10.062829577636718,-4.062960217285156,0.47884033203125,-21.129770992366414,101.20610687022901,34.12213740458015,0.0
14.100000619888306,-11.899182250976562,3.450044592285156,-1.0606313354492187,75.09923664122137,-125.19083969465649,0.7022900763358778,-6.272808349609375,-0.55545478515625,-3.6727053466796873,-7.603053435114504,87.37404580152672,27.0381679389313,0.0
14.110000610351562,-10.874463940429687,4.493916516113281,-0.8212111694335937,56.778625954198475,-117.37404580152672,4.732824427480916,-8.520963708496094,-1.47482822265625,-2.6288334228515624,-27.51145038167939,102.61068702290076,28.916030534351144,0.0
14.12000060081482,-8.781931689453124,3.744531396484375,-2.521094348144531,26.702290076335878,-119.0381679389313,11.267175572519085,-8.030152368164062,-0.29448680419921874,-2.3151930053710936,-24.549618320610687,107.54198473282443,28.15267175572519,0.0
14.130000352859497,-8.339004382324218,2.9831752685546875,-3.0262708984374997,15.450381679389313,-110.47328244274809,16.763358778625953,-11.214440576171874,-3.4620156005859375,-0.6081272216796875,-14.183206106870228,105.81679389312977,29.72519083969466,0.0
14.140000581741333,-5.5641246582031245,0.7637503295898437,-5.274426257324219,7.755725190839694,-99.37404580152672,21.129770992366414,-11.204863769531249,-4.759672900390624,0.033518823242187495,-6.809160305343512,108.33587786259542,24.65648854961832,0.0
14.15000033378601,-5.185840795898438,0.8499415893554687,-5.791573815917968,7.114503816793893,-82.50381679389314,24.244274809160306,-10.922347973632812,-6.095637426757812,1.4700398193359374,20.671755725190838,100.6412213740458,19.022900763358777,0.0
14.160000801086426,-2.0278888061523435,-0.8403647827148437,-7.599196069335937,9.557251908396946,-63.847328244274806,24.931297709923665,-10.024522351074218,-3.3590649291992185,1.5059528442382812,28.519083969465647,94.16793893129771,12.290076335877863,0.0
14.170000791549683,-3.0980969482421874,0.488417138671875,-6.8976949829101555,8.65648854961832,-31.52671755725191,22.549618320610687,-9.143456140136719,-2.4971523315429685,2.250549560546875,26.427480916030536,89.55725190839695,8.625954198473282,0.0
14.18000054359436,-0.7852981445312499,0.3687070556640625,-7.960720520019531,7.221374045801527,-7.3893129770992365,25.893129770992367,-9.696516723632811,-4.666299035644531,4.88417138671875,41.25190839694657,83.37404580152672,13.312977099236642,0.0
14.190000772476196,-2.0638018310546875,2.5330653564453125,-5.305550878906249,11.389312977099237,27.72519083969466,29.022900763358777,-9.200916979980468,-0.7158662963867187,2.0278888061523435,44.44274809160305,66.36641221374046,14.122137404580153,0.0
14.200000524520874,-2.5450363647460934,3.871424084472656,-1.1923124267578125,-17.84732824427481,32.42748091603053,25.34351145038168,-10.237606298828124,-0.1197100830078125,2.1930887207031247,38.99236641221374,58.13740458015267,12.396946564885496,0.0
14.21000051498413,-1.5945383056640625,1.4796166259765624,1.2521674682617188,-41.31297709923664,40.74809160305343,26.946564885496183,-10.429142431640624,-0.2561795776367187,3.0813375366210938,27.358778625954198,55.45038167938932,12.183206106870228,0.0
14.220000267028809,-1.216254443359375,-0.5626373901367188,4.3454760131835934,-50.0,46.458015267175576,23.31297709923664,-12.07874737548828,-1.5275006591796874,3.047818713378906,24.870229007633586,53.02290076335878,12.854961832061068,0.0
14.230000495910645,-1.8722656982421875,-1.2665326782226562,7.134720947265625,-52.732824427480914,51.87786259541985,13.877862595419847,-9.995791931152343,-1.1851298217773436,3.0358477050781247,16.290076335877863,46.778625954198475,10.198473282442748,0.0
14.240000486373901,-2.252943762207031,-1.9225439331054686,9.105148913574219,-38.82442748091603,53.80152671755725,7.435114503816794,-10.13226142578125,-2.3678654418945313,3.356670727539062,17.328244274809162,44.0763358778626,10.900763358778626,0.0
14.250000476837158,-4.687846850585937,-0.06703764648437499,11.451466540527344,-18.717557251908396,55.7557251908397,3.8625954198473282,-7.977479931640625,-1.0103531005859374,1.2378022583007813,18.80916030534351,35.3587786259542,8.320610687022901,0.0
14.260000467300415,-6.739677673339843,2.5426421630859375,13.61103643798828,-7.099236641221374,50.045801526717554,1.3740458015267176,-11.736376538085937,-4.034229797363281,4.484339709472656,20.427480916030536,40.152671755725194,12.213740458015268,0.0
14.270000696182251,-9.464279162597656,4.0222587890625,15.172055920410155,-11.557251908396946,35.32824427480916,1.7251908396946565,-8.724470849609375,0.3447650390625,1.4724340209960938,12.442748091603054,30.50381679389313,6.244274809160306,0.0
14.280000925064087,-12.514492077636717,6.3709706176757805,15.50724415283203,-30.16793893129771,14.595419847328245,1.7099236641221374,-11.042058056640624,-1.9895815795898437,5.006275671386718,1.6793893129770991,38.80916030534351,10.030534351145038,0.0
14.290000677108765,-8.307879760742187,1.8291700683593748,11.757924353027343,-19.51145038167939,2.2442748091603053,7.969465648854962,-8.614337573242187,1.1516109985351561,2.7748797241210936,-11.007633587786259,33.786259541984734,8.473282442748092,0.0
14.30000114440918,-5.190629199218749,1.2761094848632812,8.157045056152343,-2.732824427480916,-12.702290076335878,12.198473282442748,-10.383652600097655,0.9217676391601562,3.5003228271484375,-33.51145038167939,32.030534351145036,11.709923664122137,0.0
14.310000658035278,-2.1452046874999997,3.210624426269531,3.4093431640625,18.38167938931298,-3.6793893129770994,15.541984732824428,-9.423577734375,0.13407529296874998,3.303998291015625,-53.14503816793893,26.671755725190838,13.83206106870229,0.0
14.320000648498535,3.356670727539062,-0.19871873779296872,-4.944026428222656,14.50381679389313,9.618320610687023,13.816793893129772,-11.616666455078125,-3.201047619628906,4.817133740234374,-58.79389312977099,22.198473282442748,16.763358778625953,0.0
14.330000638961792,-1.915361328125,-0.16519991455078123,-6.179434484863281,-11.49618320610687,29.954198473282442,1.450381679389313,-11.295843432617186,-4.673481640625,4.036623999023437,-65.5114503816794,11.893129770992367,12.580152671755725,0.0
14.340000629425049,-9.251195214843749,-3.526659045410156,-2.592920397949219,5.206106870229007,52.16793893129771,1.0534351145038168,-12.715605017089842,-7.216123803710937,4.6447512207031245,-59.41984732824427,1.7557251908396947,7.877862595419847,0.0
14.350000381469727,-13.500903161621093,-7.094019519042968,5.363011718749999,58.18320610687023,70.80916030534351,-8.564885496183207,-13.769053747558592,-8.2743609375,4.7022120605468745,-55.14503816793893,-11.389312977099237,1.1755725190839694,0.0
14.360000371932983,-17.90862841796875,-3.086125939941406,11.403582507324218,101.19083969465649,74.36641221374046,-22.38167938931298,-15.263035583496093,-8.015787158203125,5.781997009277344,-40.62595419847328,-28.50381679389313,-6.595419847328245,0.0
14.37000036239624,-24.569297436523435,6.643909606933593,12.734758630371093,121.66412213740458,79.20610687022901,-21.16030534351145,-16.512808850097656,-6.809109521484374,6.150704064941406,-30.900763358778626,-46.42748091603053,-10.610687022900763,0.0
14.380000591278076,-25.146300036621092,13.079523669433593,7.671022119140624,71.43511450381679,49.20610687022901,-10.122137404580153,-15.179238525390623,-3.27526787109375,5.552153649902343,-29.053435114503817,-68.93129770992367,-17.84732824427481,0.0
14.390000343322754,-19.79765352783203,11.066000073242186,1.8076222534179687,-8.885496183206106,17.541984732824428,0.0916030534351145,-13.862427612304687,-1.5945383056640625,4.477157104492187,-31.893129770992367,-80.03053435114504,-18.763358778625953,0.0
14.40000057220459,-8.24802471923828,1.9704279663085937,-5.154716174316406,-54.51908396946565,-5.541984732824427,6.152671755725191,-14.939818359375,-3.39018955078125,3.2321722412109373,-12.458015267175572,-92.03053435114504,-17.72519083969466,0.0
14.410000801086426,-5.185840795898438,-2.6240450195312497,-6.050147595214844,-48.091603053435115,8.687022900763358,6.030534351145038,-15.267823986816405,-2.288856787109375,-0.97683427734375,16.671755725190838,-110.4885496183206,-19.954198473282442,0.0
14.420000314712524,0.3399766357421875,-8.257601525878906,-9.715670336914062,-32.458015267175576,24.076335877862597,0.6564885496183206,-13.376404675292967,3.1004911499023438,-4.189852905273438,14.198473282442748,-115.25190839694656,-28.03053435114504,0.0
14.43000078201294,-2.568978381347656,-7.522581616210937,-7.455543969726562,5.877862595419847,61.57251908396947,-14.946564885496183,-13.165714929199218,4.7572786987304685,-5.616797094726562,7.847328244274809,-110.65648854961832,-29.541984732824428,0.0
14.440000295639038,-5.128379956054687,-3.9145197143554684,-6.4643444824218745,27.206106870229007,81.58778625954199,-30.702290076335878,-13.453019128417967,4.2329485351562495,-5.05655390625,13.511450381679388,-103.19083969465649,-23.587786259541986,0.0
14.450000524520874,-10.479420666503906,0.5722141967773438,-3.737348791503906,40.595419847328245,99.31297709923665,-37.66412213740458,-13.350068457031249,4.319139794921875,-6.050147595214844,3.786259541984733,-103.80152671755725,-20.793893129770993,0.0
14.460000276565552,-10.46984385986328,2.020706201171875,-2.8754361938476563,39.02290076335878,109.57251908396947,-34.717557251908396,-12.449848632812499,5.796362219238281,-7.038952880859375,-23.083969465648856,-88.36641221374046,-21.00763358778626,0.0
14.470000267028809,-12.495338464355468,3.555389465332031,0.03591302490234375,37.465648854961835,118.30534351145039,-28.0,-13.053187451171874,3.718195178222656,-6.488286499023437,-30.35114503816794,-70.54961832061069,-16.885496183206108,0.0
14.480000257492065,-13.742717529296874,3.299209887695312,2.214636535644531,18.38167938931298,113.02290076335878,-27.709923664122137,-14.180856433105468,1.924938134765625,-3.890577697753906,-22.396946564885496,-60.93129770992366,-12.687022900763358,0.0
14.490000486373901,-11.877634436035155,2.5809493896484375,1.5466542724609373,9.297709923664122,102.35114503816794,-24.717557251908396,-12.789825268554686,2.070984436035156,-3.725377783203125,-15.526717557251908,-62.68702290076336,-12.030534351145038,0.0
14.500000476837158,-10.965443603515624,2.24097275390625,1.0941501586914062,-0.6870229007633588,91.26717557251908,-23.328244274809162,-10.596736547851561,1.3239935180664062,-2.3918074584960936,-12.83969465648855,-63.57251908396947,-10.305343511450381,0.0
14.510000705718994,-10.781090075683593,2.3511060302734372,1.1611878051757811,-10.778625954198473,81.8473282442748,-21.770992366412212,-10.759542260742187,1.426944189453125,-1.7764976318359373,-9.786259541984732,-61.38931297709924,-8.213740458015268,0.0
14.520000457763672,-10.340556970214843,4.0988732421875,1.13006318359375,-23.633587786259543,71.57251908396947,-20.595419847328245,-9.756371765136718,-0.5770026000976562,0.5674257934570313,-4.99236641221374,-61.66412213740458,-6.366412213740458,0.0
14.530000448226929,-9.481038574218749,2.473210314941406,-0.17238251953125,-32.56488549618321,62.29007633587786,-16.427480916030536,-9.947907897949218,-1.85790048828125,0.86191259765625,10.442748091603054,-69.19083969465649,-6.427480916030534,0.0
14.540000915527344,-8.801085302734375,1.6112977172851561,-0.70868369140625,-28.045801526717558,60.87022900763359,-13.86259541984733,-10.826579907226561,-3.699041564941406,1.2928688964843749,37.93893129770992,-81.83206106870229,-10.122137404580153,0.0
14.550000667572021,-8.626308581542968,-0.3399766357421875,0.04548983154296875,-20.0,65.49618320610686,-13.129770992366412,-9.131485131835937,-1.1372457885742187,-0.07900865478515624,41.38931297709924,-94.65648854961832,-21.221374045801525,0.0
14.560000896453857,-10.27830772705078,1.455674609375,1.7669208251953124,-20.015267175572518,69.41984732824427,-13.664122137404581,-10.309432348632813,-1.0630255371093749,0.28012159423828126,46.10687022900763,-97.17557251908397,-27.66412213740458,0.0
14.570000886917114,-9.931148486328125,0.5506663818359374,1.599326708984375,-26.15267175572519,67.41984732824427,-15.48091603053435,-10.81460889892578,-1.9584569580078124,1.139639990234375,41.25190839694657,-98.09160305343511,-31.282442748091604,0.0
14.580000638961792,-12.717999218749998,3.5865140869140624,3.912125512695312,-43.19083969465649,60.76335877862596,-18.564885496183205,-9.253589416503905,-0.7350199096679687,0.6775590698242188,38.534351145038165,-102.82442748091603,-35.98473282442748,0.0
14.590000867843628,-9.923965881347655,1.2880804931640624,2.1260510742187497,-64.8854961832061,48.0763358778626,-18.748091603053435,-10.405200415039062,0.4333505004882812,-0.35673604736328124,40.56488549618321,-108.36641221374046,-35.98473282442748,0.0
14.600000619888306,-12.564770312499999,2.2840683837890623,2.8658593872070313,-73.06870229007633,40.25954198473283,-15.511450381679388,-11.257536206054686,-0.3950432739257812,1.3479355346679687,34.18320610687023,-101.92366412213741,-32.595419847328245,0.0
14.610000848770142,-10.134655627441406,-0.6105214233398437,1.6136919189453125,-53.6793893129771,43.74045801526717,-10.625954198473282,-8.377311608886718,0.948103857421875,0.47165772705078124,25.389312977099237,-102.82442748091603,-33.52671755725191,0.0
14.62000060081482,-11.566388220214844,1.5107412475585937,3.6152445068359373,-56.58015267175573,36.30534351145038,-10.244274809160306,-8.576030346679687,1.4700398193359374,-0.16519991455078123,18.717557251908396,-101.72519083969466,-30.870229007633586,0.0
14.630000591278076,-10.096348400878906,0.507570751953125,1.8555062866210936,-39.00763358778626,37.587786259541986,-11.34351145038168,-8.772354882812499,-0.14604630126953125,1.1444283935546875,11.541984732824428,-90.53435114503817,-26.412213740458014,0.0
14.640000581741333,-12.562376110839843,3.754108203125,4.13718046875,-48.717557251908396,32.30534351145038,-10.50381679389313,-7.888894470214844,0.09576806640624999,0.6464344482421874,5.022900763358779,-83.66412213740458,-25.69465648854962,0.0
14.650000810623169,-11.159373937988281,3.23696064453125,3.0645781249999997,-63.52671755725191,18.549618320610687,-7.694656488549619,-8.609549169921875,-1.1061211669921875,0.9050082275390624,10.961832061068701,-76.70229007633588,-21.938931297709924,0.0
14.660000324249268,-11.86805762939453,1.7932570434570312,2.959233251953125,-52.778625954198475,16.076335877862597,-0.44274809160305345,-7.671022119140624,-0.24899697265624998,0.3280056274414062,10.045801526717558,-72.13740458015268,-21.862595419847327,0.0
14.670000553131104,-8.896853369140624,0.7230489013671875,2.1787235107421874,-46.87022900763359,13.557251908396946,3.984732824427481,-7.886500268554687,-1.4149731811523436,1.2689268798828124,12.0,-62.29007633587786,-19.603053435114504,0.0
14.68000078201294,-10.465055456542968,1.2904746948242187,3.6918589599609373,-29.61832061068702,21.022900763358777,2.7022900763358777,-9.344569079589844,-2.607285607910156,2.6719290527343746,23.236641221374047,-59.02290076335878,-16.702290076335878,0.0
14.690000772476196,-7.611167077636718,-1.2976572998046874,1.0319009155273438,-20.259541984732824,20.198473282442748,2.015267175572519,-6.950367419433594,-0.105344873046875,0.258573779296875,21.236641221374047,-59.81679389312977,-22.259541984732824,0.0
14.700000524520874,-10.510545288085936,2.4899697265625,2.6240450195312497,-15.770992366412214,24.610687022900763,0.2748091603053435,-8.595183959960938,-0.8714894042968749,2.195482922363281,18.35114503816794,-43.25190839694657,-18.061068702290076,0.0
14.71000051498413,-10.374075793457031,1.89620771484375,2.5354595581054684,-31.49618320610687,15.84732824427481,-1.633587786259542,-9.713276135253906,-1.838746875,2.1978771240234374,26.290076335877863,-46.13740458015267,-15.893129770992367,0.0
14.720000743865967,-9.648632690429688,-0.009576806640625,0.6751648681640625,-6.396946564885496,22.748091603053435,2.6717557251908395,-8.762778076171875,-0.5339069702148437,1.1133037719726562,27.206106870229007,-49.29770992366412,-18.0,0.0
14.730000257492065,-9.478644372558593,0.7637503295898437,1.254561669921875,-2.6564885496183206,26.885496183206108,3.114503816793893,-7.589619262695312,0.97683427734375,1.3215993164062498,15.358778625954198,-42.458015267175576,-19.801526717557252,0.0
14.740000486373901,-9.82580361328125,1.0965443603515623,1.7429788085937499,-12.061068702290076,24.610687022900763,0.22900763358778625,-6.7085530517578125,0.5243301635742187,1.7190367919921874,1.4809160305343512,-34.01526717557252,-16.549618320610687,0.0
14.750000476837158,-8.075642199707032,-1.0654197387695312,0.3902548706054687,1.7404580152671756,30.458015267175572,1.2213740458015268,-8.951920007324219,-0.7517793212890624,2.281674182128906,2.2595419847328246,-31.72519083969466,-11.083969465648854,0.0
14.760000944137573,-8.643067993164061,1.9728221679687499,0.46208092041015625,-6.931297709923665,22.82442748091603,-2.0763358778625953,-9.17458076171875,-2.1883003173828124,2.2170307373046874,6.900763358778626,-35.3587786259542,-10.83969465648855,0.0
14.770000696182251,-9.536105212402344,-0.7398083129882812,-0.17956512451171874,2.8244274809160306,25.603053435114504,-3.572519083969466,-7.730877160644531,-0.34715924072265625,1.5729904907226562,6.870229007633588,-36.961832061068705,-13.83206106870229,0.0
