timestamp,Thigh_L_Acc_X,Thigh_L_Acc_Y,Thigh_L_Acc_Z,Thigh_L_Gyr_X,Thigh_L_Gyr_Y,Thigh_L_Gyr_Z,Thigh_R_Acc_X,Thigh_R_Acc_Y,Thigh_R_Acc_Z,Thigh_R_Gyr_X,Thigh_R_Gyr_Y,Thigh_R_Gyr_Z,gpio_output
10.000000476837158,-10.951078393554686,0.4644751220703125,-7.742848168945312,-53.954198473282446,8.106870229007633,15.633587786259541,-15.265429785156249,3.4093431640625,0.4477157104492187,-16.076335877862597,-47.603053435114504,1.4045801526717556,0.0
10.010000705718994,-11.089942089843749,1.0079588989257813,-5.877765075683594,-69.2824427480916,17.862595419847327,12.702290076335878,-15.368380456542967,-0.23223756103515625,0.181959326171875,-13.19083969465649,-50.88549618320611,5.511450381679389,1.0
10.020000696182251,-11.81059678955078,-1.4963760375976562,-3.9504327392578125,-65.37404580152672,35.43511450381679,12.793893129770993,-14.202404248046873,-0.17956512451171874,-0.35673604736328124,2.2595419847328246,-64.94656488549619,6.412213740458015,1.0
10.030000686645508,-9.660603698730467,-4.675875842285156,-5.255272644042968,-48.56488549618321,45.83206106870229,10.473282442748092,-13.091494677734374,2.492363928222656,-2.7150246826171873,6.015267175572519,-75.29770992366412,1.984732824427481,1.0
10.040000677108765,-1.9321207397460936,-6.710947253417968,-9.124302526855468,-17.00763358778626,51.3587786259542,8.534351145038167,-12.885593334960937,3.21780703125,-3.208230224609375,-4.0,-67.12977099236642,1.6946564885496183,1.0
10.050000429153442,-7.747636572265624,-3.6631285400390623,-3.229778039550781,-3.5877862595419847,80.74809160305344,-9.038167938931299,-13.012486022949219,2.8275521606445313,-3.076549133300781,-13.068702290076336,-60.458015267175576,2.717557251908397,1.0
10.0600004196167,-11.63821427001953,-0.3136404174804687,-0.7158662963867187,0.10687022900763359,92.91603053435115,-19.81679389312977,-13.395558288574218,2.2840683837890623,-3.0597897216796874,-28.396946564885496,-50.67175572519084,2.7938931297709924,1.0
10.070000648498535,-10.275913525390624,0.22266075439453123,-0.7278373046875,1.3893129770992367,90.1526717557252,-18.442748091603054,-13.000515014648437,0.0047884033203125,-2.583343591308594,-33.29770992366412,-43.725190839694655,4.213740458015267,1.0
10.08023452758789,-11.034875451660156,0.5865794067382812,0.7972691528320313,7.267175572519084,96.97709923664122,-20.244274809160306,-12.53843409423828,-2.674323254394531,-2.389413256835937,-27.00763358778626,-40.48854961832061,-0.24427480916030533,1.0
10.090000629425049,-8.085219006347655,-1.8459294799804686,-1.7908628417968748,9.648854961832061,95.05343511450381,-22.625954198473284,-12.418724011230468,-3.1196447631835937,-2.319981408691406,-11.450381679389313,-38.62595419847328,-8.0,1.0
10.100000858306885,-10.429142431640624,-0.3184288208007812,0.7254431030273437,18.106870229007633,107.3587786259542,-28.80916030534351,-11.884817041015625,-2.9041666137695312,-2.7437551025390623,4.0458015267175576,-36.62595419847328,-14.412213740458014,1.0
10.110000371932983,-7.429207751464843,-1.6304513305664061,-2.059013427734375,11.374045801526718,100.90076335877863,-33.49618320610687,-10.266336718749999,-1.2832920898437499,-2.834734765625,19.84732824427481,-36.74809160305343,-20.564885496183205,1.0
10.120001077651978,-9.689334118652344,0.5698199951171875,-0.28730419921875,20.106870229007633,112.87022900763358,-36.85496183206107,-10.091559997558592,-0.05985504150390625,-1.9680337646484374,17.587786259541986,-27.603053435114504,-18.65648854961832,1.0
10.130000591278076,-10.192116467285155,1.467645617675781,0.6200982299804687,5.694656488549619,111.77099236641222,-39.6793893129771,-9.794678991699218,-0.15083470458984374,-0.7972691528320313,24.442748091603054,-23.206106870229007,-18.458015267175572,1.0
10.140000343322754,-12.157756030273436,1.9752163696289062,1.889025109863281,-1.4351145038167938,109.38931297709924,-39.89312977099237,-10.651803186035156,-1.254561669921875,0.3447650390625,30.931297709923665,-23.358778625954198,-16.16793893129771,1.0
10.150078296661377,-10.589553942871094,1.4101847778320311,1.1085153686523437,-12.335877862595419,102.44274809160305,-36.83969465648855,-10.058041174316406,0.33758243408203126,-0.5027823486328125,31.52671755725191,-29.480916030534353,-19.908396946564885,1.0
10.160000562667847,-11.099518896484375,2.2290017456054687,1.43652099609375,-22.9618320610687,97.22137404580153,-33.9236641221374,-9.282319836425781,0.5770026000976562,0.3950432739257812,26.18320610687023,-30.30534351145038,-19.984732824427482,1.0
10.170000314712524,-10.929530578613281,1.879448303222656,1.927332336425781,-34.229007633587784,90.9618320610687,-30.564885496183205,-10.225635290527343,-0.40462008056640625,1.4915876342773438,25.740458015267176,-31.31297709923664,-17.419847328244273,1.0
10.18000054359436,-10.376469995117187,2.0254946044921875,1.8626888916015625,-44.19847328244275,82.36641221374046,-27.954198473282442,-13.237540979003905,-2.9831752685546875,4.165910888671875,35.221374045801525,-32.36641221374046,-13.221374045801527,1.0
10.190000772476196,-9.670180505371093,-0.43574470214843747,1.1276689819335937,-40.229007633587784,79.78625954198473,-25.0381679389313,-8.583212951660157,1.2689268798828124,0.5985504150390625,31.81679389312977,-51.725190839694655,-23.31297709923664,1.0
10.200000286102295,-10.412383020019531,2.185906115722656,3.2417490478515623,-38.091603053435115,83.38931297709924,-24.870229007633586,-9.947907897949218,0.4525041137695312,1.189918225097656,25.755725190839694,-47.847328244274806,-21.740458015267176,1.0
10.21000051498413,-9.68454571533203,0.9026140258789062,2.6982652709960937,-49.70992366412214,75.0381679389313,-23.66412213740458,-9.588777648925781,-0.6967126831054687,1.3527239379882812,30.244274809160306,-55.17557251908397,-22.610687022900763,0.0
10.220000505447388,-9.344569079589844,-0.6919242797851562,1.7022773803710936,-38.12213740458015,75.3587786259542,-22.793893129770993,-9.78031378173828,-0.8547299926757812,0.29927520751953124,36.01526717557252,-64.16793893129771,-24.137404580152673,0.0
10.230000257492065,-11.350910070800781,1.7190367919921874,3.545812658691406,-39.41984732824427,77.37404580152672,-26.916030534351144,-10.007762939453125,-2.499546533203125,2.2074539306640624,38.091603053435115,-58.38167938931298,-23.84732824427481,0.0
10.240000486373901,-7.9846625366210935,0.5003881469726562,1.2042834350585936,-48.35114503816794,62.045801526717554,-22.80916030534351,-8.731653454589843,-1.0869675537109373,-0.8044517578125,57.12977099236641,-75.17557251908397,-25.862595419847327,0.0
10.250000715255737,-12.574347119140624,3.4452561889648434,3.1196447631835937,-43.25190839694657,62.85496183206107,-23.00763358778626,-9.696516723632811,-0.7733271362304687,0.33039982910156246,61.786259541984734,-75.31297709923665,-24.396946564885496,0.0
10.260000705718994,-11.14022032470703,2.6671406494140624,3.5410242553710933,-48.61068702290076,55.43511450381679,-17.709923664122137,-8.729259252929687,0.21068974609375,-0.7302315063476562,65.86259541984732,-78.09160305343511,-24.946564885496183,0.0
10.270000696182251,-11.710040319824218,2.9951462768554684,3.210624426269531,-54.25954198473283,48.44274809160305,-15.419847328244275,-8.32463917236328,0.373495458984375,-0.21308394775390624,54.10687022900763,-68.0,-21.083969465648856,0.0
10.280000925064087,-9.679757312011718,0.8930372192382812,2.0063409912109376,-44.50381679389313,48.61068702290076,-11.114503816793894,-6.361393811035156,1.4772224243164063,-0.9840168823242187,41.38931297709924,-61.969465648854964,-17.984732824427482,0.0
10.290000677108765,-10.244788903808594,1.867477294921875,2.602497204589844,-47.43511450381679,42.44274809160305,-11.129770992366412,-6.718129858398437,1.0702081420898437,-1.0007762939453124,31.84732824427481,-50.213740458015266,-13.374045801526718,0.0
10.300000667572021,-10.129867224121092,1.7405846069335937,2.389413256835937,-41.3587786259542,39.17557251908397,-10.67175572519084,-5.240907434082031,1.3383587280273437,-1.7405846069335937,14.366412213740459,-38.18320610687023,-11.969465648854962,0.0
10.310000658035278,-10.036493359375,1.1755530151367186,2.607285607910156,-39.14503816793893,35.89312977099237,-6.320610687022901,-6.382941625976562,-0.6871358764648438,-1.0007762939453124,9.251908396946565,-25.450381679389313,-8.305343511450381,0.0
10.320000648498535,-10.934318981933593,1.7118541870117185,2.750937707519531,-37.3587786259542,29.923664122137403,-5.083969465648855,-6.4356140625,-1.2737152832031249,-1.0749965454101562,12.01526717557252,-21.72519083969466,-8.50381679389313,0.0
10.330000638961792,-11.520898388671874,1.8219874633789062,3.0741549316406247,-32.152671755725194,27.64885496183206,-4.33587786259542,-6.414066247558593,-0.16519991455078123,-0.8068459594726562,11.557251908396946,-13.312977099236642,-11.648854961832061,0.0
10.340000867843628,-10.939107385253905,2.2960393920898436,3.536235852050781,-32.51908396946565,23.022900763358777,-3.7709923664122136,-7.8553756469726554,-0.9504980590820312,-0.023942016601562498,13.603053435114504,-4.885496183206107,-9.679389312977099,0.0
10.350000858306885,-11.008539233398437,2.29843359375,3.88818349609375,-32.42748091603053,18.85496183206107,-3.3282442748091605,-6.912060192871094,0.2657563842773437,-0.28969840087890625,12.396946564885496,-1.633587786259542,-9.98473282442748,0.0
10.360000610351562,-10.781090075683593,1.3742717529296875,2.925714428710937,-31.557251908396946,7.816793893129771,0.9618320610687023,-8.29351455078125,0.4070142822265625,0.21068974609375,17.251908396946565,1.251908396946565,-7.633587786259542,0.0
10.370000839233398,-10.412383020019531,-0.0718260498046875,2.932897033691406,-17.053435114503817,10.076335877862595,2.595419847328244,-7.570465649414062,0.7781155395507812,0.6847416748046875,13.954198473282442,2.6412213740458017,-7.0534351145038165,0.0
10.380000829696655,-7.886500268554687,-1.867477294921875,1.3623007446289062,-4.305343511450381,7.465648854961832,3.3587786259541983,-8.487444885253906,0.4165910888671875,1.465251416015625,14.870229007633588,6.076335877862595,-5.068702290076335,0.0
10.390000581741333,-8.113949426269532,-2.5809493896484375,1.484405029296875,17.236641221374047,13.709923664122137,-2.854961832061069,-7.7787611938476555,0.46208092041015625,1.254561669921875,10.106870229007633,5.282442748091603,-5.083969465648855,0.0
10.40000033378601,-8.935160595703124,-0.3687070556640625,2.0925322509765625,22.213740458015266,15.16030534351145,-9.465648854961833,-8.51617530517578,-0.2346317626953125,2.3965958618164063,-1.297709923664122,14.992366412213741,-3.6030534351145036,0.0
10.410000562667847,-9.868899243164062,1.0702081420898437,2.39420166015625,24.99236641221374,17.297709923664122,-13.98473282442748,-9.313444458007812,-1.7908628417968748,2.6216508178710938,0.04580152671755725,15.694656488549619,-2.0916030534351147,0.0
10.420000314712524,-10.517727893066406,3.2800562744140622,1.9800047729492187,19.87786259541985,11.587786259541986,-14.870229007633588,-8.942343200683593,-1.7812860351562498,2.0302830078125,6.5038167938931295,7.1603053435114505,-4.763358778625954,0.0
10.430000305175781,-9.205705383300781,2.6240450195312497,0.8092401611328125,17.099236641221374,8.0,-10.702290076335878,-7.666233715820312,-0.2657563842773437,1.9704279663085937,-4.961832061068702,10.091603053435115,-9.053435114503817,0.0
10.440000295639038,-8.927977990722656,2.8012159423828122,1.0342951171875,13.725190839694656,10.0,-6.748091603053435,-8.67658681640625,-0.5482721801757812,3.0550013183593747,-13.19083969465649,16.717557251908396,-7.419847328244275,0.0
10.450000286102295,-9.445125549316407,3.2728736694335936,1.3120225097656248,6.396946564885496,10.366412213740459,-6.244274809160306,-5.858611462402344,1.0007762939453124,0.6607996582031249,-20.366412213740457,7.557251908396947,-9.587786259541986,0.0
10.460000276565552,-9.445125549316407,3.801992236328125,1.678335363769531,1.9694656488549618,10.625954198473282,-4.854961832061068,-7.4794859863281244,-0.1580173095703125,3.3159692993164063,-43.587786259541986,24.85496183206107,-5.557251908396947,0.0
10.470000743865967,-9.854534033203125,3.526659045410156,2.7078420776367187,-10.65648854961832,7.938931297709924,-1.5114503816793894,-9.251195214843749,-2.712630480957031,4.651933825683593,-29.938931297709924,20.50381679389313,0.21374045801526717,0.0
10.480000495910645,-9.459490759277344,2.1068974609374997,2.817975354003906,-6.748091603053435,4.824427480916031,-0.9312977099236641,-9.411606726074218,-3.0813375366210938,3.859453076171875,-13.557251908396946,7.145038167938932,-0.732824427480916,0.0
10.49000096321106,-9.76116016845703,1.199495031738281,3.81156904296875,-8.335877862595419,0.5343511450381679,0.916030534351145,-7.522581616210937,-1.7310078002929687,2.9759926635742184,-5.862595419847328,-2.687022900763359,-5.450381679389313,0.0
10.500000238418579,-9.830592016601562,0.718260498046875,4.695029455566406,-0.48854961832061067,-0.5954198473282443,0.48854961832061067,-6.490680700683593,-0.36391865234375,2.319981408691406,-8.091603053435115,-3.572519083969466,-5.984732824427481,0.0
10.510000705718994,-10.596736547851561,1.6711527587890624,5.724536169433593,-1.3282442748091603,-4.900763358778626,-1.1145038167938932,-6.6702458251953125,-0.7254431030273437,2.379836450195312,-11.877862595419847,-2.198473282442748,-1.984732824427481,0.0
10.520000696182251,-9.17458076171875,0.4333505004882812,4.697423657226563,7.908396946564886,-9.587786259541986,-1.3893129770992367,-6.5768719604492185,-0.6584054565429687,1.9991583862304687,-17.69465648854962,-2.122137404580153,-0.44274809160305345,0.0
10.530000686645508,-8.86812294921875,0.8738836059570312,4.673481640625,9.221374045801527,-14.885496183206106,-2.5343511450381677,-7.077260107421875,-1.5490484741210937,2.568978381347656,-19.64885496183206,-2.045801526717557,1.297709923664122,0.0
10.540000677108765,-9.698910925292969,1.936909143066406,6.555324145507812,6.793893129770993,-23.221374045801525,-5.038167938931298,-6.356605407714843,-1.5538368774414062,2.269703173828125,-18.3206106870229,-2.519083969465649,0.030534351145038167,0.0
10.550000667572021,-10.156203442382813,4.101267443847656,7.788338000488281,-7.694656488549619,-40.93129770992366,-4.458015267175573,-6.1076084350585935,-1.7118541870117185,0.7110778930664062,-17.267175572519083,0.6259541984732825,-2.2900763358778624,0.0
10.5600004196167,-9.94072529296875,3.134009973144531,8.228871105957031,-16.65648854961832,-58.99236641221374,0.16793893129770993,-7.580042456054687,-0.9145850341796874,-0.2825157958984375,-12.366412213740459,7.801526717557252,-4.656488549618321,0.0
10.570000648498535,-9.133879333496093,1.0558429321289062,8.40125362548828,-12.16793893129771,-76.3969465648855,4.259541984732825,-9.363722692871093,0.584185205078125,0.5219359619140624,-19.267175572519083,13.86259541984733,-10.213740458015268,0.0
10.580000638961792,-13.486537951660155,3.9169139160156248,11.621454858398437,-15.114503816793894,-93.69465648854961,-1.8625954198473282,-13.026851232910156,-0.5051765502929687,4.548983154296875,-23.19083969465649,16.442748091603054,-12.977099236641221,0.0
10.59000039100647,-14.477737438964843,2.379836450195312,11.822567797851562,-20.229007633587788,-124.36641221374046,-1.4351145038167938,-17.073052038574218,-2.04943662109375,8.279149340820313,-18.015267175572518,6.412213740458015,-12.80916030534351,0.0
10.600000619888306,-15.464148522949218,-0.3687070556640625,10.884040747070312,-3.2213740458015265,-147.3587786259542,2.5801526717557253,-18.962077148437498,-4.429273071289062,10.979808813476561,-7.358778625954199,-8.610687022900763,-10.091603053435115,0.0
10.610000610351562,-19.687520251464843,0.5147533569335937,12.114660400390624,8.595419847328245,-166.59541984732823,-4.8396946564885495,-17.973271862792966,-4.314351391601562,8.700528833007812,2.3053435114503817,-24.946564885496183,-11.86259541984733,0.0
10.620000839233398,-19.819201342773436,0.16280571289062498,9.593566052246093,12.274809160305344,-194.06106870229007,-3.8625954198473282,-14.188039038085936,-0.40222587890625,4.050989208984375,4.33587786259542,-36.74809160305343,-9.022900763358779,0.0
10.630000591278076,-18.21987463378906,-1.005564697265625,7.089231115722656,36.79389312977099,-205.3740458015267,3.5419847328244276,-10.963049401855468,-0.6105214233398437,0.10295067138671875,-7.557251908396947,-29.96946564885496,-1.5267175572519085,0.0
10.640000581741333,-15.409081884765625,-1.8124106567382812,2.750937707519531,56.25954198473283,-207.26717557251908,11.83206106870229,-7.3837179199218745,-0.5267243652343749,-4.446032482910156,-4.702290076335878,-23.709923664122137,-0.6870229007633588,0.0
10.65000057220459,-12.758700646972656,-2.9664158569335934,-1.4006079711914061,75.20610687022901,-200.0763358778626,16.16793893129771,-5.734112976074218,-0.51714755859375,-4.733336682128906,-4.732824427480916,-8.67175572519084,-2.3969465648854964,0.0
10.660000324249268,-12.04762275390625,-1.8531120849609375,-2.7269956909179687,81.55725190839695,-185.00763358778627,11.648854961832061,-3.287238879394531,-0.21068974609375,-5.906495495605468,-10.091603053435115,2.045801526717557,-6.351145038167939,0.0
10.670000553131104,-10.433930834960936,-3.404554760742187,-3.938461730957031,89.78625954198473,-172.9770992366412,7.893129770992366,-4.285620971679688,0.229843359375,-5.348646508789062,-27.083969465648856,30.27480916030534,-2.9923664122137406,0.0
10.68000054359436,-7.71890615234375,-4.821922143554687,-4.742913488769531,99.06870229007633,-150.8091603053435,3.282442748091603,-9.418789331054686,-4.192247106933594,-3.9695863525390624,-25.282442748091604,50.961832061068705,6.091603053435114,0.0
10.690000295639038,-7.592013464355468,-3.3638533325195312,-3.7014357666015623,102.82442748091603,-121.26717557251908,-8.076335877862595,-10.929530578613281,-4.7381250854492185,-3.1579519897460937,-14.396946564885496,54.732824427480914,6.595419847328245,0.0
10.700000524520874,-8.398859423828124,-0.7829039428710937,-2.559401574707031,105.16030534351145,-97.02290076335878,-17.480916030534353,-10.644620581054687,-4.50109912109375,-2.020706201171875,-3.877862595419847,60.56488549618321,4.091603053435114,0.0
10.71000051498413,-8.250418920898436,1.2737152832031249,-1.3862427612304686,104.85496183206106,-76.1526717557252,-16.564885496183205,-12.033257543945313,-5.200206005859375,-0.584185205078125,14.549618320610687,60.44274809160305,5.068702290076335,0.0
10.720000267028809,-8.549694128417968,3.342305517578125,-0.201112939453125,89.02290076335878,-59.70992366412214,-16.442748091603054,-10.888829150390624,-3.8187516479492185,0.16519991455078123,29.770992366412212,61.083969465648856,3.0839694656488548,0.0
10.730000734329224,-9.131485131835937,4.8698061767578125,0.0,70.22900763358778,-49.725190839694655,-10.916030534351146,-10.565611926269531,-3.296815686035156,0.076614453125,50.091603053435115,56.85496183206107,2.7022900763358777,0.0
10.740000247955322,-8.202534887695313,5.511452221679687,-0.7326257080078125,43.00763358778626,-47.64885496183206,-5.022900763358779,-9.993397729492187,-2.0063409912109376,0.5602431884765625,63.083969465648856,51.14503816793893,0.44274809160305345,0.0
10.750000715255737,-10.347739575195313,7.060500695800781,-0.055066638183593745,9.938931297709924,-43.603053435114504,-1.5267175572519085,-7.378929516601562,3.1028853515624997,-0.814028564453125,52.045801526717554,46.213740458015266,-3.984732824427481,0.0
10.760000944137573,-8.693346228027343,7.656656909179687,-0.6272808349609375,-23.770992366412212,-49.6793893129771,9.541984732824428,-7.237671618652343,4.115632653808594,-0.4165910888671875,20.763358778625953,57.20610687022901,2.0916030534351147,0.0
10.770000457763672,-6.129156249999999,5.6958057495117185,-2.0350714111328125,-43.404580152671755,-46.58015267175573,23.236641221374047,-9.344569079589844,1.5490484741210937,0.8643067993164062,5.923664122137405,65.61832061068702,13.816793893129772,0.0
10.780000686645508,-4.019864587402344,2.9448680419921875,-3.5194764404296874,-56.274809160305345,-37.87786259541985,29.587786259541986,-9.859322436523437,-0.46208092041015625,1.0103531005859374,6.900763358778626,65.08396946564885,16.229007633587788,0.0
10.790000677108765,-1.2904746948242187,0.4429273071289062,-5.05655390625,-49.847328244274806,-23.0381679389313,33.587786259541986,-9.2320416015625,-1.2976572998046874,1.3048399047851562,7.801526717557252,67.16030534351145,14.748091603053435,0.0
10.800000667572021,-1.944091748046875,-0.24899697265624998,-4.048595007324218,-45.45038167938932,6.5038167938931295,31.587786259541986,-9.054870678710937,-2.722207287597656,1.4149731811523436,19.603053435114504,63.9236641221374,13.954198473282442,0.0
10.8100004196167,0.011971008300781249,-2.6408044311523438,-3.517082238769531,-28.35114503816794,29.603053435114504,29.114503816793892,-6.902483386230468,-0.10295067138671875,0.12449848632812499,21.17557251908397,56.19847328244275,10.335877862595419,0.0
10.820000648498535,-2.1164742675781247,-1.369483349609375,-0.02154781494140625,-30.50381679389313,51.06870229007634,18.564885496183205,-8.149862451171874,0.26336218261718747,1.4221557861328125,10.15267175572519,61.45038167938932,13.129770992366412,0.0
10.830000638961792,0.7876923461914062,-4.774038110351563,-0.3447650390625,-24.03053435114504,59.221374045801525,16.0,-8.74601866455078,-2.3247698120117186,2.463633508300781,13.86259541984733,58.48854961832061,16.16793893129771,0.0
10.84000039100647,-0.08140285644531249,-4.3622354248046875,2.042254016113281,-2.2748091603053435,84.0,4.198473282442748,-10.369287390136718,-3.047818713378906,2.0278888061523435,21.053435114503817,49.83206106870229,15.98473282442748,0.0
10.850000619888306,2.0278888061523435,-5.511452221679687,1.16837041015625,18.916030534351144,93.29770992366412,-5.66412213740458,-7.560888842773437,-0.373495458984375,1.7429788085937499,16.83969465648855,42.97709923664122,10.030534351145038,0.0
10.860000848770142,-0.34237083740234375,-1.6735469604492186,3.9456443359374997,51.3587786259542,119.90839694656489,-15.938931297709924,-7.649474304199218,-0.105344873046875,2.1404162841796874,0.15267175572519084,46.0,10.427480916030534,0.0
10.87000036239624,-0.679953271484375,-3.009511486816406,4.668693237304687,71.95419847328245,127.78625954198473,-21.053435114503817,-9.488221179199218,-0.8499415893554687,3.2417490478515623,-1.8473282442748091,44.79389312977099,13.145038167938932,0.0
10.880000591278076,-4.036623999023437,-2.0973206542968748,8.489839086914062,99.0381679389313,139.0381679389313,-31.022900763358777,-9.548076220703125,-1.3239935180664062,2.683900061035156,-3.1908396946564888,38.595419847328245,13.038167938931299,0.0
10.890004396438599,-6.720524060058593,-0.9888052856445312,9.710881933593749,102.41221374045801,130.3053435114504,-42.656488549618324,-9.296685046386719,1.6927005737304686,2.118868469238281,-10.045801526717558,36.68702290076336,10.793893129770993,0.0
10.90000033378601,-11.774683764648437,5.236119030761718,12.674903588867187,91.61832061068702,115.48091603053435,-47.55725190839695,-7.467514978027343,2.7246014892578123,0.9816226806640624,-31.435114503816795,35.16030534351145,10.106870229007633,0.0
10.910000562667847,-17.566257580566404,9.991003527832031,15.643713647460936,55.725190839694655,77.80152671755725,-38.045801526717554,-8.190563879394531,1.1156979736328125,2.3582886352539063,-57.38931297709924,43.81679389312977,16.778625954198475,0.0
10.920000314712524,-15.885528015136718,11.257536206054686,14.923058947753905,57.770992366412216,56.534351145038165,-6.580152671755725,-7.513004809570312,-2.607285607910156,2.1811177124023438,-57.083969465648856,41.969465648854964,21.770992366412212,0.0
10.93000054359436,-17.341202624511716,11.204863769531249,15.796942553710936,10.51908396946565,17.84732824427481,5.786259541984733,-6.7085530517578125,-3.4620156005859375,1.2593500732421874,-51.19083969465649,32.778625954198475,19.541984732824428,0.0
10.940000534057617,-12.581529724121093,7.9295958984374995,10.594342346191405,-16.580152671755727,-21.84732824427481,20.137404580152673,-5.6024318847656245,-2.2194249389648437,1.235408056640625,-57.343511450381676,31.46564885496183,17.068702290076335,0.0
10.950000286102295,-9.94072529296875,4.8506525634765625,8.95670841064453,-25.358778625954198,-40.87022900763359,29.633587786259543,-7.204152795410156,-4.074931225585937,2.4396914916992185,-55.20610687022901,34.01526717557252,21.572519083969464,0.0
10.96000051498413,-8.607154968261717,3.294421484375,7.606378674316406,-15.221374045801527,-55.725190839694655,31.83206106870229,-7.410054138183593,-5.432443566894531,1.4532804077148436,-35.847328244274806,21.83206106870229,22.65648854961832,0.0
10.970000743865967,-6.718129858398437,2.703053674316406,3.239354846191406,-6.213740458015267,-59.16030534351145,35.48091603053435,-9.588777648925781,-5.865794067382812,2.109291662597656,-31.84732824427481,19.893129770992367,22.946564885496183,0.0
10.980000495910645,-8.190563879394531,-0.040701428222656245,6.004657763671875,7.572519083969466,-52.091603053435115,39.63358778625954,-7.64229169921875,-2.9640216552734375,0.02633621826171875,-34.50381679389313,15.236641221374045,18.702290076335878,0.0
10.99000072479248,-10.824185705566405,-2.0757728393554684,10.005368737792969,33.49618320610687,-48.595419847328245,40.68702290076336,-9.969455712890625,-3.8666356811523435,0.18435352783203124,-29.786259541984734,13.129770992366412,19.221374045801525,0.0
11.000000476837158,-16.33803212890625,-2.29843359375,14.638148950195312,57.38931297709924,-43.06870229007634,35.89312977099237,-11.135431921386719,-2.2601263671875,-1.2114660400390624,-28.366412213740457,9.908396946564885,19.31297709923664,0.0
11.010000467300415,-16.692373974609374,1.0295067138671874,11.413159313964844,63.908396946564885,-52.48854961832061,29.786259541984734,-12.765883251953124,-2.1116858642578125,-1.5035586425781249,-22.549618320610687,7.358778625954199,17.587786259541986,0.0
11.020000696182251,-17.81764875488281,3.900154504394531,8.815450512695312,43.02290076335878,-63.81679389312977,24.68702290076336,-13.77144794921875,-2.2936451904296873,-1.0869675537109373,-13.34351145038168,-1.0229007633587786,12.061068702290076,0.0
11.030000686645508,-13.59188282470703,0.4285620971679687,4.206612316894531,31.099236641221374,-72.82442748091603,26.27480916030534,-13.869610217285155,0.7278373046875,-0.7637503295898437,-18.717557251908396,-3.83206106870229,6.1679389312977095,0.0
11.040000438690186,-11.461043347167967,5.49708701171875,-5.53539423828125,37.908396946564885,-63.786259541984734,28.946564885496183,-15.351621044921874,1.3072341064453123,0.076614453125,-22.916030534351144,-14.549618320610687,5.435114503816794,0.0
11.050000667572021,-7.671022119140624,3.9695863525390624,-11.022904443359375,9.099236641221374,-42.458015267175576,27.81679389312977,-17.604564807128906,-0.6871358764648438,0.8188169677734375,-26.549618320610687,-24.091603053435115,7.709923664122138,0.0
11.060000658035278,-9.275137231445312,-0.02154781494140625,-9.892841259765625,-22.076335877862597,-26.244274809160306,23.267175572519083,-18.64843673095703,-0.8116343627929687,-0.21787235107421873,-19.66412213740458,-38.61068702290076,4.351145038167939,0.0
11.070000410079956,-7.659051110839843,-3.2609026611328122,-11.903970654296874,-23.419847328244273,-5.099236641221374,20.931297709923665,-19.278111767578125,-0.4429273071289062,0.1580173095703125,-14.748091603053435,-47.038167938931295,1.2671755725190839,0.0
11.080000400543213,-7.180210778808593,-2.473210314941406,-12.088324182128906,-29.34351145038168,21.022900763358777,12.595419847328245,-17.635689428710936,-0.33039982910156246,-1.024718310546875,-3.1297709923664123,-60.01526717557252,-1.0687022900763359,0.0
11.090000629425049,-8.978256225585938,-0.2753331909179687,-8.528146313476562,-36.67175572519084,33.66412213740458,-0.4580152671755725,-15.588647009277343,2.1308394775390624,-3.5242648437499997,-0.07633587786259542,-71.89312977099236,-2.6259541984732824,0.0
11.100000858306885,-9.258377819824219,-0.6751648681640625,-7.510610607910156,-33.98473282442748,43.099236641221374,-1.9541984732824427,-15.421052893066406,1.7573440185546874,-2.463633508300781,-10.396946564885496,-64.30534351145039,1.4809160305343512,0.0
11.110000610351562,-11.240776794433593,-1.4006079711914061,-3.289633081054687,-19.81679389312977,67.86259541984732,-6.061068702290076,-14.891934326171874,0.1771709228515625,-2.6719290527343746,-4.488549618320611,-64.10687022900764,1.9083969465648856,0.0
11.120000839233398,-13.081917871093749,0.4644751220703125,-0.8379705810546875,-15.603053435114504,79.49618320610686,-14.427480916030534,-13.881581225585936,1.13006318359375,-3.7038299682617186,-8.045801526717558,-60.274809160305345,-1.9236641221374047,0.0
11.130000591278076,-13.2926076171875,-0.05985504150390625,-0.45010991210937495,-19.923664122137403,79.52671755725191,-15.282442748091603,-14.391546179199217,1.3910311645507811,-2.8706477905273435,-9.541984732824428,-43.66412213740458,-3.8931297709923665,0.0
11.140000343322754,-13.4458365234375,-0.0143652099609375,0.63206923828125,-18.82442748091603,81.48091603053435,-16.458015267175572,-13.646949462890625,1.369483349609375,-1.8339584716796873,-14.977099236641221,-34.30534351145038,-4.2748091603053435,0.0
11.15000033378601,-11.611878051757811,0.3806780639648437,-0.8906430175781249,-23.938931297709924,76.30534351145039,-16.717557251908396,-11.516109985351562,2.863465185546875,-2.4157494750976563,-22.595419847328245,-33.12977099236641,-6.0458015267175576,0.0
11.160000324249268,-10.951078393554686,1.7262193969726563,-1.2497732666015624,-22.717557251908396,75.8473282442748,-16.53435114503817,-11.413159313964844,0.3232172241210937,-0.852335791015625,-28.015267175572518,-24.702290076335878,-2.687022900763359,0.0
11.170000314712524,-9.909600671386718,0.26815058593749996,-1.7645266235351562,-29.603053435114504,71.66412213740458,-15.801526717557252,-10.637437976074217,-0.8451531860351562,-0.7302315063476562,-18.412213740458014,-24.48854961832061,-3.267175572519084,0.0
11.180000305175781,-9.758765966796874,0.8834604125976562,-1.6519991455078125,-31.31297709923664,69.58778625954199,-17.099236641221374,-10.551246716308594,-1.1372457885742187,-0.6081272216796875,-5.679389312977099,-25.129770992366414,-5.7251908396946565,0.0
11.190000534057617,-10.297461340332031,0.08140285644531249,-0.7541735229492187,-31.358778625954198,71.86259541984732,-17.404580152671755,-8.022969763183593,0.9193734375,-1.7836802368164062,-3.5267175572519083,-29.282442748091604,-9.526717557251908,0.0
11.200000524520874,-9.423577734375,0.51714755859375,0.08140285644531249,-34.229007633587784,73.55725190839695,-17.81679389312977,-9.605537060546874,0.5315127685546874,-0.24660277099609373,-2.854961832061069,-21.908396946564885,-5.312977099236641,0.0
11.21000051498413,-9.689334118652344,-0.8930372192382812,0.5913678100585937,-31.49618320610687,79.06870229007633,-18.748091603053435,-10.228029492187499,-1.139639990234375,0.6679822631835937,9.053435114503817,-24.198473282442748,-2.1068702290076335,0.0
11.220000267028809,-9.969455712890625,-1.4604630126953124,1.7836802368164062,-25.603053435114504,82.91603053435115,-22.9618320610687,-9.72285294189453,-0.9576806640625,-0.0047884033203125,13.17557251908397,-31.633587786259543,-3.8931297709923665,0.0
11.230000257492065,-10.141838232421874,-0.9624690673828125,2.221819140625,-21.328244274809162,86.8854961832061,-27.083969465648856,-9.162609753417968,-11.183315954589844,5.626373901367187,28.03053435114504,-27.923664122137403,-0.549618320610687,0.0
11.240000486373901,-9.923965881347655,-4.132392065429687,1.2904746948242187,-13.34351145038168,81.81679389312977,-30.65648854961832,-13.424288708496093,-7.649474304199218,2.731784094238281,86.45801526717557,-62.67175572519084,-11.114503816793894,0.0
11.250000476837158,-11.324573852539062,-1.5729904907226562,2.3678654418945313,3.8931297709923665,83.41984732824427,-39.66412213740458,-11.633425866699218,-1.3048399047851562,1.2282254516601563,90.54961832061069,-77.48091603053435,-24.885496183206108,0.0
11.260000705718994,-9.813832604980469,0.2657563842773437,2.1835119140624997,-8.213740458015268,76.06106870229007,-38.48854961832061,-8.724470849609375,2.2936451904296873,0.35673604736328124,68.9618320610687,-75.63358778625954,-32.68702290076336,0.0
11.270000696182251,-12.382810986328124,3.9169139160156248,3.967192150878906,-26.16793893129771,72.85496183206106,-39.48091603053435,-9.03332286376953,0.6679822631835937,2.308010400390625,45.06870229007634,-67.48091603053435,-21.938931297709924,0.0
11.280000448226929,-11.027692846679686,3.414131567382812,2.789244934082031,-47.221374045801525,58.18320610687023,-36.6412213740458,-6.392518432617187,1.8626888916015625,0.6512228515624999,29.358778625954198,-74.47328244274809,-15.49618320610687,0.0
11.290000677108765,-9.9215716796875,2.2170307373046874,1.5298948608398437,-46.47328244274809,55.64885496183206,-30.99236641221374,-7.352593298339843,1.3263877197265623,0.8595183959960937,14.977099236641221,-65.14503816793894,-7.038167938931298,0.0
11.300000667572021,-8.245630517578125,0.4070142822265625,0.1771709228515625,-30.137404580152673,62.045801526717554,-25.251908396946565,-6.423643054199219,0.7230489013671875,0.35194764404296874,2.732824427480916,-57.23664122137404,-4.763358778625954,0.0
11.310000658035278,-10.455478649902343,2.269703173828125,2.020706201171875,-30.458015267175572,67.70992366412214,-27.206106870229007,-8.01818135986328,-1.7980454467773437,-0.3184288208007812,5.801526717557252,-49.37404580152672,-2.717557251908397,0.0
11.320000648498535,-9.176974963378905,1.3048399047851562,0.8164227661132812,-26.091603053435115,63.81679389312977,-25.954198473282442,-7.414842541503906,-1.0486603271484374,-0.8906430175781249,8.396946564885496,-47.69465648854962,-7.32824427480916,0.0
11.330000638961792,-10.764330664062498,3.191470812988281,1.448492004394531,-25.404580152671755,62.93129770992366,-21.435114503816795,-7.017405065917968,-2.9185318237304685,-0.34715924072265625,9.083969465648854,-37.06870229007634,-9.17557251908397,0.0
11.34000039100647,-8.693346228027343,1.0438719238281249,0.4908113403320312,-25.114503816793892,58.152671755725194,-17.6793893129771,-8.86812294921875,-4.00310517578125,-0.22026655273437498,25.297709923664122,-34.3206106870229,-8.732824427480915,0.0
11.350000619888306,-10.500968481445312,2.786850732421875,1.5514426757812498,-20.99236641221374,60.33587786259542,-18.366412213740457,-9.782707983398437,-3.071760729980469,0.6727706665039062,42.30534351145038,-36.47328244274809,-10.763358778625955,0.0
11.360000848770142,-10.388441003417968,1.2306196533203124,1.5442600708007812,-24.732824427480917,56.67175572519084,-17.297709923664122,-7.3549875,-0.5243301635742187,-1.0319009155273438,42.79389312977099,-38.48854961832061,-16.99236641221374,0.0
11.37000060081482,-12.612654345703124,3.7301661865234372,3.4835634155273434,-31.31297709923664,53.12977099236641,-15.557251908396946,-7.812280017089844,-0.5363011718749999,-0.4572925170898437,38.274809160305345,-26.38167938931298,-16.595419847328245,0.0
11.380000829696655,-10.632649572753905,2.059013427734375,2.9927520751953125,-46.25954198473283,39.954198473282446,-12.50381679389313,-8.865728747558594,-1.8602946899414061,0.12449848632812499,43.89312977099237,-24.35114503816794,-14.534351145038167,0.0
11.390000581741333,-12.457031237792968,2.5641899780273434,3.7995980346679685,-35.52671755725191,40.778625954198475,-11.648854961832061,-9.382876306152344,-0.8355763793945312,0.03591302490234375,50.412213740458014,-27.022900763358777,-16.38167938931298,0.0
11.40000033378601,-10.548852514648438,0.7924807495117187,2.319981408691406,-24.458015267175572,36.274809160305345,-9.022900763358779,-7.41244833984375,0.4165910888671875,-0.6775590698242188,47.61832061068702,-25.740458015267176,-20.427480916030536,0.0
11.410000562667847,-10.321403356933594,0.9050082275390624,2.1643583007812497,-19.328244274809162,31.984732824427482,-7.374045801526718,-6.385335827636719,2.023100402832031,-1.8531120849609375,36.93129770992366,-16.396946564885496,-22.977099236641223,0.0
11.420000314712524,-10.409988818359375,1.8602946899414061,2.6575638427734374,-15.725190839694656,30.33587786259542,-8.305343511450381,-7.340622290039062,-0.5291185668945312,0.18914193115234373,28.366412213740457,1.465648854961832,-16.198473282442748,0.0
11.43000054359436,-11.228805786132812,1.6998831787109374,2.7461493041992187,-16.12213740458015,24.793893129770993,-7.32824427480916,-7.958326318359375,-0.4836287353515625,0.19393033447265623,31.16030534351145,3.267175572519084,-14.076335877862595,0.0
11.440000295639038,-10.874463940429687,1.0438719238281249,2.8275521606445313,-3.2213740458015265,23.84732824427481,-5.7251908396946565,-8.054094384765625,-0.13646949462890623,-0.08140285644531249,33.86259541984733,4.580152671755725,-15.755725190839694,0.0
11.450000524520874,-10.491391674804687,0.7350199096679687,2.942473840332031,3.3435114503816794,19.69465648854962,-4.748091603053435,-7.584830859375,0.20350714111328125,0.36152445068359373,29.267175572519083,9.679389312977099,-17.786259541984734,0.0
11.46000051498413,-10.39322940673828,0.6607996582031249,2.978386865234375,10.778625954198473,18.83969465648855,-5.648854961832061,-8.583212951660157,0.30885201416015623,0.25139117431640623,32.396946564885496,13.267175572519085,-15.83206106870229,0.0
11.470000743865967,-9.7683427734375,0.5722141967773438,2.2960393920898436,16.82442748091603,14.610687022900763,-7.221374045801527,-8.437166650390624,0.488417138671875,0.6081272216796875,29.480916030534353,15.083969465648854,-15.053435114503817,0.0
11.480000495910645,-9.445125549316407,0.7326257080078125,2.3056161987304686,20.27480916030534,14.305343511450381,-8.198473282442748,-8.576030346679687,0.8571241943359375,1.0726023437499999,26.595419847328245,17.328244274809162,-14.229007633587786,0.0
11.490000486373901,-8.827421520996094,0.47644613037109373,2.0781670410156248,24.50381679389313,12.732824427480915,-8.931297709923664,-8.353369592285155,0.469263525390625,1.9536685546875,20.763358778625953,17.51145038167939,-14.198473282442748,0.0
11.500000476837158,-8.86812294921875,1.5658078857421873,2.365471240234375,26.03053435114504,12.458015267175572,-10.458015267175572,-8.980650427246093,0.373495458984375,2.4851813232421875,15.450381679389313,19.603053435114504,-12.961832061068701,0.0
11.510000705718994,-9.050082275390624,2.712630480957031,2.1835119140624997,21.61832061068702,8.15267175572519,-10.748091603053435,-6.758831286621094,2.1212626708984375,1.1516109985351561,3.633587786259542,16.106870229007633,-15.709923664122137,0.0
11.52000093460083,-9.30147344970703,3.248931652832031,2.0566192260742184,17.374045801526716,7.129770992366412,-8.854961832061068,-7.989450939941406,0.45968671875,3.0621839233398433,-8.580152671755725,24.702290076335878,-11.893129770992367,0.0
11.530000925064087,-8.913612780761719,2.8323405639648436,1.675941162109375,10.274809160305344,4.595419847328245,-6.137404580152672,-8.568847741699217,-0.5243301635742187,2.607285607910156,-6.717557251908397,17.801526717557252,-9.83206106870229,0.0
11.540000438690186,-9.26316622314453,3.2417490478515623,1.6112977172851561,8.732824427480915,3.618320610687023,-6.137404580152672,-7.996633544921875,-0.9911994873046874,2.528276953125,-11.465648854961833,14.854961832061068,-11.114503816793894,0.0
11.550000667572021,-9.265560424804686,2.9831752685546875,1.5729904907226562,3.969465648854962,3.6946564885496183,-4.748091603053435,-7.134720947265625,-0.4213794921875,1.7094599853515624,-13.648854961832061,8.610687022900763,-14.106870229007633,0.0
11.5600004196167,-9.562441430664062,3.287238879394531,1.9009961181640624,-2.8702290076335877,2.9160305343511452,-3.7099236641221376,-7.572859851074218,-0.6584054565429687,2.882618798828125,-29.81679389312977,17.358778625954198,-13.587786259541986,0.0
11.570000410079956,-9.356540087890625,2.6192566162109374,1.9800047729492187,-10.183206106870228,2.1068702290076335,-0.8396946564885496,-6.272808349609375,-0.5961562133789062,1.9129671264648436,-41.52671755725191,15.633587786259541,-13.786259541984732,0.0
11.580000638961792,-9.208099584960937,2.6216508178710938,2.114080065917969,-14.076335877862595,1.8931297709923665,0.48854961832061067,-8.224082702636718,-2.2649147705078123,3.833116857910156,-52.045801526717554,22.65648854961832,-9.633587786259541,0.0
11.590000629425049,-8.923189587402343,1.7118541870117185,2.3965958618164063,-22.0,-1.5419847328244274,2.0,-8.530540515136718,-3.4452561889648434,3.871424084472656,-39.02290076335878,10.51908396946565,-7.587786259541985,0.0
11.600000858306885,-8.712499841308594,1.1348515869140625,2.8562825805664063,-18.625954198473284,-2.931297709923664,1.3435114503816794,-9.488221179199218,-3.787627026367187,4.656722229003906,-27.358778625954198,2.7480916030534353,-9.801526717557252,0.0
11.610000610351562,-8.566453540039062,1.2234370483398436,3.5242648437499997,-20.16793893129771,-6.366412213740458,0.8854961832061069,-9.064447485351561,-3.2561142578125,4.508281726074219,-15.938931297709924,-5.847328244274809,-13.893129770992367,0.0
11.620000839233398,-8.48505068359375,1.0989385620117187,4.434061474609375,-16.03053435114504,-9.801526717557252,-0.3053435114503817,-8.169016064453125,-2.269703173828125,4.065354418945312,-4.99236641221374,-13.618320610687023,-15.022900763358779,0.0
11.630000591278076,-9.581595043945311,1.9823989746093749,6.584054565429687,-17.69465648854962,-16.977099236641223,-1.9083969465648856,-6.76122548828125,-0.5722141967773438,3.6439749267578123,-7.419847328244275,-15.679389312977099,-14.091603053435115,0.0
11.640000581741333,-9.583989245605467,1.3192051147460937,8.149862451171874,-11.114503816793894,-27.46564885496183,0.5648854961832062,-6.694187841796874,-0.9504980590820312,3.754108203125,-6.6106870229007635,-17.31297709923664,-9.206106870229007,0.0
11.65000057220459,-11.793837377929687,5.5090580200195305,11.77228956298828,-9.251908396946565,-41.52671755725191,0.12213740458015267,-6.825868933105468,-1.0965443603515623,4.077325427246094,-9.404580152671755,-17.938931297709924,-6.458015267175573,0.0
11.660000324249268,-11.839327209472655,5.7077767578125,12.7563064453125,-19.72519083969466,-71.29770992366412,7.633587786259542,-6.967126831054687,-1.3814543579101561,2.839523168945312,-8.702290076335878,-20.83969465648855,-6.458015267175573,0.0
11.670000553131104,-13.041216442871093,5.853823059082031,15.571887597656248,-17.66412213740458,-98.0,16.717557251908396,-8.360552197265624,-2.0542250244140625,1.68551796875,-5.66412213740458,-18.778625954198475,-8.0,0.0
11.68000054359436,-13.532027783203125,4.620809204101562,17.532738757324218,-21.236641221374047,-137.63358778625954,20.99236641221374,-11.77228956298828,-1.3838485595703125,2.9664158569335934,-0.030534351145038167,-14.213740458015268,-13.511450381679388,0.0
11.690000534057617,-14.712369201660156,2.3295582153320313,18.13847177734375,-4.259541984732825,-171.06870229007635,24.702290076335878,-17.472883715820313,-1.5251064575195312,7.1778165771484375,3.5572519083969465,-17.404580152671755,-20.244274809160306,0.0
11.700000524520874,-13.493720556640625,-0.9504980590820312,13.295001818847656,-0.48854961832061067,-197.7709923664122,25.16030534351145,-20.992360156249998,-1.608903515625,9.964667309570311,11.16030534351145,-30.33587786259542,-24.65648854961832,0.0
11.71000051498413,-17.427393884277343,-2.588131994628906,9.749189160156249,-13.221374045801527,-220.01526717557252,13.038167938931299,-18.641254125976563,0.718260498046875,8.583212951660157,10.82442748091603,-44.88549618320611,-25.633587786259543,0.0
11.720000505447388,-18.239028247070312,-3.0933085449218747,4.824316345214844,-13.969465648854962,-246.94656488549617,4.656488549618321,-15.066711047363281,3.2417490478515623,6.291961962890625,-4.2748091603053435,-44.74809160305343,-16.80916030534351,0.0
11.730000734329224,-18.83279025878906,-1.7764976318359373,1.3958195678710936,9.83206106870229,-254.82442748091603,3.1297709923664123,-9.76116016845703,3.1196447631835937,0.18914193115234373,-26.580152671755727,-36.29007633587786,-3.435114503816794,0.0
11.740000486373901,-16.577452294921873,-2.7557261108398436,-2.31758720703125,52.50381679389313,-255.9083969465649,13.450381679389313,-5.2073886108398435,3.890577697753906,-6.500257507324219,-43.86259541984733,-22.732824427480917,6.778625954198473,0.0
11.750000715255737,-16.84799708251953,1.2665326782226562,-3.766079211425781,89.14503816793894,-235.45038167938932,29.84732824427481,-2.212242333984375,5.609614489746093,-9.442731347656249,-63.66412213740458,-11.450381679389313,11.633587786259541,0.0
11.760000467300415,-16.412252380371093,0.44053310546874996,-3.9695863525390624,97.05343511450381,-220.1679389312977,37.20610687022901,-5.051765502929687,-0.6536170532226562,-5.7317187744140625,-71.40458015267176,8.961832061068701,19.954198473282442,0.0
11.770000696182251,-12.416329809570312,-0.23702596435546874,-4.675875842285156,110.09160305343511,-197.49618320610688,39.725190839694655,-4.7931917236328125,-5.049371301269531,-4.321533996582031,-69.55725190839695,13.419847328244275,16.0,0.0
11.780000686645508,-9.964667309570311,1.1444283935546875,-4.493916516113281,101.40458015267176,-170.54961832061068,29.923664122137403,-8.8489693359375,-8.846575134277343,-1.898601916503906,-53.61832061068702,28.85496183206107,12.51908396946565,0.0
11.790000677108765,-9.380482104492186,0.9313444458007812,-2.3032219970703123,85.90839694656489,-140.35114503816794,20.137404580152673,-8.999804040527343,-8.298302954101562,-3.4572271972656248,-29.96946564885496,29.374045801526716,7.114503816793893,0.0
11.800000667572021,-8.734047656249999,0.6009446166992187,-0.36152445068359373,83.46564885496183,-118.18320610687023,15.312977099236642,-12.349292163085936,-6.114791040039062,-2.5043349365234375,-8.931297709923664,36.534351145038165,5.587786259541985,0.0
11.810000658035278,-8.001421948242188,0.7278373046875,-0.1867477294921875,80.6412213740458,-97.86259541984732,12.564885496183207,-11.180921752929686,-3.6391865234374996,-2.31758720703125,0.5190839694656488,36.87022900763359,-0.42748091603053434,0.0
11.820000648498535,-9.311050256347656,3.5386300537109374,0.22266075439453123,64.36641221374046,-82.03053435114504,10.122137404580153,-11.286266625976562,-3.9624037475585934,-0.36391865234375,12.992366412213741,38.74809160305343,-0.9312977099236641,0.0
11.830000877380371,-8.528146313476562,4.304774584960938,-0.8858546142578124,40.68702290076336,-74.9618320610687,15.267175572519085,-9.124302526855468,0.6512228515624999,-1.1013327636718748,16.610687022900763,30.16793893129771,-5.923664122137405,0.0
11.840001106262207,-8.508992700195313,5.044582897949218,-1.0223241088867188,8.549618320610687,-64.36641221374046,20.702290076335878,-8.978256225585938,1.1923124267578125,0.32082302246093747,5.816793893129771,38.13740458015267,-2.0916030534351147,0.0
11.850000619888306,-5.65031591796875,2.3343466186523436,-3.327940307617187,-20.82442748091603,-59.81679389312977,29.740458015267176,-8.104372619628906,1.149216796875,0.11013327636718749,7.816793893129771,36.97709923664122,1.1297709923664123,0.0
11.860000610351562,-5.142745166015625,1.1276689819335937,-3.1675287963867187,-36.82442748091603,-42.42748091603053,29.17557251908397,-8.02536396484375,2.6192566162109374,-0.9193734375,-4.67175572519084,42.213740458015266,2.7480916030534353,0.0
11.87000060081482,-3.450044592285156,0.354341845703125,-5.580884069824219,-41.80152671755725,-33.45038167938932,28.427480916030536,-9.016563452148437,0.16041151123046873,-0.4333505004882812,-7.877862595419847,46.3206106870229,6.717557251908397,0.0
11.880000829696655,-4.764461303710937,1.8243816650390623,-5.425260961914062,-55.87786259541985,-14.748091603053435,26.0,-9.847351428222655,-0.9648632690429687,-0.1388636962890625,-4.366412213740458,45.66412213740458,10.473282442748092,0.0
11.890000581741333,-2.521094348144531,0.9888052856445312,-8.212111694335936,-56.87022900763359,3.282442748091603,28.27480916030534,-8.765172277832031,0.6512228515624999,-1.189918225097656,-10.900763358778626,46.458015267175576,10.0,0.0
11.90000057220459,-2.8706477905273435,2.1715409057617188,-7.802703210449218,-65.34351145038168,29.923664122137403,30.65648854961832,-10.228029492187499,-1.7310078002929687,0.37828386230468747,-11.099236641221374,51.11450381679389,15.83206106870229,0.0
11.910000562667847,0.8667010009765624,-3.27526787109375,-10.12507882080078,-62.51908396946565,55.20610687022901,37.908396946564885,-11.034875451660156,-4.165910888671875,1.5634136840820312,2.6259541984732824,50.50381679389313,19.17557251908397,0.0
11.920000553131104,1.0654197387695312,-5.7125651611328125,-6.955155822753905,-49.19083969465649,90.30534351145039,31.16030534351145,-9.418789331054686,-1.838746875,0.8379705810546875,11.068702290076336,43.7557251908397,15.86259541984733,0.0
11.93000054359436,1.4700398193359374,-8.350975390624999,-3.2561142578125,-52.229007633587784,111.87786259541984,12.305343511450381,-9.502586389160156,-0.7685387329101562,1.5394716674804687,12.610687022900763,43.267175572519086,14.229007633587786,0.0
11.940000534057617,-1.0295067138671874,-7.431601953125,1.7669208251953124,-50.30534351145038,132.19847328244273,-15.022900763358779,-8.161833459472655,-0.7972691528320313,2.5546131713867184,6.549618320610687,42.06106870229008,15.877862595419847,0.0
11.950000524520874,-1.8004396484374998,-6.854599353027344,2.597708801269531,-39.98473282442748,135.9236641221374,-36.80916030534351,-7.869740856933594,-1.0414777221679687,3.342305517578125,-0.9465648854961832,41.14503816793893,18.290076335877863,0.0
11.96000051498413,-3.5290532470703124,-5.154716174316406,5.327098693847656,-7.450381679389313,145.4198473282443,-49.41984732824427,-6.445190869140625,-0.13646949462890623,3.086125939941406,-11.969465648854962,35.81679389312977,19.450381679389313,0.0
11.970000743865967,-5.315127685546875,-2.722207287597656,11.815385192871092,40.29007633587786,147.9236641221374,-53.16030534351145,-6.2009822998046875,0.7134720947265625,3.9432501342773434,-31.358778625954198,39.11450381679389,21.358778625954198,0.0
11.980000257492065,-8.590395556640624,2.463633508300781,17.532738757324218,84.29007633587786,139.0381679389313,-46.916030534351144,-5.614402893066406,1.956062756347656,3.0909143432617188,-51.16030534351145,35.93893129770992,22.83969465648855,0.0
11.99000072479248,-14.15452021484375,11.654973681640625,20.32677209472656,75.14503816793894,117.70992366412214,-35.847328244274806,-8.382100012207031,-0.8786720092773437,4.266467358398438,-64.21374045801527,39.63358778625954,27.908396946564885,0.0
12.000000476837158,-14.417882397460936,9.452308154296874,17.937358837890624,46.19847328244275,84.50381679389314,-17.96946564885496,-9.528922607421874,-2.942473840332031,3.9839515624999997,-57.343511450381676,31.69465648854962,27.282442748091604,0.0
12.010000705718994,-18.70589757080078,9.847351428222655,18.600552697753905,3.2519083969465647,43.57251908396947,-6.534351145038168,-10.62307276611328,-3.8857892944335934,3.821145849609375,-42.97709923664122,21.480916030534353,25.572519083969464,0.0
12.020000696182251,-18.902222106933593,7.606378674316406,16.984466577148435,-29.450381679389313,1.7099236641221374,7.206106870229007,-8.142679846191406,-0.9002198242187499,2.068590234375,-44.778625954198475,15.206106870229007,22.3206106870229,0.0
12.030000686645508,-12.528857287597656,5.2456958374023435,12.741941235351561,-7.312977099236641,-26.732824427480917,27.923664122137403,-7.884106066894531,-1.7956512451171873,2.3343466186523436,-50.900763358778626,17.206106870229007,26.47328244274809,0.0
12.040000677108765,-6.248866333007812,5.925649108886718,5.839457849121094,17.297709923664122,-41.14503816793893,37.954198473282446,-5.595249279785156,-1.6448165405273436,0.4381389038085937,-58.213740458015266,17.938931297709924,30.03053435114504,0.0
12.050000667572021,-1.1156979736328125,5.329492895507812,-3.27526787109375,18.778625954198475,-38.29007633587786,44.3206106870229,-6.093243225097656,-3.6008792968749996,0.15562310791015624,-48.87022900763359,22.931297709923665,35.847328244274806,0.0
12.060000896453857,-0.7398083129882812,-1.1468225952148436,-3.318363500976562,4.625954198473282,-27.31297709923664,37.70992366412214,-6.734889270019531,-3.708618371582031,-1.419761584472656,-32.99236641221374,20.366412213740457,37.80152671755725,0.0
12.070000648498535,-6.177040283203125,-6.849810949707031,5.200206005859375,11.450381679389313,-6.8396946564885495,25.053435114503817,-9.928754284667969,-5.209782812499999,-0.4261678955078125,-33.20610687022901,27.0381679389313,37.63358778625954,0.0
12.080000638961792,-16.730681201171873,-6.9168485961914055,15.931017846679687,18.061068702290076,-9.389312977099237,7.938931297709924,-12.241553088378906,-6.4739212890625,-0.8188169677734375,-25.374045801526716,24.137404580152673,31.34351145038168,0.0
12.090000629425049,-21.47598889160156,4.029441394042968,14.482525842285156,84.1526717557252,-19.206106870229007,7.129770992366412,-16.328455322265626,-8.13310303955078,-0.6679822631835937,-9.297709923664122,19.84732824427481,24.137404580152673,0.0
12.100000858306885,-31.62022132568359,20.78167041015625,16.132130786132812,87.40458015267176,-22.12213740458015,26.68702290076336,-15.854403393554687,-6.0333881835937495,-0.9576806640625,1.8778625954198473,13.007633587786259,12.50381679389313,0.0
12.110000610351562,-25.821464904785156,14.51125626220703,11.003750830078124,35.282442748091604,-57.87786259541985,46.87022900763359,-15.370774658203125,-4.458003491210937,-0.45010991210937495,12.641221374045802,6.9465648854961835,4.458015267175573,0.0
12.120000839233398,-18.100164550781248,4.438849877929687,0.1005564697265625,-8.106870229007633,-72.2442748091603,44.961832061068705,-16.208745239257812,-2.2768857788085937,0.5195417602539062,13.206106870229007,-1.3587786259541985,-0.366412213740458,0.0
12.130000591278076,-7.082048510742187,-5.219359619140625,-8.501810095214843,-7.923664122137405,-67.54198473282443,40.412213740458014,-17.79849514160156,-0.9600748657226562,1.37906015625,10.412213740458014,-8.80916030534351,-5.0534351145038165,0.0
12.140000820159912,-2.6791116577148437,-6.236895324707031,-11.06360587158203,0.061068702290076333,-36.778625954198475,31.954198473282442,-18.837578662109372,0.718260498046875,1.8842367065429686,8.992366412213741,-16.564885496183205,-8.595419847328245,0.0
12.15000057220459,0.4860229370117187,-4.924872814941406,-12.57674132080078,-11.282442748091603,-13.48091603053435,17.419847328244273,-18.32761370849609,3.134009973144531,1.7908628417968748,12.396946564885496,-23.17557251908397,-9.389312977099237,0.0
12.160000562667847,-0.7206546997070312,-2.288856787109375,-10.484209069824217,-18.045801526717558,9.877862595419847,5.557251908396947,-18.090587744140624,3.4452561889648434,1.6615759521484375,13.374045801526718,-26.564885496183205,-4.778625954198473,0.0
12.170000553131104,-3.5242648437499997,-1.0007762939453124,-9.172186560058593,-22.748091603053435,27.251908396946565,-1.9389312977099236,-14.767435839843749,6.030993981933594,-1.1707646118164061,3.5419847328244276,-36.61068702290076,0.9007633587786259,0.0
12.18000054359436,-9.567229833984374,1.216254443359375,-6.296750366210937,-27.328244274809162,49.267175572519086,-10.51908396946565,-14.51125626220703,5.844246252441406,-2.1715409057617188,-9.19083969465649,-35.38931297709924,9.114503816793894,0.0
12.190000534057617,-11.990161914062499,0.6847416748046875,-5.025429284667968,-34.30534351145038,59.87786259541985,-11.32824427480916,-13.6756798828125,4.07971962890625,-1.7980454467773437,-17.297709923664122,-36.13740458015267,16.366412213740457,0.0
12.200000524520874,-15.12417188720703,1.0821791503906248,-0.8283937744140625,-23.34351145038168,80.27480916030534,-9.893129770992367,-14.022839123535155,1.448492004394531,-1.9991583862304687,-24.763358778625953,-33.786259541984734,19.282442748091604,0.0
12.21000051498413,-15.705962890624999,0.4572925170898437,0.5770026000976562,-29.374045801526716,84.19847328244275,-10.15267175572519,-12.694057202148437,0.49799394531249996,-2.0973206542968748,-15.770992366412214,-38.38167938931298,16.442748091603054,0.0
12.220000505447388,-15.638925244140625,0.622492431640625,1.9919757812499999,-23.81679389312977,86.51908396946565,-11.34351145038168,-11.336544860839844,0.7422025146484375,-2.166752502441406,-22.12213740458015,-32.3206106870229,11.145038167938932,0.0
12.230000734329224,-12.334926953124999,-0.6200982299804687,1.3335703247070312,-24.85496183206107,80.6412213740458,-11.267175572519085,-11.853692419433592,0.4285620971679687,-1.8818425048828125,-20.763358778625953,-17.83206106870229,14.549618320610687,0.0
12.240000486373901,-10.484209069824217,-0.28969840087890625,0.32561142578124996,-16.65648854961832,77.37404580152672,-14.244274809160306,-10.445901843261717,-0.7158662963867187,-2.578555187988281,-12.610687022900763,-14.335877862595419,18.18320610687023,0.0
12.250000715255737,-8.961496813964843,-0.6177040283203125,-0.5793968017578125,-10.091603053435115,71.05343511450381,-17.00763358778626,-11.228805786132812,-1.3766659545898436,-2.5761609863281247,0.366412213740458,-8.778625954198473,17.572519083969464,0.0
12.260000705718994,-8.365340600585936,0.6272808349609375,-1.13006318359375,-4.152671755725191,68.68702290076335,-17.49618320610687,-10.666168395996094,-2.645592834472656,-3.1411925781249996,13.083969465648854,-8.305343511450381,10.290076335877863,0.0
12.270000696182251,-10.230423693847655,1.85790048828125,-0.2920926025390625,-7.343511450381679,70.07633587786259,-18.793893129770993,-11.128249316406249,-1.1372457885742187,-2.2601263671875,23.022900763358777,-6.961832061068702,4.67175572519084,0.0
12.280000686645508,-10.639832177734375,3.191470812988281,0.5003881469726562,-17.435114503816795,67.32824427480917,-18.366412213740457,-10.74517705078125,-0.44053310546874996,-1.4030021728515625,27.64885496183206,-9.648854961832061,-0.916030534351145,0.0
12.290000677108765,-9.588777648925781,2.0470424194335934,0.4740519287109375,-21.328244274809162,67.16030534351145,-15.374045801526718,-11.427524523925781,-0.33518823242187495,-0.97683427734375,25.51145038167939,-4.717557251908397,-0.3053435114503817,0.0
12.300000429153442,-8.827421520996094,-0.1771709228515625,1.0414777221679687,-20.0,74.53435114503817,-15.389312977099237,-9.785102185058593,-1.0702081420898437,0.3447650390625,25.908396946564885,-5.236641221374046,-1.1297709923664123,0.0
12.310000658035278,-10.072406384277343,0.6775590698242188,2.0542250244140625,-16.549618320610687,78.74809160305344,-20.366412213740457,-10.175357055664062,-1.668758557128906,0.44053310546874996,30.396946564885496,-6.9465648854961835,-0.13740458015267176,0.0
12.320000648498535,-10.608707556152343,-0.38786066894531246,1.8363526733398436,-16.3206106870229,79.98473282442748,-23.389312977099237,-9.770736975097655,-0.20829554443359374,0.5003881469726562,35.725190839694655,-13.374045801526718,-3.450381679389313,0.0
12.330000877380371,-10.931924780273437,-0.2537853759765625,2.7078420776367187,-12.961832061068701,82.36641221374046,-26.12213740458015,-9.200916979980468,1.3024457031249999,0.5147533569335937,30.396946564885496,-14.01526717557252,-4.9465648854961835,0.0
12.34000039100647,-10.654197387695312,0.12449848632812499,2.9640216552734375,-13.954198473282442,80.51908396946565,-28.091603053435115,-7.831433630371094,2.2864625854492187,0.7637503295898437,17.267175572519083,-16.3206106870229,-5.0534351145038165,0.0
12.350000619888306,-11.705251916503906,1.7190367919921874,3.7900212280273435,-21.938931297709924,77.20610687022901,-31.267175572519083,-9.227253198242186,0.0909796630859375,2.243366955566406,11.801526717557252,-14.091603053435115,1.1755725190839694,0.0
12.360000610351562,-10.084377392578125,0.1197100830078125,2.5665841796874997,-24.625954198473284,67.55725190839695,-29.480916030534353,-9.581595043945311,-0.6081272216796875,2.142810485839844,21.34351145038168,-24.045801526717558,1.0687022900763359,0.0
12.37000060081482,-11.003750830078124,0.6775590698242188,2.5737667846679684,-17.358778625954198,66.50381679389314,-29.84732824427481,-9.667786303710937,0.35194764404296874,2.001552587890625,22.198473282442748,-29.64885496183206,-3.0381679389312977,0.0
12.380000829696655,-9.627084875488281,1.0534487304687499,1.8124106567382812,-18.732824427480917,62.045801526717554,-27.51145038167939,-9.172186560058593,0.6464344482421874,1.3575123413085937,17.389312977099237,-30.68702290076336,-4.763358778625954,0.0
12.390000581741333,-10.412383020019531,2.360682836914062,2.3415292236328122,-18.68702290076336,61.12977099236641,-25.69465648854962,-10.261548315429687,-1.5610194824218748,1.9871873779296874,25.114503816793892,-33.57251908396947,0.21374045801526717,0.0
12.40000057220459,-10.295067138671874,2.7916391357421872,1.7717092285156248,-22.83969465648855,57.00763358778626,-24.427480916030536,-8.734047656249999,0.833182177734375,0.584185205078125,24.641221374045802,-43.954198473282446,-2.0763358778625953,0.0
12.410000562667847,-9.165003955078124,2.3223756103515623,1.1875240234375,-27.61832061068702,47.404580152671755,-18.48854961832061,-8.90643017578125,-0.3758896606445312,0.6631938598632812,17.770992366412212,-41.80152671755725,-0.9618320610687023,0.0
12.420000553131104,-7.898471276855468,0.6967126831054687,0.4429273071289062,-27.297709923664122,45.45038167938932,-15.251908396946565,-8.353369592285155,0.05027823486328125,0.55545478515625,15.740458015267176,-45.7557251908397,-1.2061068702290076,0.0
12.43000054359436,-7.960720520019531,0.7326257080078125,0.00239420166015625,-26.50381679389313,45.55725190839695,-15.374045801526718,-8.283937744140625,-0.4908113403320312,0.7206546997070312,5.847328244274809,-38.79389312977099,0.7480916030534351,0.0
12.440000295639038,-7.8721350585937495,0.7015010864257812,0.7015010864257812,-26.65648854961832,50.67175572519084,-15.19083969465649,-9.1554271484375,-2.408566870117187,1.0606313354492187,14.610687022900763,-39.3587786259542,2.4885496183206106,0.0
12.450000286102295,-12.107477795410155,2.858676782226562,2.50912333984375,-31.66412213740458,51.02290076335878,-19.358778625954198,-8.576030346679687,-0.6248866333007812,0.3016694091796875,15.022900763358779,-41.404580152671755,-1.3435114503816794,0.0
12.46000051498413,-11.188104357910156,3.902548706054687,1.9847931762695312,-49.16030534351145,41.17557251908397,-15.17557251908397,-7.536946826171874,-0.7493851196289062,0.0526724365234375,11.206106870229007,-35.02290076335878,-4.320610687022901,0.0
12.470000743865967,-9.854534033203125,1.7166425903320313,0.7302315063476562,-48.62595419847328,37.87786259541985,-6.137404580152672,-8.508992700195313,-2.6048914062499997,0.7350199096679687,16.18320610687023,-33.37404580152672,-2.183206106870229,0.0
12.480000495910645,-9.320627062988281,-0.5243301635742187,0.1771709228515625,-39.06870229007634,38.38167938931298,-4.366412213740458,-9.1554271484375,-1.5705962890624998,-0.3758896606445312,23.83206106870229,-38.33587786259542,-6.396946564885496,0.0
12.490000486373901,-9.595960253906249,-0.5219359619140624,0.9864110839843749,-26.106870229007633,42.900763358778626,-7.236641221374046,-8.123526232910155,-0.105344873046875,0.011971008300781249,17.786259541984734,-30.519083969465647,-10.977099236641221,0.0
12.500000476837158,-9.497797985839844,-0.17238251953125,1.4341267944335936,-32.93129770992366,39.25190839694657,-8.946564885496183,-9.1554271484375,-0.9959878906249999,0.5746083984375,19.87786259541985,-22.53435114503817,-9.145038167938932,0.0
12.510000944137573,-11.9135474609375,1.0295067138671874,2.559401574707031,-26.366412213740457,40.44274809160305,-12.82442748091603,-9.320627062988281,-1.3311761230468748,0.24181436767578124,25.389312977099237,-24.625954198473284,-9.16030534351145,0.0
12.520000457763672,-11.250353601074218,-0.10773907470703124,1.675941162109375,-12.732824427480915,42.13740458015267,-12.854961832061068,-9.105148913574219,-1.4245499877929686,0.737414111328125,31.770992366412212,-27.282442748091604,-13.251908396946565,0.0
12.530000925064087,-10.1131078125,1.936909143066406,1.668758557128906,-8.900763358778626,41.16030534351145,-13.435114503816793,-8.796296899414061,0.229843359375,0.28490999755859375,29.603053435114504,-24.16793893129771,-18.106870229007633,0.0
12.540000677108765,-10.196904870605469,2.205059729003906,1.7310078002929687,-25.633587786259543,29.419847328244273,-13.022900763358779,-6.72291826171875,1.5945383056640625,-0.229843359375,13.083969465648854,-13.709923664122137,-20.198473282442748,0.0
12.550000667572021,-10.402806213378906,1.350329736328125,1.8004396484374998,-16.717557251908396,31.84732824427481,-7.374045801526718,-7.426813549804687,0.02154781494140625,0.36391865234375,7.312977099236641,-4.641221374045801,-14.50381679389313,0.0
12.560000658035278,-10.319009155273436,0.9074024291992187,2.04943662109375,-16.82442748091603,26.778625954198475,-6.0458015267175576,-8.552088330078124,-0.9217676391601562,0.6009446166992187,11.511450381679388,-2.946564885496183,-13.32824427480916,0.0
12.570000886917114,-10.848127722167968,0.29448680419921874,1.8219874633789062,-8.458015267175572,23.251908396946565,-6.442748091603053,-8.008604553222655,-0.7062894897460937,1.1372457885742187,10.580152671755725,-0.8244274809160306,-14.977099236641221,0.0
12.580000638961792,-10.31661495361328,-0.13168109130859373,1.687912170410156,-0.8396946564885496,22.18320610687023,-5.908396946564886,-8.559270935058594,-0.584185205078125,1.149216796875,10.259541984732824,2.931297709923664,-16.702290076335878,0.0
12.590000629425049,-10.69968721923828,0.9050082275390624,1.9919757812499999,1.6641221374045803,20.83969465648855,-9.648854961832061,-8.128314636230469,-0.23223756103515625,1.2761094848632812,5.587786259541985,3.450381679389313,-18.33587786259542,0.0
12.600000619888306,-9.591171850585937,0.6009446166992187,1.1013327636718748,6.717557251908397,17.954198473282442,-10.16793893129771,-8.501810095214843,-0.22505495605468748,1.7717092285156248,5.908396946564886,4.015267175572519,-19.69465648854962,0.0
12.610000371932983,-8.839392529296875,0.6847416748046875,0.3184288208007812,13.16030534351145,18.595419847328245,-10.290076335877863,-8.43956085205078,-0.7900865478515624,1.3646949462890625,1.8778625954198473,4.152671755725191,-19.801526717557252,0.0
12.62000060081482,-8.712499841308594,2.7581203125,1.13006318359375,10.564885496183207,20.702290076335878,-12.076335877862595,-8.652644799804687,-0.6536170532226562,1.5634136840820312,3.3740458015267176,4.412213740458015,-20.595419847328245,0.0
12.630000591278076,-10.639832177734375,3.806780639648437,1.2952630981445312,-2.015267175572519,15.969465648854962,-11.419847328244275,-8.17141026611328,-0.143652099609375,1.905784521484375,1.0076335877862594,4.748091603053435,-20.47328244274809,0.0
12.640000581741333,-9.78031378173828,2.8754361938476563,0.6272808349609375,-5.679389312977099,14.488549618320612,-5.633587786259542,-8.348581188964843,0.05985504150390625,1.6328455322265625,-0.16793893129770993,4.396946564885496,-19.083969465648856,0.0
12.65000057220459,-8.358157995605469,0.8283937744140625,-0.011971008300781249,-2.6564885496183206,16.03053435114504,-1.8473282442748091,-7.232883215332031,1.0654197387695312,1.695094775390625,-9.251908396946565,4.122137404580153,-20.03053435114504,0.0
12.660000562667847,-7.359775903320312,0.13168109130859373,0.055066638183593745,4.320610687022901,21.786259541984734,-2.183206106870229,-9.184157568359375,-0.32561142578124996,3.6248213134765623,-20.3206106870229,14.061068702290076,-16.732824427480917,0.0
12.670000314712524,-6.49307490234375,-0.33039982910156246,1.0678139404296874,2.030534351145038,25.435114503816795,-5.740458015267175,-8.66940421142578,-0.8020575561523438,4.228160131835938,-22.30534351145038,8.610687022900763,-17.633587786259543,0.0
12.68000078201294,-7.022193469238281,0.4572925170898437,0.6416460449218749,4.0458015267175576,22.03053435114504,-7.221374045801527,-9.497797985839844,-1.2761094848632812,5.5641246582031245,-23.068702290076335,2.9923664122137406,-17.206106870229007,0.0
12.690000534057617,-8.930372192382812,1.6400281372070311,1.8459294799804686,0.8244274809160306,21.893129770992367,-8.198473282442748,-7.915230688476562,-0.4836287353515625,4.620809204101562,-22.35114503816794,-10.442748091603054,-19.770992366412212,0.0
12.700000762939453,-8.030152368164062,2.7461493041992187,1.6519991455078125,-0.8702290076335878,17.49618320610687,-5.465648854961832,-8.499415893554687,-1.3311761230468748,4.407725256347656,-20.15267175572519,-16.763358778625953,-18.15267175572519,0.0
12.710000276565552,-8.166621862792969,2.829946362304687,2.0925322509765625,-6.290076335877862,14.458015267175572,-2.198473282442748,-6.835445739746094,-1.1516109985351561,3.4165257690429685,-27.068702290076335,-19.34351145038168,-18.076335877862597,0.0
12.720000505447388,-10.273519323730468,4.271255761718749,3.584119885253906,-21.84732824427481,8.290076335877863,-0.3969465648854962,-7.6231380859375,-2.5450363647460934,3.0645781249999997,-28.50381679389313,-20.549618320610687,-17.51145038167939,0.0
12.730000734329224,-11.192892761230468,2.729389892578125,3.821145849609375,-27.282442748091604,0.21374045801526717,0.7022900763358778,-8.432378247070313,-4.3430818115234375,3.323151904296875,-35.908396946564885,-20.33587786259542,-22.18320610687023,0.0
12.740000486373901,-9.593566052246093,0.35673604736328124,4.031835595703125,-16.99236641221374,-0.9465648854961832,1.8015267175572518,-8.513781103515624,-5.9376201171875,3.5793314819335937,-33.51145038167939,-25.435114503816795,-28.458015267175572,0.0
12.750000715255737,-10.797849487304687,1.7310078002929687,5.729324572753906,-19.51145038167939,-7.679389312977099,-1.8931297709923665,-8.303091357421874,-5.887341882324218,4.017470385742187,-25.053435114503817,-29.954198473282442,-32.2442748091603,0.0
12.760000467300415,-11.056423266601563,2.47081611328125,6.943184814453125,-20.48854961832061,-19.022900763358777,-2.931297709923664,-7.505822204589843,-4.115632653808594,4.264073156738281,-5.709923664122138,-37.64885496183206,-31.51145038167939,0.0
12.770000457763672,-12.51928048095703,3.2561142578125,8.619125976562499,-23.068702290076335,-28.045801526717558,-2.8244274809160306,-7.0652890991210935,-2.2385785522460937,3.859453076171875,0.16793893129770993,-37.52671755725191,-28.793893129770993,0.0
12.780000448226929,-10.960655200195312,1.5322890624999999,8.231265307617187,-26.229007633587788,-47.343511450381676,2.4732824427480917,-6.624755993652343,-1.2665326782226562,3.5410242553710933,10.458015267175572,-37.38931297709924,-26.12213740458015,0.0
12.790000438690186,-12.330138549804687,2.4013842651367185,9.74200655517578,-18.50381679389313,-64.74809160305344,4.427480916030534,-7.302315063476562,0.2920926025390625,2.9041666137695312,9.618320610687023,-33.70992366412214,-25.46564885496183,0.0
12.800000667572021,-12.243947290039062,1.2641384765625,10.905588562011719,-15.099236641221374,-83.81679389312977,6.809160305343512,-5.662286926269531,0.6943184814453125,1.9943699829101562,-0.9770992366412213,-26.18320610687023,-23.267175572519083,0.0
12.810000658035278,-12.27028350830078,-0.033518823242187495,12.670115185546875,0.0,-102.04580152671755,8.717557251908397,-5.233724829101562,0.4261678955078125,1.1420341918945311,-8.01526717557252,-20.47328244274809,-18.900763358778626,0.0
12.820000648498535,-13.057975854492186,-0.28730419921875,15.160084912109374,15.664122137404581,-127.20610687022901,5.984732824427481,-7.134720947265625,-1.0510545288085937,1.9321207397460936,-11.511450381679388,-14.396946564885496,-15.267175572519085,0.0
12.830000400543213,-14.082694165039062,-0.55545478515625,17.513585144042967,32.36641221374046,-151.64885496183206,4.3816793893129775,-9.890447058105469,-2.0733786376953125,2.7437551025390623,-0.5343511450381679,-15.16030534351145,-15.19083969465649,0.0
12.840000867843628,-13.977349291992187,-0.44532150878906246,16.359579943847656,51.221374045801525,-178.74809160305344,2.4885496183206106,-17.140089685058594,-3.047818713378906,8.288726147460936,13.557251908396946,-18.12213740458015,-21.00763358778626,0.0
12.850000381469727,-14.350844750976561,0.689530078125,11.245565197753905,38.50381679389313,-206.13740458015266,-2.854961832061069,-22.75928098144531,-2.896984008789062,11.384428894042967,22.015267175572518,-28.259541984732824,-33.541984732824424,0.0
12.860000610351562,-15.071499450683593,0.4429273071289062,6.452373474121093,14.229007633587786,-233.6793893129771,-13.17557251908397,-23.118411230468748,-0.5410895751953124,9.445125549316407,23.770992366412212,-30.50381679389313,-35.038167938931295,0.0
12.870023012161255,-16.95573615722656,-0.7038952880859375,3.411737365722656,17.022900763358777,-251.31297709923663,-16.748091603053435,-15.358803649902343,2.195482922363281,2.442085693359375,33.786259541984734,-36.19847328244275,-19.69465648854962,0.0
12.880000829696655,-16.141707592773436,-3.4261025756835934,-0.5410895751953124,62.961832061068705,-253.5267175572519,-4.99236641221374,-8.334215979003906,4.46279189453125,-5.322310290527343,30.229007633587788,-34.74809160305343,-8.244274809160306,0.0
12.890000343322754,-18.511967236328125,-2.437297290039062,-3.2058360229492187,115.26717557251908,-237.12977099236642,10.870229007633588,-1.898601916503906,7.972691528320312,-8.722076647949219,5.404580152671755,-24.290076335877863,-3.572519083969466,0.0
12.90000057220459,-17.223886743164062,-1.1037269653320312,-5.633556506347656,138.04580152671755,-228.4885496183206,18.12213740458015,-0.5243301635742187,7.982268334960937,-7.247248425292969,-34.25954198473283,-0.549618320610687,7.038167938931298,0.0
12.910000562667847,-16.87433330078125,2.0087351928710935,-3.744531396484375,134.45801526717557,-205.96946564885496,19.450381679389313,-2.4779987182617185,3.593696691894531,-6.150704064941406,-71.1145038167939,18.68702290076336,18.061068702290076,0.0
12.920000314712524,-13.189656945800781,5.576095666503906,-4.1946413085937495,116.54961832061069,-187.81679389312978,19.96946564885496,-8.355763793945313,-5.425260961914062,-2.6886884643554687,-73.69465648854961,36.85496183206107,28.137404580152673,0.0
12.93000054359436,-9.943119494628906,4.951209033203125,-3.83072265625,92.2442748091603,-161.2824427480916,21.587786259541986,-9.064447485351561,-7.893682873535155,-2.4061726684570313,-62.19847328244275,37.847328244274806,24.38167938931298,0.0
12.940000534057617,-7.52737001953125,2.683900061035156,-2.195482922363281,73.22137404580153,-132.2290076335878,19.633587786259543,-12.057199560546874,-6.212953308105468,-1.697488977050781,-43.541984732824424,50.12213740458015,20.946564885496183,0.0
12.950000524520874,-4.484339709472656,-1.9704279663085937,-2.0757728393554684,75.22137404580153,-104.76335877862596,17.72519083969466,-14.386757775878905,-7.484274389648437,-0.5434837768554687,-15.755725190839694,49.57251908396947,18.916030534351144,0.0
12.96000051498413,-7.323862878417969,-0.09816226806640624,-0.9648632690429687,74.59541984732824,-78.82442748091603,7.236641221374046,-13.488932153320311,-6.452373474121093,-0.0718260498046875,7.3893129770992365,49.221374045801525,11.236641221374045,0.0
12.970000743865967,-8.633491186523438,1.5634136840820312,-1.4820108276367188,72.9618320610687,-63.038167938931295,3.450381679389313,-10.524910498046875,-4.726154077148437,-1.0486603271484374,30.931297709923665,41.83206106870229,2.1068702290076335,0.0
12.980000495910645,-9.248801013183593,2.674323254394531,-1.7286135986328124,49.74045801526717,-59.12977099236641,5.312977099236641,-8.544905725097657,-0.9576806640625,-1.6639701538085936,31.740458015267176,45.6793893129771,-1.5572519083969465,0.0
12.99000096321106,-7.206546997070312,2.980781066894531,-1.8339584716796873,30.33587786259542,-47.16030534351145,13.374045801526718,-7.769184387207031,0.062249243164062495,-1.7381904052734374,25.46564885496183,53.969465648854964,2.366412213740458,0.0
13.000000238418579,-7.678204724121093,3.4955344238281247,-2.166752502441406,-7.893129770992366,-36.56488549618321,18.83969465648855,-8.075642199707032,1.3551181396484375,-2.501940734863281,27.419847328244273,61.770992366412216,4.961832061068702,0.0
13.010000705718994,-6.823474731445312,2.817975354003906,-2.858676782226562,-23.389312977099237,-26.671755725190838,21.099236641221374,-8.942343200683593,0.6464344482421874,-1.446097802734375,22.65648854961832,71.8473282442748,8.351145038167939,0.0
13.020000696182251,-4.604049792480469,0.4836287353515625,-4.7955859252929685,-30.16793893129771,-15.32824427480916,24.015267175572518,-8.267178332519531,0.7829039428710937,-1.7741034301757812,25.64885496183206,73.0381679389313,7.603053435114504,0.0
13.030000686645508,-0.047884033203124995,-2.5474305664062498,-8.52335791015625,-24.977099236641223,0.15267175572519084,24.83969465648855,-8.865728747558594,-0.39983167724609375,-0.28730419921875,15.038167938931299,82.10687022900764,9.938931297709924,0.0
13.040000438690186,-1.2665326782226562,-1.2808978881835937,-8.183381274414062,-24.137404580152673,35.221374045801525,18.061068702290076,-10.295067138671874,-2.6001030029296874,0.8379705810546875,20.015267175572518,82.22900763358778,13.267175572519085,0.0
13.0500009059906,1.0630255371093749,-2.384624853515625,-10.522516296386717,-24.229007633587788,57.725190839694655,11.34351145038168,-11.161768139648437,-2.612074011230469,1.4987702392578124,26.213740458015266,78.35114503816794,14.229007633587786,0.0
13.060000658035278,-0.047884033203124995,-2.4157494750976563,-9.80665,-14.763358778625955,95.63358778625954,5.557251908396947,-10.575188732910156,-3.1579519897460937,2.4061726684570313,34.06106870229008,71.63358778625954,13.450381679389313,0.0
13.070000648498535,-1.915361328125,-1.5705962890624998,-7.319074475097656,-27.236641221374047,123.20610687022901,-6.717557251908397,-10.165780249023436,-2.7940333374023436,3.423708374023437,43.25190839694657,64.21374045801527,12.67175572519084,0.0
13.080000638961792,-2.032677209472656,-3.347093920898437,-4.929661218261718,-37.23664122137404,134.65648854961833,-16.0,-10.443507641601562,-1.3335703247070312,3.727771984863281,44.29007633587786,54.36641221374046,10.83969465648855,0.0
13.090000629425049,-1.656787548828125,-4.841075756835937,-2.7078420776367187,-32.396946564885496,152.4732824427481,-23.786259541984734,-8.104372619628906,1.0749965454101562,3.438073583984375,30.671755725190838,46.62595419847328,9.572519083969466,0.0
13.100000858306885,-2.7150246826171873,-3.641580725097656,0.5291185668945312,-21.81679389312977,166.99236641221373,-34.70229007633588,-6.8210805297851556,1.2282254516601563,3.8570588745117185,13.358778625954198,41.51145038167939,11.98473282442748,0.0
13.110000610351562,-4.395754248046875,-3.3159692993164063,5.398924743652343,-3.7251908396946565,170.74809160305344,-40.213740458015266,-6.610390783691406,1.1635820068359375,4.053383410644531,-1.984732824427481,36.48854961832061,16.47328244274809,0.0
13.12000060081482,-7.6614453125,-4.304774584960938,16.060304736328124,38.29007633587786,164.61068702290078,-41.57251908396947,-5.729324572753906,0.7948749511718749,3.438073583984375,-18.610687022900763,30.65648854961832,18.916030534351144,0.0
13.130000591278076,-10.714052429199219,1.369483349609375,25.15348264160156,96.59541984732824,140.68702290076337,-38.534351145038165,-5.702988354492187,0.8212111694335937,2.8012159423828122,-31.801526717557252,27.83206106870229,19.51145038167939,0.0
13.140000581741333,-13.754688537597655,8.908824377441405,18.473660009765624,60.99236641221374,93.98473282442748,-27.14503816793893,-8.010998754882811,0.21308394775390624,2.8706477905273435,-37.12977099236641,27.755725190839694,20.732824427480917,0.0
13.15000057220459,-19.594146386718748,16.01720910644531,19.163190087890623,26.045801526717558,64.7175572519084,-3.984732824427481,-8.449137658691406,-0.9840168823242187,2.7246014892578123,-42.213740458015266,26.442748091603054,21.114503816793892,0.0
13.160000324249268,-21.92370460205078,11.774683764648437,20.58774007568359,-48.74809160305343,10.122137404580153,20.16793893129771,-9.179369165039063,-2.0829554443359375,1.7190367919921874,-41.7557251908397,20.900763358778626,21.206106870229007,0.0
13.170000314712524,-14.487314245605468,0.7493851196289062,14.281412902832031,-47.63358778625954,-23.770992366412212,40.29007633587786,-10.888829150390624,-3.4739866088867184,1.9967641845703124,-38.61068702290076,21.129770992366414,24.18320610687023,0.0
13.180150270462036,-10.194510668945313,-0.5698199951171875,11.6837041015625,1.5877862595419847,-31.16030534351145,42.36641221374046,-8.169016064453125,-2.882618798828125,0.19871873779296872,-36.87022900763359,17.068702290076335,22.793893129770993,0.0
13.190000534057617,-4.771643908691406,1.7597382202148437,5.449202978515625,49.89312977099237,-45.25190839694657,32.045801526717554,-7.831433630371094,-3.6367923217773437,0.45010991210937495,-31.633587786259543,20.0,25.17557251908397,0.0
13.200000762939453,-4.295197778320312,6.375759020996093,-0.5674257934570313,58.97709923664122,-33.083969465648856,22.03053435114504,-6.157886669921875,-3.6200329101562496,-0.1867477294921875,-33.038167938931295,22.641221374045802,26.748091603053435,0.0
13.21000051498413,-3.469198205566406,5.032611889648437,-1.2761094848632812,47.05343511450382,-28.748091603053435,18.717557251908396,-8.231265307617187,-4.9416322265625,0.14604630126953125,-25.068702290076335,25.61832061068702,28.213740458015266,0.0
13.220000505447388,-12.454637036132812,3.6463691284179687,11.020510241699219,31.236641221374047,-20.65648854961832,20.702290076335878,-9.466673364257812,-3.9815573608398434,-1.0414777221679687,-23.480916030534353,25.69465648854962,24.931297709923665,0.0
13.230000257492065,-17.769764721679685,0.1580173095703125,17.46091270751953,19.236641221374047,-37.00763358778626,27.251908396946565,-10.465055456542968,-3.3686417358398435,-2.2266075439453124,-21.328244274809162,20.80916030534351,18.9618320610687,0.0
13.240000247955322,-16.529568261718747,1.1851298217773436,9.251195214843749,37.20610687022901,-49.083969465648856,40.412213740458014,-14.312537524414061,-4.335899206542969,-1.6807295654296874,-18.229007633587788,19.572519083969464,13.725190839694656,0.0
13.250000476837158,-20.513519824218747,5.930437512207031,8.339004382324218,25.328244274809162,-50.13740458015267,44.458015267175576,-14.494496850585938,-1.3527239379882812,-2.6408044311523438,-23.81679389312977,18.549618320610687,4.885496183206107,0.0
13.260002851486206,-20.01552587890625,6.1650692749023435,6.358999609374999,-6.5038167938931295,-60.47328244274809,39.20610687022901,-14.671667773437498,0.38307226562499996,-1.4221557861328125,-33.14503816793893,22.27480916030534,2.8091603053435112,0.0
13.270000696182251,-16.749834814453123,7.659051110839843,-3.0980969482421874,-44.16793893129771,-80.58015267175573,30.53435114503817,-16.534356665039063,-0.12210428466796874,-0.6584054565429687,-32.213740458015266,17.358778625954198,4.534351145038168,0.0
13.280000448226929,-7.266402038574219,1.1947066284179686,-11.243170996093749,-40.30534351145038,-76.77862595419847,42.94656488549618,-18.00200228271484,-1.4820108276367188,1.7262193969726563,-27.129770992366414,9.068702290076336,7.6183206106870225,0.0
13.290000677108765,-1.4939818359375,-6.49307490234375,-12.140996618652343,-20.076335877862597,-43.86259541984733,46.83969465648855,-17.853561779785156,-0.201112939453125,1.6519991455078125,-17.358778625954198,-7.465648854961832,5.480916030534351,0.0
13.300000429153442,-4.841075756835937,-2.281674182128906,-10.046070166015625,-22.290076335877863,-4.183206106870229,27.603053435114504,-16.409858178710937,1.9776105712890624,1.197100830078125,-8.80916030534351,-19.709923664122137,5.587786259541985,0.0
13.3100004196167,-6.698976245117187,-0.1580173095703125,-10.503362683105468,-41.63358778625954,6.717557251908397,18.412213740458014,-15.50724415283203,2.6288334228515624,0.967257470703125,-1.099236641221374,-28.732824427480917,10.396946564885496,0.0
13.320000648498535,-6.548141540527343,-0.5339069702148437,-8.56166513671875,-36.74809160305343,26.076335877862597,20.671755725190838,-13.144167114257812,3.9456443359374997,-0.8954314208984374,-6.2748091603053435,-39.63358778625954,13.618320610687023,0.0
13.330000638961792,-9.765948571777344,0.0430956298828125,-5.212177014160156,-42.06106870229008,42.93129770992366,14.045801526717558,-12.399570397949217,4.163516687011718,-0.9624690673828125,-14.229007633587786,-42.35114503816794,16.061068702290076,0.0
13.34000039100647,-9.744400756835937,-2.1212626708984375,-3.5769372802734374,-33.55725190839695,51.12977099236641,10.396946564885496,-12.72997022705078,4.766855505371093,-1.8076222534179687,-33.06870229007634,-42.88549618320611,21.236641221374047,0.0
13.350000619888306,-12.243947290039062,-1.608903515625,-0.6607996582031249,-17.053435114503817,66.68702290076335,3.1755725190839694,-12.452242834472656,2.422932080078125,-0.7733271362304687,-43.51145038167939,-38.38167938931298,24.793893129770993,0.0
13.360000848770142,-14.74109962158203,0.0526724365234375,1.350329736328125,-21.64885496183206,68.77862595419847,-4.519083969465649,-13.268665600585937,1.7525556152343749,-1.7980454467773437,-52.274809160305345,-36.900763358778626,23.206106870229007,0.0
13.37000060081482,-13.843273999023436,-0.7015010864257812,1.2330138549804688,-28.931297709923665,61.49618320610687,-5.343511450381679,-15.614983227539062,-1.9680337646484374,-1.8650830932617186,-50.01526717557252,-31.786259541984734,21.541984732824428,0.0
13.380000829696655,-12.801796276855468,-0.97683427734375,1.9704279663085937,-28.30534351145038,59.69465648854962,-10.229007633587786,-12.303802331542968,-0.00239420166015625,-1.8243816650390623,-49.954198473282446,-39.083969465648856,14.351145038167939,0.0
13.390000581741333,-12.093112585449218,0.20350714111328125,1.3000515014648437,-34.68702290076336,54.458015267175576,-13.893129770992367,-10.673351000976561,0.24899697265624998,-1.0103531005859374,-56.10687022900763,-32.97709923664122,11.572519083969466,0.0
13.40000057220459,-11.346121667480467,1.2473790649414063,0.12210428466796874,-40.35114503816794,52.778625954198475,-16.12213740458015,-10.58476553955078,-1.3335703247070312,-0.7685387329101562,-48.6412213740458,-25.328244274809162,12.01526717557252,0.0
13.410000562667847,-9.689334118652344,2.224213342285156,-0.8595183959960937,-49.11450381679389,48.900763358778626,-19.297709923664122,-11.166556542968749,-3.047818713378906,-0.031124621582031248,-34.61068702290076,-19.099236641221374,12.641221374045802,0.0
13.420000553131104,-9.969455712890625,-0.4525041137695312,-1.4341267944335936,-44.35114503816794,52.82442748091603,-18.977099236641223,-10.845733520507812,-3.6750995483398436,0.38307226562499996,-7.1603053435114505,-20.290076335877863,7.022900763358779,0.0
13.43000054359436,-8.88009395751953,-1.8363526733398436,-1.9943699829101562,-23.49618320610687,61.38931297709924,-19.49618320610687,-11.44667813720703,-3.5793314819335937,-0.031124621582031248,14.748091603053435,-22.412213740458014,3.0076335877862594,0.0
13.440000534057617,-11.508927380371093,-0.26336218261718747,0.17238251953125,-11.511450381679388,70.29007633587786,-23.14503816793893,-10.177751257324218,-1.197100830078125,-1.5227122558593749,28.68702290076336,-29.267175572519083,-3.984732824427481,0.0
13.450000286102295,-8.892064965820312,0.17477672119140625,-0.8355763793945312,-1.9389312977099236,73.86259541984732,-22.03053435114504,-9.356540087890625,-0.143652099609375,-1.0127473022460938,22.458015267175572,-25.938931297709924,-4.885496183206107,0.0
13.46000051498413,-9.789890588378906,1.2617442749023438,0.6344634399414062,-3.3893129770992365,79.81679389312977,-23.114503816793892,-10.287884533691406,-0.9720458740234375,-0.040701428222656245,22.47328244274809,-20.50381679389313,-1.1450381679389312,0.0
13.470000743865967,-9.667786303710937,0.7948749511718749,0.7589619262695312,-10.870229007633588,79.7557251908397,-26.83969465648855,-9.605537060546874,-0.55545478515625,-0.13646949462890623,23.19083969465649,-22.30534351145038,-0.9007633587786259,0.0
13.480000495910645,-9.320627062988281,0.5099649536132812,0.3711012573242187,-13.053435114503817,80.22900763358778,-28.3206106870229,-9.014169250488282,0.9744400756835937,-1.1061211669921875,10.259541984732824,-18.396946564885496,-3.1908396946564888,0.0
13.49000072479248,-9.923965881347655,1.4030021728515625,1.3096283081054687,-19.114503816793892,81.1145038167939,-29.34351145038168,-9.244012609863281,-0.469263525390625,0.19153613281249998,2.8702290076335877,-9.297709923664122,-0.6106870229007634,0.0
13.500000476837158,-9.926360083007811,1.3263877197265623,0.8499415893554687,-24.99236641221374,77.00763358778626,-29.374045801526716,-8.731653454589843,-0.9121908325195311,0.2825157958984375,0.732824427480916,-10.061068702290076,0.07633587786259542,0.0
13.510000705718994,-10.647014782714843,1.9776105712890624,1.3383587280273437,-21.83206106870229,78.29007633587786,-28.213740458015266,-9.694122521972655,-1.7741034301757812,1.0127473022460938,6.030534351145038,-7.435114503816794,1.6946564885496183,0.0
13.520000696182251,-10.409988818359375,1.0582371337890624,0.9911994873046874,-25.709923664122137,71.89312977099236,-26.519083969465647,-9.054870678710937,-2.901772412109375,1.2808978881835937,25.450381679389313,-19.022900763358777,-2.33587786259542,0.0
13.530000686645508,-11.384428894042967,1.199495031738281,1.1444283935546875,-18.82442748091603,74.36641221374046,-27.14503816793893,-10.771513269042968,-3.1579519897460937,1.2473790649414063,46.458015267175576,-29.51145038167939,-6.961832061068702,0.0
13.540000438690186,-8.89924757080078,0.4381389038085937,0.24660277099609373,-15.587786259541986,69.87786259541984,-23.49618320610687,-8.568847741699217,0.5698199951171875,0.09576806640624999,52.152671755725194,-40.76335877862596,-15.587786259541986,0.0
13.550000429153442,-8.13310303955078,1.0295067138671874,0.6464344482421874,-7.480916030534351,74.74809160305344,-22.595419847328245,-8.501810095214843,1.2832920898437499,0.36391865234375,45.267175572519086,-39.17557251908397,-13.755725190839694,0.0
13.560000658035278,-9.797073193359374,2.319981408691406,1.5370774658203123,-15.083969465648854,77.52671755725191,-24.15267175572519,-7.831433630371094,2.1404162841796874,0.4644751220703125,35.89312977099237,-38.18320610687023,-8.595419847328245,0.0
13.570000410079956,-7.958326318359375,1.9393033447265624,0.737414111328125,-21.755725190839694,69.43511450381679,-22.50381679389313,-8.341398583984375,1.0438719238281249,1.5849614990234373,29.129770992366414,-34.29007633587786,-0.7175572519083969,0.0
13.580000638961792,-7.417236743164062,-0.08379705810546874,0.4261678955078125,-12.51908396946565,74.85496183206106,-19.17557251908397,-8.027758166503906,0.2442085693359375,1.2497732666015624,28.564885496183205,-37.81679389312977,2.595419847328244,0.0
13.590000629425049,-11.549628808593749,3.797203833007812,2.7724855224609373,-17.053435114503817,78.54961832061069,-23.51145038167939,-8.090007409667969,0.2537853759765625,1.1827356201171875,19.0381679389313,-33.61832061068702,1.5572519083969465,0.0
13.600001096725464,-9.97184991455078,2.492363928222656,2.70065947265625,-37.43511450381679,64.12213740458016,-19.282442748091604,-8.173804467773436,-0.6368576416015624,0.45968671875,15.587786259541986,-31.633587786259543,0.9007633587786259,0.0
13.610000848770142,-8.497021691894531,0.32561142578124996,0.8092401611328125,-27.0381679389313,56.045801526717554,-11.389312977099237,-9.758765966796874,-1.4125789794921875,0.8882488159179687,21.389312977099237,-33.099236641221374,1.297709923664122,0.0
13.620000839233398,-9.392453112792968,0.7445967163085937,1.5370774658203123,-14.763358778625955,56.85496183206107,-11.648854961832061,-8.801085302734375,-0.0526724365234375,0.06943184814453125,20.946564885496183,-34.48854961832061,-3.66412213740458,0.0
13.630000591278076,-11.643002673339844,2.3511060302734372,3.105279553222656,-24.671755725190838,50.717557251908396,-13.816793893129772,-8.243236315917969,-0.833182177734375,0.5482721801757812,17.17557251908397,-31.587786259541986,-5.221374045801527,0.0
13.640000581741333,-10.711658227539061,1.6017209106445311,2.152387292480469,-30.076335877862597,40.47328244274809,-12.259541984732824,-9.3852705078125,-1.9536685546875,0.70868369140625,24.99236641221374,-32.13740458015267,-3.6030534351145036,0.0
13.65000033378601,-13.594277026367187,4.3454760131835934,4.204218115234375,-28.977099236641223,39.23664122137404,-12.67175572519084,-9.222464794921875,-1.1755530151367186,0.22505495605468748,27.297709923664122,-37.847328244274806,-7.603053435114504,0.0
13.660000324249268,-9.655815295410155,0.9337386474609375,2.059013427734375,-26.076335877862597,31.114503816793892,-8.106870229007633,-8.923189587402343,0.0047884033203125,0.15322890625,17.633587786259543,-32.25954198473283,-10.625954198473282,0.0
13.670000553131104,-9.782707983398437,0.6464344482421874,2.2170307373046874,-21.984732824427482,26.458015267175572,-4.778625954198473,-9.366116894531249,-1.8602946899414061,1.4245499877929686,15.221374045801527,-25.954198473282442,-10.274809160305344,0.0
13.68000054359436,-10.426748229980468,1.1372457885742187,2.4109610717773435,-12.687022900763358,23.0381679389313,-7.358778625954199,-10.254365710449218,-1.5275006591796874,1.177947216796875,21.404580152671755,-28.015267175572518,-11.053435114503817,0.0
13.690000534057617,-10.402806213378906,1.120486376953125,1.915361328125,-2.885496183206107,19.31297709923664,-6.519083969465649,-9.852139831542969,-0.055066638183593745,0.97683427734375,23.572519083969464,-29.954198473282442,-15.038167938931299,0.0
13.700000524520874,-10.8409451171875,2.612074011230469,2.147598889160156,-0.8091603053435115,15.938931297709924,-5.709923664122138,-8.667010009765624,0.7565677246093749,0.373495458984375,13.801526717557252,-21.419847328244273,-16.27480916030534,0.0
13.710000276565552,-9.832986218261718,1.908178723144531,1.9416975463867185,2.8244274809160306,14.549618320610687,-3.1908396946564888,-8.01818135986328,0.11013327636718749,-0.13168109130859373,7.480916030534351,-16.48854961832061,-15.49618320610687,0.0
13.720000267028809,-10.005368737792969,2.013523596191406,1.7190367919921874,5.374045801526718,11.404580152671755,-1.3129770992366412,-9.87608184814453,-2.3678654418945313,1.0103531005859374,9.267175572519085,-6.763358778625954,-11.587786259541986,0.0
13.730000734329224,-10.081983190917969,0.8858546142578124,0.967257470703125,8.977099236641221,9.083969465648854,0.22900763358778625,-10.532093103027343,-2.0254946044921875,0.7781155395507812,21.83206106870229,-8.351145038167939,-13.923664122137405,0.0
13.740000247955322,-10.728417639160156,1.2234370483398436,0.97683427734375,10.213740458015268,8.702290076335878,0.15267175572519084,-8.226476904296874,-1.0486603271484374,-0.8044517578125,27.740458015267176,-14.259541984732824,-20.549618320610687,0.0
13.750000715255737,-10.635043774414061,2.114080065917969,1.4101847778320311,6.977099236641221,9.206106870229007,-1.5419847328244274,-7.321468676757812,0.09576806640624999,0.6272808349609375,21.450381679389313,-3.450381679389313,-23.328244274809162,0.0
13.760000705718994,-8.698134631347656,1.3168109130859373,0.296881005859375,-6.900763358778626,2.122137404580153,0.183206106870229,-8.63827958984375,-0.7062894897460937,1.4030021728515625,23.328244274809162,2.0,-20.412213740458014,0.0
13.770000696182251,-8.580818749999999,0.7158662963867187,-0.5626373901367188,-2.3053435114503817,3.633587786259542,1.3740458015267176,-9.485826977539062,-0.38786066894531246,1.6711527587890624,23.572519083969464,4.183206106870229,-19.480916030534353,0.0
13.780000686645508,-8.432378247070313,-0.6105214233398437,-1.2042834350585936,5.267175572519084,9.450381679389313,1.099236641221374,-7.410054138183593,0.33758243408203126,1.4939818359375,18.916030534351144,3.816793893129771,-20.931297709923665,0.0
13.790000677108765,-9.624690673828125,0.9696516723632812,0.19393033447265623,2.8702290076335877,15.618320610687023,-3.0839694656488548,-8.291120349121094,-0.2537853759765625,1.6472107421875,19.83206106870229,8.290076335877863,-18.259541984732824,0.0
13.800000667572021,-9.931148486328125,1.1731588134765625,0.3806780639648437,-3.5877862595419847,14.076335877862595,-4.977099236641221,-8.398859423828124,0.3064578125,1.8770541015625,19.14503816793893,9.587786259541986,-17.0381679389313,0.0
13.810000658035278,-10.168174450683592,1.2521674682617188,0.35194764404296874,-4.0,14.946564885496183,-2.8702290076335877,-7.127538342285156,1.9800047729492187,1.0749965454101562,10.290076335877863,8.473282442748092,-17.923664122137403,0.0
13.820000410079956,-9.279925634765624,1.0726023437499999,0.3064578125,-5.709923664122138,16.702290076335878,-0.4580152671755725,-7.692569934082031,2.24097275390625,1.8722656982421875,-9.694656488549619,18.33587786259542,-15.618320610687023,0.0
13.830000400543213,-8.087613208007811,0.07422025146484375,0.08140285644531249,-5.679389312977099,18.198473282442748,-0.5801526717557252,-5.932831713867187,2.549824768066406,0.6536170532226562,-29.603053435114504,18.870229007633586,-13.938931297709924,0.0
13.840000867843628,-9.179369165039063,1.3335703247070312,1.3000515014648437,-6.33587786259542,23.358778625954198,-4.702290076335878,-8.219294299316406,0.612915625,2.9472622436523435,-52.19847328244275,34.045801526717554,-8.183206106870228,0.0
13.850000381469727,-9.696516723632811,2.73896669921875,2.1811177124023438,-17.862595419847327,16.82442748091603,-6.259541984732825,-8.978256225585938,-1.6424223388671875,3.2034418212890623,-45.587786259541986,27.541984732824428,-5.709923664122138,0.0
13.860000848770142,-8.614337573242187,1.85790048828125,1.8938135131835936,-14.396946564885496,11.969465648854962,-6.061068702290076,-9.830592016601562,-2.291250988769531,3.6296097167968746,-45.48091603053435,22.763358778625953,-9.312977099236642,0.0
13.87000060081482,-8.853757739257812,2.0350714111328125,2.442085693359375,-13.664122137404581,11.007633587786259,-3.3282442748091605,-8.55448253173828,-2.896984008789062,3.289633081054687,-48.94656488549618,19.69465648854962,-16.9618320610687,0.0
13.880000829696655,-8.195352282714843,2.1021090576171875,2.147598889160156,-9.679389312977099,10.80916030534351,-3.1297709923664123,-9.428366137695312,-6.026205578613281,4.3454760131835934,-32.87022900763359,15.068702290076336,-19.114503816793892,0.0
13.890000581741333,-9.349357482910156,3.1220389648437497,2.403778466796875,-15.007633587786259,5.648854961832061,-4.137404580152672,-10.115502014160155,-7.230489013671875,4.062960217285156,-8.65648854961832,3.6030534351145036,-21.908396946564885,0.0
13.90000057220459,-9.074024291992187,2.683900061035156,2.1715409057617188,-7.572519083969466,4.961832061068702,-3.7404580152671754,-7.302315063476562,-4.1754876953124995,2.731784094238281,1.3129770992366412,-6.809160305343512,-30.229007633587788,0.0
13.910000562667847,-10.122684619140625,4.197035510253906,2.901772412109375,-16.977099236641223,3.4656488549618323,-1.1755725190839694,-7.0844427124023435,-2.8945898071289062,3.5314474487304683,1.3435114503816794,-5.893129770992366,-30.580152671755727,0.0
13.920000553131104,-9.160215551757812,3.114856359863281,2.636016027832031,-16.870229007633586,0.2900763358778626,1.4198473282442747,-7.1395093505859375,-1.5682020874023437,4.144363073730468,0.6870229007633588,-8.274809160305344,-28.045801526717558,0.0
13.93000054359436,-10.32379755859375,3.3016040893554686,4.039018200683594,-23.61832061068702,-4.030534351145038,3.6946564885496183,-7.762001782226562,-0.584185205078125,4.594472985839843,-0.6717557251908397,-13.419847328244275,-22.213740458015266,0.0
13.940000534057617,-9.591171850585937,1.5753846923828123,5.042188696289062,-17.068702290076335,-8.13740458015267,5.435114503816794,-7.3478048950195305,0.45968671875,4.57771357421875,-4.595419847328245,-16.732824427480917,-17.893129770992367,0.0
13.950000524520874,-8.920795385742187,-0.44532150878906246,6.229712719726562,-11.740458015267176,-15.374045801526718,6.916030534351145,-6.962338427734375,0.373495458984375,4.168305090332031,-10.595419847328245,-17.893129770992367,-14.900763358778626,0.0
13.96000051498413,-9.5384994140625,-0.6248866333007812,8.20971749267578,-0.030534351145038167,-20.27480916030534,4.473282442748092,-6.715735656738281,0.009576806640625,3.727771984863281,-17.267175572519083,-18.977099236641223,-12.381679389312977,0.0
13.970000743865967,-11.188104357910156,1.0438719238281249,10.536881506347656,3.4656488549618323,-31.053435114503817,1.3435114503816794,-5.700594152832031,-0.19393033447265623,2.636016027832031,-23.16030534351145,-20.137404580152673,-10.83969465648855,0.0
13.980000495910645,-12.816161486816405,2.940079638671875,12.715605017089842,-2.0,-54.94656488549618,2.1526717557251906,-6.265625744628906,-1.3814543579101561,2.4444798950195312,-24.9618320610687,-19.251908396946565,-10.01526717557252,0.0
13.99000072479248,-14.678850378417968,3.6631285400390623,16.318878515625,-1.9236641221374047,-81.02290076335878,4.396946564885496,-5.626373901367187,-1.1947066284179686,1.4604630126953124,-29.984732824427482,-19.34351145038168,-9.786259541984732,0.0
14.000000476837158,-14.583082312011717,3.967192150878906,18.818425048828125,-0.2900763358778626,-113.52671755725191,8.580152671755725,-5.863399865722656,-1.2210428466796874,-0.2920926025390625,-31.84732824427481,-15.603053435114504,-11.129770992366412,0.0
14.010000705718994,-15.29655440673828,4.084508032226562,19.74019268798828,0.015267175572519083,-149.4198473282443,9.969465648854962,-10.230423693847655,0.07422025146484375,1.2569558715820313,-40.412213740458014,-4.198473282442748,-16.748091603053435,0.0
14.020000696182251,-14.446612817382812,4.103661645507812,17.55189237060547,-13.526717557251908,-192.19847328244273,7.938931297709924,-17.884686401367187,-0.9169792358398436,6.5577183471679685,-60.42748091603053,14.854961832061068,-23.0381679389313,0.0
14.030000686645508,-14.906299536132812,2.1260510742187497,12.251129895019531,-37.86259541984733,-225.9083969465649,2.030534351145038,-25.206155078124997,-4.311957189941406,10.517727893066406,-51.87786259541985,9.419847328244275,-23.66412213740458,0.0
14.040000677108765,-14.64533155517578,-1.5251064575195312,5.073313317871094,-50.74809160305343,-253.09923664122138,-5.862595419847328,-22.82392442626953,-3.306392492675781,9.143456140136719,-15.32824427480916,-11.908396946564885,-7.374045801526718,0.0
14.050000429153442,-16.534356665039063,-3.4715924072265625,0.10773907470703124,-39.083969465648856,-261.22137404580155,-4.183206106870229,-11.506533178710937,2.4133552734375,2.243366955566406,8.366412213740459,-32.19847328244275,2.6259541984732824,0.0
14.060000658035278,-16.47689582519531,-4.860229370117187,-3.77326181640625,7.038167938931298,-259.87786259541986,3.801526717557252,-5.6766521362304685,4.096479040527344,-2.020706201171875,-0.6870229007633588,-21.740458015267176,12.198473282442748,0.0
14.070000648498535,-18.885462695312498,-3.5146880371093747,-5.729324572753906,65.81679389312977,-241.29770992366412,20.931297709923665,-1.7908628417968748,4.572925170898437,-6.098031628417968,-9.893129770992367,-21.893129770992367,15.358778625954198,0.0
14.080000638961792,-17.98524287109375,-3.1699229980468746,-7.3861121215820305,104.29007633587786,-229.9083969465649,30.85496183206107,-2.5953145996093747,1.695094775390625,-5.293579870605469,-35.38931297709924,-2.030534351145038,17.541984732824428,0.0
14.090000629425049,-17.355567834472655,-1.5059528442382812,-5.604826086425781,117.48091603053435,-210.99236641221373,29.00763358778626,-4.273649963378906,-4.2137949218749995,-4.927267016601562,-36.67175572519084,5.282442748091603,16.717557251908396,0.0
14.100000858306885,-14.106636181640624,0.6153098266601562,-5.705382556152343,111.83206106870229,-191.81679389312978,21.66412213740458,-7.781155395507812,-6.332663391113281,-3.892971899414062,-39.63358778625954,20.15267175572519,12.870229007633588,0.0
14.110000848770142,-11.827356201171874,1.2761094848632812,-2.6671406494140624,106.87022900763358,-162.45801526717557,15.786259541984732,-10.85291612548828,-9.04050546875,-3.6367923217773437,-19.16030534351145,23.31297709923664,10.305343511450381,0.0
14.120000839233398,-8.59997236328125,0.00239420166015625,-1.458068811035156,104.70229007633588,-138.4885496183206,9.450381679389313,-12.275071911621094,-8.183381274414062,-4.228160131835938,10.793893129770993,22.885496183206108,4.106870229007634,0.0
14.130000352859497,-5.935225915527344,-1.2378022583007813,-2.319981408691406,106.36641221374046,-119.41984732824427,2.33587786259542,-11.506533178710937,-4.898536596679687,-2.4061726684570313,26.946564885496183,24.9618320610687,-2.885496183206107,0.0
14.140000581741333,-6.313509777832031,1.5298948608398437,-2.2601263671875,87.96946564885496,-100.45801526717557,-6.564885496183206,-11.451466540527344,-2.5713725830078125,-1.6735469604492186,34.916030534351144,29.954198473282442,-6.534351145038168,0.0
14.15000057220459,-6.198588098144531,2.032677209472656,-2.9927520751953125,68.93129770992367,-85.58778625954199,-6.229007633587786,-10.764330664062498,-1.0438719238281249,-0.42377369384765623,36.51908396946565,37.02290076335878,-4.6106870229007635,0.0
14.160000562667847,-8.942343200683593,3.9695863525390624,-0.6440402465820312,42.18320610687023,-65.26717557251908,-5.343511450381679,-9.141061938476563,-0.8882488159179687,0.062249243164062495,42.458015267175576,35.49618320610687,-2.1374045801526718,0.0
14.170000314712524,-7.960720520019531,2.2026655273437497,-1.1635820068359375,21.603053435114504,-58.58015267175573,-0.061068702290076333,-8.271966735839843,0.948103857421875,-0.42377369384765623,45.083969465648856,34.93129770992366,-1.5267175572519085,0.0
14.18000054359436,-7.079654309082031,0.7613561279296874,-2.5570073730468748,11.49618320610687,-46.50381679389313,4.977099236641221,-7.6997525390625,2.114080065917969,-0.6344634399414062,43.20610687022901,34.58015267175573,0.2900763358778626,0.0
14.190000534057617,-4.477157104492187,0.11731588134765625,-4.496310717773437,8.778625954198473,-34.13740458015267,6.229007633587786,-7.211335400390625,1.6519991455078125,0.047884033203124995,30.946564885496183,38.97709923664122,3.6946564885496183,0.0
14.200000524520874,-6.852205151367187,1.946485949707031,-3.2609026611328122,-6.351145038167939,-17.923664122137403,2.198473282442748,-7.105990527343749,-0.7565677246093749,0.603338818359375,24.99236641221374,40.656488549618324,7.480916030534351,0.0
14.21000051498413,-4.163516687011718,1.6160861206054686,-5.908889697265625,-11.954198473282442,-4.5038167938931295,3.7099236641221376,-8.779537487792968,-1.6328455322265625,1.649604943847656,19.923664122137403,41.45038167938932,8.335877862595419,0.0
14.220000505447388,-4.335899206542969,3.191470812988281,-6.246472131347656,-29.236641221374047,10.0,6.99236641221374,-9.74200655517578,-1.2521674682617188,0.7805097412109374,16.259541984732824,36.54961832061068,8.045801526717558,0.0
14.230000257492065,-1.1516109985351561,0.8738836059570312,-7.321468676757812,-36.19847328244275,26.229007633587788,15.557251908396946,-10.292672937011718,-1.9656395629882812,1.2425906616210938,13.664122137404581,38.74809160305343,9.206106870229007,0.0
14.24000072479248,0.6655880615234374,-3.0789433349609374,-5.633556506347656,-26.427480916030536,58.0,18.3206106870229,-9.440337145996093,-2.463633508300781,1.8914193115234375,19.541984732824428,37.37404580152672,8.82442748091603,0.0
14.250000715255737,2.959233251953125,-7.060500695800781,-3.5673604736328124,-26.519083969465647,75.74045801526718,4.519083969465649,-8.106766821289062,-0.9576806640625,0.2705447875976562,24.82442748091603,32.56488549618321,6.442748091603053,0.0
14.260000467300415,1.0342951171875,-6.64630380859375,0.08140285644531249,-26.53435114503817,94.76335877862596,-18.3206106870229,-7.331045483398437,0.00718260498046875,0.44053310546874996,19.206106870229007,33.9236641221374,8.106870229007633,0.0
14.270000696182251,0.08858546142578125,-5.231330627441406,0.7350199096679687,-20.290076335877863,100.29007633587786,-39.37404580152672,-7.706935144042968,-0.5770026000976562,1.0390835205078124,14.992366412213741,36.06106870229008,11.297709923664122,0.0
14.280000686645508,-1.936909143066406,-2.9041666137695312,2.1643583007812497,2.4885496183206106,109.64885496183206,-50.99236641221374,-7.003039855957031,-0.18914193115234373,0.9648632690429687,8.870229007633588,35.725190839694655,14.442748091603054,0.0
14.290000677108765,-4.024652990722656,-1.467645617675781,5.070919116210937,32.48854961832061,117.32824427480917,-51.12977099236641,-7.951143713378905,-0.47644613037109373,1.6304513305664061,2.931297709923664,35.51145038167939,16.946564885496183,0.0
14.300000667572021,-6.423643054199219,0.19393033447265623,9.5001921875,64.53435114503817,120.97709923664122,-47.541984732824424,-8.813056311035156,-0.59376201171875,3.0645781249999997,-6.244274809160306,33.49618320610687,18.137404580152673,0.0
14.310000658035278,-9.0788126953125,2.999934680175781,14.058752148437499,72.33587786259542,113.09923664122137,-44.88549618320611,-10.371681591796875,-0.5482721801757812,3.3303345092773435,-12.82442748091603,30.702290076335878,18.916030534351144,0.0
14.320000648498535,-13.316549633789062,6.256048937988281,17.33402001953125,45.48091603053435,84.16793893129771,-41.6793893129771,-10.232817895507813,-0.2537853759765625,3.27526787109375,-23.022900763358777,31.00763358778626,18.137404580152673,0.0
14.330000400543213,-14.891934326171874,9.588777648925781,18.37310354003906,37.7557251908397,61.23664122137404,-27.603053435114504,-10.534487304687499,-0.8858546142578124,3.9240965209960934,-29.52671755725191,33.14503816793893,19.480916030534353,0.0
14.340000867843628,-17.91341682128906,13.84087979736328,17.59498800048828,0.42748091603053434,24.916030534351144,-9.557251908396946,-8.8872765625,-1.3934253662109375,2.3056161987304686,-25.64885496183206,26.18320610687023,20.366412213740457,0.0
14.350000381469727,-13.304578625488281,9.265560424804686,11.889605444335936,-4.106870229007634,-7.206106870229007,16.80916030534351,-7.704540942382812,-0.6248866333007812,0.689530078125,-25.099236641221374,24.671755725190838,21.84732824427481,0.0
14.360000610351562,-10.426748229980468,4.740519287109374,11.73398233642578,8.396946564885496,-17.603053435114504,25.61832061068702,-5.949591125488281,-0.22266075439453123,-0.5578489868164063,-33.725190839694655,27.282442748091604,26.732824427480917,0.0
14.37000036239624,-5.65031591796875,2.310404602050781,6.148309863281249,30.244274809160306,-29.96946564885496,22.33587786259542,-6.110002636718749,-1.7669208251953124,-1.120486376953125,-30.3206106870229,29.83206106870229,35.12977099236641,0.0
14.380000829696655,-4.862623571777344,5.015852478027344,-1.618480322265625,41.55725190839695,-17.66412213740458,21.282442748091604,-6.282385156249999,-2.7461493041992187,-1.9584569580078124,-29.862595419847327,32.16793893129771,40.44274809160305,0.0
14.390000581741333,-3.3638533325195312,0.6464344482421874,-2.4205378784179685,41.00763358778626,-12.13740458015267,27.480916030534353,-8.106766821289062,-4.201823913574218,-2.099714855957031,-21.46564885496183,34.25954198473283,39.02290076335878,0.0
14.40000033378601,-11.633425866699218,-1.2976572998046874,10.857704528808593,41.52671755725191,2.030534351145038,22.106870229007633,-9.090783703613281,-3.5817256835937497,-3.2034418212890623,-21.450381679389313,35.57251908396947,33.099236641221374,0.0
14.410000324249268,-15.492878942871092,0.354341845703125,15.447389111328125,38.58015267175573,-8.198473282442748,15.16030534351145,-13.819331982421874,-5.106832141113281,-2.04943662109375,-22.0,41.02290076335878,27.557251908396946,0.0
14.420000553131104,-22.469582580566406,12.43069501953125,13.242329382324218,32.68702290076336,-21.328244274809162,24.53435114503817,-16.402675573730466,-5.966350537109375,-2.3247698120117186,-16.916030534351144,42.56488549618321,18.778625954198475,0.0
14.43000054359436,-18.619706311035156,8.95670841064453,7.036558679199218,22.65648854961832,-34.274809160305345,47.725190839694655,-15.950171459960936,-4.2497079467773435,-1.5969325073242187,-9.083969465648854,41.587786259541986,9.740458015267176,0.0
14.440000534057617,-13.587094421386718,0.5961562133789062,4.242525341796875,-2.2442748091603053,-42.58015267175573,46.01526717557252,-14.53040987548828,-1.3407529296874998,-0.5363011718749999,-10.534351145038167,38.68702290076336,1.251908396946565,0.0
14.450000286102295,-9.452308154296874,-3.450044592285156,-0.6200982299804687,-10.687022900763358,-47.083969465648856,26.27480916030534,-15.172055920410155,-0.7278373046875,1.5203180541992187,-7.190839694656488,34.30534351145038,0.22900763358778625,0.0
14.46000051498413,-11.54244620361328,1.9297265380859374,-0.9792284790039062,0.6259541984732825,-43.725190839694655,11.17557251908397,-16.761805822753907,-0.411802685546875,2.35589443359375,-6.458015267175573,26.671755725190838,3.648854961832061,0.0
14.470000743865967,-13.110648291015623,7.517793212890624,-4.6255976074218745,6.717557251908397,-29.435114503816795,19.84732824427481,-17.547103967285157,1.1851298217773436,2.588131994628906,-2.351145038167939,7.908396946564886,6.33587786259542,0.0
14.480000495910645,-13.345280053710937,3.8091748413085935,-4.551377355957031,-5.068702290076335,-16.15267175572519,33.87786259541985,-17.6596314453125,3.6535517333984373,2.128445275878906,-4.213740458015267,-8.244274809160306,8.335877862595419,0.0
14.49000072479248,-9.557653027343749,-1.0007762939453124,-7.218518005371093,-15.282442748091603,1.465648854961832,35.770992366412216,-17.693150268554685,4.072537023925781,2.4875755249023435,-11.221374045801527,-13.282442748091603,13.038167938931299,0.0
14.500000238418579,-7.862558251953125,0.9265560424804687,-8.382100012207031,-37.11450381679389,12.641221374045802,28.3206106870229,-15.966930871582031,4.88417138671875,1.4532804077148436,-21.64885496183206,-21.954198473282442,15.129770992366412,0.0
14.510000705718994,-5.813121630859374,-0.076614453125,-7.953537915039062,-55.541984732824424,25.66412213740458,23.114503816793892,-13.95580147705078,4.390965844726562,0.603338818359375,-35.221374045801525,-26.778625954198475,18.885496183206108,0.0
14.52000093460083,-4.620809204101562,-3.8235400512695312,-6.215347509765625,-55.954198473282446,44.0,17.16030534351145,-13.874398620605469,1.5897499023437498,0.5458779785156249,-35.17557251908397,-29.236641221374047,25.770992366412212,0.0
14.530000686645508,-7.551312036132812,-4.089296435546875,-3.6367923217773437,-40.16793893129771,62.29007633587786,5.419847328244275,-13.172897534179686,2.0661960327148434,-1.7334020019531249,-30.83969465648855,-36.47328244274809,26.625954198473284,0.0
14.540000677108765,-9.885658654785155,-2.731784094238281,-2.3678654418945313,-27.572519083969464,72.83969465648855,-5.66412213740458,-12.9095353515625,2.1787235107421874,-1.5825672973632812,-32.229007633587784,-35.404580152671755,26.16793893129771,0.0
14.550000667572021,-12.406753002929687,-0.8786720092773437,-0.2537853759765625,-20.85496183206107,77.89312977099236,-12.931297709923664,-12.318167541503906,1.3311761230468748,-2.233790148925781,-39.786259541984734,-32.595419847328245,25.6793893129771,0.0
14.560000658035278,-14.034810131835936,0.2705447875976562,1.6711527587890624,-24.061068702290076,78.44274809160305,-17.755725190839694,-12.31577333984375,-0.5147533569335937,-2.1906945190429687,-39.12977099236641,-28.137404580152673,22.885496183206108,0.0
14.570000648498535,-13.982137695312499,0.13407529296874998,1.5514426757812498,-30.045801526717558,73.63358778625954,-19.923664122137403,-12.739547033691405,-1.7310078002929687,-1.9871873779296874,-34.61068702290076,-23.00763358778626,18.137404580152673,0.0
14.580000400543213,-12.411541406249999,-0.3854664672851562,0.00718260498046875,-32.35114503816794,68.99236641221374,-20.106870229007633,-12.181698046874999,-1.675941162109375,-1.6639701538085936,-25.633587786259543,-22.625954198473284,10.488549618320612,0.0
14.590000629425049,-11.89439384765625,-0.07900865478515624,0.10295067138671875,-30.213740458015266,68.01526717557252,-23.282442748091604,-12.246341491699217,-4.3430818115234375,1.1659762084960936,-12.549618320610687,-20.946564885496183,9.557251908396946,0.0
14.600000858306885,-10.773907470703124,-0.36391865234375,-1.1276689819335937,-29.297709923664122,65.29770992366412,-25.114503816793892,-9.45470235595703,-0.33039982910156246,-0.6679822631835937,-4.656488549618321,-30.778625954198475,0.015267175572519083,0.0
14.610000610351562,-9.387664709472656,0.4644751220703125,-1.005564697265625,-22.259541984732824,68.09160305343511,-25.64885496183206,-8.789114294433594,0.086191259765625,-0.3687070556640625,-11.938931297709924,-26.244274809160306,-1.1908396946564885,0.0
14.620001077651978,-9.023746057128905,-0.16519991455078123,-0.38307226562499996,-16.900763358778626,74.7175572519084,-25.419847328244273,-9.090783703613281,-1.89620771484375,0.8259995727539062,-5.068702290076335,-21.6793893129771,0.3511450381679389,0.0
14.630000352859497,-9.674968908691406,0.5770026000976562,0.07422025146484375,-15.251908396946565,76.1526717557252,-28.732824427480917,-10.455478649902343,-3.2058360229492187,1.2378022583007813,11.816793893129772,-23.206106870229007,-0.8854961832061069,0.0
14.640000581741333,-10.077194787597655,-0.258573779296875,0.28969840087890625,-8.992366412213741,78.41221374045801,-27.83206106870229,-8.741230261230468,-1.189918225097656,0.41419688720703124,19.908396946564885,-31.19083969465649,-7.3893129770992365,0.0
14.65000057220459,-10.005368737792969,0.6200982299804687,1.3718775512695311,-9.557251908396946,80.74809160305344,-28.458015267175572,-9.562441430664062,0.023942016601562498,0.4429273071289062,15.16030534351145,-23.328244274809162,-8.488549618320612,0.0
14.660000562667847,-9.823409411621093,0.469263525390625,1.7166425903320313,-14.427480916030534,80.3206106870229,-30.366412213740457,-10.002974536132811,-1.618480322265625,0.9840168823242187,18.885496183206108,-23.893129770992367,-7.4961832061068705,0.0
14.670000553131104,-10.800243688964843,1.1635820068359375,2.2840683837890623,-17.114503816793892,79.63358778625954,-34.19847328244275,-10.256759912109374,-2.3726538452148436,1.218648645019531,28.916030534351144,-29.81679389312977,-8.274809160305344,0.0
14.680000305175781,-9.488221179199218,-0.6703764648437499,1.2808978881835937,-13.022900763358779,77.22137404580153,-32.67175572519084,-8.667010009765624,-0.033518823242187495,0.15562310791015624,32.47328244274809,-38.595419847328245,-14.641221374045802,0.0
14.690000534057617,-10.761936462402343,1.3000515014648437,2.588131994628906,-9.557251908396946,79.3587786259542,-33.603053435114504,-8.061276989746093,-0.19632453613281248,0.45968671875,24.30534351145038,-34.12213740458015,-14.488549618320612,0.0
14.700000286102295,-10.529698901367187,1.0342951171875,2.5905261962890624,-18.625954198473284,73.80152671755725,-32.29007633587786,-9.572018237304688,-1.7908628417968748,1.3383587280273437,31.603053435114504,-35.38931297709924,-11.312977099236642,0.0
14.71000051498413,-11.77947216796875,2.96881005859375,3.277662072753906,-14.916030534351146,71.96946564885496,-31.862595419847327,-10.050858569335936,-1.6711527587890624,0.6057330200195312,40.94656488549618,-44.67175572519084,-11.404580152671755,0.0
14.720000505447388,-10.144232434082031,2.379836450195312,2.0757728393554684,-23.908396946564885,59.83206106870229,-27.068702290076335,-8.985438830566405,0.14125789794921875,0.09337386474609374,39.20610687022901,-49.11450381679389,-16.03053435114504,0.0
14.730000257492065,-11.039663854980468,2.6288334228515624,2.5139117431640625,-24.366412213740457,58.0763358778626,-22.198473282442748,-10.072406384277343,-0.023942016601562498,0.612915625,42.25954198473283,-49.52671755725191,-14.961832061068701,0.0
14.740000247955322,-7.584830859375,1.13006318359375,1.4317325927734375,-19.954198473282442,52.42748091603053,-17.908396946564885,-9.70369932861328,-0.3016694091796875,0.40222587890625,40.778625954198475,-53.3587786259542,-15.19083969465649,0.0
14.750000715255737,-8.058882788085937,1.0103531005859374,1.4987702392578124,-20.778625954198475,48.70229007633588,-16.045801526717558,-9.289502441406249,0.4955997436523437,0.0,41.61832061068702,-56.42748091603053,-16.412213740458014,0.0
14.760000705718994,-9.239224206542968,2.999934680175781,2.5522189697265625,-27.19083969465649,43.7557251908397,-14.870229007633588,-9.016563452148437,0.10295067138671875,0.6392518432617187,34.85496183206107,-52.25954198473283,-14.961832061068701,0.0
14.770000696182251,-10.572794531249999,3.1747114013671873,3.7014357666015623,-32.25954198473283,40.595419847328245,-12.65648854961832,-9.172186560058593,-0.4165910888671875,0.5434837768554687,35.87786259541985,-51.282442748091604,-13.786259541984732,0.0
