timestamp,Thigh_L_Acc_X,Thigh_L_Acc_Y,Thigh_L_Acc_Z,Thigh_L_Gyr_X,Thigh_L_Gyr_Y,Thigh_L_Gyr_Z,Thigh_R_Acc_X,Thigh_R_Acc_Y,Thigh_R_Acc_Z,Thigh_R_Gyr_X,Thigh_R_Gyr_Y,Thigh_R_Gyr_Z,gpio_output
10.000000476837158,-10.982203015136719,2.6791116577148437,3.220201232910156,-24.900763358778626,32.83969465648855,-9.282442748091603,-8.564059338378906,-0.0718260498046875,0.6703764648437499,69.89312977099236,-62.62595419847328,-14.305343511450381,0.0
10.010000944137573,-9.440337145996093,1.8459294799804686,2.3487118286132813,-22.16793893129771,33.93893129770992,-6.015267175572519,-8.729259252929687,0.239420166015625,0.7422025146484375,64.16793893129771,-63.55725190839695,-14.15267175572519,1.0
10.02000093460083,-11.49216796875,2.147598889160156,3.5625720703124997,-32.6412213740458,30.580152671755727,-8.595419847328245,-8.540117321777343,1.7860744384765623,0.3758896606445312,50.50381679389313,-63.20610687022901,-12.106870229007633,1.0
10.030000448226929,-9.816226806640625,1.388636962890625,2.91134921875,-27.129770992366414,32.47328244274809,-7.404580152671755,-8.856151940917968,0.6392518432617187,0.8068459594726562,39.3587786259542,-61.06870229007634,-8.65648854961832,1.0
10.040000677108765,-12.591106530761717,3.878606689453125,5.145139367675781,-41.25190839694657,26.748091603053435,-10.16793893129771,-8.413224633789062,1.5059528442382812,0.469263525390625,31.34351145038168,-61.05343511450382,-7.022900763358779,1.0
10.050000667572021,-12.399570397949217,3.4739866088867184,3.9815573608398434,-57.603053435114504,16.748091603053435,-9.16030534351145,-8.595183959960938,1.6112977172851561,1.024718310546875,15.32824427480916,-52.19847328244275,-3.8625954198473282,1.0
10.060000658035278,-13.532027783203125,4.797980126953124,6.009446166992187,-61.19083969465649,15.282442748091603,-3.5419847328244276,-9.53131680908203,-0.23223756103515625,0.6272808349609375,11.709923664122137,-46.93129770992366,0.7786259541984732,1.0
10.070000648498535,-10.529698901367187,0.8882488159179687,3.3399113159179685,-74.19847328244275,-5.099236641221374,-0.8244274809160306,-9.957484704589843,-0.8978256225585937,0.7805097412109374,15.312977099236642,-51.41984732824427,0.24427480916030533,1.0
10.080000638961792,-12.713210815429687,2.291250988769531,4.745307690429687,-59.61832061068702,-4.625954198473282,2.183206106870229,-8.482656481933594,0.1292868896484375,-0.5793968017578125,8.396946564885496,-52.29007633587786,-4.229007633587786,1.0
10.09000039100647,-10.079588989257813,0.5506663818359374,3.7038299682617186,-61.541984732824424,-13.679389312977099,4.396946564885496,-9.028534460449219,-0.105344873046875,-0.016759411621093748,4.33587786259542,-43.00763358778626,-3.5877862595419847,1.0
10.100000381469727,-9.504980590820312,0.011971008300781249,2.4564509033203126,-41.20610687022901,-10.458015267175572,5.755725190839694,-9.8449572265625,-2.1356278808593747,0.7445967163085937,9.053435114503817,-43.00763358778626,-0.33587786259541985,1.0
10.110000610351562,-8.245630517578125,-1.5610194824218748,1.3096283081054687,-23.236641221374047,-6.412213740458015,1.83206106870229,-10.014945544433592,-1.2665326782226562,-0.08140285644531249,14.961832061068701,-48.99236641221374,-3.4656488549618323,1.0
10.120000839233398,-10.216058483886718,1.2641384765625,2.6216508178710938,-3.572519083969466,4.1679389312977095,-3.2519083969465647,-9.04050546875,-0.29448680419921874,0.6081272216796875,10.51908396946565,-43.80152671755725,-7.404580152671755,1.0
10.130000591278076,-9.904812268066406,2.674323254394531,3.1842882080078123,-9.786259541984732,3.7709923664122136,-5.251908396946565,-9.670180505371093,-1.659181750488281,1.8746598999023436,13.099236641221374,-36.412213740458014,-5.480916030534351,1.0
10.140000820159912,-9.200916979980468,2.8131869506835936,1.675941162109375,-0.8549618320610687,5.1603053435114505,-3.0076335877862594,-9.5001921875,-1.484405029296875,1.0438719238281249,18.564885496183205,-41.05343511450382,-5.4961832061068705,1.0
10.15000057220459,-8.662221606445312,3.859453076171875,1.5729904907226562,0.7938931297709924,12.534351145038167,-3.7251908396946565,-9.248801013183593,-0.13407529296874998,1.4173673828125,15.98473282442748,-38.19847328244275,-8.977099236641221,1.0
10.160000801086426,-8.118737829589843,3.679887951660156,1.7118541870117185,-7.435114503816794,14.16793893129771,-2.1526717557251906,-7.721300354003906,0.4333505004882812,0.7230489013671875,8.061068702290076,-33.770992366412216,-10.854961832061068,1.0
10.170000553131104,-7.122749938964843,3.821145849609375,1.7501614135742187,-22.900763358778626,8.702290076335878,0.24427480916030533,-9.564835632324218,-1.467645617675781,1.917755529785156,8.366412213740459,-26.3206106870229,-5.816793893129771,1.0
10.18000054359436,-8.963891015625,2.3965958618164063,1.668758557128906,-25.297709923664122,7.801526717557252,1.4809160305343512,-9.660603698730467,-1.0869675537109373,1.6903063720703124,8.595419847328245,-26.763358778625953,-4.824427480916031,1.0
10.190000534057617,-7.596801867675781,-0.603338818359375,1.2689268798828124,-7.32824427480916,12.274809160305344,5.190839694656488,-9.188945971679686,-0.718260498046875,1.1516109985351561,10.580152671755725,-26.900763358778626,-7.740458015267175,1.0
10.200000524520874,-8.410830432128906,0.1388636962890625,2.7150246826171873,1.4198473282442747,16.259541984732824,2.4732824427480917,-8.851363537597656,-1.0965443603515623,1.1947066284179686,12.305343511450381,-24.48854961832061,-8.82442748091603,1.0
10.21000051498413,-9.991003527832031,0.9983820922851562,2.834734765625,6.290076335877862,15.465648854961833,-2.763358778625954,-8.786720092773438,-0.9361328491210937,1.177947216796875,17.31297709923664,-21.419847328244273,-9.725190839694656,0.0
10.220000505447388,-11.195286962890624,1.908178723144531,3.1842882080078123,5.862595419847328,14.51908396946565,-5.221374045801527,-8.882488159179687,-0.8882488159179687,1.0654197387695312,18.900763358778626,-19.83206106870229,-10.01526717557252,0.0
10.230000257492065,-11.164162341308593,1.9225439331054686,2.8514941772460936,6.366412213740458,12.717557251908397,-5.847328244274809,-8.923189587402343,-0.5506663818359374,1.1420341918945311,19.984732824427482,-17.404580152671755,-11.267175572519085,0.0
10.240000486373901,-11.106701501464842,2.454056701660156,2.8419173706054686,4.961832061068702,13.786259541984732,-6.931297709923665,-8.374917407226562,-0.055066638183593745,0.8954314208984374,18.259541984732824,-15.816793893129772,-12.198473282442748,0.0
10.250000476837158,-9.900023864746093,1.4724340209960938,1.4317325927734375,-2.595419847328244,7.145038167938932,-6.0458015267175576,-9.035717065429687,0.05985504150390625,1.2425906616210938,17.572519083969464,-13.022900763358779,-11.145038167938932,0.0
10.260000705718994,-9.14824454345703,0.6440402465820312,1.0271125122070313,10.030534351145038,12.106870229007633,-4.977099236641221,-8.473079675292968,0.5506663818359374,1.3120225097656248,11.404580152671755,-10.030534351145038,-10.916030534351146,0.0
10.270000457763672,-9.334992272949219,1.0749965454101562,1.254561669921875,4.198473282442748,10.351145038167939,-6.0,-8.999804040527343,-0.0526724365234375,1.6256629272460936,9.358778625954198,-6.564885496183206,-9.938931297709924,0.0
10.280000686645508,-10.254365710449218,1.9536685546875,1.7717092285156248,9.694656488549619,15.145038167938932,-8.305343511450381,-8.702923034667968,0.22026655273437498,1.5275006591796874,6.091603053435114,-5.129770992366412,-9.84732824427481,0.0
10.290000438690186,-9.706093530273437,1.5658078857421873,0.967257470703125,-3.6793893129770994,7.816793893129771,-8.106870229007633,-8.525752111816406,0.7685387329101562,1.3742717529296875,0.5954198473282443,-2.564885496183206,-9.86259541984733,0.0
10.300000667572021,-10.340556970214843,2.2840683837890623,1.1731588134765625,0.04580152671755725,11.251908396946565,-6.977099236641221,-9.13627353515625,0.016759411621093748,1.6927005737304686,-3.267175572519084,0.44274809160305345,-7.175572519083969,0.0
10.3100004196167,-9.579200842285156,1.5538368774414062,0.9217676391601562,-2.015267175572519,12.534351145038167,-7.099236641221374,-9.3086560546875,0.1867477294921875,2.4756045166015626,-9.16030534351145,4.99236641221374,-5.938931297709924,0.0
10.320000410079956,-10.09395419921875,1.927332336425781,0.9361328491210937,-8.030534351145038,12.51908396946565,-7.32824427480916,-9.904812268066406,-0.7805097412109374,3.2800562744140622,-9.908396946564885,6.076335877862595,-4.33587786259542,0.0
10.330000638961792,-10.000580334472655,1.158793603515625,0.7134720947265625,-6.67175572519084,12.65648854961832,-7.526717557251908,-9.749189160156249,-0.9193734375,2.5737667846679684,-4.33587786259542,1.4045801526717556,-5.343511450381679,0.0
10.340000629425049,-10.340556970214843,0.9002198242187499,0.6655880615234374,-4.122137404580153,14.16793893129771,-8.564885496183207,-9.409212524414063,-0.4381389038085937,2.2266075439453124,-5.877862595419847,1.5877862595419847,-6.290076335877862,0.0
10.350000619888306,-9.947907897949218,0.9696516723632812,0.7805097412109374,-2.7786259541984735,15.389312977099237,-9.389312977099237,-9.45470235595703,-0.19871873779296872,1.9847931762695312,-5.740458015267175,1.1450381679389312,-5.938931297709924,0.0
10.36000108718872,-9.85692823486328,1.1851298217773436,0.8499415893554687,-3.2061068702290076,15.618320610687023,-11.068702290076336,-9.552864624023437,-0.143652099609375,1.8842367065429686,-6.748091603053435,0.5954198473282443,-5.312977099236641,0.0
10.37000060081482,-9.732429748535155,1.5729904907226562,0.9121908325195311,-3.572519083969466,16.244274809160306,-11.694656488549619,-9.299079248046874,0.23223756103515625,1.6400281372070311,-9.282442748091603,0.44274809160305345,-4.854961832061068,0.0
10.380000591278076,-9.897629663085937,1.6424223388671875,0.7326257080078125,-4.870229007633588,16.763358778625953,-11.099236641221374,-9.265560424804686,0.16759411621093748,1.6831237670898436,-10.992366412213741,1.6793893129770991,-4.106870229007634,0.0
10.390000820159912,-9.4618849609375,1.2521674682617188,0.6105214233398437,-4.732824427480916,16.564885496183205,-10.82442748091603,-9.37808790283203,-0.258573779296875,1.7381904052734374,-11.908396946564885,2.8396946564885495,-3.2519083969465647,0.0
10.400000810623169,-9.334992272949219,1.1659762084960936,0.8451531860351562,-4.1679389312977095,16.931297709923665,-10.870229007633588,-9.605537060546874,-0.7685387329101562,1.9704279663085937,-10.65648854961832,3.9236641221374047,-2.5343511450381677,0.0
10.410000562667847,-9.6917283203125,1.3096283081054687,0.5363011718749999,-3.9083969465648853,17.129770992366414,-11.648854961832061,-9.739612353515625,-1.0630255371093749,2.128445275878906,-8.610687022900763,4.091603053435114,-2.900763358778626,0.0
10.420000553131104,-9.437942944335937,1.8459294799804686,0.5506663818359374,-0.7175572519083969,17.34351145038168,-11.725190839694656,-9.983820922851562,-1.3766659545898436,2.4349030883789062,-6.244274809160306,4.549618320610687,-3.816793893129771,0.0
10.43000054359436,-9.56962403564453,1.936909143066406,0.3327940307617187,-2.9770992366412212,17.938931297709924,-12.534351145038167,-10.218452685546874,-1.5514426757812498,2.6886884643554687,-4.6106870229007635,3.954198473282443,-4.809160305343512,0.0
10.440000534057617,-9.330203869628905,2.224213342285156,0.19153613281249998,-4.015267175572519,18.580152671755727,-12.305343511450381,-10.24000050048828,-1.7214309936523438,2.8898014038085935,-3.8625954198473282,2.030534351145038,-6.519083969465649,0.0
10.450000524520874,-9.612719665527344,2.3391350219726563,0.25139117431640623,-5.8320610687022905,19.954198473282442,-12.091603053435115,-10.541669909667968,-1.9967641845703124,3.1866824096679687,-1.4351145038167938,0.061068702290076333,-8.122137404580153,0.0
10.46000075340271,-9.897629663085937,2.5139117431640625,0.19393033447265623,-7.679389312977099,20.900763358778626,-11.923664122137405,-9.928754284667969,-1.1875240234375,3.3303345092773435,-1.282442748091603,-2.4427480916030535,-11.679389312977099,0.0
10.470000505447388,-9.739612353515625,2.2290017456054687,-0.076614453125,-9.541984732824428,21.557251908396946,-11.007633587786259,-10.110713610839843,-0.9026140258789062,2.9975404785156248,-1.6030534351145038,-1.984732824427481,-13.297709923664122,0.0
10.480000495910645,-9.888052856445311,2.0087351928710935,0.009576806640625,-11.969465648854962,23.00763358778626,-10.229007633587786,-9.773131176757811,-1.1923124267578125,3.0837317382812497,-3.816793893129771,1.0687022900763359,-13.770992366412214,0.0
10.49000072479248,-9.277531433105468,0.1388636962890625,-0.8164227661132812,-9.404580152671755,24.18320610687023,-9.083969465648854,-9.86411083984375,-1.350329736328125,2.4133552734375,4.549618320610687,-3.2519083969465647,-14.427480916030534,0.0
10.500000238418579,-9.428366137695312,-0.11013327636718749,-0.55545478515625,0.4580152671755725,27.83206106870229,-10.83969465648855,-8.173804467773436,-1.0606313354492187,1.6256629272460936,4.229007633587786,-0.13740458015267176,-16.885496183206108,0.0
10.510000944137573,-8.183381274414062,-0.0430956298828125,-0.9337386474609375,5.145038167938932,30.610687022900763,-13.32824427480916,-8.973467822265624,-1.5370774658203123,1.7453730102539062,11.969465648854962,2.2595419847328246,-15.664122137404581,0.0
10.520000696182251,-9.289502441406249,0.5027823486328125,-0.411802685546875,7.114503816793893,33.7557251908397,-17.00763358778626,-6.229712719726562,0.7038952880859375,-0.3232172241210937,10.549618320610687,-1.8625954198473282,-19.00763358778626,0.0
10.530000686645508,-11.152191333007812,2.0446482177734375,0.47884033203125,-0.5190839694656488,35.12977099236641,-19.786259541984734,-6.222530114746093,1.8746598999023436,-0.18435352783203124,-10.67175572519084,18.12213740458015,-16.85496183206107,0.0
10.540000915527344,-9.320627062988281,0.9911994873046874,-0.5626373901367188,-8.183206106870228,31.46564885496183,-15.98473282442748,-7.034164477539062,1.5825672973632812,-0.031124621582031248,-24.82442748091603,30.259541984732824,-11.725190839694656,0.0
10.550000429153442,-8.47786807861328,-0.2059013427734375,0.00239420166015625,-1.83206106870229,35.89312977099237,-16.244274809160306,-7.503428002929687,0.19393033447265623,-0.031124621582031248,-23.603053435114504,32.42748091603053,-8.183206106870228,0.0
10.5600004196167,-8.667010009765624,-0.8714894042968749,-0.6009446166992187,8.106870229007633,39.12977099236641,-18.65648854961832,-8.801085302734375,-2.2290017456054687,1.2138602416992186,-9.648854961832061,34.06106870229008,-7.770992366412214,0.0
10.570000648498535,-8.882488159179687,-1.0103531005859374,-0.7637503295898437,12.122137404580153,40.213740458015266,-21.801526717557252,-8.374917407226562,-2.877830395507812,1.3072341064453123,4.732824427480916,31.450381679389313,-10.091603053435115,0.0
10.580000638961792,-8.305485559082031,-0.6057330200195312,-0.8762778076171874,15.954198473282442,41.32824427480916,-24.442748091603054,-6.016628771972656,0.5363011718749999,-0.21787235107421873,5.267175572519084,29.633587786259543,-14.290076335877863,0.0
10.590000867843628,-10.105925207519531,0.6512228515624999,0.0909796630859375,12.50381679389313,45.3587786259542,-27.083969465648856,-5.45877978515625,1.3958195678710936,-0.3806780639648437,-15.267175572519085,42.87022900763359,-12.458015267175572,0.0
10.600000858306885,-7.702146740722656,0.7326257080078125,-0.6440402465820312,9.877862595419847,45.083969465648856,-25.755725190839694,-8.473079675292968,-1.5658078857421873,2.1978771240234374,-12.564885496183207,46.80916030534351,-5.526717557251908,0.0
10.610000610351562,-9.955090502929687,0.4165910888671875,-0.18435352783203124,7.603053435114504,49.3587786259542,-27.46564885496183,-7.201758593749999,-1.678335363769531,1.419761584472656,1.0687022900763359,36.70229007633588,-4.687022900763359,0.0
10.620000839233398,-10.263942517089843,0.9935936889648437,0.02154781494140625,8.50381679389313,53.404580152671755,-27.14503816793893,-7.740453967285156,-1.0582371337890624,1.599326708984375,1.633587786259542,39.725190839694655,-4.748091603053435,0.0
10.630000591278076,-9.725247143554688,1.4053963745117186,0.16998831787109375,0.015267175572519083,55.98473282442748,-24.3206106870229,-8.36294639892578,-0.4908113403320312,2.583343591308594,1.1908396946564885,38.80916030534351,-4.427480916030534,0.0
10.640000820159912,-10.778695874023438,1.668758557128906,0.6392518432617187,-9.48091603053435,57.16030534351145,-22.137404580152673,-6.622361791992187,0.9576806640625,1.1324573852539062,-11.236641221374045,34.47328244274809,-6.198473282442748,0.0
10.65000057220459,-10.556035119628906,2.319981408691406,1.7238251953125,-16.85496183206107,55.6793893129771,-20.671755725190838,-5.9208607055664055,1.848323681640625,-0.47644613037109373,-44.93129770992366,47.55725190839695,-7.068702290076335,0.0
10.660000801086426,-10.87925234375,3.1794998046874996,2.9975404785156248,-25.450381679389313,52.68702290076336,-17.862595419847327,-8.801085302734375,-2.020706201171875,1.4053963745117186,-52.79389312977099,56.99236641221374,2.1526717557251906,0.0
10.670000553131104,-12.088324182128906,1.7884686401367187,4.723759875488281,-26.885496183206108,47.63358778625954,-14.870229007633588,-9.203311181640624,-2.6096798095703124,0.13168109130859373,-34.229007633587784,42.93129770992366,6.0458015267175576,0.0
10.68000054359436,-13.579911816406248,3.028665100097656,6.931213806152344,-25.435114503816795,38.48854961832061,-16.900763358778626,-9.306261853027344,-0.0718260498046875,-1.0606313354492187,-47.64885496183206,48.12213740458015,3.572519083969466,0.0
10.690000534057617,-13.194445349121093,2.971204260253906,8.602366564941406,-24.778625954198475,24.259541984732824,-10.320610687022901,-13.182474340820312,-3.5673604736328124,3.2034418212890623,-53.69465648854962,53.282442748091604,3.2061068702290076,0.0
10.700000286102295,-13.795389965820311,2.2768857788085937,10.615890161132812,-23.236641221374047,6.427480916030534,-6.717557251908397,-14.350844750976561,-4.264073156738281,2.664746447753906,-30.12213740458015,34.62595419847328,2.4427480916030535,0.0
10.71000051498413,-13.735534924316406,3.4093431640625,12.133814013671874,-21.389312977099237,-22.717557251908396,-5.267175572519084,-13.658920471191406,-0.4070142822265625,0.699106884765625,-33.49618320610687,31.557251908396946,-0.7022900763358778,0.0
10.720000505447388,-14.638148950195312,3.327940307617187,13.414711901855467,-4.152671755725191,-43.89312977099237,0.7175572519083969,-12.50730947265625,1.6615759521484375,0.9145850341796874,-41.3587786259542,34.36641221374046,3.236641221374046,0.0
10.730000972747803,-14.408305590820312,1.9776105712890624,14.393940380859375,19.251908396946565,-62.74809160305343,6.137404580152672,-12.732364428710937,0.5291185668945312,1.707065783691406,-29.099236641221374,32.79389312977099,13.801526717557252,0.0
10.740000486373901,-16.180014819335938,3.593696691894531,14.578293908691405,29.49618320610687,-94.83969465648855,8.045801526717558,-9.107543115234375,3.1172505615234374,-1.68551796875,-29.66412213740458,25.83206106870229,17.068702290076335,0.0
10.750000476837158,-18.193538415527343,6.4667386840820305,15.023615417480467,27.6793893129771,-125.8473282442748,11.206106870229007,-9.861716638183593,1.5729904907226562,-0.8882488159179687,-53.32824427480916,40.717557251908396,21.954198473282442,0.0
10.760000467300415,-18.16959639892578,5.317521887207031,12.528857287597656,17.480916030534353,-160.61068702290078,21.755725190839694,-10.788272680664061,-1.7836802368164062,-0.1005564697265625,-40.717557251908396,38.091603053435115,27.206106870229007,0.0
10.770000696182251,-17.956512451171875,3.725377783203125,11.726799731445311,10.442748091603054,-191.9236641221374,28.702290076335878,-9.935936889648437,-1.6208745239257811,-2.375048046875,-39.25190839694657,41.06870229007634,27.709923664122137,0.0
10.780000686645508,-18.052280517578122,2.5761609863281247,10.66856259765625,25.16030534351145,-216.82442748091603,37.725190839694655,-8.250418920898436,-2.528276953125,-2.5953145996093747,-31.755725190839694,40.62595419847328,24.82442748091603,0.0
10.790000915527344,-17.84877337646484,3.7014357666015623,5.2816088623046875,47.29770992366412,-229.6946564885496,51.55725190839695,-8.327033374023436,0.023942016601562498,-4.07971962890625,-32.916030534351144,47.770992366412216,23.282442748091604,0.0
10.800000667572021,-15.576676000976562,1.3144167114257812,-0.6081272216796875,42.83969465648855,-234.93129770992365,59.93893129770992,-9.986215124511718,-3.201047619628906,-1.4604630126953124,-32.61068702290076,58.58015267175573,24.85496183206107,0.0
10.810000896453857,-14.283807104492187,-3.6343981201171873,-2.2673089721679687,35.3587786259542,-229.61832061068702,58.67175572519084,-9.220070593261719,-2.2385785522460937,-1.7693150268554687,-15.954198473282442,56.56488549618321,23.984732824427482,0.0
10.820000410079956,-12.404358801269531,-6.430825659179687,-3.957615344238281,40.79389312977099,-215.12977099236642,52.717557251908396,-11.334150659179686,-4.441244079589843,0.967257470703125,-3.3435114503816794,60.67175572519084,26.03053435114504,0.0
10.830000638961792,-10.867281335449219,-7.0269818725585935,-5.664681127929687,51.282442748091604,-189.5267175572519,48.76335877862596,-10.175357055664062,-2.2960393920898436,0.02633621826171875,19.236641221374047,52.54961832061068,23.541984732824428,0.0
10.84000039100647,-10.000580334472655,-7.113173132324218,-6.0525417968749995,60.030534351145036,-170.85496183206106,40.87022900763359,-11.006145031738281,-1.8650830932617186,0.6943184814453125,19.099236641221374,57.05343511450382,23.0381679389313,0.0
10.850000619888306,-9.847351428222655,-5.011064074707031,-5.145139367675781,75.34351145038168,-146.19847328244273,34.42748091603053,-11.281478222656249,-2.1499930908203124,2.1643583007812497,38.80916030534351,47.86259541984733,21.083969465648856,0.0
10.860000371932983,-9.94072529296875,-1.4820108276367188,-3.2225954345703123,81.19083969465649,-133.1145038167939,26.68702290076336,-11.724405529785155,-1.4341267944335936,1.2473790649414063,41.23664122137404,38.93129770992366,19.099236641221374,0.0
10.87000060081482,-10.407594616699217,0.8690952026367187,-0.6679822631835937,84.47328244274809,-117.7557251908397,24.229007633587788,-10.381258398437499,0.239420166015625,0.1867477294921875,30.671755725190838,33.23664122137404,14.916030534351146,0.0
10.880000829696655,-8.70771143798828,0.8690952026367187,0.2059013427734375,81.63358778625954,-114.19847328244275,25.52671755725191,-10.01733974609375,-0.2920926025390625,-0.08858546142578125,16.442748091603054,30.610687022900763,13.297709923664122,0.0
10.890000343322754,-10.232817895507813,2.418143676757812,1.8124106567382812,72.83969465648855,-106.83969465648855,24.3206106870229,-9.583989245605467,-0.8954314208984374,0.011971008300781249,4.5038167938931295,30.977099236641223,14.396946564885496,0.0
10.900000810623169,-9.880870251464843,2.3487118286132813,0.9528922607421875,56.36641221374046,-112.41221374045801,24.80916030534351,-9.842563024902343,-2.104503259277344,0.3136404174804687,-0.7786259541984732,31.068702290076335,15.16030534351145,0.0
10.910000562667847,-11.099518896484375,3.7517140014648436,1.189918225097656,36.458015267175576,-116.16793893129771,26.778625954198475,-9.220070593261719,-2.597708801269531,0.047884033203124995,-4.396946564885496,29.00763358778626,15.389312977099237,0.0
10.920000553131104,-10.78348427734375,1.9919757812499999,0.30885201416015623,22.259541984732824,-117.0381679389313,33.587786259541986,-8.8872765625,-1.7022773803710936,-0.9433154541015625,-9.282442748091603,29.374045801526716,12.534351145038167,0.0
10.93000054359436,-9.363722692871093,2.0733786376953125,0.21308394775390624,13.587786259541986,-114.16793893129771,38.74809160305343,-10.63025537109375,-4.781220715332031,0.7038952880859375,-0.8702290076335878,30.717557251908396,14.50381679389313,0.0
10.940000295639038,-8.147468249511718,1.1252747802734375,-0.5674257934570313,2.549618320610687,-111.81679389312977,42.13740458015267,-10.127473022460936,-3.6056677001953124,0.5674257934570313,7.526717557251908,28.519083969465647,12.51908396946565,0.0
10.950000524520874,-7.019799267578125,0.28012159423828126,0.01915361328125,-2.0610687022900764,-105.25190839694656,42.99236641221374,-9.655815295410155,-2.612074011230469,0.18435352783203124,12.82442748091603,24.137404580152673,11.083969465648854,0.0
10.96000051498413,-6.72291826171875,0.430956298828125,1.0773907470703123,-9.908396946564885,-96.70229007633588,39.48091603053435,-11.417947717285156,-4.177881896972656,1.6352397338867186,23.358778625954198,23.954198473282442,11.557251908396946,0.0
10.970000982284546,-6.593631372070312,-0.05027823486328125,1.1827356201171875,-12.549618320610687,-88.33587786259542,36.79389312977099,-9.610325463867188,-2.152387292480469,0.4333505004882812,18.870229007633586,25.64885496183206,10.0,0.0
10.980000495910645,-5.111620544433594,0.2059013427734375,1.5969325073242187,-12.610687022900763,-77.90839694656489,32.80916030534351,-9.593566052246093,-1.917755529785156,0.4525041137695312,22.702290076335878,22.793893129770993,9.053435114503817,0.0
10.99000072479248,-4.153939880371094,0.201112939453125,2.0350714111328125,-9.145038167938932,-65.1145038167939,29.923664122137403,-10.551246716308594,-1.9991583862304687,0.679953271484375,25.83206106870229,21.633587786259543,9.312977099236642,0.0
11.000000476837158,-3.921702319335937,1.3096283081054687,2.2266075439453124,-6.076335877862595,-55.465648854961835,26.3206106870229,-10.769119067382812,-2.4779987182617185,1.0366893188476562,27.419847328244273,22.137404580152673,9.511450381679388,0.0
11.010000944137573,-4.84586416015625,2.3535002319335936,3.0645781249999997,-3.954198473282443,-46.82442748091603,24.091603053435115,-9.995791931152343,-2.4947581298828125,1.0606313354492187,32.0763358778626,20.27480916030534,7.893129770992366,0.0
11.020000696182251,-4.587290380859375,2.978386865234375,3.1579519897460937,-6.015267175572519,-40.396946564885496,24.549618320610687,-10.40041201171875,-2.262520568847656,1.4939818359375,32.0,24.106870229007633,7.0534351145038165,0.0
11.030000686645508,-4.7381250854492185,2.81558115234375,3.189076611328125,-9.419847328244275,-34.045801526717554,24.625954198473284,-10.287884533691406,-0.7541735229492187,0.5243301635742187,36.67175572519084,18.366412213740457,3.5877862595419847,0.0
11.040000677108765,-4.967968444824218,3.0909143432617188,3.3638533325195312,-14.870229007633588,-28.12213740458015,23.297709923664122,-8.520963708496094,1.6232687255859375,-1.5562310791015623,20.85496183206107,14.793893129770993,0.061068702290076333,0.0
11.050000667572021,-3.7804444213867185,3.0550013183593747,2.858676782226562,-17.14503816793893,-23.893129770992367,23.541984732824428,-11.499350573730467,-0.46686932373046874,1.388636962890625,10.778625954198473,27.450381679389313,4.687022900763359,0.0
11.0600004196167,-4.189852905273438,3.239354846191406,3.342305517578125,-19.221374045801525,-14.687022900763358,23.129770992366414,-11.195286962890624,-1.85790048828125,2.2074539306640624,8.961832061068701,28.580152671755727,7.297709923664122,0.0
11.070000648498535,-4.297591979980469,3.289633081054687,3.1459809814453124,-25.16030534351145,-8.076335877862595,21.923664122137403,-9.105148913574219,-0.11731588134765625,0.1388636962890625,15.450381679389313,16.259541984732824,4.213740458015267,0.0
11.080000638961792,-3.414131567382812,2.398990063476562,1.7405846069335937,-26.80916030534351,0.0916030534351145,21.14503816793893,-11.911153259277343,-1.8339584716796873,2.5857377929687497,12.992366412213741,21.374045801526716,5.190839694656488,0.0
11.090000629425049,-3.8690298828125,3.545812658691406,2.437297290039062,-36.778625954198475,9.053435114503817,15.770992366412214,-10.405200415039062,-0.4429273071289062,1.426944189453125,18.793893129770993,16.290076335877863,2.183206106870229,0.0
11.100001096725464,-3.0693665283203124,2.7078420776367187,1.149216796875,-45.70992366412214,14.977099236641221,13.923664122137405,-9.536105212402344,0.27293898925781246,0.737414111328125,10.442748091603054,12.793893129770993,-0.3511450381679389,0.0
11.110000610351562,-1.9871873779296874,1.2401964599609374,-1.0127473022460938,-48.99236641221374,26.916030534351144,12.900763358778626,-9.519345800781249,-0.7278373046875,1.3551181396484375,3.5114503816793894,9.98473282442748,0.9770992366412213,0.0
11.120000839233398,0.2753331909179687,-2.5378537597656248,-2.8658593872070313,-42.152671755725194,48.030534351145036,11.221374045801527,-9.823409411621093,-0.8259995727539062,0.9864110839843749,1.7709923664122138,7.770992366412214,1.7099236641221374,0.0
11.130000352859497,-4.048595007324218,-3.9743747558593747,2.499546533203125,-35.48091603053435,66.80916030534351,1.1603053435114503,-10.953472595214842,0.33758243408203126,0.08140285644531249,-9.450381679389313,10.183206106870228,1.9389312977099236,0.0
11.140000820159912,-7.098807922363281,-6.121973645019531,13.081917871093749,16.717557251908396,75.58778625954199,0.22900763358778625,-11.769895361328125,-1.209071838378906,0.6296750366210937,-20.99236641221374,19.450381679389313,7.343511450381679,0.0
11.15000057220459,-12.636596362304687,0.5674257934570313,15.734693310546874,69.22137404580153,73.96946564885496,-2.381679389312977,-11.609483850097655,-2.8419173706054686,0.3711012573242187,-12.854961832061068,16.35114503816794,13.236641221374045,0.0
11.160000562667847,-14.528015673828124,4.96078583984375,7.972691528320312,69.45038167938931,72.59541984732824,-4.137404580152672,-11.403582507324218,-2.9448680419921875,-0.9983820922851562,-11.083969465648854,12.351145038167939,15.694656488549619,0.0
11.170000553131104,-16.55590447998047,10.151415039062499,6.68461103515625,63.57251908396947,69.72519083969466,-2.885496183206107,-11.597512841796874,-3.6727053466796873,0.2442085693359375,-11.34351145038168,13.435114503816793,14.931297709923664,0.0
11.18000054359436,-11.477802758789062,7.256825231933593,4.00310517578125,34.656488549618324,54.48854961832061,5.66412213740458,-10.87206973876953,-3.5529952636718747,0.7445967163085937,2.198473282442748,4.748091603053435,10.13740458015267,0.0
11.190000534057617,-8.267178332519531,3.39018955078125,1.2617442749023438,7.374045801526718,51.786259541984734,5.236641221374046,-12.861651318359375,-2.3391350219726563,1.3144167114257812,4.67175572519084,2.854961832061069,4.900763358778626,0.0
11.200000762939453,-6.612784985351562,1.35990654296875,1.3646949462890625,-7.404580152671755,48.85496183206107,1.1145038167938932,-13.306972827148437,0.679953271484375,0.6009446166992187,-0.549618320610687,-3.7099236641221376,-2.4885496183206106,0.0
11.21000051498413,-5.427655163574219,-1.2617442749023438,-0.8762778076171874,-17.31297709923664,48.93129770992366,-3.83206106870229,-14.056357946777343,2.6695348510742187,0.0718260498046875,-11.954198473282442,-7.541984732824427,-2.4122137404580153,0.0
11.220000505447388,-6.732495068359374,-1.8243816650390623,-0.8283937744140625,-9.969465648854962,59.267175572519086,-9.587786259541986,-15.66047305908203,1.659181750488281,0.5865794067382812,-10.82442748091603,-13.236641221374045,2.9923664122137406,0.0
11.230000495910645,-9.8449572265625,0.36391865234375,1.3479355346679687,-2.381679389312977,68.21374045801527,-19.00763358778626,-15.454571716308592,2.3343466186523436,0.02154781494140625,-19.053435114503817,-20.580152671755727,5.022900763358779,0.0
11.240000486373901,-10.089165795898436,1.2761094848632812,2.152387292480469,5.404580152671755,71.26717557251908,-21.52671755725191,-14.633360546874998,1.426944189453125,0.19153613281249998,-22.412213740458014,-26.244274809160306,6.885496183206107,0.0
11.250000953674316,-11.3389390625,0.9097966308593749,2.2673089721679687,13.755725190839694,84.77862595419847,-24.16793893129771,-13.316549633789062,0.8595183959960937,0.74699091796875,-24.27480916030534,-29.34351145038168,8.244274809160306,0.0
11.260000467300415,-13.36203946533203,2.980781066894531,2.4516625,6.595419847328245,87.12977099236642,-27.801526717557252,-11.736376538085937,0.4213794921875,0.16998831787109375,-26.65648854961832,-33.70992366412214,6.854961832061068,0.0
11.270000696182251,-10.421959826660157,2.308010400390625,0.8379705810546875,-0.8854961832061069,82.42748091603053,-23.587786259541986,-11.583147631835937,-0.38307226562499996,-0.1484405029296875,-16.68702290076336,-39.603053435114504,5.358778625954199,0.0
11.280000448226929,-7.189787585449218,-0.36391865234375,-0.5243301635742187,14.549618320610687,92.1526717557252,-21.480916030534353,-10.141838232421874,-0.06464344482421874,-0.7709329345703124,-14.80916030534351,-44.88549618320611,4.259541984732825,0.0
11.290000677108765,-8.1594392578125,1.2330138549804688,0.39264907226562495,22.50381679389313,99.89312977099236,-29.419847328244273,-8.856151940917968,0.13646949462890623,-0.9864110839843749,-15.16030534351145,-45.83206106870229,0.9312977099236641,0.0
11.300000429153442,-6.7037646484375,2.408566870117187,-1.1228805786132812,19.938931297709924,95.26717557251908,-32.12213740458015,-9.22485899658203,-0.9097966308593749,-0.8020575561523438,-12.748091603053435,-43.89312977099237,0.8854961832061069,0.0
11.310000658035278,-9.370905297851563,3.2154128295898436,0.7876923461914062,25.435114503816795,104.09160305343511,-32.045801526717554,-10.79545528564453,-2.722207287597656,-0.7326257080078125,-1.7099236641221374,-46.94656488549618,1.4351145038167938,0.0
11.320000410079956,-5.635950708007812,-0.4213794921875,-0.8379705810546875,35.14503816793893,101.02290076335878,-27.908396946564885,-11.247959399414063,-3.3973721557617185,0.03591302490234375,16.198473282442748,-55.06870229007634,-2.2442748091603053,0.0
11.330000638961792,-7.599196069335937,0.4477157104492187,1.3766659545898436,57.83206106870229,114.62595419847328,-28.198473282442748,-13.328520642089844,-2.6599580444335937,0.6368576416015624,25.419847328244273,-59.06870229007634,-7.343511450381679,0.0
11.340000629425049,-9.868899243164062,3.0550013183593747,2.8610709838867185,50.79389312977099,111.08396946564885,-33.63358778625954,-9.488221179199218,-0.28730419921875,-1.1516109985351561,17.374045801526716,-59.404580152671755,-14.488549618320612,0.0
11.350000381469727,-11.336544860839844,4.908113403320312,4.173093493652344,35.00763358778626,103.1145038167939,-31.435114503816795,-9.387664709472656,-1.3646949462890625,-2.365471240234375,20.85496183206107,-58.30534351145038,-15.770992366412214,0.0
11.360000848770142,-10.793061083984375,4.874594580078124,4.503493322753906,10.687022900763358,86.36641221374046,-29.52671755725191,-8.549694128417968,1.47482822265625,-4.3813890380859375,20.137404580152673,-54.35114503816794,-17.267175572519083,0.0
11.37000060081482,-7.7763669921875,1.8507178833007811,2.3151930053710936,-2.763358778625954,70.33587786259542,-23.587786259541986,-8.367734802246094,2.5043349365234375,-4.060566015625,4.748091603053435,-38.06106870229008,-14.702290076335878,0.0
11.380000829696655,-7.445967163085937,-0.08379705810546874,2.6001030029296874,9.206106870229007,70.90076335877863,-21.83206106870229,-8.384494213867187,1.2593500732421874,-3.660734338378906,0.8244274809160306,-26.83969465648855,-10.854961832061068,0.0
11.390000581741333,-9.375693701171874,0.26815058593749996,3.6439749267578123,12.106870229007633,67.3587786259542,-26.16793893129771,-9.282319836425781,-1.2737152832031249,-2.166752502441406,11.84732824427481,-19.114503816793892,-6.824427480916031,0.0
11.400001049041748,-11.06360587158203,1.7477672119140624,3.526659045410156,12.778625954198473,62.51908396946565,-27.00763358778626,-9.519345800781249,-1.4532804077148436,-1.6807295654296874,26.30534351145038,-17.52671755725191,-8.366412213740459,0.0
11.410000562667847,-9.564835632324218,1.4724340209960938,2.492363928222656,17.83206106870229,60.274809160305345,-22.977099236641223,-8.372523205566406,-0.033518823242187495,-1.89620771484375,34.94656488549618,-16.47328244274809,-11.557251908396946,0.0
11.420000314712524,-10.04846436767578,3.3111808959960936,3.191470812988281,11.022900763358779,56.30534351145038,-22.458015267175572,-8.334215979003906,0.13168109130859373,-1.1324573852539062,39.969465648854964,-12.183206106870228,-12.13740458015267,0.0
11.43000054359436,-10.601524951171875,2.231395947265625,2.221819140625,0.15267175572519084,50.42748091603053,-21.633587786259543,-8.334215979003906,-0.1388636962890625,-0.430956298828125,43.89312977099237,-10.641221374045802,-11.969465648854962,0.0
11.440000534057617,-11.61906065673828,2.1883003173828124,2.5067291381835934,-8.030534351145038,44.80916030534351,-19.770992366412212,-8.78432589111328,-0.3232172241210937,0.6751648681640625,49.00763358778626,-11.694656488549619,-10.992366412213741,0.0
11.450000286102295,-9.342174877929686,1.20667763671875,1.0869675537109373,-8.82442748091603,42.47328244274809,-18.442748091603054,-7.850587243652344,-0.04548983154296875,0.33518823242187495,54.80916030534351,-19.374045801526716,-11.007633587786259,0.0
11.46000051498413,-12.816161486816405,2.817975354003906,3.306392492675781,-8.320610687022901,45.29770992366412,-19.49618320610687,-8.688557824707031,0.21787235107421873,0.4740519287109375,55.17557251908397,-23.541984732824428,-10.274809160305344,0.0
11.470000505447388,-10.943895788574219,2.47081611328125,1.9847931762695312,-24.213740458015266,35.725190839694655,-19.770992366412212,-7.917624890136718,2.906560815429687,-0.7781155395507812,37.52671755725191,-28.229007633587788,-12.045801526717558,0.0
11.480000495910645,-10.563217724609375,1.7980454467773437,1.0678139404296874,-26.137404580152673,34.229007633587784,-16.3206106870229,-8.492233288574218,3.1220389648437497,0.00718260498046875,10.381679389312977,-20.610687022900763,-7.786259541984733,0.0
11.49000072479248,-9.351751684570312,1.0821791503906248,1.2952630981445312,-27.770992366412212,34.10687022900763,-14.625954198473282,-9.318232861328125,0.41419688720703124,1.199495031738281,-0.3969465648854962,-20.045801526717558,-0.732824427480916,0.0
11.500000476837158,-11.97100830078125,2.6767174560546874,2.0973206542968748,-35.52671755725191,32.030534351145036,-18.259541984732824,-9.576806640625,-1.4820108276367188,1.4796166259765624,-0.6870229007633588,-26.717557251908396,2.7022900763358777,0.0
11.510000944137573,-10.953472595214842,2.003946789550781,2.059013427734375,-30.38167938931298,32.97709923664122,-15.770992366412214,-9.234435803222656,-0.9840168823242187,0.8403647827148437,-0.22900763358778625,-34.961832061068705,-0.24427480916030533,0.0
11.520000696182251,-11.815385192871092,3.4572271972656248,3.095702746582031,-40.93129770992366,25.938931297709924,-13.786259541984732,-8.628702783203124,0.5746083984375,0.2920926025390625,-12.106870229007633,-35.6793893129771,-3.786259541984733,0.0
11.530000686645508,-9.083601098632812,1.6017209106445311,1.4149731811523436,-32.70229007633588,31.572519083969464,-9.419847328244275,-8.087613208007811,-0.3902548706054687,0.9074024291992187,-17.099236641221374,-33.38931297709924,-1.5725190839694656,0.0
11.540000677108765,-9.651026892089844,2.5522189697265625,2.4396914916992185,-44.458015267175576,25.374045801526716,-9.86259541984733,-11.022904443359375,-1.7717092285156248,1.7429788085937499,-12.213740458015268,-30.793893129770993,2.8091603053435112,0.0
11.550000667572021,-10.072406384277343,2.5234885498046875,1.9919757812499999,-44.045801526717554,23.114503816793892,-10.564885496183207,-10.40041201171875,-2.4588451049804685,2.1116858642578125,-1.3893129770992367,-36.83969465648855,0.8702290076335878,0.0
11.560000658035278,-12.69166300048828,4.7931917236328125,4.618415002441406,-55.221374045801525,17.17557251908397,-10.625954198473282,-10.453084448242187,-2.4588451049804685,1.0127473022460938,12.01526717557252,-47.17557251908397,-4.625954198473282,0.0
11.570000648498535,-11.891999645996092,2.4253262817382812,2.767697119140625,-64.47328244274809,6.229007633587786,-7.435114503816794,-9.09796630859375,0.24899697265624998,-0.143652099609375,11.938931297709924,-50.93129770992366,-10.13740458015267,0.0
11.580000400543213,-13.915100048828124,4.979939453125,5.2624552490234375,-66.44274809160305,3.5114503816793894,-0.2595419847328244,-9.006986645507812,0.11731588134765625,-0.1388636962890625,8.641221374045802,-46.68702290076336,-7.847328244274809,0.0
11.590000629425049,-11.027692846679686,2.300827795410156,3.1172505615234374,-83.34351145038168,-11.694656488549619,1.984732824427481,-10.62307276611328,-0.5410895751953124,0.143652099609375,15.923664122137405,-48.13740458015267,-3.282442748091603,0.0
11.600000858306885,-10.984597216796875,1.438915197753906,2.482787121582031,-66.12213740458016,-14.091603053435115,5.816793893129771,-8.949525805664061,0.8092401611328125,-0.4429273071289062,9.679389312977099,-50.3206106870229,-4.99236641221374,0.0
11.610000610351562,-8.851363537597656,-0.1149216796875,1.2378022583007813,-52.29007633587786,-15.206106870229007,9.34351145038168,-9.258377819824219,0.622492431640625,0.21787235107421873,1.5725190839694656,-39.86259541984733,-3.3893129770992365,0.0
11.620000839233398,-9.943119494628906,-0.016759411621093748,2.559401574707031,-39.282442748091604,-10.213740458015268,7.3893129770992365,-9.351751684570312,-2.039859814453125,0.7110778930664062,4.793893129770993,-38.10687022900763,-0.061068702290076333,0.0
11.630000591278076,-8.80347950439453,-0.4572925170898437,1.4053963745117186,-22.53435114503817,-6.778625954198473,2.0,-10.036493359375,-1.0678139404296874,0.21068974609375,12.870229007633588,-40.045801526717554,-1.9236641221374047,0.0
11.640000820159912,-11.554417211914062,2.482787121582031,2.4133552734375,-9.664122137404581,2.3206106870229006,-2.9160305343511452,-8.56166513671875,0.5267243652343749,0.43574470214843747,7.374045801526718,-34.045801526717554,-5.1603053435114505,0.0
11.65000033378601,-10.448296044921875,3.0550013183593747,2.2385785522460937,-18.595419847328245,1.4961832061068703,-4.534351145038168,-8.513781103515624,0.30885201416015623,0.229843359375,1.8778625954198473,-24.83969465648855,-4.244274809160306,0.0
11.660000562667847,-9.270348828125,1.8028338500976562,1.0941501586914062,-7.374045801526718,6.366412213740458,-1.0534351145038168,-9.619902270507811,-0.86191259765625,1.2306196533203124,-0.16793893129770993,-18.03053435114504,-0.4732824427480916,0.0
11.670000791549683,-8.224082702636718,0.6703764648437499,0.5386953735351562,0.13740458015267176,8.946564885496183,-0.22900763358778625,-9.964667309570311,-1.4963760375976562,1.3670891479492187,3.984732824427481,-18.3206106870229,-1.6488549618320612,0.0
11.68000054359436,-9.706093530273437,2.0302830078125,1.5035586425781249,5.541984732824427,13.587786259541986,-3.49618320610687,-10.034099157714843,-1.3263877197265623,1.4724340209960938,8.381679389312977,-17.66412213740458,-3.786259541984733,0.0
11.690000534057617,-7.196970190429687,0.7972691528320313,-0.2561795776367187,-8.305343511450381,1.5877862595419847,-2.2290076335877864,-10.146626635742187,-1.2761094848632812,1.5298948608398437,13.145038167938932,-18.458015267175572,-5.099236641221374,0.0
11.700000524520874,-9.373299499511718,1.1156979736328125,-0.05985504150390625,3.6793893129770994,5.633587786259542,0.8244274809160306,-10.01733974609375,-1.0821791503906248,1.886630908203125,12.549618320610687,-19.51145038167939,-5.175572519083969,0.0
11.71000051498413,-9.368511096191405,0.5482721801757812,0.4908113403320312,7.358778625954199,8.977099236641221,0.2748091603053435,-9.868899243164062,-0.11252747802734374,1.455674609375,12.274809160305344,-20.946564885496183,-5.740458015267175,0.0
11.720000505447388,-9.349357482910156,0.354341845703125,0.8451531860351562,11.267175572519085,10.061068702290076,-2.33587786259542,-9.433154541015625,-0.040701428222656245,1.5227122558593749,8.610687022900763,-22.0,-5.938931297709924,0.0
11.730000495910645,-8.149862451171874,-1.2378022583007813,-0.3064578125,23.770992366412212,11.312977099236642,-3.9083969465648853,-9.49300958251953,0.143652099609375,1.608903515625,5.969465648854962,-20.99236641221374,-5.083969465648855,0.0
11.740000247955322,-9.452308154296874,0.0718260498046875,0.967257470703125,35.00763358778626,20.763358778625953,-8.564885496183207,-9.37808790283203,0.05985504150390625,1.350329736328125,3.572519083969466,-20.48854961832061,-4.488549618320611,0.0
11.750000476837158,-9.737218151855469,1.0510545288085937,0.842758984375,36.16793893129771,21.984732824427482,-12.870229007633588,-9.390058911132812,-0.17238251953125,1.3718775512695311,3.480916030534351,-19.236641221374047,-4.3816793893129775,0.0
11.760000944137573,-10.857704528808593,2.147598889160156,0.9744400756835937,31.87786259541985,23.374045801526716,-14.50381679389313,-9.33978067626953,-0.2825157958984375,1.2497732666015624,3.9083969465648853,-18.519083969465647,-4.641221374045801,0.0
11.77000093460083,-11.200075366210937,2.940079638671875,0.9792284790039062,18.106870229007633,20.885496183206108,-14.625954198473282,-9.622296472167967,-0.29448680419921874,1.1348515869140625,4.305343511450381,-17.541984732824428,-5.679389312977099,0.0
11.780000925064087,-11.295843432617186,2.7940333374023436,0.44532150878906246,11.129770992366412,18.0,-11.694656488549619,-9.3086560546875,-0.08140285644531249,1.1468225952148436,1.4045801526717556,-16.564885496183205,-6.259541984732825,0.0
11.790000677108765,-10.929530578613281,3.394977954101562,0.7829039428710937,0.24427480916030533,16.580152671755727,-10.305343511450381,-9.435548742675781,0.040701428222656245,1.0726023437499999,-0.13740458015267176,-15.312977099236642,-6.290076335877862,0.0
11.800000667572021,-10.08677159423828,2.0542250244140625,-0.09816226806640624,-7.175572519083969,13.236641221374045,-8.290076335877863,-9.330203869628905,0.18435352783203124,0.9792284790039062,-2.030534351145038,-14.396946564885496,-5.984732824427481,0.0
11.810000896453857,-9.332598071289063,1.20667763671875,-0.16041151123046873,-1.8931297709923665,17.587786259541986,-6.9465648854961835,-9.524134204101562,-0.0383072265625,1.1611878051757811,-2.763358778625954,-13.389312977099237,-5.679389312977099,0.0
11.820000886917114,-9.679757312011718,1.5658078857421873,0.316034619140625,-7.297709923664122,18.076335877862597,-9.19083969465649,-9.042899670410156,0.040701428222656245,1.2904746948242187,-3.8625954198473282,-13.282442748091603,-5.816793893129771,0.0
11.830000400543213,-9.751583361816406,1.5849614990234373,0.16041151123046873,-9.251908396946565,18.061068702290076,-10.702290076335878,-9.665392102050781,-0.2657563842773437,1.6136919189453125,-2.7022900763358777,-12.702290076335878,-4.702290076335878,0.0
11.84000039100647,-9.545682019042967,1.2808978881835937,-0.3112462158203125,-6.427480916030534,19.297709923664122,-9.86259541984733,-9.236830004882812,-0.16041151123046873,1.484405029296875,-4.656488549618321,-13.877862595419847,-5.541984732824427,0.0
11.850000619888306,-9.682151513671874,1.0103531005859374,0.11013327636718749,-1.0381679389312977,27.603053435114504,-11.236641221374045,-9.548076220703125,-0.30406361083984373,1.6400281372070311,-5.068702290076335,-13.099236641221374,-5.343511450381679,0.0
11.860000848770142,-10.747571252441405,1.5442600708007812,0.7613561279296874,-6.030534351145038,30.396946564885496,-13.98473282442748,-9.612719665527344,-0.9193734375,1.9608511596679685,-3.7099236641221376,-13.358778625954198,-5.557251908396947,0.0
11.87000036239624,-9.696516723632811,1.9536685546875,0.6584054565429687,-8.763358778625955,29.49618320610687,-15.893129770992367,-9.320627062988281,-1.1372457885742187,1.5610194824218748,1.6793893129770991,-18.458015267175572,-6.5038167938931295,0.0
11.880000829696655,-11.511321582031249,1.6328455322265625,0.6296750366210937,-8.900763358778626,30.931297709923665,-15.374045801526718,-10.165780249023436,-1.2425906616210938,2.5857377929687497,5.404580152671755,-18.702290076335878,-6.488549618320611,0.0
11.890000581741333,-9.145850341796875,0.23223756103515625,-0.5506663818359374,-9.587786259541986,26.106870229007633,-12.83969465648855,-10.014945544433592,-0.7924807495117187,2.7461493041992187,4.763358778625954,-21.267175572519083,-7.603053435114504,0.0
11.900000810623169,-8.619125976562499,0.5746083984375,-0.4908113403320312,-7.66412213740458,27.282442748091604,-13.755725190839694,-8.643067993164061,0.10295067138671875,2.085349645996094,-1.9236641221374047,-23.603053435114504,-9.603053435114504,0.0
11.910000324249268,-9.100360510253905,1.1276689819335937,-0.32561142578124996,-14.977099236641221,26.137404580152673,-14.854961832061068,-8.827421520996094,0.8978256225585937,1.388636962890625,-13.679389312977099,-20.82442748091603,-9.694656488549619,0.0
11.920000553131104,-10.292672937011718,2.185906115722656,0.7805097412109374,-12.595419847328245,31.099236641221374,-15.450381679389313,-8.298302954101562,0.4213794921875,1.8219874633789062,-27.129770992366414,-14.580152671755725,-8.01526717557252,0.0
11.93000078201294,-10.275913525390624,1.3527239379882812,0.9145850341796874,-13.84732824427481,34.29007633587786,-14.961832061068701,-8.935160595703124,-0.8475473876953125,1.70467158203125,-25.068702290076335,-15.32824427480916,-6.427480916030534,0.0
11.940000534057617,-10.673351000976561,0.6560112548828124,0.33758243408203126,-7.251908396946565,35.93893129770992,-15.251908396946565,-8.580818749999999,-1.5753846923828123,2.0733786376953125,-21.87786259541985,-14.885496183206106,-7.648854961832061,0.0
11.950000524520874,-8.583212951660157,0.4644751220703125,-0.39983167724609375,-4.580152671755725,36.48854961832061,-15.923664122137405,-8.099584216308592,-0.9648632690429687,1.1875240234375,-19.984732824427482,-12.82442748091603,-9.572519083969466,0.0
11.96000051498413,-8.971073620605468,1.0989385620117187,-0.3950432739257812,-4.580152671755725,38.68702290076336,-16.793893129770993,-8.070853796386718,-1.1468225952148436,1.0199299072265624,-19.17557251908397,-9.206106870229007,-8.916030534351146,0.0
11.970000982284546,-8.549694128417968,0.373495458984375,-0.7422025146484375,-5.1603053435114505,38.6412213740458,-16.717557251908396,-8.075642199707032,-1.6256629272460936,1.024718310546875,-15.297709923664122,-7.679389312977099,-8.778625954198473,0.0
11.980000495910645,-9.184157568359375,0.928950244140625,-0.3854664672851562,-2.931297709923664,41.32824427480916,-17.389312977099237,-8.21690009765625,-2.3678654418945313,1.2737152832031249,-10.610687022900763,-6.412213740458015,-9.389312977099237,0.0
11.99000096321106,-9.042899670410156,0.3687070556640625,-0.5410895751953124,-3.1755725190839694,42.2442748091603,-18.12213740458015,-7.8912886718749995,-2.6503812377929687,1.0271125122070313,0.183206106870229,-10.274809160305344,-11.664122137404581,0.0
12.000000715255737,-9.366116894531249,0.05746083984375,-0.05746083984375,1.3129770992366412,46.01526717557252,-18.564885496183205,-7.448361364746093,-1.5275006591796874,1.1827356201171875,3.6793893129770994,-7.221374045801527,-14.229007633587786,0.0
12.010000705718994,-9.370905297851563,0.9959878906249999,0.36631285400390623,-1.1603053435114503,47.93893129770992,-19.633587786259543,-6.9527616210937495,-0.8283937744140625,0.8930372192382812,4.519083969465649,-4.916030534351145,-15.038167938931299,0.0
12.020000696182251,-10.05564697265625,1.0749965454101562,0.8092401611328125,-9.34351145038168,48.01526717557252,-21.893129770992367,-7.141903552246093,-1.2234370483398436,1.2497732666015624,5.145038167938932,0.7480916030534351,-13.19083969465649,0.0
12.030000686645508,-9.526528405761718,0.7781155395507812,0.3136404174804687,-10.748091603053435,45.954198473282446,-20.732824427480917,-7.175422375488281,-1.0917559570312498,1.5298948608398437,8.351145038167939,1.8015267175572518,-13.19083969465649,0.0
12.040000677108765,-10.026916552734374,0.5865794067382812,0.6775590698242188,-10.885496183206106,46.58015267175573,-20.65648854961832,-7.529764221191406,-1.707065783691406,2.6240450195312497,8.931297709923664,3.0839694656488548,-13.954198473282442,0.0
12.050000667572021,-9.375693701171874,0.09816226806640624,1.426944189453125,-5.374045801526718,44.50381679389313,-21.053435114503817,-7.50821640625,-2.1164742675781247,2.384624853515625,9.007633587786259,3.8473282442748094,-15.19083969465649,0.0
12.0600004196167,-10.369287390136718,1.7573440185546874,1.5466542724609373,-4.748091603053435,44.091603053435115,-20.53435114503817,-7.563283044433593,-2.7150246826171873,1.3168109130859373,13.709923664122137,6.916030534351145,-14.259541984732824,0.0
12.070000886917114,-11.121066711425781,1.7022773803710936,2.24097275390625,-10.564885496183207,38.595419847328245,-19.435114503816795,-6.098031628417968,-1.3311761230468748,-0.9241618408203125,20.015267175572518,7.145038167938932,-14.351145038167939,0.0
12.08000111579895,-11.726799731445311,3.2824504760742186,2.9735984619140625,-6.061068702290076,32.778625954198475,-14.916030534351146,-5.7508723876953125,-0.13646949462890623,-1.7214309936523438,20.977099236641223,14.13740458015267,-12.244274809160306,0.0
12.090000629425049,-11.238382592773437,3.5984850952148437,3.81156904296875,-11.694656488549619,22.137404580152673,-8.396946564885496,-7.390900524902343,-0.18914193115234373,-0.5339069702148437,20.916030534351144,17.84732824427481,-10.412213740458014,0.0
12.100000858306885,-13.740323327636718,4.623203405761719,6.667851623535156,-21.221374045801525,14.351145038167939,-6.137404580152672,-9.184157568359375,-1.1420341918945311,1.9536685546875,14.961832061068701,17.923664122137403,-8.396946564885496,0.0
12.110000848770142,-12.387599389648436,2.346317626953125,6.830657336425781,-30.38167938931298,-6.229007633587786,-0.9923664122137404,-10.972626208496093,-2.0638018310546875,3.0502129150390624,8.67175572519084,16.3206106870229,-8.030534351145038,0.0
12.12000060081482,-12.291831323242187,1.6017209106445311,8.425195642089843,-20.610687022900763,-19.557251908396946,0.9923664122137404,-11.702857714843748,-2.81558115234375,3.73495458984375,1.8931297709923665,15.389312977099237,-10.061068702290076,0.0
12.130000352859497,-11.245565197753905,-0.36391865234375,8.90643017578125,-11.16030534351145,-36.0,0.7022900763358778,-10.658985791015624,-0.3232172241210937,3.3303345092773435,-8.01526717557252,13.053435114503817,-13.49618320610687,0.0
12.140000581741333,-12.732364428710937,2.1739351074218747,10.129867224121092,5.312977099236641,-46.916030534351144,-1.8015267175572518,-11.391611499023437,1.39821376953125,2.375048046875,-19.66412213740458,17.83206106870229,-10.106870229007633,0.0
12.15000033378601,-15.409081884765625,5.204994409179688,12.296619726562499,-0.9007633587786259,-72.65648854961832,-0.8702290076335878,-13.242329382324218,0.17956512451171874,3.0047230834960934,-19.541984732824428,19.206106870229007,-2.6717557251908395,0.0
12.160000801086426,-16.148890197753904,6.41646044921875,12.284648718261717,0.8396946564885496,-101.69465648854961,8.15267175572519,-12.536039892578124,0.229843359375,1.7597382202148437,-13.664122137404581,8.763358778625955,-0.9465648854961832,0.0
12.170000791549683,-16.625336328124998,6.6893994384765625,11.56159981689453,7.694656488549619,-127.20610687022901,22.732824427480917,-10.747571252441405,-0.2561795776367187,1.637633935546875,-17.862595419847327,6.870229007633588,-0.3511450381679389,0.0
12.18000054359436,-16.517597253417968,5.5545478515625,11.240776794433593,8.870229007633588,-158.6412213740458,35.81679389312977,-7.036558679199218,1.9584569580078124,-1.7741034301757812,-28.717557251908396,1.8625954198473282,-2.015267175572519,0.0
12.190000534057617,-16.40746397705078,6.287173559570312,10.352527978515624,8.290076335877863,-182.99236641221373,43.3587786259542,-6.6271501953125,3.2513258544921873,-2.5378537597656248,-55.61832061068702,19.83206106870229,4.152671755725191,0.0
12.200000524520874,-15.270218188476562,4.762067102050781,6.030993981933594,0.12213740458015267,-202.793893129771,53.89312977099237,-8.176198669433592,0.584185205078125,-1.8219874633789062,-67.8473282442748,33.12977099236641,15.908396946564885,0.0
12.21000051498413,-14.097059374999999,-0.6296750366210937,2.8275521606445313,-10.625954198473282,-215.49618320610688,51.25190839694657,-11.350910070800781,-2.602497204589844,-0.17238251953125,-66.99236641221374,45.70992366412214,25.52671755725191,0.0
12.220000743865967,-12.777854260253905,-5.240907434082031,0.6009446166992187,-1.282442748091603,-215.6946564885496,49.29770992366412,-9.909600671386718,-1.915361328125,-2.5761609863281247,-52.62595419847328,36.961832061068705,21.435114503816795,0.0
12.230000495910645,-13.065158459472656,-6.7085530517578125,-1.1109095703125,26.916030534351144,-202.44274809160305,46.35114503816794,-13.057975854492186,-2.8706477905273435,0.06943184814453125,-43.541984732824424,47.267175572519086,21.206106870229007,0.0
12.240000486373901,-10.71884083251953,-7.905653881835937,-3.507505432128906,42.88549618320611,-188.04580152671755,41.847328244274806,-6.842628344726562,5.284003063964843,-4.754884497070313,-50.412213740458014,44.35114503816794,12.702290076335878,0.0
12.250000715255737,-11.954248889160155,-4.273649963378906,-3.7421371948242186,59.847328244274806,-164.44274809160305,31.862595419847327,-6.622361791992187,4.103661645507812,-3.366247534179687,-91.37404580152672,64.74809160305344,13.755725190839694,0.0
12.260000705718994,-11.068394274902342,-3.277662072753906,-3.9552211425781247,59.32824427480916,-146.54961832061068,26.458015267175572,-4.089296435546875,5.257666845703125,-3.6942531616210936,-111.45038167938931,71.09923664122137,20.106870229007633,0.0
12.270000696182251,-11.8369330078125,-1.7166425903320313,-3.287238879394531,61.49618320610687,-127.20610687022901,17.908396946564885,-8.815450512695312,0.040701428222656245,-1.2880804931640624,-130.3053435114504,81.32824427480917,28.0,0.0
12.280000925064087,-10.615890161132812,-2.3032219970703123,-2.722207287597656,62.42748091603053,-116.44274809160305,13.511450381679388,-8.513781103515624,-2.6958710693359373,-0.7493851196289062,-100.47328244274809,68.16793893129771,28.50381679389313,0.0
12.290000677108765,-13.0627642578125,-1.2785036865234374,0.26815058593749996,67.29770992366412,-102.3206106870229,8.366412213740459,-11.118672509765624,-5.719747766113281,0.0047884033203125,-68.35114503816794,57.66412213740458,26.259541984732824,0.0
12.300000667572021,-12.313379138183594,-0.8667010009765624,0.6679822631835937,79.29770992366412,-99.6030534351145,8.15267175572519,-12.069170568847655,-8.51617530517578,2.3391350219726563,-25.84732824427481,47.38931297709924,22.442748091603054,0.0
12.3100004196167,-12.540828295898438,1.005564697265625,1.5945383056640625,78.56488549618321,-99.16030534351145,10.106870229007633,-9.246406811523437,-5.042188696289062,-0.7900865478515624,9.48091603053435,29.0381679389313,14.16793893129771,0.0
12.320000886917114,-12.320561743164061,3.4644098022460934,2.0374656127929685,67.64885496183206,-106.50381679389314,12.702290076335878,-8.987833032226561,-2.4564509033203126,-2.1068974609374997,8.763358778625955,26.83969465648855,7.358778625954199,0.0
12.330000400543213,-12.57674132080078,3.201047619628906,1.7525556152343749,45.37404580152672,-117.32824427480917,19.755725190839694,-8.63827958984375,-2.0254946044921875,-1.0749965454101562,5.450381679389313,32.229007633587784,6.259541984732825,0.0
12.340000629425049,-10.498574279785156,4.046200805664062,1.4700398193359374,37.25190839694657,-117.43511450381679,28.763358778625953,-9.732429748535155,-2.001552587890625,-0.6679822631835937,9.86259541984733,35.63358778625954,8.916030534351146,0.0
12.350000619888306,-10.730811840820312,4.3622354248046875,1.85790048828125,13.694656488549619,-121.17557251908397,32.48854961832061,-9.756371765136718,-2.5857377929687497,-0.12689268798828124,15.694656488549619,38.29007633587786,11.083969465648854,0.0
12.360000371932983,-9.636661682128906,2.300827795410156,1.5298948608398437,-1.2671755725190839,-124.12213740458016,37.969465648854964,-10.764330664062498,-2.013523596191406,0.4908113403320312,22.778625954198475,40.38167938931298,12.946564885496183,0.0
12.37000060081482,-7.520187414550781,1.0797849487304687,0.9074024291992187,-4.366412213740458,-118.10687022900764,42.19847328244275,-10.058041174316406,-1.2832920898437499,0.17477672119140625,25.114503816793892,40.38167938931298,12.641221374045802,0.0
12.380000829696655,-7.936778503417968,1.0486603271484374,1.7693150268554687,-6.809160305343512,-110.91603053435115,40.900763358778626,-11.693280908203125,-2.262520568847656,1.7381904052734374,29.81679389312977,43.05343511450382,14.687022900763358,0.0
12.390000820159912,-5.817910034179687,0.08140285644531249,0.9959878906249999,0.13740458015267176,-103.19083969465649,39.89312977099237,-10.134655627441406,-1.01514150390625,1.005564697265625,29.328244274809162,40.229007633587784,14.83969465648855,0.0
12.400000810623169,-5.592855078125,1.1372457885742187,1.5682020874023437,6.6106870229007635,-90.82442748091603,38.44274809160305,-11.25514200439453,-1.2593500732421874,0.9864110839843749,33.14503816793893,37.19083969465649,16.717557251908396,0.0
12.410000801086426,-4.740519287109374,1.68551796875,1.47482822265625,9.679389312977099,-81.32824427480917,36.99236641221374,-9.983820922851562,-1.2378022583007813,1.659181750488281,26.625954198473284,38.68702290076336,16.85496183206107,0.0
12.420000314712524,-4.57771357421875,2.272097375488281,1.7693150268554687,7.312977099236641,-74.13740458015268,36.85496183206107,-9.809044201660155,-0.6919242797851562,1.1659762084960936,27.69465648854962,35.7557251908397,16.045801526717558,0.0
12.43000054359436,-5.087678527832031,2.6408044311523438,2.422932080078125,2.1068702290076335,-65.45038167938931,35.49618320610687,-9.05965908203125,-1.2856862915039062,1.3862427612304686,24.290076335877863,35.87786259541985,15.251908396946565,0.0
12.440000534057617,-4.316745593261719,1.4987702392578124,2.3630770385742186,-5.419847328244275,-59.786259541984734,34.534351145038165,-11.219228979492186,-2.96881005859375,3.4428619873046875,30.50381679389313,38.29007633587786,15.770992366412214,0.0
12.450000524520874,-4.431667272949219,0.6679822631835937,2.6216508178710938,-10.198473282442748,-53.3587786259542,30.595419847328245,-7.644685900878906,-2.3678654418945313,1.2593500732421874,42.25954198473283,27.770992366412212,11.725190839694656,0.0
12.46000051498413,-2.8898014038085935,-0.06464344482421874,2.1164742675781247,-8.183206106870228,-46.396946564885496,27.267175572519083,-12.011709729003906,-3.948038537597656,3.6296097167968746,44.38167938931298,30.9618320610687,10.80916030534351,0.0
12.470000267028809,-2.4899697265625,0.296881005859375,1.7429788085937499,-1.5114503816793894,-34.67175572519084,23.87786259541985,-8.346186987304687,-1.0007762939453124,0.8212111694335937,52.82442748091603,19.114503816793892,3.5877862595419847,0.0
12.480000495910645,-1.2976572998046874,0.814028564453125,1.1444283935546875,4.2748091603053435,-23.740458015267176,20.671755725190838,-10.589553942871094,-2.499546533203125,3.1028853515624997,36.83969465648855,27.709923664122137,3.5877862595419847,0.0
12.49000072479248,-2.300827795410156,2.741360900878906,1.3072341064453123,3.450381679389313,-11.129770992366412,18.458015267175572,-9.993397729492187,-2.674323254394531,3.5146880371093747,49.83206106870229,21.17557251908397,3.5877862595419847,0.0
12.500000476837158,-1.7693150268554687,2.597708801269531,0.603338818359375,1.3740458015267176,3.2213740458015265,16.244274809160306,-12.241553088378906,-3.6559459350585937,4.50109912109375,63.00763358778626,14.778625954198473,5.190839694656488,0.0
12.510000944137573,-3.5434184570312497,4.630386010742187,1.0175357055664063,-18.977099236641223,9.770992366412214,13.954198473282442,-8.961496813964843,0.4740519287109375,1.0366893188476562,50.213740458015266,11.083969465648854,-1.0534351145038168,0.0
12.520000696182251,-1.429338391113281,2.901772412109375,-0.7589619262695312,-26.412213740458014,15.633587786259541,14.793893129770993,-10.04846436767578,0.181959326171875,2.5043349365234375,28.15267175572519,19.404580152671755,-1.4351145038167938,0.0
12.530000686645508,-1.7860744384765623,0.7565677246093749,0.1867477294921875,-23.66412213740458,37.57251908396947,13.770992366412214,-10.158597644042969,0.21068974609375,2.262520568847656,19.908396946564885,21.435114503816795,1.4198473282442747,0.0
12.540000677108765,-1.5418658691406248,-2.4109610717773435,5.154716174316406,-4.885496183206107,48.35114503816794,11.221374045801527,-10.443507641601562,-0.29448680419921874,2.4564509033203126,-1.5267175572519085,30.396946564885496,5.648854961832061,0.0
12.550000667572021,-5.7149593627929685,-2.389413256835937,9.753977563476562,30.091603053435115,59.770992366412216,7.129770992366412,-7.4579381713867186,-0.02154781494140625,1.7022773803710936,-1.0381679389312977,22.82442748091603,7.114503816793893,0.0
12.560000658035278,-7.848193041992187,-0.3950432739257812,6.296750366210937,49.6793893129771,63.06870229007634,-0.7633587786259542,-10.94868419189453,-1.7118541870117185,1.9991583862304687,-7.145038167938932,23.541984732824428,12.13740458015267,0.0
12.570000648498535,-12.38520518798828,4.177881896972656,3.327940307617187,54.0763358778626,74.51908396946565,-5.66412213740458,-12.291831323242187,-2.2577321655273437,1.915361328125,-18.885496183206108,27.923664122137403,14.83969465648855,0.0
12.580000638961792,-13.491326354980467,5.798756420898437,4.141968872070312,48.97709923664122,72.10687022900764,-4.641221374045801,-10.589553942871094,-2.9975404785156248,1.4173673828125,-23.51145038167939,23.389312977099237,13.129770992366412,0.0
12.590000629425049,-14.326902734374999,5.923254907226562,8.13310303955078,46.534351145038165,70.41221374045801,-2.351145038167939,-10.817003100585938,-3.0047230834960934,0.6009446166992187,-29.328244274809162,18.580152671755727,11.618320610687023,0.0
12.600000381469727,-12.150573425292968,6.5026517089843745,6.313509777832031,18.610687022900763,62.36641221374046,-1.9083969465648856,-11.068394274902342,-1.3000515014648437,0.19393033447265623,-40.42748091603053,19.61832061068702,7.786259541984733,0.0
12.610000371932983,-9.481038574218749,4.7117888671875,3.564966271972656,-18.610687022900763,54.01526717557252,-0.8396946564885496,-13.012486022949219,-1.9416975463867185,1.3479355346679687,-40.62595419847328,22.885496183206108,8.610687022900763,0.0
12.620001077651978,-4.898536596679687,-0.9552864624023437,0.7015010864257812,-32.18320610687023,44.045801526717554,-0.07633587786259542,-14.501679455566405,-2.114080065917969,1.7429788085937499,-35.3587786259542,15.83206106870229,8.198473282442748,0.0
12.630000591278076,-5.293579870605469,-3.3159692993164063,0.4261678955078125,-17.52671755725191,56.13740458015267,-8.01526717557252,-16.18480322265625,-2.2194249389648437,1.1228805786132812,-27.572519083969464,5.541984732824427,6.824427480916031,0.0
12.640000820159912,-8.123526232910155,-2.099714855957031,1.3359645263671873,-6.412213740458015,62.961832061068705,-18.213740458015266,-15.665261462402343,1.0366893188476562,-0.5506663818359374,-21.31297709923664,-7.694656488549619,0.04580152671755725,0.0
12.65000057220459,-11.398794104003905,0.42377369384765623,3.143586779785156,0.7022900763358778,66.10687022900764,-24.259541984732824,-17.202338928222655,2.1499930908203124,-0.9074024291992187,-19.72519083969466,-11.206106870229007,2.351145038167939,0.0
12.660000562667847,-12.234370483398436,1.4867992309570313,3.447650390625,2.2900763358778624,66.09160305343511,-26.30534351145038,-15.808913562011718,1.9919757812499999,-0.8906430175781249,-20.244274809160306,-16.213740458015266,5.00763358778626,0.0
12.670000314712524,-11.86805762939453,1.8052280517578123,2.6479870361328124,-1.5419847328244274,64.44274809160305,-26.03053435114504,-15.447389111328125,-1.2378022583007813,1.6160861206054686,-12.580152671755725,-18.610687022900763,10.13740458015267,0.0
12.680000305175781,-11.700463513183593,1.4867992309570313,2.2026655273437497,-0.2748091603053435,66.21374045801527,-25.633587786259543,-12.27028350830078,-0.7852981445312499,0.70868369140625,-6.1679389312977095,-29.81679389312977,7.877862595419847,0.0
12.690000534057617,-10.685322009277343,2.6096798095703124,1.867477294921875,-0.916030534351145,65.3587786259542,-25.541984732824428,-10.656591589355468,-0.3016694091796875,0.5506663818359374,3.9389312977099236,-36.030534351145036,6.580152671755725,0.0
12.700000524520874,-7.050923889160156,0.09576806640624999,-0.6631938598632812,8.381679389312977,67.66412213740458,-22.80916030534351,-8.315062365722655,0.4525041137695312,-0.3112462158203125,-2.0916030534351147,-35.80152671755725,5.603053435114504,0.0
12.710000276565552,-7.194575988769531,0.6057330200195312,0.00239420166015625,25.557251908396946,80.8854961832061,-26.732824427480917,-5.786785412597656,0.9696516723632812,-2.3032219970703123,-4.885496183206107,-37.343511450381676,3.648854961832061,0.0
12.720000267028809,-6.198588098144531,0.97683427734375,-1.9416975463867185,35.48091603053435,86.85496183206106,-33.282442748091604,-8.130708837890625,-0.7565677246093749,-1.3838485595703125,-7.404580152671755,-24.076335877862597,6.122137404580153,0.0
12.730000495910645,-8.465897070312499,2.5713725830078125,-0.5746083984375,47.725190839694655,99.6030534351145,-35.465648854961835,-9.478644372558593,-3.928884924316406,-0.7110778930664062,5.862595419847328,-18.778625954198475,6.33587786259542,0.0
12.740000486373901,-8.398859423828124,1.6112977172851561,-0.6823474731445313,47.969465648854964,99.93893129770993,-36.68702290076336,-10.59194814453125,-4.3071687866210935,-1.3718775512695311,23.633587786259543,-22.061068702290076,0.549618320610687,0.0
12.750000715255737,-10.544064111328124,3.3016040893554686,1.1875240234375,55.099236641221374,108.16793893129771,-35.37404580152672,-9.789890588378906,-6.943184814453125,-0.08379705810546874,38.534351145038165,-20.748091603053435,-4.015267175572519,0.0
12.760000467300415,-9.847351428222655,2.8036101440429686,0.737414111328125,42.0,101.54198473282443,-33.89312977099237,-9.641450085449218,-2.530671154785156,-4.661510632324219,57.38931297709924,-29.801526717557252,-13.16030534351145,0.0
12.770000696182251,-10.228029492187499,3.4811692138671875,1.6472107421875,38.47328244274809,99.16030534351145,-30.99236641221374,-8.813056311035156,2.8227637573242186,-7.4794859863281244,39.221374045801525,-19.14503816793893,-17.6793893129771,0.0
12.780000686645508,-9.811438403320311,3.076549133300781,2.051830822753906,15.786259541984732,88.19847328244275,-29.557251908396946,-10.656591589355468,1.7884686401367187,-4.951209033203125,26.977099236641223,0.32061068702290074,-11.221374045801527,0.0
12.790000677108765,-10.103531005859374,2.511517541503906,2.29843359375,10.244274809160306,83.34351145038168,-28.610687022900763,-10.747571252441405,-0.40222587890625,-2.8730419921875,26.931297709923665,7.648854961832061,-4.564885496183206,0.0
12.800000667572021,-8.975862023925782,-0.354341845703125,1.0223241088867188,8.396946564885496,76.79389312977099,-28.33587786259542,-10.98699141845703,-1.2306196533203124,-1.6041151123046875,40.30534351145038,6.122137404580153,-4.366412213740458,0.0
12.810000896453857,-8.980650427246093,-1.0223241088867188,0.44532150878906246,22.82442748091603,77.78625954198473,-28.702290076335878,-10.031704956054687,0.05027823486328125,-0.7972691528320313,43.282442748091604,2.7938931297709924,-8.50381679389313,0.0
12.820000410079956,-8.961496813964843,0.06703764648437499,1.1133037719726562,27.6793893129771,76.8854961832061,-30.244274809160306,-9.315838659667968,1.3048399047851562,0.4477157104492187,46.38167938931298,-0.916030534351145,-10.625954198473282,0.0
12.830000638961792,-10.685322009277343,0.8714894042968749,1.7717092285156248,31.267175572519083,78.59541984732824,-32.62595419847328,-8.664615808105468,2.463633508300781,0.9911994873046874,43.343511450381676,-4.106870229007634,-10.412213740458014,0.0
12.840001106262207,-9.696516723632811,0.4333505004882812,0.86191259765625,27.022900763358777,72.56488549618321,-33.48091603053435,-8.70771143798828,2.5809493896484375,1.47482822265625,35.43511450381679,-5.374045801526718,-8.122137404580153,0.0
12.850000619888306,-10.82179150390625,2.099714855957031,1.7932570434570312,23.938931297709924,70.94656488549619,-34.152671755725194,-8.010998754882811,2.269703173828125,1.2378022583007813,23.480916030534353,-9.251908396946565,-6.412213740458015,0.0
12.860000371932983,-10.467449658203124,2.6431986328124997,1.9919757812499999,14.687022900763358,66.90076335877863,-34.54961832061068,-8.353369592285155,1.3575123413085937,1.3239935180664062,12.091603053435115,-11.603053435114504,-5.099236641221374,0.0
12.87000036239624,-8.908824377441405,0.9528922607421875,0.30885201416015623,6.595419847328245,57.43511450381679,-31.14503816793893,-8.815450512695312,-1.2689268798828124,2.042254016113281,7.694656488549619,-14.595419847328245,-3.282442748091603,0.0
12.880000591278076,-11.283872424316405,3.763685009765625,2.81558115234375,3.114503816793893,58.961832061068705,-31.52671755725191,-8.379705810546875,-3.0645781249999997,2.0159177978515626,8.748091603053435,-23.954198473282442,-3.3740458015267176,0.0
12.890000581741333,-8.389282617187499,2.4109610717773435,1.4317325927734375,-9.526717557251908,48.94656488549618,-28.671755725190838,-9.018957653808593,-3.6463691284179687,1.5035586425781249,18.717557251908396,-35.3587786259542,-5.3893129770992365,0.0
12.900000810623169,-10.98699141845703,3.9624037475585934,2.8562825805664063,-13.099236641221374,46.229007633587784,-26.412213740458014,-8.379705810546875,-1.5418658691406248,0.086191259765625,19.72519083969466,-46.656488549618324,-10.0,0.0
12.910000324249268,-8.719682446289061,1.7166425903320313,1.9847931762695312,-17.022900763358777,40.091603053435115,-21.374045801526716,-8.157045056152343,0.22266075439453123,-0.05985504150390625,8.0,-47.05343511450382,-10.290076335877863,0.0
12.920000553131104,-9.986215124511718,1.886630908203125,2.9831752685546875,-21.52671755725191,36.93129770992366,-18.870229007633586,-8.8872765625,-1.6400281372070311,1.0749965454101562,10.351145038167939,-46.30534351145038,-5.893129770992366,0.0
12.93000054359436,-9.011775048828124,1.848323681640625,2.3822306518554686,-22.870229007633586,34.67175572519084,-20.290076335877863,-7.862558251953125,0.19393033447265623,-0.737414111328125,8.50381679389313,-52.30534351145038,-6.442748091603053,0.0
12.940000772476196,-9.325415466308593,2.839523168945312,2.360682836914062,-28.793893129770993,29.923664122137403,-18.916030534351144,-8.350975390624999,-0.1867477294921875,0.469263525390625,4.6106870229007635,-44.229007633587784,-4.091603053435114,0.0
12.950000524520874,-9.572018237304688,1.4053963745117186,2.152387292480469,-30.748091603053435,29.34351145038168,-15.83206106870229,-8.640673791503906,-2.04943662109375,0.3136404174804687,11.98473282442748,-40.74809160305343,-2.4580152671755724,0.0
12.96000051498413,-14.523227270507812,6.203376501464843,6.133944653320312,-22.641221374045802,39.16030534351145,-19.404580152671755,-9.370905297851563,-2.89219560546875,0.25139117431640623,26.33587786259542,-44.396946564885496,-2.351145038167939,0.0
12.970000505447388,-10.472238061523436,1.3311761230468748,2.7461493041992187,-33.48091603053435,23.14503816793893,-16.198473282442748,-7.41244833984375,0.0430956298828125,-1.8555062866210936,28.977099236641223,-47.74045801526717,-7.068702290076335,0.0
12.980000495910645,-12.397176196289061,3.1603461914062496,3.6343981201171873,-35.404580152671755,15.954198473282442,-11.129770992366412,-7.472303381347656,-0.6943184814453125,-1.1947066284179686,20.50381679389313,-37.74045801526717,-5.770992366412214,0.0
12.990000247955322,-9.342174877929686,0.5315127685546874,1.8722656982421875,-20.763358778625953,20.198473282442748,-7.9541984732824424,-8.896853369140624,-1.9321207397460936,-0.6703764648437499,23.099236641221374,-34.35114503816794,-3.8473282442748094,0.0
13.000000715255737,-9.813832604980469,1.2210428466796874,2.0302830078125,-22.27480916030534,13.679389312977099,-9.48091603053435,-10.58476553955078,-3.0526071166992184,1.0989385620117187,33.3587786259542,-35.17557251908397,-2.717557251908397,0.0
13.010000705718994,-10.012551342773437,1.0366893188476562,1.4173673828125,-14.595419847328245,12.51908396946565,-11.709923664122137,-9.327809667968749,-1.2401964599609374,0.143652099609375,37.282442748091604,-41.16030534351145,-6.351145038167939,0.0
13.020000457763672,-14.872780712890624,6.789955908203124,5.91846650390625,-27.83206106870229,12.916030534351146,-13.770992366412214,-9.86411083984375,1.01514150390625,-0.28490999755859375,28.595419847328245,-37.038167938931295,-7.236641221374046,0.0
13.030000686645508,-12.344503759765624,5.1690813842773435,3.478775012207031,-64.77862595419847,-10.106870229007633,-10.396946564885496,-10.524910498046875,0.15562310791015624,1.4820108276367188,20.061068702290076,-32.0763358778626,-3.145038167938931,0.0
13.040000677108765,-11.73398233642578,3.5314474487304683,2.0446482177734375,-61.81679389312977,-14.335877862595419,-0.7786259541984732,-10.101136804199218,-0.38307226562499996,1.2904746948242187,14.030534351145038,-36.51908396946565,-0.8091603053435115,0.0
13.050000667572021,-10.127473022460936,1.197100830078125,0.8020575561523438,-51.55725190839695,-16.85496183206107,5.343511450381679,-11.145008728027342,-0.7134720947265625,1.8100164550781248,16.03053435114504,-38.961832061068705,-0.2900763358778626,0.0
13.060000658035278,-12.540828295898438,2.8227637573242186,2.971204260253906,-39.16030534351145,-10.67175572519084,4.931297709923665,-10.005368737792969,-0.14604630126953125,0.5027823486328125,15.938931297709924,-44.778625954198475,-2.9923664122137406,0.0
13.070000648498535,-10.189722265624999,1.438915197753906,1.8746598999023436,-44.30534351145038,-19.083969465648856,4.0458015267175576,-9.07163009033203,1.1420341918945311,0.1388636962890625,5.3893129770992365,-40.412213740458014,-4.351145038167939,0.0
13.080000638961792,-9.658209497070311,1.5849614990234373,1.714248388671875,-34.3206106870229,-15.694656488549619,6.412213740458015,-9.2320416015625,-0.24660277099609373,0.4572925170898437,2.0,-34.50381679389313,-1.3893129770992367,0.0
13.09000039100647,-9.028534460449219,0.44532150878906246,1.13006318359375,-24.213740458015266,-11.801526717557252,5.32824427480916,-10.54645831298828,-1.4532804077148436,0.7900865478515624,9.679389312977099,-33.89312977099237,-0.7480916030534351,0.0
13.100000858306885,-8.90643017578125,-0.3064578125,0.7972691528320313,-2.9160305343511452,-2.8702290076335877,3.282442748091603,-8.238447912597655,-0.507570751953125,-0.6607996582031249,9.694656488549619,-35.87786259541985,-4.809160305343512,0.0
13.110000610351562,-8.492233288574218,0.36631285400390623,0.5530605834960938,4.702290076335878,2.2442748091603053,0.732824427480916,-6.9168485961914055,0.612915625,-0.49320554199218747,0.3969465648854962,-26.763358778625953,-6.793893129770993,0.0
13.120000839233398,-9.801861596679688,2.5737667846679684,1.9776105712890624,8.442748091603054,12.931297709923664,-3.114503816793893,-8.528146313476562,-0.6512228515624999,0.8116343627929687,-3.4656488549618323,-14.534351145038167,-3.0839694656488548,0.0
13.130000591278076,-8.633491186523438,1.8315642700195311,0.8954314208984374,3.450381679389313,11.49618320610687,-3.7099236641221376,-9.167398156738281,-1.0390835205078124,0.7278373046875,1.0381679389312977,-13.48091603053435,-1.9389312977099236,0.0
13.140000581741333,-10.46984385986328,3.2728736694335936,1.4963760375976562,-2.885496183206107,8.641221374045802,-3.5877862595419847,-9.193734375,-1.1133037719726562,1.0630255371093749,4.625954198473282,-12.15267175572519,-2.763358778625954,0.0
13.15000033378601,-9.801861596679688,1.39821376953125,0.4381389038085937,-6.152671755725191,6.564885496183206,-1.0076335877862594,-9.200916979980468,-0.49320554199218747,1.0726023437499999,5.450381679389313,-11.541984732824428,-3.3587786259541983,0.0
13.160000324249268,-9.497797985839844,0.6775590698242188,0.5889736083984375,-1.0076335877862594,9.572519083969466,0.5190839694656488,-9.102754711914063,-0.12449848632812499,1.2689268798828124,3.0381679389312977,-12.13740458015267,-3.3740458015267176,0.0
13.170000553131104,-9.45470235595703,0.5219359619140624,0.7326257080078125,0.6106870229007634,10.778625954198473,-1.3587786259541985,-9.169792358398437,-0.00718260498046875,1.4245499877929686,0.04580152671755725,-11.84732824427481,-2.366412213740458,0.0
13.18000054359436,-8.518569506835936,-0.8547299926757812,-0.469263525390625,8.67175572519084,12.366412213740459,-3.0076335877862594,-9.076418493652342,-0.239420166015625,1.7310078002929687,-3.3587786259541983,-12.977099236641221,-1.633587786259542,0.0
13.190000534057617,-7.996633544921875,0.565031591796875,-0.28490999755859375,17.450381679389313,19.068702290076335,-6.687022900763359,-9.512163195800781,-0.6871358764648438,2.0925322509765625,-4.931297709923665,-13.32824427480916,-0.8549618320610687,0.0
13.200000762939453,-10.548852514648438,1.5658078857421873,0.6512228515624999,9.404580152671755,20.85496183206107,-11.786259541984732,-9.591171850585937,-0.6679822631835937,2.2553379638671873,-6.8396946564885495,-15.389312977099237,-1.5267175572519085,0.0
13.21000075340271,-8.497021691894531,1.5251064575195312,-0.45968671875,5.3893129770992365,17.557251908396946,-10.870229007633588,-9.885658654785155,-0.39743747558593745,2.090138049316406,-10.702290076335878,-17.16030534351145,-1.9236641221374047,0.0
13.220000505447388,-10.903194360351561,3.1962592163085937,1.2042834350585936,-1.3587786259541985,21.236641221374047,-11.129770992366412,-10.204087475585936,-0.5123591552734374,2.2960393920898436,-15.587786259541986,-16.35114503816794,-1.5267175572519085,0.0
13.230000495910645,-9.627084875488281,1.3742717529296875,0.1149216796875,-6.687022900763359,16.900763358778626,-9.007633587786259,-10.146626635742187,-0.105344873046875,1.4700398193359374,-14.076335877862595,-20.732824427480917,-2.8702290076335877,0.0
13.240000486373901,-10.295067138671874,2.3223756103515623,0.3447650390625,-11.526717557251908,14.396946564885496,-7.923664122137405,-9.686939916992188,0.3280056274414062,1.5682020874023437,-18.427480916030536,-19.52671755725191,-2.427480916030534,0.0
13.250000953674316,-9.809044201660155,1.2497732666015624,-0.45968671875,-14.13740458015267,12.335877862595419,-7.236641221374046,-9.74200655517578,1.0989385620117187,1.3048399047851562,-22.48854961832061,-18.38167938931298,-1.83206106870229,0.0
13.260000944137573,-9.813832604980469,0.8547299926757812,-0.51714755859375,-10.946564885496183,14.854961832061068,-6.870229007633588,-9.679757312011718,1.898601916503906,1.446097802734375,-29.81679389312977,-17.480916030534353,-0.4732824427480916,0.0
13.270000696182251,-9.351751684570312,-0.09337386474609374,-1.3551181396484375,-7.526717557251908,16.366412213740457,-7.740458015267175,-10.01733974609375,2.408566870117187,1.7932570434570312,-39.12977099236641,-16.061068702290076,1.1755725190839694,0.0
13.280000686645508,-10.673351000976561,1.9536685546875,-0.7015010864257812,-4.2748091603053435,22.106870229007633,-11.389312977099237,-10.065223779296874,2.24097275390625,1.8363526733398436,-51.93893129770992,-15.374045801526718,2.5801526717557253,0.0
13.290000677108765,-9.358934289550781,0.5147533569335937,-2.01112939453125,-13.618320610687023,18.076335877862597,-11.86259541984733,-10.443507641601562,1.8315642700195311,1.9393033447265624,-59.404580152671755,-16.229007633587788,3.8473282442748094,0.0
13.300000667572021,-10.070012182617187,1.1156979736328125,-2.109291662597656,-10.900763358778626,22.045801526717558,-10.763358778625955,-10.496180078124999,0.9265560424804687,1.946485949707031,-67.54198473282443,-17.740458015267176,4.1679389312977095,0.0
13.310000658035278,-9.627084875488281,0.8499415893554687,-1.9656395629882812,-13.282442748091603,26.870229007633586,-11.908396946564885,-10.297461340332031,-0.047884033203124995,2.3918074584960936,-70.91603053435115,-19.61832061068702,3.0229007633587788,0.0
13.320000648498535,-9.540893615722656,0.40940848388671874,-2.0973206542968748,-18.778625954198475,30.18320610687023,-13.969465648854962,-10.491391674804687,-1.3455413330078123,2.588131994628906,-69.12977099236642,-21.603053435114504,2.045801526717557,0.0
13.330000638961792,-9.145850341796875,0.06464344482421874,-2.1452046874999997,-17.541984732824428,34.38167938931298,-16.595419847328245,-9.038111267089842,-1.1516109985351561,1.5682020874023437,-75.92366412213741,-20.885496183206108,-1.1297709923664123,0.0
13.340000629425049,-9.217676391601563,0.2609679809570312,-2.1356278808593747,-21.81679389312977,39.465648854961835,-17.49618320610687,-9.014169250488282,-2.243366955566406,0.7805097412109374,-66.79389312977099,-26.732824427480917,-1.6946564885496183,0.0
13.350000619888306,-8.111555224609374,-1.0821791503906248,-2.789244934082031,-6.916030534351145,49.41984732824427,-19.587786259541986,-10.445901843261717,-3.825934252929687,1.2401964599609374,-54.87022900763359,-27.709923664122137,-1.786259541984733,0.0
13.36000108718872,-8.700528833007812,-1.1707646118164061,-2.6001030029296874,-5.511450381679389,56.900763358778626,-23.587786259541986,-10.031704956054687,-4.668693237304687,0.6967126831054687,-31.450381679389313,-36.10687022900763,-5.374045801526718,0.0
13.37000036239624,-8.971073620605468,-0.14604630126953125,-2.1811177124023438,-2.946564885496183,62.47328244274809,-29.954198473282442,-9.095572106933593,-2.9664158569335934,0.5482721801757812,-24.458015267175572,-33.908396946564885,-10.65648854961832,0.0
13.380000829696655,-10.01015714111328,1.1444283935546875,-1.5777788940429687,-9.297709923664122,67.3587786259542,-31.557251908396946,-6.368576416015625,-1.4317325927734375,-0.6177040283203125,-17.603053435114504,-32.58015267175573,-14.045801526717558,0.0
13.390000581741333,-9.871293444824218,1.8076222534179687,-0.7062894897460937,-14.01526717557252,68.67175572519083,-30.53435114503817,-7.338228088378906,-2.300827795410156,0.01915361328125,-11.969465648854962,-22.748091603053435,-12.549618320610687,0.0
13.400000810623169,-10.01733974609375,1.8746598999023436,0.2705447875976562,-22.229007633587788,67.93893129770993,-29.480916030534353,-6.866570361328125,-2.6791116577148437,-0.2705447875976562,-2.9923664122137406,-20.53435114503817,-13.32824427480916,0.0
13.410000562667847,-9.880870251464843,1.5801730957031248,0.411802685546875,-24.9618320610687,64.27480916030534,-27.603053435114504,-5.549759448242187,-1.438915197753906,-0.8068459594726562,1.5267175572519085,-14.854961832061068,-15.526717557251908,0.0
13.420000553131104,-9.414000927734374,0.6751648681640625,1.7238251953125,-30.396946564885496,60.091603053435115,-25.236641221374047,-6.763619689941406,-2.521094348144531,-0.00239420166015625,10.488549618320612,-6.656488549618321,-13.603053435114504,0.0
13.43000054359436,-10.084377392578125,1.1731588134765625,1.6519991455078125,-27.297709923664122,58.35114503816794,-23.984732824427482,-7.285555651855469,-3.0214824951171875,1.8531120849609375,14.854961832061068,1.6641221374045803,-12.488549618320612,0.0
13.440000772476196,-10.601524951171875,1.2425906616210938,2.703053674316406,-27.603053435114504,53.6793893129771,-22.778625954198475,-7.601590270996093,-3.1172505615234374,2.5474305664062498,24.717557251908396,-0.12213740458015267,-13.969465648854962,0.0
13.450000524520874,-10.740388647460938,1.8435352783203125,2.655169641113281,-25.114503816793892,45.770992366412216,-19.52671755725191,-7.196970190429687,-2.2553379638671873,1.7717092285156248,30.396946564885496,0.4580152671755725,-13.98473282442748,0.0
13.46000051498413,-11.719617126464843,2.0781670410156248,3.3255461059570313,-22.33587786259542,40.961832061068705,-14.793893129770993,-7.321468676757812,-1.43652099609375,0.14125789794921875,38.717557251908396,5.32824427480916,-11.221374045801527,0.0
13.470000267028809,-11.504138977050781,1.68551796875,3.909731311035156,-18.702290076335878,32.732824427480914,-10.381679389312977,-7.651868505859374,1.6017209106445311,-2.166752502441406,38.68702290076336,12.412213740458014,-9.725190839694656,0.0
13.480000495910645,-12.71081661376953,2.379836450195312,4.280832568359375,-13.083969465648854,20.15267175572519,-7.114503816793893,-7.45075556640625,3.399766357421875,-2.427720483398437,21.328244274809162,24.229007633587788,-8.274809160305344,0.0
13.490000247955322,-13.335703247070311,2.7820623291015623,5.219359619140625,-12.732824427480915,9.770992366412214,-4.396946564885496,-10.50815108642578,-0.0526724365234375,0.27293898925781246,9.969465648854962,27.984732824427482,-2.1068702290076335,0.0
13.500000715255737,-12.129025610351562,0.34715924072265625,5.087678527832031,2.16793893129771,0.48854961832061067,-0.8091603053435115,-10.390835205078124,-1.6998831787109374,1.675941162109375,-0.6106870229007634,25.328244274809162,-3.633587786259542,0.0
13.510000944137573,-12.188880651855468,0.718260498046875,5.856217260742187,11.725190839694656,-9.84732824427481,-0.7938931297709924,-9.485826977539062,-2.27927998046875,2.118868469238281,-6.854961832061068,24.045801526717558,-5.893129770992366,0.0
13.52000093460083,-13.125013500976562,1.9943699829101562,7.381323718261719,7.282442748091603,-20.885496183206108,-4.030534351145038,-11.281478222656249,-1.6448165405273436,2.094926452636719,-6.122137404580153,27.022900763358777,-3.5267175572519083,0.0
13.530000686645508,-14.994884997558593,3.612850305175781,9.327809667968749,-3.7557251908396947,-36.48854961832061,-5.969465648854962,-10.93671318359375,-1.7812860351562498,1.5394716674804687,-2.595419847328244,24.03053435114504,-1.9389312977099236,0.0
13.540000677108765,-14.908693737792968,3.912125512695312,10.117896215820313,-9.755725190839694,-60.67175572519084,-2.6106870229007635,-10.342951171874999,0.430956298828125,0.5243301635742187,-2.2900763358778624,18.50381679389313,-2.946564885496183,0.0
13.550000429153442,-15.052345837402342,4.070142822265625,11.247959399414063,-12.229007633587786,-85.34351145038168,3.5419847328244276,-9.5384994140625,2.157175695800781,0.5147533569335937,-22.671755725190838,26.610687022900763,-2.0763358778625953,0.0
13.560000658035278,-15.732299108886718,4.7955859252929685,12.184092248535155,-15.007633587786259,-108.93129770992367,12.198473282442748,-8.312668164062499,1.0941501586914062,0.5530605834960938,-45.70992366412214,36.80916030534351,2.2442748091603053,0.0
13.570000886917114,-16.13931339111328,4.9416322265625,12.133814013671874,-13.923664122137405,-135.6793893129771,21.435114503816795,-10.747571252441405,-1.66636435546875,1.0773907470703123,-44.62595419847328,40.0763358778626,9.954198473282442,0.0
13.580000400543213,-15.983690283203124,4.115632653808594,11.348515869140625,-3.66412213740458,-158.12213740458014,29.64885496183206,-11.726799731445311,-3.4763808105468748,1.5298948608398437,-34.36641221374046,41.099236641221374,12.854961832061068,0.0
13.590000629425049,-16.340426330566405,2.224213342285156,10.522516296386717,1.3435114503816794,-182.3053435114504,35.80152671755725,-11.650185278320311,-4.149151477050781,0.7613561279296874,-11.526717557251908,32.67175572519084,11.679389312977099,0.0
13.600000858306885,-16.728286999511717,1.5107412475585937,10.692504614257812,14.977099236641221,-204.2290076335878,37.725190839694655,-9.756371765136718,-0.16519991455078123,-2.6599580444335937,-3.3282442748091605,23.450381679389313,3.5572519083969465,0.0
13.610000371932983,-17.68357346191406,3.294421484375,7.9463553100585935,34.94656488549618,-224.68702290076337,41.74045801526717,-9.294290844726563,-0.41419688720703124,-1.3263877197265623,-13.374045801526718,34.88549618320611,3.9389312977099236,0.0
13.620000839233398,-16.804901452636717,1.8171990600585937,3.5601778686523438,35.541984732824424,-238.68702290076337,48.79389312977099,-6.687005236816406,4.53940634765625,-5.758054992675781,-20.53435114503817,27.83206106870229,2.5343511450381677,0.0
13.630000352859497,-14.92545314941406,1.3407529296874998,1.455674609375,33.05343511450382,-241.61832061068702,45.19083969465649,-8.221688500976562,4.678270043945313,-2.834734765625,-76.10687022900764,66.82442748091603,11.908396946564885,0.0
13.640000820159912,-12.217611071777343,-1.608903515625,-0.5626373901367188,18.137404580152673,-239.26717557251908,47.66412213740458,-9.399635717773437,3.8857892944335934,-1.4772224243164063,-102.82442748091603,86.3969465648855,21.0381679389313,0.0
13.65000033378601,-10.984597216796875,-2.3822306518554686,-2.645592834472656,27.129770992366414,-222.67175572519085,45.954198473282446,-11.939883679199218,0.5003881469726562,-0.0526724365234375,-109.74045801526718,95.09923664122137,33.64885496183206,0.0
13.660000562667847,-8.365340600585936,-6.4739212890625,-6.411672045898437,39.343511450381676,-202.33587786259542,47.847328244274806,-6.042964990234375,0.8020575561523438,-2.93050283203125,-91.12977099236642,80.79389312977099,32.76335877862596,0.0
13.670000553131104,-10.060435375976562,-6.117185241699218,-6.4284314575195305,53.17557251908397,-169.89312977099237,41.69465648854962,-10.886434948730468,-1.1947066284179686,-0.34715924072265625,-94.80916030534351,95.8473282442748,34.900763358778626,0.0
13.68000054359436,-9.236830004882812,-7.048529687499999,-7.48906279296875,59.587786259541986,-150.25954198473283,35.00763358778626,-11.01332763671875,-3.7134067749023436,1.93451494140625,-63.29770992366412,86.47328244274809,34.274809160305345,0.0
13.690000534057617,-11.008539233398437,-4.352658618164062,-5.434837768554687,77.43511450381679,-126.09160305343511,25.129770992366414,-11.058817468261719,-4.189852905273438,1.5705962890624998,-35.20610687022901,69.29770992366412,31.87786259541985,0.0
13.700000524520874,-11.654973681640625,-1.8363526733398436,-2.4947581298828125,84.9618320610687,-113.49618320610686,18.03053435114504,-11.348515869140625,-7.161057165527343,2.2098481323242187,-1.7709923664122138,50.091603053435115,25.69465648854962,0.0
13.71000051498413,-12.69166300048828,0.5434837768554687,0.07900865478515624,89.06870229007633,-105.48091603053435,17.099236641221374,-10.649408984374999,-3.0166940917968748,-0.6560112548828124,17.603053435114504,32.3206106870229,15.969465648854962,0.0
13.720000505447388,-11.954248889160155,2.379836450195312,1.6711527587890624,86.53435114503817,-105.64885496183206,18.244274809160306,-9.105148913574219,-0.373495458984375,-1.936909143066406,8.946564885496183,28.53435114503817,9.267175572519085,0.0
13.730000495910645,-10.376469995117187,0.6512228515624999,0.7493851196289062,72.83969465648855,-111.64885496183206,23.099236641221374,-9.131485131835937,-0.584185205078125,-1.0031704956054688,-2.351145038167939,36.0763358778626,9.49618320610687,0.0
13.740000486373901,-10.390835205078124,4.0222587890625,1.0558429321289062,56.67175572519084,-113.43511450381679,23.053435114503817,-9.821015209960937,-2.0278888061523435,0.02633621826171875,-3.5114503816793894,40.62595419847328,14.259541984732824,0.0
13.750000715255737,-10.421959826660157,3.7708676147460936,0.2920926025390625,29.328244274809162,-121.77099236641222,25.0381679389313,-11.537657800292967,-2.6886884643554687,0.5793968017578125,5.1603053435114505,40.80916030534351,16.748091603053435,0.0
13.760000705718994,-9.258377819824219,2.9951462768554684,-0.612915625,21.31297709923664,-116.8854961832061,32.51908396946565,-10.165780249023436,-2.8419173706054686,0.16519991455078123,7.511450381679389,39.969465648854964,16.366412213740457,0.0
13.770000696182251,-7.838616235351562,1.4987702392578124,-0.6679822631835937,16.091603053435115,-108.45801526717557,36.16793893129771,-9.634267480468749,-2.4851813232421875,0.05985504150390625,13.587786259541986,40.12213740458015,14.900763358778626,0.0
13.780000448226929,-7.60398447265625,0.9504980590820312,-0.19871873779296872,13.007633587786259,-99.08396946564885,36.19847328244275,-9.291896643066405,-2.4756045166015626,0.1292868896484375,17.19083969465649,40.30534351145038,14.442748091603054,0.0
13.790000677108765,-6.959944226074218,0.5889736083984375,0.0,11.312977099236642,-87.48091603053435,35.31297709923664,-10.223241088867187,-3.651157531738281,2.2649147705078123,12.82442748091603,47.93893129770992,18.076335877862597,0.0
13.800000667572021,-6.739677673339843,1.1276689819335937,0.6272808349609375,7.282442748091603,-78.06106870229007,35.541984732824424,-10.39322940673828,-4.046200805664062,2.1643583007812497,27.801526717557252,40.19847328244275,16.702290076335878,0.0
13.810000658035278,-6.947973217773437,1.5658078857421873,1.0271125122070313,0.2595419847328244,-71.0381679389313,35.38931297709924,-9.923965881347655,-3.4548329956054684,0.93852705078125,30.0,33.6793893129771,14.458015267175572,0.0
13.820000648498535,-4.920084411621094,1.7669208251953124,1.4891934326171874,-1.4351145038167938,-62.412213740458014,33.93893129770992,-12.241553088378906,-5.84185205078125,3.248931652832031,38.213740458015266,35.17557251908397,14.80916030534351,0.0
13.830000638961792,-5.456385583496093,1.7812860351562498,2.039859814453125,-10.51908396946565,-54.79389312977099,30.82442748091603,-10.280701928710936,-4.553771557617187,2.4947581298828125,64.3969465648855,21.404580152671755,10.16793893129771,0.0
13.840000629425049,-5.1331683593749995,1.618480322265625,2.1212626708984375,-10.473282442748092,-46.76335877862596,29.068702290076335,-12.512097875976561,-6.306327172851562,4.209006518554688,81.74045801526718,12.82442748091603,8.992366412213741,0.0
13.850000381469727,-4.915296008300781,1.0965443603515623,2.2098481323242187,-11.816793893129772,-38.51908396946565,28.3206106870229,-8.674192614746094,-1.24498486328125,0.05746083984375,94.0,-6.916030534351145,-0.8244274809160306,0.0
13.86000108718872,-3.9432501342773434,0.9217676391601562,2.4516625,-11.954198473282442,-30.885496183206108,25.49618320610687,-11.757924353027343,-2.6599580444335937,2.8993782104492185,75.70992366412214,0.6717557251908397,-3.0229007633587788,0.0
13.870000839233398,-3.864241479492187,0.2705447875976562,3.284844677734375,-12.854961832061068,-21.435114503816795,22.885496183206108,-8.415618835449218,0.6655880615234374,0.6416460449218749,77.05343511450381,-11.664122137404581,-7.9541984732824424,0.0
13.880000829696655,-4.153939880371094,1.180341418457031,3.9815573608398434,-15.603053435114504,-14.549618320610687,17.282442748091604,-9.404424121093749,0.7613561279296874,0.9241618408203125,50.42748091603053,-8.625954198473282,-7.816793893129771,0.0
13.890000581741333,0.28730419921875,-1.4987702392578124,1.898601916503906,-3.969465648854962,-10.122137404580153,17.389312977099237,-10.386046801757812,0.47884033203125,2.6408044311523438,35.11450381679389,-0.030534351145038167,-3.9083969465648853,0.0
13.900000810623169,-1.3862427612304686,0.09576806640624999,2.6336218261718747,10.259541984732824,10.274809160305344,12.50381679389313,-10.754753857421875,-0.17238251953125,2.9376854370117185,18.580152671755727,4.67175572519084,-0.0916030534351145,0.0
13.910000562667847,-3.4428619873046875,3.057395520019531,3.277662072753906,-0.3053435114503817,13.007633587786259,5.312977099236641,-9.76116016845703,-0.5458779785156249,2.231395947265625,19.297709923664122,-0.8396946564885496,1.0687022900763359,0.0
13.920000553131104,4.180276098632812,-2.971204260253906,-2.4301146850585935,16.396946564885496,14.290076335877863,9.48091603053435,-10.479420666503906,0.5291185668945312,1.7908628417968748,9.603053435114504,3.312977099236641,2.381679389312977,0.0
13.93000054359436,0.6105214233398437,-1.0558429321289062,0.181959326171875,48.67175572519084,56.51908396946565,4.534351145038168,-10.441113439941406,-0.6057330200195312,1.7381904052734374,-8.15267175572519,11.267175572519085,2.1374045801526718,0.0
13.940000295639038,-3.768473413085937,4.285620971679688,2.166752502441406,37.12977099236641,69.41984732824427,-7.9541984732824424,-8.542511523437499,-0.19871873779296872,1.2641384765625,-12.564885496183207,18.412213740458014,2.351145038167939,0.0
13.950000524520874,-6.402095239257812,8.061276989746093,3.0645781249999997,9.511450381679388,65.48091603053435,-11.740458015267176,-9.009380847167968,-1.419761584472656,1.867477294921875,-13.053435114503817,23.709923664122137,7.022900763358779,0.0
13.960000276565552,-4.7022120605468745,4.836287353515624,2.7820623291015623,-8.793893129770993,62.94656488549618,-4.0458015267175576,-10.01015714111328,-1.6615759521484375,0.2537853759765625,-9.221374045801527,18.045801526717558,9.083969465648854,0.0
13.970000505447388,-8.039729174804688,3.6487633300781246,8.741230261230468,9.099236641221374,69.29770992366412,3.145038167938931,-11.631031665039062,-1.7501614135742187,0.6105214233398437,-7.923664122137405,22.85496183206107,9.83206106870229,0.0
13.980000257492065,-10.225635290527343,1.1468225952148436,11.899182250976562,29.740458015267176,63.725190839694655,7.893129770992366,-11.020510241699219,-1.4891934326171874,-0.0383072265625,-10.045801526717558,23.96946564885496,9.374045801526718,0.0
13.99000096321106,-13.857639208984374,0.5099649536132812,10.429142431640624,46.76335877862596,69.78625954198473,4.931297709923665,-10.314220751953124,-1.189918225097656,-1.189918225097656,-16.671755725190838,24.641221374045802,10.885496183206106,0.0
14.000000476837158,-13.160926525878905,0.6344634399414062,4.520252734375,32.33587786259542,64.76335877862596,-2.946564885496183,-10.711658227539061,-2.0278888061523435,-1.0366893188476562,-22.519083969465647,30.763358778625953,13.725190839694656,0.0
14.010000944137573,-14.293383911132812,4.601655590820312,7.094019519042968,29.480916030534353,65.45038167938931,-6.320610687022901,-11.396399902343749,-4.613626599121093,0.06943184814453125,-14.061068702290076,33.63358778625954,15.206106870229007,0.0
14.020000696182251,-12.061987963867187,5.877765075683594,5.193023400878906,15.129770992366412,54.76335877862596,-5.465648854961832,-11.757924353027343,-3.9432501342773434,-0.28490999755859375,-0.8854961832061069,25.893129770992367,9.603053435114504,0.0
14.030000448226929,-8.963891015625,4.6639048339843745,2.829946362304687,-13.679389312977099,46.76335877862596,-3.5572519083969465,-13.01727442626953,-2.1835119140624997,0.13168109130859373,1.4809160305343512,23.908396946564885,3.404580152671756,0.0
14.040000677108765,-5.614402893066406,-0.0143652099609375,2.099714855957031,-26.671755725190838,45.29770992366412,-3.9236641221374047,-12.600683337402343,0.4381389038085937,-1.3311761230468748,-6.366412213740458,17.435114503816795,-1.1755725190839694,0.0
14.050000667572021,-5.348646508789062,-1.6017209106445311,0.6679822631835937,-34.33587786259542,47.3587786259542,-12.610687022900763,-13.713987109375,1.9105729248046874,-0.469263525390625,-12.061068702290076,16.625954198473284,-1.1908396946564885,0.0
14.0600004196167,-6.457161877441406,-2.224213342285156,-0.05027823486328125,-26.244274809160306,52.48854961832061,-18.748091603053435,-16.393098767089842,1.1276689819335937,0.9193734375,-15.17557251908397,13.49618320610687,4.2748091603053435,0.0
14.070000410079956,-8.774749084472656,-1.4532804077148436,1.5897499023437498,-11.17557251908397,60.6412213740458,-25.068702290076335,-17.70990968017578,1.0749965454101562,0.8116343627929687,-11.755725190839694,4.9465648854961835,6.732824427480916,0.0
14.080000400543213,-9.636661682128906,-0.8283937744140625,1.3814543579101561,4.442748091603053,66.51908396946565,-30.229007633587788,-16.692373974609374,1.2473790649414063,0.40462008056640625,-9.206106870229007,-7.343511450381679,7.343511450381679,0.0
14.09000039100647,-11.334150659179686,1.3024457031249999,1.2928688964843749,11.053435114503817,71.95419847328245,-33.6793893129771,-16.225504650878904,0.24660277099609373,1.22583125,-4.488549618320611,-16.85496183206107,8.458015267175572,0.0
14.100000858306885,-11.896788049316406,2.327164013671875,0.7398083129882812,9.648854961832061,74.07633587786259,-34.656488549618324,-14.877569116210937,0.9816226806640624,2.2002713256835937,-4.33587786259542,-25.404580152671755,6.366412213740458,0.0
14.110000610351562,-9.701305126953125,0.5961562133789062,-1.2617442749023438,13.19083969465649,75.3587786259542,-32.091603053435115,-12.373234179687499,1.0654197387695312,1.8435352783203125,-8.534351145038167,-36.62595419847328,4.687022900763359,0.0
14.120000839233398,-10.137049829101562,1.2808978881835937,-0.3950432739257812,21.66412213740458,87.09923664122137,-34.36641221374046,-11.001356628417968,-0.7541735229492187,3.948038537597656,-8.442748091603054,-40.458015267175576,6.702290076335878,0.0
14.130000591278076,-10.896011755371093,4.290409374999999,-0.6488286499023437,13.893129770992367,88.99236641221374,-39.06870229007634,-10.249577307128906,-1.70467158203125,2.6910826660156246,-3.267175572519084,-54.213740458015266,5.374045801526718,0.0
14.140000820159912,-8.626308581542968,3.2130186279296873,-2.6958710693359373,8.473282442748092,90.56488549618321,-35.282442748091604,-12.770671655273437,-3.0741549316406247,2.5234885498046875,6.0458015267175576,-63.404580152671755,6.549618320610687,0.0
14.15000057220459,-5.363011718749999,-0.16998831787109375,-3.919308117675781,24.213740458015266,102.99236641221374,-32.88549618320611,-9.70369932861328,-2.0159177978515626,1.5562310791015623,-3.1755725190839694,-67.69465648854961,1.0381679389312977,0.0
14.160000562667847,-8.82263311767578,2.1499930908203124,0.36391865234375,30.732824427480917,116.79389312977099,-39.221374045801525,-9.483432775878907,-2.6192566162109374,1.2713210815429687,2.4122137404580153,-73.86259541984732,-4.259541984732825,0.0
14.170000553131104,-7.886500268554687,0.9002198242187499,-0.8738836059570312,25.51145038167939,113.02290076335878,-42.68702290076336,-9.7683427734375,-0.6943184814453125,-0.4955997436523437,-0.8396946564885496,-76.79389312977099,-10.183206106870228,0.0
14.18000054359436,-9.832986218261718,2.5163059448242184,1.5610194824218748,38.30534351145038,126.36641221374046,-43.099236641221374,-10.151415039062499,-1.2928688964843749,-0.6703764648437499,-4.824427480916031,-72.8854961832061,-11.114503816793894,0.0
14.190000534057617,-11.382034692382812,3.399766357421875,3.4907460205078125,20.15267175572519,118.8854961832061,-45.25190839694657,-10.43153663330078,-0.7445967163085937,-2.4013842651367185,5.587786259541985,-73.61832061068702,-14.045801526717558,0.0
14.200000524520874,-9.890447058105469,2.5474305664062498,1.5203180541992187,4.641221374045801,103.48091603053435,-42.213740458015266,-9.330203869628905,1.4221557861328125,-4.244919543457031,-4.519083969465649,-66.65648854961832,-14.534351145038167,0.0
14.21000051498413,-10.297461340332031,3.0047230834960934,2.4516625,-6.778625954198473,97.72519083969466,-36.778625954198475,-9.179369165039063,0.9433154541015625,-3.7612908081054686,-12.351145038167939,-50.778625954198475,-11.435114503816793,0.0
14.220000505447388,-9.296685046386719,1.4413093994140624,2.29843359375,-17.358778625954198,86.58015267175573,-34.717557251908396,-8.724470849609375,-0.9576806640625,-3.593696691894531,-4.061068702290076,-45.49618320610687,-8.793893129770993,0.0
14.230000495910645,-11.042058056640624,2.185906115722656,3.411737365722656,-22.38167938931298,78.3969465648855,-34.18320610687023,-10.28549033203125,-1.678335363769531,-2.50912333984375,11.877862595419847,-40.3206106870229,-8.030534351145038,0.0
14.240000247955322,-9.543287817382812,0.5913678100585937,2.2170307373046874,-28.549618320610687,64.12213740458016,-29.862595419847327,-9.279925634765624,-0.814028564453125,-1.9201497314453124,28.53435114503817,-41.587786259541986,-12.061068702290076,0.0
14.250000715255737,-8.781931689453124,-1.5658078857421873,1.608903515625,-9.725190839694656,63.74045801526717,-26.137404580152673,-6.962338427734375,1.8100164550781248,-3.3590649291992185,27.099236641221374,-38.717557251908396,-16.442748091603054,0.0
14.260000705718994,-11.439495532226562,1.1659762084960936,4.448426684570312,-2.3969465648854964,65.74045801526718,-26.916030534351144,-7.338228088378906,2.068590234375,-1.3958195678710936,20.427480916030536,-24.35114503816794,-13.587786259541986,0.0
14.270000457763672,-10.04846436767578,1.649604943847656,3.1124621582031247,-16.763358778625953,51.49618320610687,-29.572519083969464,-7.793126403808594,0.8475473876953125,-0.2346317626953125,25.450381679389313,-21.374045801526716,-9.786259541984732,0.0
14.280000686645508,-9.842563024902343,-0.0718260498046875,1.3144167114257812,5.709923664122138,51.80152671755725,-27.053435114503817,-9.337386474609374,-0.22026655273437498,0.47884033203125,32.42748091603053,-20.732824427480917,-5.9541984732824424,0.0
14.290000438690186,-12.794613671875,5.044582897949218,4.122815258789062,12.778625954198473,56.33587786259542,-28.427480916030536,-9.358934289550781,-1.43652099609375,0.9504980590820312,44.778625954198475,-26.213740458015266,-6.702290076335878,0.0
14.300000667572021,-12.174515441894531,3.5529952636718747,3.423708374023437,-4.473282442748092,43.038167938931295,-28.18320610687023,-9.045293872070312,0.047884033203124995,-0.5363011718749999,52.85496183206107,-38.091603053435115,-10.335877862595419,0.0
14.3100004196167,-13.388375683593749,5.2456958374023435,3.4069489624023435,-7.587786259541985,38.80916030534351,-23.87786259541985,-8.374917407226562,2.243366955566406,-1.0534487304687499,36.16793893129771,-38.12213740458015,-11.893129770992367,0.0
14.320000886917114,-9.991003527832031,2.5378537597656248,2.3774422485351563,-4.366412213740458,34.61068702290076,-16.931297709923665,-9.047688073730468,0.6703764648437499,0.6105214233398437,24.442748091603054,-35.74045801526717,-8.290076335877863,0.0
14.330000638961792,-9.832986218261718,2.7964275390625,2.748543505859375,-8.67175572519084,28.99236641221374,-16.458015267175572,-10.053252770996092,-0.3687070556640625,0.6440402465820312,21.709923664122137,-43.74045801526717,-4.229007633587786,0.0
14.340000629425049,-10.153809240722655,3.4069489624023435,2.5043349365234375,-7.984732824427481,26.564885496183205,-17.72519083969466,-9.239224206542968,0.6200982299804687,0.033518823242187495,5.984732824427481,-46.0763358778626,-5.374045801526718,0.0
14.350000619888306,-10.036493359375,3.778050219726562,2.070984436035156,-19.52671755725191,21.297709923664122,-12.977099236641221,-9.873687646484374,-1.2210428466796874,1.8243816650390623,-1.7099236641221374,-41.38931297709924,-2.5801526717557253,0.0
14.360000848770142,-13.936647863769531,7.572859851074218,5.011064074707031,-36.412213740458014,17.114503816793892,-12.198473282442748,-11.180921752929686,-2.29843359375,1.6424223388671875,5.190839694656488,-46.35114503816794,-1.0534351145038168,0.0
14.37000036239624,-13.824120385742187,9.100360510253905,4.582501977539062,-84.1526717557252,-4.702290076335878,-12.198473282442748,-10.053252770996092,-0.488417138671875,0.316034619140625,6.290076335877862,-53.29770992366412,-6.152671755725191,0.0
14.380000829696655,-11.410765112304686,5.358223315429687,1.22583125,-98.22900763358778,-16.519083969465647,0.5343511450381679,-9.97184991455078,-0.48123453369140623,0.8403647827148437,0.4580152671755725,-48.534351145038165,-6.99236641221374,0.0
14.390000343322754,-13.532027783203125,5.394136340332031,4.2497079467773435,-98.3969465648855,-13.251908396946565,10.473282442748092,-11.482591162109374,-1.4724340209960938,1.9991583862304687,7.6183206106870225,-47.29770992366412,-3.7404580152671754,0.0
14.400000810623169,-10.280701928710936,0.842758984375,1.7094599853515624,-108.74809160305344,-29.31297709923664,14.122137404580153,-11.14022032470703,-1.4173673828125,1.455674609375,20.763358778625953,-57.05343511450382,-5.419847328244275,0.0
14.410000562667847,-8.693346228027343,-2.020706201171875,-0.16998831787109375,-74.19847328244275,-25.46564885496183,20.519083969465647,-9.3086560546875,0.6847416748046875,0.26815058593749996,16.82442748091603,-57.51145038167939,-9.083969465648854,0.0
14.420000314712524,-9.557653027343749,-1.4030021728515625,1.9608511596679685,-50.58015267175573,-9.969465648854962,19.221374045801525,-10.419565624999999,-0.3711012573242187,1.1252747802734375,20.671755725190838,-52.87022900763359,-6.580152671755725,0.0
14.430000305175781,-10.196904870605469,-0.5506663818359374,2.748543505859375,-46.900763358778626,-7.923664122137405,7.221374045801527,-9.555258825683593,0.7110778930664062,0.7781155395507812,24.916030534351144,-55.80152671755725,-5.847328244274809,0.0
14.440000534057617,-9.64623848876953,0.3758896606445312,1.5658078857421873,-36.44274809160305,-8.16793893129771,2.0763358778625953,-8.532934716796875,1.4796166259765624,0.1388636962890625,12.50381679389313,-47.7557251908397,-4.778625954198473,0.0
14.450000524520874,-11.341333264160156,1.8459294799804686,3.0142998901367184,-30.12213740458015,-1.2061068702290076,2.7022900763358777,-9.576806640625,0.2059013427734375,1.177947216796875,9.694656488549619,-41.770992366412216,-0.7175572519083969,0.0
14.46000051498413,-9.74200655517578,1.0223241088867188,1.8507178833007811,-28.015267175572518,-6.244274809160306,1.6946564885496183,-8.415618835449218,1.3000515014648437,0.1292868896484375,2.8244274809160306,-42.458015267175576,-1.4809160305343512,0.0
14.470000505447388,-8.365340600585936,0.4213794921875,0.4955997436523437,-11.664122137404581,-3.49618320610687,4.977099236641221,-6.880935571289062,1.3934253662109375,0.1197100830078125,-15.404580152671755,-32.51908396946565,-1.984732824427481,0.0
14.480000257492065,-10.134655627441406,0.8379705810546875,1.917755529785156,-4.931297709923665,3.3282442748091605,5.190839694656488,-7.702146740722656,-0.047884033203124995,0.7589619262695312,-24.900763358778626,-23.19083969465649,1.7557251908396947,0.0
14.49000096321106,-8.82981572265625,-0.32082302246093747,1.1563994018554686,8.534351145038167,8.320610687022901,1.8473282442748091,-8.166621862792969,-1.4724340209960938,1.35990654296875,-23.81679389312977,-20.137404580152673,4.0458015267175576,0.0
14.500000476837158,-10.062829577636718,1.9297265380859374,2.085349645996094,6.824427480916031,7.877862595419847,-2.381679389312977,-8.643067993164061,-1.7908628417968748,1.6017209106445311,-19.251908396946565,-19.114503816793892,3.236641221374046,0.0
14.510000944137573,-10.053252770996092,1.0869675537109373,1.0773907470703123,6.152671755725191,4.412213740458015,-2.931297709923664,-8.470685473632813,-1.5753846923828123,1.5897499023437498,-15.450381679389313,-18.82442748091603,1.1755725190839694,0.0
14.520000696182251,-9.619902270507811,1.024718310546875,1.0869675537109373,11.877862595419847,6.687022900763359,0.22900763358778625,-8.762778076171875,-1.66636435546875,2.0183119995117185,-11.877862595419847,-18.18320610687023,0.24427480916030533,0.0
14.530000686645508,-9.318232861328125,1.2689268798828124,1.0989385620117187,11.129770992366412,8.030534351145038,-0.916030534351145,-8.82981572265625,-1.6352397338867186,2.1116858642578125,-8.687022900763358,-19.053435114503817,-1.297709923664122,0.0
14.540000677108765,-9.217676391601563,1.4939818359375,0.9792284790039062,7.587786259541985,8.67175572519084,-2.1526717557251906,-8.451531860351562,-1.1156979736328125,2.1691467041015624,-7.694656488549619,-18.946564885496183,-3.0381679389312977,0.0
14.550000667572021,-8.836998327636719,0.9552864624023437,0.7517793212890624,6.717557251908397,11.221374045801527,-1.9694656488549618,-8.497021691894531,-1.0510545288085937,2.272097375488281,-5.8320610687022905,-18.748091603053435,-3.145038167938931,0.0
14.560000658035278,-9.988609326171874,1.9129671264648436,1.5203180541992187,4.641221374045801,15.49618320610687,-4.412213740458015,-8.748412866210938,-1.6017209106445311,2.3535002319335936,-3.954198473282443,-18.18320610687023,-3.3587786259541983,0.0
14.570000886917114,-9.469067565917967,2.6910826660156246,1.1180921752929687,-11.007633587786259,8.687022900763358,-6.183206106870229,-8.801085302734375,-1.3096283081054687,2.346317626953125,-1.6030534351145038,-17.96946564885496,-3.5419847328244276,0.0
14.580000638961792,-10.647014782714843,2.446874096679687,1.35990654296875,-16.396946564885496,10.458015267175572,-5.633587786259542,-7.996633544921875,-0.8595183959960937,1.93451494140625,-3.6793893129770994,-18.80916030534351,-4.717557251908397,0.0
14.590000629425049,-10.242394702148436,1.6927005737304686,1.2138602416992186,-19.206106870229007,10.381679389312977,-2.931297709923664,-8.578424548339843,-1.0630255371093749,2.1715409057617188,-3.114503816793893,-17.51145038167939,-4.106870229007634,0.0
14.600000858306885,-9.871293444824218,0.7445967163085937,1.0558429321289062,-20.18320610687023,9.893129770992367,-3.6946564885496183,-8.595183959960938,-0.948103857421875,2.099714855957031,-3.816793893129771,-15.038167938931299,-4.396946564885496,0.0
14.610000610351562,-11.046846459960937,1.4413093994140624,2.221819140625,-22.412213740458014,11.17557251908397,-6.122137404580153,-8.334215979003906,-0.6009446166992187,1.6831237670898436,-6.076335877862595,-13.267175572519085,-5.145038167938932,0.0
14.620001077651978,-9.706093530273437,0.27293898925781246,1.0390835205078124,-18.33587786259542,8.030534351145038,-6.122137404580153,-9.143456140136719,-1.120486376953125,2.090138049316406,-3.877862595419847,-9.938931297709924,-4.732824427480916,0.0
14.630000352859497,-10.390835205078124,1.1372457885742187,1.4963760375976562,-18.16793893129771,8.67175572519084,-7.145038167938932,-8.681375219726561,-0.8882488159179687,1.8411410766601561,-4.900763358778626,-8.320610687022901,-5.221374045801527,0.0
14.640000581741333,-9.665392102050781,0.9361328491210937,1.0103531005859374,-13.587786259541986,8.931297709923664,-7.038167938931298,-9.124302526855468,-0.8858546142578124,2.0781670410156248,-3.66412213740458,-5.603053435114504,-5.190839694656488,0.0
14.65000033378601,-9.643844287109374,1.2473790649414063,1.0414777221679687,-14.595419847328245,9.099236641221374,-5.938931297709924,-8.973467822265624,-0.8451531860351562,1.9871873779296874,-3.1297709923664123,-3.6946564885496183,-5.9541984732824424,0.0
14.660000562667847,-9.524134204101562,1.2808978881835937,1.0127473022460938,-10.13740458015267,10.900763358778626,-6.442748091603053,-9.143456140136719,-1.0534487304687499,2.157175695800781,-2.122137404580153,-2.4122137404580153,-6.412213740458015,0.0
14.670000553131104,-9.696516723632811,1.2569558715820313,1.1013327636718748,-11.251908396946565,10.80916030534351,-6.748091603053435,-9.095572106933593,-0.9313444458007812,2.1452046874999997,-1.2671755725190839,-1.5114503816793894,-6.3816793893129775,0.0
14.68000054359436,-9.497797985839844,1.2497732666015624,0.9097966308593749,-7.786259541984733,11.633587786259541,-7.190839694656488,-9.222464794921875,-1.0319009155273438,2.360682836914062,-0.4580152671755725,-0.15267175572519084,-6.6106870229007635,0.0
14.690000534057617,-9.526528405761718,1.1013327636718748,0.967257470703125,-8.16793893129771,11.877862595419847,-8.65648854961832,-9.042899670410156,-0.9026140258789062,2.1212626708984375,0.366412213740458,0.9465648854961832,-6.641221374045801,0.0
14.700034379959106,-9.394847314453125,1.2569558715820313,0.7829039428710937,-6.320610687022901,11.98473282442748,-8.458015267175572,-8.482656481933594,-0.27293898925781246,1.7932570434570312,-2.6717557251908395,2.946564885496183,-7.8320610687022905,0.0
14.710000276565552,-9.5001921875,1.4030021728515625,0.8116343627929687,-5.00763358778626,13.083969465648854,-7.66412213740458,-8.724470849609375,-1.3383587280273437,1.9871873779296874,-2.1374045801526718,5.755725190839694,-6.916030534351145,0.0
14.720000505447388,-9.651026892089844,0.9002198242187499,0.6512228515624999,-3.9389312977099236,12.946564885496183,-7.770992366412214,-8.683769421386717,-0.8978256225585937,1.5682020874023437,1.1145038167938932,4.854961832061068,-8.076335877862595,0.0
14.730000257492065,-9.593566052246093,0.7924807495117187,0.49799394531249996,2.16793893129771,14.244274809160306,-7.648854961832061,-8.729259252929687,-0.7805097412109374,1.7717092285156248,-0.7633587786259542,9.221374045801527,-8.01526717557252,0.0
14.740000486373901,-9.418789331054686,0.36631285400390623,0.4070142822265625,3.2977099236641223,15.938931297709924,-8.274809160305344,-8.43956085205078,-0.7422025146484375,1.70467158203125,-1.7557251908396947,11.114503816793894,-7.801526717557252,0.0
14.750000715255737,-8.741230261230468,-0.7972691528320313,-0.229843359375,10.65648854961832,17.709923664122137,-9.068702290076336,-8.262389929199218,-0.7876923461914062,1.7238251953125,-1.7404580152671756,12.65648854961832,-7.038167938931298,0.0
14.760000705718994,-9.849745629882811,0.27293898925781246,0.48123453369140623,13.312977099236642,21.84732824427481,-12.702290076335878,-7.941566906738281,-0.7158662963867187,1.5969325073242187,-1.6946564885496183,14.50381679389313,-7.129770992366412,0.0
14.770000457763672,-10.089165795898436,1.1156979736328125,0.6081272216796875,5.0534351145038165,20.48854961832061,-16.610687022900763,-6.775590698242187,0.16041151123046873,1.3670891479492187,-10.061068702290076,19.221374045801525,-8.427480916030534,0.0
