timestamp,Thigh_L_Acc_X,Thigh_L_Acc_Y,Thigh_L_Acc_Z,Thigh_L_Gyr_X,Thigh_L_Gyr_Y,Thigh_L_Gyr_Z,Thigh_R_Acc_X,Thigh_R_Acc_Y,Thigh_R_Acc_Z,Thigh_R_Gyr_X,Thigh_R_Gyr_Y,Thigh_R_Gyr_Z,gpio_output
10.000000715255737,-7.572859851074218,-0.14604630126953125,1.5658078857421873,-2.7480916030534353,40.94656488549618,-4.427480916030534,-9.935936889648437,-0.47165772705078124,-0.6248866333007812,-8.274809160305344,3.5572519083969465,0.42748091603053434,0.0
10.010000705718994,-7.390900524902343,-0.45968671875,1.7860744384765623,17.801526717557252,47.465648854961835,-6.977099236641221,-10.151415039062499,-0.13646949462890623,-0.507570751953125,-11.404580152671755,2.045801526717557,0.5801526717557252,1.0
10.020000696182251,-7.431601953125,-1.3838485595703125,1.3024457031249999,27.66412213740458,49.20610687022901,-9.755725190839694,-10.845733520507812,-0.09816226806640624,0.05985504150390625,-13.770992366412214,-0.015267175572519083,1.450381679389313,1.0
10.030000686645508,-8.425195642089843,0.5051765502929687,1.6160861206054686,46.48854961832061,57.57251908396947,-12.045801526717558,-10.587159741210938,0.05027823486328125,0.2657563842773437,-17.541984732824428,-2.50381679389313,2.3206106870229006,1.0
10.040000677108765,-8.817844714355468,1.9919757812499999,1.0582371337890624,46.656488549618324,57.14503816793893,-13.923664122137405,-10.85291612548828,-0.5482721801757812,0.9744400756835937,-19.6793893129771,-5.847328244274809,3.8473282442748094,1.0
10.050000667572021,-10.199299072265624,2.602497204589844,1.3838485595703125,47.55725190839695,59.55725190839695,-14.320610687022901,-10.273519323730468,-0.852335791015625,1.2689268798828124,-21.87786259541985,-11.099236641221374,4.412213740458015,1.0
10.060000658035278,-8.702923034667968,1.177947216796875,0.28730419921875,44.70229007633588,55.63358778625954,-11.206106870229007,-10.443507641601562,-1.0702081420898437,1.4796166259765624,-20.27480916030534,-19.389312977099237,3.6030534351145036,1.0
10.070000648498535,-10.034099157714843,0.39983167724609375,1.5586252807617187,60.36641221374046,66.44274809160305,-13.679389312977099,-10.565611926269531,-2.4875755249023435,2.9544448486328125,-24.916030534351144,-22.732824427480917,3.3740458015267176,1.0
10.080000638961792,-10.453084448242187,4.551377355957031,1.5394716674804687,44.717557251908396,60.79389312977099,-17.96946564885496,-10.967837805175781,-2.8850130004882812,3.0454245117187497,-22.595419847328245,-30.076335877862597,0.8702290076335878,1.0
10.090000867843628,-11.8369330078125,5.674257934570313,2.1906945190429687,19.31297709923664,54.50381679389313,-19.099236641221374,-10.903194360351561,-2.7557261108398436,2.2481553588867187,-22.763358778625953,-36.18320610687023,-2.0610687022900764,1.0
10.100000619888306,-11.180921752929686,3.6391865234374996,2.2481553588867187,-3.236641221374046,47.55725190839695,-17.419847328244273,-10.673351000976561,-3.7110125732421873,2.4947581298828125,-17.81679389312977,-41.541984732824424,-4.0,1.0
10.110000848770142,-9.402029919433593,1.3335703247070312,1.4508862060546874,-14.427480916030534,39.74045801526717,-16.900763358778626,-11.188104357910156,-4.211400720214844,1.675941162109375,-2.4885496183206106,-48.51908396946565,-6.458015267175573,1.0
10.12000060081482,-9.873687646484374,2.3127988037109373,1.8938135131835936,-20.946564885496183,38.50381679389313,-21.14503816793893,-11.920730065917969,-2.9831752685546875,0.7015010864257812,14.793893129770993,-55.465648854961835,-10.83969465648855,1.0
10.130000829696655,-9.696516723632811,1.0223241088867188,1.5634136840820312,-31.297709923664122,31.84732824427481,-21.46564885496183,-10.211270080566406,0.30885201416015623,-1.3838485595703125,10.351145038167939,-57.267175572519086,-16.793893129770993,1.0
10.140000343322754,-9.02135185546875,0.7206546997070312,1.2042834350585936,-30.885496183206108,26.85496183206107,-20.48854961832061,-10.924742175292968,-0.14604630126953125,-0.97683427734375,4.061068702290076,-49.725190839694655,-14.610687022900763,1.0
10.15000033378601,-9.162609753417968,0.2705447875976562,1.20667763671875,-24.763358778625953,28.0,-20.778625954198475,-11.271901416015623,-0.9720458740234375,-0.842758984375,12.50381679389313,-49.16030534351145,-14.473282442748092,1.0
10.160000562667847,-11.437101330566406,1.5370774658203123,1.2832920898437499,-25.282442748091604,26.48854961832061,-23.52671755725191,-10.702081420898438,0.6248866333007812,-1.6711527587890624,9.725190839694656,-47.89312977099237,-17.083969465648856,1.0
10.170000553131104,-9.9981861328125,1.5538368774414062,1.2473790649414063,-14.900763358778626,27.66412213740458,-20.53435114503817,-9.648632690429688,1.7573440185546874,-1.3383587280273437,0.6412213740458015,-40.82442748091603,-17.099236641221374,1.0
10.180000305175781,-10.345345373535155,2.2170307373046874,1.3814543579101561,-17.984732824427482,24.641221374045802,-19.923664122137403,-9.765948571777344,-0.5099649536132812,0.028730419921875,2.595419847328244,-34.38167938931298,-12.916030534351146,1.0
10.190000534057617,-9.6917283203125,1.6903063720703124,1.2641384765625,-8.290076335877863,26.65648854961832,-17.938931297709924,-10.230423693847655,-1.5538368774414062,0.29448680419921874,14.091603053435115,-34.68702290076336,-11.877862595419847,1.0
10.200001001358032,-12.387599389648436,6.787561706542968,4.039018200683594,-20.396946564885496,22.03053435114504,-21.34351145038168,-9.763554370117188,-1.0486603271484374,-0.05027823486328125,24.519083969465647,-36.2442748091603,-14.229007633587786,1.0
10.210000276565552,-9.952696301269532,3.294421484375,0.9361328491210937,-36.595419847328245,5.8320610687022905,-13.068702290076336,-9.320627062988281,1.2330138549804688,-0.7709329345703124,23.51145038167939,-36.38167938931298,-17.068702290076335,0.0
10.220000267028809,-11.710040319824218,4.697423657226563,2.0278888061523435,-32.74809160305343,7.969465648854962,-9.755725190839694,-9.746794958496093,1.659181750488281,-0.2609679809570312,13.893129770992367,-30.732824427480917,-14.748091603053435,0.0
10.230000495910645,-9.528922607421874,2.817975354003906,1.0534487304687499,-46.50381679389313,-2.4427480916030535,-4.656488549618321,-11.104307299804686,0.488417138671875,1.1611878051757811,13.297709923664122,-28.900763358778626,-9.83206106870229,0.0
10.24000072479248,-10.817003100585938,2.825157958984375,1.8195932617187498,-42.16793893129771,-1.7404580152671756,-3.7099236641221376,-11.465831750488281,-1.388636962890625,2.319981408691406,20.641221374045802,-32.396946564885496,-7.648854961832061,0.0
10.250000476837158,-9.414000927734374,1.3048399047851562,0.6536170532226562,-42.54961832061068,-6.595419847328245,-1.816793893129771,-10.77630167236328,-0.9409212524414062,1.89620771484375,30.290076335877863,-43.70992366412214,-9.603053435114504,0.0
10.260000467300415,-8.001421948242188,-0.17477672119140625,-0.08140285644531249,-23.236641221374047,-0.3053435114503817,-1.6946564885496183,-8.99501563720703,0.6105214233398437,1.407790576171875,21.450381679389313,-47.12977099236641,-13.86259541984733,0.0
10.270000696182251,-9.677363110351562,2.370259643554687,0.9624690673828125,-19.435114503816795,10.351145038167939,-7.603053435114504,-10.43871923828125,-0.8212111694335937,3.076549133300781,18.9618320610687,-45.23664122137404,-10.931297709923664,0.0
10.280000686645508,-9.600748657226562,3.27526787109375,0.9145850341796874,-30.870229007633586,9.389312977099237,-11.435114503816793,-10.39322940673828,-0.6296750366210937,2.731784094238281,22.549618320610687,-54.152671755725194,-10.854961832061068,0.0
10.290000438690186,-10.59194814453125,2.4899697265625,1.0678139404296874,-29.587786259541986,12.366412213740459,-11.435114503816793,-8.55448253173828,1.2521674682617188,1.4700398193359374,9.099236641221374,-56.50381679389313,-13.86259541984733,0.0
10.300000667572021,-9.244012609863281,1.4628572143554686,0.9169792358398436,-19.129770992366414,17.96946564885496,-7.984732824427481,-9.488221179199218,-0.21308394775390624,2.185906115722656,-3.7251908396946565,-52.595419847328245,-11.83206106870229,0.0
10.310000658035278,-9.931148486328125,2.0973206542968748,1.5059528442382812,-22.015267175572518,18.33587786259542,-8.610687022900763,-10.455478649902343,-2.2936451904296873,2.4013842651367185,-2.198473282442748,-54.99236641221374,-9.694656488549619,0.0
10.320000410079956,-9.93354268798828,1.7357962036132812,1.659181750488281,-12.67175572519084,19.603053435114504,-9.618320610687023,-10.24000050048828,-1.199495031738281,1.5705962890624998,-2.6717557251908395,-59.3587786259542,-12.564885496183207,0.0
10.330000638961792,-10.218452685546874,2.6527754394531247,1.8052280517578123,-14.51908396946565,14.793893129770993,-10.122137404580153,-9.89523546142578,-0.9504980590820312,1.7956512451171873,-10.244274809160306,-57.81679389312977,-14.778625954198473,0.0
10.340000867843628,-9.564835632324218,2.1404162841796874,1.6807295654296874,-13.404580152671755,12.091603053435115,-8.122137404580153,-9.94072529296875,-0.3184288208007812,1.678335363769531,-17.61832061068702,-53.25190839694657,-14.67175572519084,0.0
10.350000858306885,-9.375693701171874,2.0925322509765625,1.8626888916015625,-9.786259541984732,11.84732824427481,-6.595419847328245,-10.05564697265625,-0.6081272216796875,1.687912170410156,-19.022900763358777,-50.88549618320611,-13.068702290076336,0.0
10.360000610351562,-9.375693701171874,1.216254443359375,1.7597382202148437,-3.9236641221374047,11.022900763358779,-4.931297709923665,-9.588777648925781,-0.6464344482421874,1.2641384765625,-17.83206106870229,-48.93129770992366,-12.82442748091603,0.0
10.370000839233398,-9.5001921875,1.1133037719726562,1.7190367919921874,8.717557251908397,12.702290076335878,-3.7099236641221376,-9.967061511230469,-2.0446482177734375,1.66636435546875,-11.969465648854962,-45.16030534351145,-11.145038167938932,0.0
10.380000591278076,-10.97502041015625,2.2744915771484373,2.729389892578125,8.83969465648855,15.633587786259541,-7.114503816793893,-9.311050256347656,-2.291250988769531,1.0845733520507812,2.564885496183206,-50.61068702290076,-12.82442748091603,0.0
10.390000581741333,-10.687716210937499,2.7581203125,1.9105729248046874,4.122137404580153,7.770992366412214,-6.106870229007634,-8.875305554199219,-1.7094599853515624,0.6536170532226562,9.404580152671755,-47.51145038167939,-14.916030534351146,0.0
10.40000033378601,-11.702857714843748,3.6343981201171873,2.7748797241210936,-5.679389312977099,5.648854961832061,-6.5038167938931295,-8.43956085205078,-1.6639701538085936,0.0718260498046875,17.099236641221374,-47.93893129770992,-14.854961832061068,0.0
10.410000324249268,-8.966285217285156,0.0,0.9816226806640624,-5.190839694656488,-1.083969465648855,-1.9541984732824427,-7.577648254394531,-0.47644613037109373,-0.37828386230468747,16.229007633587788,-45.61832061068702,-15.786259541984732,0.0
10.420000553131104,-9.382876306152344,0.7733271362304687,1.1228805786132812,6.854961832061068,4.961832061068702,-4.458015267175573,-7.1778165771484375,-0.5003881469726562,-0.02154781494140625,10.534351145038167,-38.29007633587786,-15.297709923664122,0.0
10.43000054359436,-9.248801013183593,1.0462661254882812,1.0438719238281249,7.358778625954199,6.6106870229007635,-8.213740458015268,-7.350199096679687,-0.97683427734375,0.13168109130859373,6.396946564885496,-30.763358778625953,-14.83969465648855,0.0
10.440000534057617,-9.746794958496093,1.6136919189453125,0.86191259765625,4.595419847328245,6.106870229007634,-8.946564885496183,-8.300697155761718,-1.8770541015625,0.44532150878906246,11.633587786259541,-27.6793893129771,-13.435114503816793,0.0
10.450000524520874,-10.050858569335936,1.8507178833007811,0.45489831542968745,3.6030534351145036,5.648854961832061,-8.50381679389313,-9.07163009033203,-1.9536685546875,1.149216796875,17.221374045801525,-24.53435114503817,-13.908396946564885,0.0
10.46000051498413,-9.813832604980469,1.4700398193359374,0.1771709228515625,4.580152671755725,6.702290076335878,-7.923664122137405,-8.295908752441406,-0.9816226806640624,1.3670891479492187,20.427480916030536,-25.389312977099237,-16.748091603053435,0.0
10.470000505447388,-9.09796630859375,1.426944189453125,0.055066638183593745,5.587786259541985,8.549618320610687,-8.641221374045802,-8.372523205566406,-0.7110778930664062,1.908178723144531,15.618320610687023,-21.083969465648856,-16.9618320610687,0.0
10.480000734329224,-9.121908325195312,1.5777788940429687,0.143652099609375,4.5038167938931295,10.488549618320612,-8.580152671755725,-7.687781530761718,-0.3399766357421875,1.0869675537109373,12.83969465648855,-19.435114503816795,-15.17557251908397,0.0
10.490000486373901,-9.964667309570311,1.4628572143554686,0.5458779785156249,2.5343511450381677,11.86259541984733,-8.992366412213741,-8.030152368164062,-0.8547299926757812,0.15562310791015624,15.145038167938932,-14.82442748091603,-11.664122137404581,0.0
10.500000715255737,-9.91438907470703,0.9792284790039062,0.5770026000976562,3.9389312977099236,10.870229007633588,-9.389312977099237,-5.276820458984375,0.3950432739257812,-2.770091320800781,15.007633587786259,-12.091603053435115,-13.022900763358779,0.0
10.510000467300415,-9.662997900390625,0.7757213378906249,0.36631285400390623,9.022900763358779,11.374045801526718,-9.206106870229007,-5.604826086425781,0.12689268798828124,-2.7724855224609373,10.900763358778626,0.7786259541984732,-10.748091603053435,0.0
10.520000696182251,-9.433154541015625,0.833182177734375,0.8930372192382812,15.419847328244275,14.488549618320612,-10.030534351145038,-5.195417602539062,0.277727392578125,-2.7629087158203123,5.786259541984733,10.244274809160306,-10.641221374045802,0.0
10.530000448226929,-10.66137999267578,2.6384102294921874,1.7381904052734374,3.3740458015267176,11.19083969465649,-12.534351145038167,-6.830657336425781,-1.7860744384765623,-1.8507178833007811,7.511450381679389,20.213740458015266,-6.977099236641221,0.0
10.540000677108765,-10.31661495361328,1.1755530151367186,2.1308394775390624,4.2748091603053435,6.213740458015267,-11.099236641221374,-6.60799658203125,-1.8363526733398436,-3.057395520019531,15.083969465648854,25.328244274809162,-8.366412213740459,0.0
10.550000667572021,-9.809044201660155,0.2154781494140625,2.540247961425781,10.778625954198473,3.435114503816794,-11.419847328244275,-7.632714892578124,-1.6639701538085936,-2.6695348510742187,20.641221374045802,33.38931297709924,-9.450381679389313,0.0
10.560000658035278,-9.89523546142578,0.8020575561523438,3.299209887695312,13.801526717557252,0.7633587786259542,-13.664122137404581,-8.190563879394531,-1.1851298217773436,-1.7381904052734374,23.51145038167939,37.343511450381676,-9.923664122137405,0.0
10.570000648498535,-10.213664282226562,1.01514150390625,3.5338416503906247,16.717557251908396,-2.595419847328244,-15.450381679389313,-10.556035119628906,-1.2617442749023438,0.18914193115234373,21.16030534351145,41.43511450381679,-8.412213740458014,0.0
10.580000638961792,-10.364498986816406,1.3455413330078123,4.340687609863281,17.282442748091604,-7.557251908396947,-15.541984732824428,-10.82179150390625,-1.4006079711914061,1.5394716674804687,22.16793893129771,37.81679389312977,-7.694656488549619,0.0
10.590000867843628,-10.500968481445312,1.4053963745117186,4.955997436523437,20.549618320610687,-13.557251908396946,-14.793893129770993,-9.809044201660155,0.9265560424804687,1.9297265380859374,15.297709923664122,33.69465648854962,-8.488549618320612,0.0
10.600000381469727,-10.702081420898438,2.0374656127929685,5.9783215454101555,22.259541984732824,-20.580152671755727,-13.251908396946565,-11.736376538085937,0.8690952026367187,3.7158009765625,9.083969465648854,34.79389312977099,-1.8015267175572518,0.0
10.610000848770142,-11.690886706542969,3.2130186279296873,7.283161450195312,17.053435114503817,-30.931297709923665,-12.50381679389313,-11.987767712402343,1.3814543579101561,4.374206433105469,4.198473282442748,28.82442748091603,1.6641221374045803,0.0
10.62000036239624,-13.632584252929687,4.556165759277343,8.662221606445312,-1.1603053435114503,-49.38931297709924,-10.549618320610687,-12.526463085937499,1.5825672973632812,4.422090466308593,1.5419847328244274,20.106870229007633,5.740458015267175,0.0
10.630000829696655,-13.500903161621093,2.9975404785156248,8.559270935058594,-3.648854961832061,-69.37404580152672,-3.648854961832061,-11.226411584472656,1.8004396484374998,4.07971962890625,-15.48091603053435,15.221374045801527,6.183206106870229,0.0
10.640000581741333,-13.915100048828124,2.9448680419921875,8.17859287109375,-4.549618320610687,-86.56488549618321,1.9541984732824427,-10.479420666503906,0.44053310546874996,3.517082238769531,-31.358778625954198,12.335877862595419,7.938931297709924,0.0
10.650000810623169,-14.015656518554687,3.5577836669921874,8.300697155761718,-8.793893129770993,-102.62595419847328,6.030534351145038,-10.625466967773438,-1.0127473022460938,2.7844565307617186,-40.16793893129771,11.603053435114504,10.50381679389313,0.0
10.660000562667847,-13.80975517578125,3.0310593017578125,7.467514978027343,-6.3816793893129775,-116.73282442748092,13.435114503816793,-8.671798413085938,-1.5155296508789062,1.1468225952148436,-47.20610687022901,7.236641221374046,9.404580152671755,0.0
10.670000791549683,-13.402740893554686,2.85388837890625,6.3973068359375,-4.549618320610687,-128.74809160305344,19.541984732824428,-7.4794859863281244,-2.454056701660156,0.33039982910156246,-60.091603053435115,14.01526717557252,9.48091603053435,0.0
10.68000078201294,-12.54561669921875,1.1133037719726562,4.975151049804687,-4.519083969465649,-135.9083969465649,23.267175572519083,-8.961496813964843,-5.42047255859375,0.8092401611328125,-53.17557251908397,14.595419847328245,9.923664122137405,0.0
10.690000534057617,-11.860875024414062,-0.86191259765625,2.987963671875,3.2977099236641223,-138.03053435114504,24.30534351145038,-9.5384994140625,-6.392518432617187,0.3854664672851562,-39.221374045801525,12.977099236641221,6.458015267175573,0.0
10.700000524520874,-11.027692846679686,-2.3319524169921872,1.1851298217773436,15.572519083969466,-133.6030534351145,24.045801526717558,-8.224082702636718,-4.4005426513671875,-0.8738836059570312,-27.404580152671755,9.374045801526718,-1.9389312977099236,0.0
10.71000051498413,-9.897629663085937,-1.838746875,-0.26815058593749996,22.671755725190838,-126.25954198473282,19.282442748091604,-9.006986645507812,-2.9759926635742184,0.2537853759765625,-31.419847328244273,22.106870229007633,-3.7557251908396947,0.0
10.720000743865967,-10.022128149414062,-0.17477672119140625,-0.7996633544921875,19.404580152671755,-120.36641221374046,14.763358778625955,-8.166621862792969,-1.66636435546875,-0.7589619262695312,-22.580152671755727,17.450381679389313,-2.8702290076335877,0.0
10.730000734329224,-10.01733974609375,0.7589619262695312,-0.12689268798828124,22.213740458015266,-112.51908396946565,11.099236641221374,-8.75320126953125,0.45968671875,-0.7972691528320313,-36.54961832061068,28.458015267175572,-1.4045801526717556,0.0
10.74000072479248,-9.291896643066405,0.4429273071289062,-0.39264907226562495,23.297709923664122,-107.70992366412214,11.48091603053435,-7.278373046874999,2.9927520751953125,-2.327164013671875,-48.85496183206107,32.76335877862596,1.3587786259541985,0.0
10.750000476837158,-9.907206469726562,0.8714894042968749,0.9026140258789062,26.091603053435115,-97.63358778625954,11.526717557251908,-10.27830772705078,0.6871358764648438,-0.009576806640625,-75.86259541984732,57.23664122137404,9.419847328244275,0.0
10.760000467300415,-10.022128149414062,0.4836287353515625,1.2952630981445312,27.129770992366414,-92.36641221374046,14.213740458015268,-11.846509814453125,-5.748478186035156,2.47081611328125,-51.57251908396947,57.69465648854962,18.671755725190838,0.0
10.770000696182251,-7.7979148071289055,-3.9935283691406247,-0.15083470458984374,55.41984732824427,-86.70229007633588,19.709923664122137,-10.314220751953124,-4.781220715332031,-0.9026140258789062,-14.366412213740459,39.02290076335878,15.572519083969466,0.0
10.780000686645508,-9.962273107910155,-1.1276689819335937,1.5682020874023437,80.10687022900764,-69.09923664122137,13.816793893129772,-8.793902697753905,-2.602497204589844,-1.7357962036132812,-14.0,45.541984732824424,8.82442748091603,0.0
10.790000677108765,-12.9861498046875,3.746925598144531,3.5577836669921874,73.92366412213741,-68.09160305343511,10.030534351145038,-9.521740002441407,-2.868253588867187,-0.15322890625,3.0076335877862594,44.87022900763359,8.16793893129771,0.0
10.800000667572021,-13.326126440429686,5.84185205078125,4.620809204101562,48.25954198473283,-81.22137404580153,15.389312977099237,-9.603142858886718,-2.059013427734375,-0.6536170532226562,6.900763358778626,42.83969465648855,9.358778625954198,0.0
10.8100004196167,-12.533645690917968,4.503493322753906,4.261678955078125,60.29007633587786,-75.6793893129771,24.290076335877863,-10.429142431640624,-2.882618798828125,0.5793968017578125,13.053435114503817,42.045801526717554,9.465648854961833,0.0
10.820000410079956,-12.263100903320312,5.9208607055664055,5.173869787597656,27.389312977099237,-86.22900763358778,24.900763358778626,-11.956643090820311,-3.5601778686523438,1.6041151123046875,30.458015267175572,38.67175572519084,9.007633587786259,0.0
10.830000638961792,-11.841721411132811,4.675875842285156,4.46279189453125,-8.320610687022901,-101.57251908396947,28.213740458015266,-11.602301245117188,-1.7525556152343749,1.0797849487304687,37.221374045801525,30.870229007633586,7.022900763358779,0.0
10.840000629425049,-9.603142858886718,2.4756045166015626,3.423708374023437,-22.27480916030534,-106.35114503816794,31.786259541984734,-10.283096130371094,0.6727706665039062,0.047884033203124995,31.236641221374047,25.358778625954198,6.015267175572519,0.0
10.850000858306885,-8.805873706054687,1.0223241088867188,2.9951462768554684,-30.80916030534351,-106.36641221374046,32.0763358778626,-9.955090502929687,0.7350199096679687,0.8499415893554687,21.6793893129771,25.358778625954198,7.511450381679389,0.0
10.860000848770142,-6.610390783691406,-0.5817910034179687,2.214636535644531,-24.427480916030536,-99.96946564885496,31.267175572519083,-10.498574279785156,-0.076614453125,1.407790576171875,14.641221374045802,26.106870229007633,11.083969465648854,0.0
10.870000839233398,-5.66946953125,-1.2856862915039062,2.221819140625,-11.84732824427481,-89.5114503816794,28.442748091603054,-9.6151138671875,0.430956298828125,0.9983820922851562,6.366412213740458,24.03053435114504,12.748091603053435,0.0
10.880000352859497,-6.919242797851562,0.6416460449218749,3.392583752441406,-3.3282442748091605,-78.19847328244275,22.946564885496183,-10.589553942871094,-2.9927520751953125,2.6240450195312497,6.244274809160306,27.709923664122137,16.30534351145038,0.0
10.890000581741333,-6.591237170410156,1.1516109985351561,3.1842882080078123,4.885496183206107,-69.57251908396947,21.862595419847327,-10.522516296386717,-0.5123591552734374,0.43574470214843747,10.946564885496183,20.580152671755727,12.977099236641221,0.0
10.90000057220459,-2.5139117431640625,-2.109291662597656,-0.14604630126953125,10.83969465648855,-70.1526717557252,27.954198473282442,-9.198522778320312,-0.4381389038085937,0.03591302490234375,2.213740458015267,17.786259541984734,11.541984732824428,0.0
10.910000562667847,-5.767631799316406,2.8562825805664063,3.0813375366210938,23.984732824427482,-45.06870229007634,22.35114503816794,-8.875305554199219,-0.4381389038085937,0.11252747802734374,-3.0381679389312977,18.793893129770993,11.404580152671755,0.0
10.920000553131104,-6.907271789550781,4.57771357421875,3.8091748413085935,5.511450381679389,-42.88549618320611,20.229007633587788,-9.478644372558593,-1.2425906616210938,0.9457096557617187,-9.801526717557252,24.99236641221374,13.267175572519085,0.0
10.93000054359436,-7.165845568847656,5.051765502929687,3.7924154296875,-11.068702290076336,-42.85496183206107,22.076335877862597,-9.706093530273437,-1.5538368774414062,0.7876923461914062,-10.885496183206106,26.15267175572519,14.427480916030534,0.0
10.940000295639038,-5.046977099609375,3.071760729980469,2.442085693359375,-22.53435114503817,-43.05343511450382,26.18320610687023,-9.643844287109374,-1.599326708984375,0.47884033203125,-11.816793893129772,26.076335877862597,14.412213740458014,0.0
10.950000524520874,-4.299986181640625,2.50912333984375,2.365471240234375,-20.091603053435115,-31.938931297709924,25.908396946564885,-9.239224206542968,-1.419761584472656,0.316034619140625,-12.091603053435115,28.48854961832061,14.335877862595419,0.0
10.96000051498413,-2.7174188842773437,0.9576806640625,1.5083470458984374,-18.412213740458014,-23.34351145038168,25.16030534351145,-8.832209924316405,-1.8291700683593748,0.3758896606445312,-10.183206106870228,31.64885496183206,14.580152671755725,0.0
10.970000505447388,-2.3151930053710936,0.9145850341796874,1.4700398193359374,-10.717557251908397,-9.511450381679388,22.946564885496183,-8.8872765625,-2.166752502441406,0.7158662963867187,-6.9465648854961835,34.717557251908396,15.740458015267176,0.0
10.980000734329224,-1.85790048828125,1.5107412475585937,1.199495031738281,-6.778625954198473,4.67175572519084,20.610687022900763,-9.605537060546874,-2.4947581298828125,0.9959878906249999,2.2595419847328246,36.595419847328245,15.587786259541986,0.0
10.990000247955322,-3.268085266113281,4.170699291992188,1.1516109985351561,-27.770992366412212,15.145038167938932,15.679389312977099,-9.236830004882812,-2.6791116577148437,1.446097802734375,7.938931297709924,38.54961832061068,14.702290076335878,0.0
11.000000476837158,-0.316034619140625,0.9217676391601562,-1.8339584716796873,-36.82442748091603,25.404580152671755,15.893129770992367,-10.110713610839843,-2.9185318237304685,2.4756045166015626,14.534351145038167,41.541984732824424,13.816793893129772,0.0
11.010000705718994,0.2825157958984375,-0.6200982299804687,-2.47081611328125,-35.847328244274806,47.55725190839695,8.13740458015267,-9.533711010742186,-2.157175695800781,2.300827795410156,16.732824427480917,40.152671755725194,10.13740458015267,0.0
11.020000696182251,-0.040701428222656245,-4.220977526855468,1.0462661254882812,-27.00763358778626,60.54961832061068,2.0763358778625953,-10.749965454101561,-2.916137622070312,3.706224169921875,18.564885496183205,44.48854961832061,9.603053435114504,0.0
11.030000686645508,-4.886565588378906,-3.7229835815429686,10.426748229980468,6.3816793893129775,69.1145038167939,-2.7938931297709924,-10.273519323730468,-1.4341267944335936,2.370259643554687,19.984732824427482,38.3206106870229,7.6183206106870225,0.0
11.040000677108765,-11.008539233398437,0.3902548706054687,14.858415502929686,25.419847328244273,61.64885496183206,-4.961832061068702,-13.113042492675781,-2.9472622436523435,3.833116857910156,24.0,39.37404580152672,11.877862595419847,0.0
11.050001382827759,-15.330073229980467,2.454056701660156,10.773907470703124,18.900763358778626,46.412213740458014,-4.99236641221374,-11.099518896484375,-0.6368576416015624,0.9959878906249999,19.450381679389313,30.99236641221374,10.244274809160306,0.0
11.0600004196167,-13.421894506835937,2.3487118286132813,5.0206408813476555,27.84732824427481,37.45038167938932,-1.6793893129770991,-12.524068884277343,-1.7334020019531249,1.618480322265625,11.893129770992367,30.442748091603054,13.526717557251908,0.0
11.070000648498535,-14.949395166015623,3.1196447631835937,5.647921716308593,38.396946564885496,39.05343511450382,1.4809160305343512,-11.4538607421875,-1.5705962890624998,0.9193734375,3.7709923664122136,27.022900763358777,12.290076335877863,0.0
11.080000638961792,-11.01332763671875,1.446097802734375,6.533776330566406,44.58015267175573,25.358778625954198,6.137404580152672,-11.92551846923828,-2.7844565307617186,2.1978771240234374,2.8702290076335877,25.435114503816795,11.83206106870229,0.0
11.090000867843628,-8.02536396484375,2.5761609863281247,5.556942053222656,50.6412213740458,27.00763358778626,3.480916030534351,-10.73799444580078,-1.6519991455078125,0.9504980590820312,6.290076335877862,16.83969465648855,7.465648854961832,0.0
11.100000619888306,-5.082890124511718,3.411737365722656,2.2553379638671873,39.282442748091604,23.053435114503817,0.3511450381679389,-10.220846887207031,0.0,0.430956298828125,-3.2977099236641223,17.282442748091604,5.267175572519084,0.0
11.110000848770142,-5.724536169433593,2.138022082519531,0.296881005859375,22.290076335877863,26.198473282442748,-6.091603053435114,-10.510545288085936,0.201112939453125,0.05985504150390625,-5.557251908396947,14.50381679389313,7.32824427480916,0.0
11.12000036239624,-7.702146740722656,3.124433166503906,0.45489831542968745,3.480916030534351,25.633587786259543,-12.061068702290076,-11.37006368408203,-0.239420166015625,-0.15562310791015624,-5.923664122137405,12.687022900763358,9.083969465648854,0.0
11.130000829696655,-10.86009873046875,4.486733911132812,2.6240450195312497,-10.946564885496183,26.870229007633586,-13.969465648854962,-11.3772462890625,0.12210428466796874,-1.2210428466796874,-7.480916030534351,7.6183206106870225,7.343511450381679,0.0
11.140000581741333,-8.729259252929687,0.9193734375,2.597708801269531,-5.694656488549619,27.64885496183206,-6.427480916030534,-10.967837805175781,0.08858546142578125,-1.9991583862304687,-9.099236641221374,5.770992366412214,6.67175572519084,0.0
11.15000057220459,-10.443507641601562,1.7405846069335937,4.065354418945312,10.702290076335878,38.56488549618321,-6.442748091603053,-10.601524951171875,-0.2561795776367187,-2.2170307373046874,-9.251908396946565,8.091603053435115,6.916030534351145,0.0
11.160000562667847,-8.595183959960938,1.6472107421875,3.440467785644531,17.83206106870229,38.76335877862596,-4.2748091603053435,-10.50815108642578,-0.584185205078125,-2.0877438476562498,-5.251908396946565,10.488549618320612,6.870229007633588,0.0
11.170000553131104,-9.323021264648437,2.987963671875,3.6583401367187496,22.290076335877863,42.62595419847328,-4.854961832061068,-10.462661254882812,-0.6847416748046875,-1.8938135131835936,-0.2595419847328244,12.595419847328245,8.51908396946565,0.0
11.180000305175781,-10.160991845703125,5.204994409179688,3.9624037475585934,7.9541984732824424,38.10687022900763,-5.465648854961832,-10.28549033203125,-0.076614453125,-2.0063409912109376,5.32824427480916,13.725190839694656,9.007633587786259,0.0
11.190000295639038,-10.989385620117186,5.961562133789062,4.2329485351562495,-12.259541984732824,30.198473282442748,-4.809160305343512,-10.149020837402343,0.7589619262695312,-2.1835119140624997,7.358778625954199,14.488549618320612,10.549618320610687,0.0
11.200000286102295,-8.786720092773438,2.952050646972656,2.877830395507812,-18.885496183206108,23.068702290076335,-0.3969465648854962,-10.127473022460936,1.0821791503906248,-2.0278888061523435,4.916030534351145,14.259541984732824,11.511450381679388,0.0
11.21000051498413,-8.01818135986328,2.1356278808593747,2.597708801269531,-13.022900763358779,23.64885496183206,0.5648854961832062,-10.1131078125,1.0295067138671874,-1.6639701538085936,-0.22900763358778625,14.15267175572519,11.648854961832061,0.0
11.220000743865967,-7.062894897460937,0.3064578125,2.281674182128906,-4.106870229007634,24.53435114503817,2.6106870229007635,-10.302249743652343,0.842758984375,-1.2210428466796874,-5.343511450381679,13.86259541984733,11.251908396946565,0.0
11.230000495910645,-7.426813549804687,0.2753331909179687,3.1555577880859373,16.9618320610687,35.61832061068702,1.4045801526717556,-10.213664282226562,0.39743747558593745,-0.9361328491210937,-9.48091603053435,13.435114503816793,10.320610687022901,0.0
11.24000072479248,-8.398859423828124,2.501940734863281,3.854664672851562,23.480916030534353,40.58015267175573,-2.213740458015267,-10.187328063964843,0.08140285644531249,-0.9337386474609375,-11.251908396946565,12.473282442748092,9.053435114503817,0.0
11.250000715255737,-9.509768994140625,4.084508032226562,4.2305543334960936,12.931297709923664,37.267175572519086,-3.954198473282443,-10.129867224121092,-0.2920926025390625,-0.8116343627929687,-9.572519083969466,12.01526717557252,8.290076335877863,0.0
11.260000467300415,-8.166621862792969,2.384624853515625,3.114856359863281,9.725190839694656,33.11450381679389,-0.9312977099236641,-9.658209497070311,-0.8834604125976562,-0.7757213378906249,-7.267175572519084,10.687022900763358,8.687022900763358,0.0
11.270000696182251,-9.550470422363281,3.0454245117187497,3.9887399658203124,11.007633587786259,34.6412213740458,-3.145038167938931,-9.370905297851563,-0.7733271362304687,-0.9840168823242187,-3.6030534351145036,9.908396946564885,7.709923664122138,0.0
11.280000686645508,-8.360552197265624,2.47081611328125,3.0238766967773434,9.450381679389313,30.519083969465647,-2.366412213740458,-9.45470235595703,-0.8116343627929687,-0.7805097412109374,-1.1603053435114503,10.748091603053435,7.557251908396947,0.0
11.290000677108765,-9.062053283691405,2.4109610717773435,3.4668040039062498,18.213740458015266,34.56488549618321,-2.8396946564885495,-9.133879333496093,-0.5386953735351562,-0.6823474731445313,-2.4427480916030535,11.007633587786259,7.114503816793893,0.0
11.300000667572021,-8.470685473632813,2.990357873535156,3.4093431640625,14.274809160305344,31.17557251908397,-2.687022900763359,-9.710881933593749,-0.7517793212890624,-0.5386953735351562,-1.5419847328244274,10.381679389312977,7.435114503816794,0.0
11.310000658035278,-8.595183959960938,2.980781066894531,3.4261025756835934,7.114503816793893,27.374045801526716,-2.0,-9.787496386718749,-0.49799394531249996,-0.4165910888671875,-2.5343511450381677,9.435114503816793,7.358778625954199,0.0
11.320000648498535,-8.901641772460938,2.5330653564453125,3.5242648437499997,2.8091603053435112,27.69465648854962,-1.1908396946564885,-9.91438907470703,-0.4285620971679687,-0.44532150878906246,-2.2442748091603053,7.465648854961832,7.6183206106870225,0.0
11.330000638961792,-9.265560424804686,3.380612744140625,3.83072265625,-3.068702290076336,27.96946564885496,-2.9618320610687023,-9.70369932861328,-0.13646949462890623,-0.7422025146484375,-3.816793893129771,6.549618320610687,6.793893129770993,0.0
11.340000867843628,-9.22485899658203,2.2385785522460937,3.718195178222656,-3.435114503816794,27.51145038167939,-2.885496183206107,-10.019733947753906,-0.4860229370117187,-0.612915625,-2.4885496183206106,6.290076335877862,7.7251908396946565,0.0
11.350000858306885,-9.370905297851563,1.9656395629882812,3.5027170288085934,-3.068702290076336,26.137404580152673,-2.763358778625954,-9.70369932861328,-0.3447650390625,-0.9744400756835937,-4.2748091603053435,4.870229007633588,6.641221374045801,0.0
11.360000610351562,-8.214505895996094,1.5298948608398437,3.076549133300781,5.847328244274809,27.480916030534353,-2.33587786259542,-9.789890588378906,-1.3000515014648437,-0.82360537109375,-3.877862595419847,5.740458015267175,6.809160305343512,0.0
11.370000839233398,-9.576806640625,2.272097375488281,3.7014357666015623,8.687022900763358,30.427480916030536,-4.198473282442748,-10.338162768554687,-2.9640216552734375,-0.00239420166015625,4.33587786259542,3.8473282442748094,6.793893129770993,0.0
11.380000352859497,-8.585607153320312,2.77727392578125,3.5290532470703124,7.114503816793893,27.954198473282442,-3.5877862595419847,-10.47702646484375,-1.9776105712890624,-0.6464344482421874,10.274809160305344,1.1603053435114503,4.320610687022901,0.0
11.390000581741333,-9.861716638183593,3.447650390625,3.7205893798828122,-1.618320610687023,27.0381679389313,-4.6106870229007635,-9.469067565917967,-0.028730419921875,-1.5035586425781249,3.4656488549618323,0.2900763358778626,1.8473282442748091,0.0
11.40000057220459,-8.003816149902343,1.687912170410156,2.3918074584960936,-0.9465648854961832,24.641221374045802,-2.4885496183206106,-9.919177478027343,-0.9864110839843749,-0.6057330200195312,1.4809160305343512,3.435114503816794,3.8473282442748094,0.0
11.410000324249268,-8.968679418945312,2.2744915771484373,2.6216508178710938,-4.748091603053435,24.03053435114504,-4.2748091603053435,-10.69968721923828,-1.5586252807617187,-0.35673604736328124,7.465648854961832,0.9312977099236641,4.122137404580153,0.0
11.420000314712524,-10.144232434082031,3.756502404785156,3.1771056030273437,-10.65648854961832,24.763358778625953,-6.534351145038168,-10.594342346191405,-1.5227122558593749,0.08379705810546874,5.358778625954199,1.083969465648855,4.015267175572519,0.0
11.43000054359436,-8.008604553222655,2.2002713256835937,1.9728221679687499,-6.183206106870229,25.893129770992367,-4.0,-9.888052856445311,-0.9696516723632812,-0.02633621826171875,6.900763358778626,-2.6717557251908395,1.5572519083969465,0.0
11.440000534057617,-9.258377819824219,3.2561142578125,2.913743420410156,-9.664122137404581,28.53435114503817,-5.770992366412214,-10.649408984374999,-1.697488977050781,0.603338818359375,10.610687022900763,-5.022900763358779,1.618320610687023,0.0
11.450000762939453,-9.555258825683593,3.1316157714843746,2.767697119140625,-23.16030534351145,23.587786259541986,-5.221374045801527,-10.690110412597656,-1.2880804931640624,-0.033518823242187495,14.458015267175572,-12.335877862595419,0.5343511450381679,0.0
11.46000051498413,-9.291896643066405,2.0159177978515626,2.454056701660156,-22.977099236641223,24.091603053435115,-3.068702290076336,-10.275913525390624,-1.3742717529296875,-0.07422025146484375,15.374045801526718,-16.85496183206107,0.7938931297709924,0.0
11.470000505447388,-8.923189587402343,1.7357962036132812,2.5043349365234375,-21.34351145038168,25.61832061068702,-2.8396946564885495,-9.404424121093749,0.5626373901367188,-1.0103531005859374,12.198473282442748,-20.35114503816794,-0.5190839694656488,0.0
11.480000972747803,-9.485826977539062,2.1835119140624997,2.8131869506835936,-21.709923664122137,27.572519083969464,-3.7709923664122136,-8.336610180664062,1.2521674682617188,-1.3838485595703125,0.44274809160305345,-18.3206106870229,-0.24427480916030533,0.0
11.49000072479248,-8.499415893554687,1.9536685546875,2.5067291381835934,-21.83206106870229,28.427480916030536,-3.0381679389312977,-8.839392529296875,1.22583125,-1.1037269653320312,-12.183206106870228,-10.274809160305344,3.236641221374046,0.0
11.500000715255737,-8.29351455078125,1.9416975463867185,2.789244934082031,-13.099236641221374,34.83969465648855,-4.106870229007634,-10.457872851562499,-0.13407529296874998,-0.7924807495117187,-13.19083969465649,-5.358778625954199,7.32824427480916,0.0
11.510000705718994,-8.48505068359375,1.9488801513671874,2.5809493896484375,-14.183206106870228,34.82442748091603,-6.198473282442748,-10.824185705566405,-1.1516109985351561,-0.5865794067382812,-11.938931297709924,-5.679389312977099,6.748091603053435,0.0
11.520000696182251,-9.765948571777344,2.501940734863281,3.1962592163085937,-12.061068702290076,37.404580152671755,-8.702290076335878,-10.972626208496093,-0.6057330200195312,-0.689530078125,-9.267175572519085,-6.473282442748092,5.435114503816794,0.0
11.530000448226929,-9.17458076171875,2.039859814453125,2.6767174560546874,-18.748091603053435,32.2442748091603,-8.992366412213741,-11.319785449218749,-0.6296750366210937,-0.737414111328125,-7.7251908396946565,-8.061068702290076,4.030534351145038,0.0
11.540000677108765,-10.479420666503906,3.2154128295898436,3.7158009765625,-15.374045801526718,36.534351145038165,-10.854961832061068,-11.516109985351562,-0.9457096557617187,0.1580173095703125,-8.13740458015267,-10.870229007633588,2.351145038167939,0.0
11.550000667572021,-9.358934289550781,2.205059729003906,2.7198130859375,-18.946564885496183,30.916030534351144,-9.816793893129772,-11.956643090820311,-0.63206923828125,0.27293898925781246,-9.129770992366412,-15.34351145038168,0.5648854961832062,0.0
11.5600004196167,-8.394071020507813,1.7908628417968748,2.269703173828125,-15.007633587786259,29.480916030534353,-9.022900763358779,-11.61906065673828,-0.5195417602539062,1.0319009155273438,-11.526717557251908,-20.396946564885496,-0.7480916030534351,0.0
11.570001125335693,-8.66940421142578,1.5705962890624998,2.308010400390625,-12.076335877862595,30.15267175572519,-10.290076335877863,-11.384428894042967,-0.7948749511718749,2.0542250244140625,-14.229007633587786,-26.82442748091603,-1.786259541984733,0.0
11.580000638961792,-9.627084875488281,2.176329309082031,2.1547814941406247,-11.633587786259541,28.900763358778626,-11.969465648854962,-11.961431494140625,-2.8898014038085935,2.990357873535156,-6.67175572519084,-33.61832061068702,-2.687022900763359,0.0
11.590001106262207,-9.643844287109374,2.3535002319335936,1.8315642700195311,-10.458015267175572,28.885496183206108,-12.580152671755725,-10.500968481445312,-3.0071172851562498,2.806004345703125,3.2977099236641223,-44.99236641221374,-8.030534351145038,0.0
11.600000619888306,-10.000580334472655,2.099714855957031,1.5682020874023437,-8.763358778625955,29.129770992366414,-12.427480916030534,-9.387664709472656,-2.731784094238281,2.1068974609374997,16.27480916030534,-57.29770992366412,-12.961832061068701,0.0
11.610000848770142,-9.035717065429687,0.9864110839843749,1.4413093994140624,-1.0381679389312977,30.900763358778626,-11.32824427480916,-8.619125976562499,0.4572925170898437,0.22026655273437498,17.206106870229007,-64.58015267175573,-19.435114503816795,0.0
11.62000060081482,-10.764330664062498,3.246537451171875,2.6384102294921874,-6.809160305343512,30.641221374045802,-15.465648854961833,-9.179369165039063,1.235408056640625,0.35194764404296874,4.244274809160306,-60.58015267175573,-19.236641221374047,0.0
11.630000829696655,-10.117896215820313,1.656787548828125,1.838746875,-12.82442748091603,27.17557251908397,-13.816793893129772,-10.249577307128906,2.051830822753906,-0.36391865234375,2.2442748091603053,-59.770992366412216,-16.931297709923665,0.0
11.640000581741333,-8.542511523437499,0.7613561279296874,1.2952630981445312,-0.549618320610687,31.709923664122137,-12.900763358778626,-8.762778076171875,4.070142822265625,-2.664746447753906,-18.244274809160306,-57.38931297709924,-16.18320610687023,0.0
11.65000033378601,-9.713276135253906,1.8052280517578123,2.051830822753906,-1.0381679389312977,35.48091603053435,-16.27480916030534,-8.588001354980468,4.134786267089844,-4.620809204101562,-41.17557251908397,-40.06106870229008,-9.679389312977099,0.0
11.660000562667847,-8.817844714355468,0.6584054565429687,1.1037269653320312,2.0,36.94656488549618,-15.98473282442748,-10.78348427734375,1.3958195678710936,-4.144363073730468,-38.0763358778626,-26.702290076335878,-0.7480916030534351,0.0
11.670000553131104,-9.212887988281249,0.8690952026367187,1.1420341918945311,6.152671755725191,40.47328244274809,-18.610687022900763,-10.922347973632812,1.2282254516601563,-3.2609026611328122,-36.68702290076336,-18.38167938931298,1.8625954198473282,0.0
11.68000054359436,-11.611878051757811,2.7198130859375,2.085349645996094,3.3893129770992365,41.57251908396947,-21.17557251908397,-10.527304699707031,0.948103857421875,-3.1292215698242187,-31.786259541984734,-17.49618320610687,0.8396946564885496,0.0
11.690000534057617,-9.737218151855469,2.138022082519531,0.9409212524414062,-0.7786259541984732,36.0763358778626,-18.091603053435115,-11.348515869140625,0.19632453613281248,-1.8842367065429686,-23.801526717557252,-14.992366412213741,0.5648854961832062,0.0
11.700000524520874,-8.820238916015624,1.3575123413085937,0.37828386230468747,-0.5190839694656488,34.0,-15.099236641221374,-10.723629235839843,0.2561795776367187,-0.9648632690429687,-24.458015267175572,-14.274809160305344,-2.3053435114503817,0.0
11.710000276565552,-9.311050256347656,2.288856787109375,0.6368576416015624,2.6412213740458017,36.99236641221374,-15.374045801526718,-10.577582934570312,-0.14125789794921875,0.05985504150390625,-26.38167938931298,-14.580152671755725,-4.152671755725191,0.0
11.720000743865967,-11.777077966308592,5.200206005859375,1.9129671264648436,-4.152671755725191,39.87786259541985,-18.85496183206107,-10.462661254882812,-0.8451531860351562,0.8499415893554687,-28.15267175572519,-16.18320610687023,-6.061068702290076,0.0
11.730000257492065,-9.670180505371093,3.6918589599609373,0.6823474731445313,-10.290076335877863,35.16030534351145,-15.435114503816793,-10.905588562011719,-1.7453730102539062,1.8842367065429686,-24.53435114503817,-19.206106870229007,-6.732824427480916,0.0
11.74000072479248,-9.406818322753905,3.3351229125976563,0.6560112548828124,-14.045801526717558,34.18320610687023,-13.404580152671755,-10.742782849121093,-1.8531120849609375,2.4899697265625,-22.717557251908396,-23.51145038167939,-9.450381679389313,0.0
11.750000476837158,-9.447519750976562,3.3016040893554686,0.7445967163085937,-19.083969465648856,34.82442748091603,-14.213740458015268,-11.288660827636718,-3.1196447631835937,3.5721488769531247,-16.549618320610687,-27.14503816793893,-9.603053435114504,0.0
11.760000705718994,-7.187393383789062,0.4333505004882812,-0.7445967163085937,-11.84732824427481,36.36641221374046,-11.541984732824428,-10.273519323730468,-3.383006945800781,3.0358477050781247,-7.557251908396947,-37.63358778625954,-13.236641221374045,0.0
11.770000696182251,-8.070853796386718,0.33758243408203126,-0.39264907226562495,1.1450381679389312,44.94656488549618,-14.748091603053435,-10.019733947753906,-4.912901806640625,3.5482068603515624,1.3282442748091603,-44.94656488549618,-15.526717557251908,0.0
11.780000686645508,-11.757924353027343,3.2609026611328122,1.9297265380859374,-4.9465648854961835,51.099236641221374,-23.206106870229007,-9.41639512939453,-2.138022082519531,1.429338391113281,17.297709923664122,-56.47328244274809,-21.81679389312977,0.0
11.790000677108765,-12.052411157226562,2.9544448486328125,1.6304513305664061,-21.801526717557252,43.57251908396947,-22.48854961832061,-8.626308581542968,0.42377369384765623,1.005564697265625,9.694656488549619,-54.83969465648855,-24.946564885496183,0.0
11.800000667572021,-10.443507641601562,1.5969325073242187,1.2617442749023438,-20.9618320610687,42.091603053435115,-17.34351145038168,-9.10993731689453,-0.33758243408203126,1.0893617553710937,2.6717557251908395,-49.770992366412216,-22.091603053435115,0.0
11.810000658035278,-10.249577307128906,0.105344873046875,1.7573440185546874,-17.603053435114504,43.14503816793893,-17.480916030534353,-9.466673364257812,-0.948103857421875,0.9050082275390624,2.9770992366412212,-48.58015267175573,-20.442748091603054,0.0
11.820000886917114,-9.598354455566406,-0.814028564453125,1.7214309936523438,-7.343511450381679,41.49618320610687,-18.396946564885496,-9.284714038085937,-0.93852705078125,0.23223756103515625,6.809160305343512,-48.3206106870229,-20.82442748091603,0.0
11.830000638961792,-9.710881933593749,-0.8595183959960937,1.9752163696289062,6.473282442748092,42.213740458015266,-20.35114503816794,-9.871293444824218,-2.04943662109375,-0.2657563842773437,15.114503816793894,-45.41984732824427,-19.633587786259543,0.0
11.84000039100647,-12.014103930664062,1.7860744384765623,2.9472622436523435,8.564885496183207,40.717557251908396,-24.47328244274809,-7.979874133300781,-0.5315127685546874,-1.5753846923828123,15.86259541984733,-42.16793893129771,-22.580152671755727,0.0
11.850000858306885,-10.424354028320312,2.767697119140625,2.473210314941406,1.8015267175572518,31.603053435114504,-21.83206106870229,-7.922413293457031,0.36631285400390623,-1.0103531005859374,7.816793893129771,-30.33587786259542,-21.587786259541986,0.0
11.860000610351562,-10.488997473144531,2.2553379638671873,2.2553379638671873,-1.4045801526717556,25.801526717557252,-18.38167938931298,-8.245630517578125,-0.1867477294921875,-1.0271125122070313,5.099236641221374,-23.419847328244273,-19.0381679389313,0.0
11.870000839233398,-9.375693701171874,1.0510545288085937,1.149216796875,0.9618320610687023,19.14503816793893,-14.244274809160306,-8.712499841308594,-0.488417138671875,-0.41898529052734373,4.625954198473282,-18.061068702290076,-16.931297709923665,0.0
11.880000591278076,-9.868899243164062,1.3048399047851562,1.2976572998046874,8.961832061068701,20.458015267175572,-13.557251908396946,-8.185775476074218,-0.3495534423828125,-0.4644751220703125,6.702290076335878,-14.900763358778626,-16.80916030534351,0.0
11.890000581741333,-10.292672937011718,1.5658078857421873,1.4173673828125,12.061068702290076,20.106870229007633,-13.465648854961833,-8.001421948242188,-0.35194764404296874,0.1005564697265625,10.50381679389313,-12.580152671755725,-16.137404580152673,0.0
11.90000057220459,-11.631031665039062,2.612074011230469,1.9728221679687499,7.862595419847328,18.290076335877863,-13.938931297709924,-7.728482958984374,-0.5961562133789062,0.3184288208007812,9.954198473282442,-11.450381679389313,-15.755725190839694,0.0
11.910000324249268,-10.405200415039062,1.0917559570312498,1.1324573852539062,8.213740458015268,15.34351145038168,-11.511450381679388,-7.678204724121093,-0.9792284790039062,0.5722141967773438,7.572519083969466,-11.17557251908397,-15.572519083969466,0.0
11.920000314712524,-11.226411584472656,1.8698714965820311,1.9129671264648436,10.732824427480915,18.427480916030536,-11.969465648854962,-7.663839514160156,-1.8435352783203125,0.814028564453125,6.519083969465649,-10.793893129770993,-15.48091603053435,0.0
11.93000078201294,-10.984597216796875,1.2808978881835937,1.8219874633789062,-4.977099236641221,11.221374045801527,-14.061068702290076,-8.070853796386718,-2.91134921875,0.3184288208007812,15.32824427480916,-14.061068702290076,-16.53435114503817,0.0
11.940000534057617,-10.228029492187499,-0.6344634399414062,2.0661960327148434,11.816793893129772,15.419847328244275,-12.351145038167939,-8.180987072753906,-3.0119056884765625,0.0,21.435114503816795,-15.236641221374045,-18.82442748091603,0.0
11.950000524520874,-8.908824377441405,-1.0199299072265624,1.8531120849609375,23.69465648854962,16.9618320610687,-14.488549618320612,-7.8170684204101555,-2.224213342285156,-0.4285620971679687,26.83969465648855,-17.022900763358777,-21.16030534351145,0.0
11.96000051498413,-10.398017810058594,1.4939818359375,3.306392492675781,21.6793893129771,16.53435114503817,-21.17557251908397,-8.518569506835936,-1.1611878051757811,-0.3327940307617187,25.923664122137403,-11.267175572519085,-20.748091603053435,0.0
11.970000267028809,-10.218452685546874,2.269703173828125,3.361459130859375,16.53435114503817,10.13740458015267,-19.6793893129771,-7.299920861816406,-0.7661445312499999,-0.7829039428710937,25.068702290076335,-7.816793893129771,-20.458015267175572,0.0
11.980000972747803,-10.153809240722655,1.9991583862304687,3.81156904296875,19.587786259541986,8.870229007633588,-17.022900763358777,-7.211335400390625,-1.0534487304687499,-0.22266075439453123,22.30534351145038,-1.3129770992366412,-18.0,0.0
11.990000486373901,-8.844180932617187,1.4891934326171874,2.760514514160156,11.038167938931299,-0.5648854961832062,-13.19083969465649,-7.086836914062499,-1.0630255371093749,-0.39983167724609375,26.47328244274809,0.030534351145038167,-16.595419847328245,0.0
12.000000715255737,-9.275137231445312,2.5953145996093747,2.7748797241210936,1.5725190839694656,-8.961832061068701,-13.19083969465649,-6.059724401855468,-0.44053310546874996,-0.15562310791015624,25.81679389312977,3.2519083969465647,-16.137404580152673,0.0
12.010000705718994,-8.552088330078124,1.7501614135742187,2.655169641113281,2.2595419847328246,-11.541984732824428,-10.748091603053435,-6.459556079101562,-1.9009961181640624,0.5386953735351562,24.3206106870229,4.595419847328245,-13.679389312977099,0.0
12.020000696182251,-8.834604125976561,2.2601263671875,3.114856359863281,-2.4580152671755724,-14.870229007633588,-9.98473282442748,-6.102820031738281,-1.9847931762695312,-0.296881005859375,26.83969465648855,5.4961832061068705,-10.15267175572519,0.0
12.030000448226929,-8.923189587402343,1.7573440185546874,2.9759926635742184,-1.3435114503816794,-17.64885496183206,-7.603053435114504,-5.9783215454101555,0.39743747558593745,-1.6112977172851561,31.053435114503817,10.396946564885496,-6.473282442748092,0.0
12.040000677108765,-9.665392102050781,2.051830822753906,3.447650390625,-3.2213740458015265,-20.717557251908396,-6.0458015267175576,-7.168239770507812,2.379836450195312,-2.085349645996094,29.206106870229007,18.35114503816794,-2.381679389312977,0.0
12.050000667572021,-9.967061511230469,1.0175357055664063,4.007893579101562,-1.450381679389313,-24.15267175572519,-4.061068702290076,-9.5384994140625,2.6767174560546874,-1.149216796875,23.984732824427482,23.52671755725191,1.251908396946565,0.0
12.0600004196167,-10.663774194335938,0.6177040283203125,4.7022120605468745,3.1603053435114505,-29.419847328244273,-3.0839694656488548,-11.97100830078125,1.2114660400390624,0.7038952880859375,15.938931297709924,22.061068702290076,3.49618320610687,0.0
12.070000648498535,-11.317391247558593,0.6967126831054687,5.777208605957031,8.473282442748092,-34.58015267175573,-4.0458015267175576,-13.239935180664062,-1.199495031738281,2.4875755249023435,4.259541984732825,19.083969465648856,0.8396946564885496,0.0
12.080000400543213,-13.022062829589842,3.0885201416015624,7.996633544921875,10.610687022900763,-41.31297709923664,-5.526717557251908,-14.03241593017578,-2.3630770385742186,3.0166940917968748,1.7557251908396947,12.854961832061068,-0.3969465648854962,0.0
12.090000867843628,-16.134524987792968,5.908889697265625,10.295067138671874,-3.633587786259542,-62.778625954198475,-4.3816793893129775,-13.603853833007811,-0.507570751953125,2.712630480957031,-0.8854961832061069,6.320610687022901,0.4732824427480916,0.0
12.100000619888306,-17.2765591796875,7.335833886718749,11.458649145507811,-6.259541984732825,-86.01526717557252,5.374045801526718,-11.851298217773437,1.62805712890625,1.9847931762695312,-10.106870229007633,1.3282442748091603,4.702290076335878,0.0
12.110000848770142,-17.386692456054686,7.536946826171874,11.475408557128906,-3.5572519083969465,-108.76335877862596,19.31297709923664,-10.749965454101561,1.3814543579101561,1.7693150268554687,-20.68702290076336,-1.083969465648855,9.450381679389313,0.0
12.12000060081482,-16.50323204345703,6.306327172851562,10.761936462402343,-4.824427480916031,-133.40458015267177,33.770992366412216,-10.228029492187499,-0.3327940307617187,1.7717092285156248,-29.31297709923664,-3.114503816793893,12.15267175572519,0.0
12.130000829696655,-15.859191796874999,3.5601778686523438,9.406818322753905,-4.793893129770993,-154.3053435114504,42.961832061068705,-9.9215716796875,-2.3343466186523436,1.2928688964843749,-32.0,-5.0534351145038165,11.526717557251908,0.0
12.140000581741333,-13.84806240234375,1.467645617675781,6.102820031738281,-3.2977099236641223,-170.44274809160305,49.282442748091604,-9.689334118652344,-3.430890979003906,0.699106884765625,-28.259541984732824,-6.091603053435114,9.557251908396946,0.0
12.15000057220459,-12.648567370605468,-0.3711012573242187,3.308786694335937,0.5343511450381679,-178.29007633587787,51.16030534351145,-9.440337145996093,-3.6942531616210936,0.17477672119140625,-18.82442748091603,-5.557251908396947,6.656488549618321,0.0
12.160000324249268,-12.119448803710936,-0.2346317626953125,0.2753331909179687,1.9236641221374047,-177.22137404580153,51.69465648854962,-9.414000927734374,-3.086125939941406,0.16759411621093748,-9.511450381679388,-3.2977099236641223,4.122137404580153,0.0
12.170000553131104,-8.992621435546875,-2.5546131713867184,-3.593696691894531,6.8396946564885495,-172.3969465648855,51.64885496183206,-9.639055883789062,-2.3965958618164063,0.143652099609375,-2.2900763358778624,-0.3816793893129771,1.83206106870229,0.0
12.18000054359436,-8.78432589111328,-1.0175357055664063,-3.6080619018554687,13.267175572519085,-156.35114503816794,41.17557251908397,-9.900023864746093,-1.8722656982421875,0.07422025146484375,3.099236641221374,2.6106870229007635,0.916030534351145,0.0
12.190000534057617,-9.006986645507812,-2.051830822753906,-2.384624853515625,7.083969465648855,-147.29770992366412,33.29770992366412,-10.242394702148436,-1.3455413330078123,0.1292868896484375,6.595419847328245,4.091603053435114,1.9541984732824427,0.0
12.200000524520874,-8.449137658691406,-1.9488801513671874,-1.656787548828125,15.694656488549619,-130.10687022900763,29.114503816793892,-9.976638317871092,-0.9097966308593749,0.0047884033203125,4.702290076335878,5.129770992366412,2.6412213740458017,0.0
12.21000051498413,-8.597578161621094,-1.2761094848632812,-0.373495458984375,17.297709923664122,-114.85496183206106,23.740458015267176,-8.935160595703124,-0.469263525390625,0.06464344482421874,-2.3969465648854964,10.213740458015268,2.732824427480916,0.0
12.220000743865967,-10.520122094726561,0.4860229370117187,1.35990654296875,20.33587786259542,-100.06106870229007,20.442748091603054,-9.449913952636718,-0.7924807495117187,-0.08140285644531249,-4.442748091603053,14.595419847328245,5.66412213740458,0.0
12.230000495910645,-10.079588989257813,0.8762778076171874,1.005564697265625,18.610687022900763,-97.46564885496183,19.893129770992367,-10.0748005859375,-0.316034619140625,-0.062249243164062495,-12.778625954198473,21.267175572519083,7.175572519083969,0.0
12.24000072479248,-12.684480395507812,5.082890124511718,2.8658593872070313,3.3587786259541983,-94.12213740458016,15.877862595419847,-8.609549169921875,-0.1197100830078125,-1.1659762084960936,-19.46564885496183,21.709923664122137,7.603053435114504,0.0
12.250000238418579,-11.982979309082031,5.57370146484375,2.7940333374023436,-23.328244274809162,-108.94656488549619,19.64885496183206,-9.023746057128905,-0.7110778930664062,-0.40940848388671874,-30.80916030534351,31.389312977099237,10.488549618320612,0.0
12.260000705718994,-1.8746598999023436,-4.867411975097656,-2.1978771240234374,-3.984732824427481,-111.12977099236642,36.29007633587786,-9.428366137695312,-2.940079638671875,0.033518823242187495,-25.64885496183206,33.66412213740458,13.740458015267176,0.0
12.270000457763672,-1.254561669921875,-6.940790612792968,-1.5059528442382812,43.29770992366412,-69.23664122137404,28.83969465648855,-9.574412438964844,-3.7205893798828122,0.009576806640625,-14.992366412213741,36.56488549618321,12.106870229007633,0.0
12.280000686645508,-9.016563452148437,1.5658078857421873,2.6575638427734374,44.80916030534351,-47.74045801526717,5.480916030534351,-5.334281298828125,-0.2609679809570312,-3.076549133300781,-13.053435114503817,36.152671755725194,2.6106870229007635,0.0
12.290000677108765,-9.792284790039062,4.060566015625,3.2920272827148436,26.27480916030534,-53.51145038167939,3.6793893129770994,-8.597578161621094,-0.23223756103515625,-0.4860229370117187,-25.068702290076335,57.20610687022901,9.206106870229007,0.0
12.300000667572021,-6.136338854980468,2.4157494750976563,1.3862427612304686,12.885496183206106,-58.82442748091603,15.129770992366412,-7.062894897460937,1.5538368774414062,-2.8275521606445313,-36.54961832061068,59.587786259541986,12.885496183206106,0.0
12.310000658035278,-8.406042028808594,4.5585599609375,3.028665100097656,-2.1526717557251906,-47.38931297709924,17.19083969465649,-8.204929089355469,0.59376201171875,-1.8028338500976562,-59.083969465648856,72.19847328244275,18.015267175572518,0.0
12.320000648498535,-8.29351455078125,4.580107775878906,3.009511486816406,-26.15267175572519,-54.12213740458015,20.3206106870229,-4.8650177734375,4.017470385742187,-4.7931917236328125,-60.778625954198475,66.91603053435115,17.358778625954198,0.0
12.330000638961792,-7.582436657714843,2.906560815429687,3.229778039550781,-35.19083969465649,-55.7557251908397,22.076335877862597,-8.573636145019531,0.38786066894531246,-2.0087351928710935,-87.86259541984732,84.58015267175573,22.30534351145038,0.0
12.340000629425049,-6.2584431396484375,-0.45968671875,2.7964275390625,-32.33587786259542,-56.656488549618324,22.366412213740457,-5.8226984375,0.8499415893554687,-2.6958710693359373,-75.25190839694656,73.96946564885496,22.35114503816794,0.0
12.350001096725464,-5.856217260742187,-0.7206546997070312,3.208230224609375,-16.47328244274809,-49.587786259541986,17.6793893129771,-11.3006318359375,-4.541800549316406,1.0965443603515623,-62.25954198473283,79.05343511450381,25.6793893129771,0.0
12.360000610351562,-6.040570788574218,-0.7134720947265625,3.3710359375,-1.3893129770992367,-44.74809160305343,13.938931297709924,-10.232817895507813,-6.782773303222656,1.7381904052734374,-25.69465648854962,67.29770992366412,23.69465648854962,0.0
12.370000839233398,-5.267243652343749,-0.13646949462890623,3.6727053466796873,14.641221374045802,-40.33587786259542,12.916030534351146,-10.319009155273436,-4.510675927734375,0.5003881469726562,15.679389312977099,52.25954198473283,18.80916030534351,0.0
12.380000591278076,-5.025429284667968,0.7302315063476562,4.285620971679688,25.419847328244273,-36.29007633587786,12.931297709923664,-11.439495532226562,-5.286397265624999,2.6144682128906247,35.57251908396947,49.06870229007634,16.65648854961832,0.0
12.390000343322754,-6.423643054199219,3.0980969482421874,5.025429284667968,33.770992366412216,-28.33587786259542,13.282442748091603,-9.279925634765624,-0.22266075439453123,-0.086191259765625,40.83969465648855,36.38167938931298,9.557251908396946,0.0
12.40000057220459,-4.00310517578125,1.8531120849609375,3.385401147460937,43.02290076335878,-22.412213740458014,18.519083969465647,-11.58075343017578,-0.8978256225585937,1.675941162109375,41.23664122137404,34.30534351145038,11.267175572519085,0.0
12.410000801086426,-4.975151049804687,4.637568615722656,3.6056677001953124,42.229007633587784,-5.099236641221374,17.64885496183206,-10.498574279785156,0.6416460449218749,1.93451494140625,23.633587786259543,34.87022900763359,10.198473282442748,0.0
12.420000314712524,-1.7453730102539062,1.9704279663085937,0.9648632690429687,24.48854961832061,-6.396946564885496,21.541984732824428,-11.286266625976562,-0.14125789794921875,1.7980454467773437,22.091603053435115,29.923664122137403,11.587786259541986,0.0
12.430000305175781,-1.0103531005859374,2.360682836914062,-0.4644751220703125,32.091603053435115,19.740458015267176,17.374045801526716,-10.905588562011719,-0.7900865478515624,1.6519991455078125,15.465648854961833,26.80916030534351,10.977099236641221,0.0
12.440000534057617,0.06464344482421874,1.3910311645507811,-2.327164013671875,18.47328244274809,30.53435114503817,12.458015267175572,-11.044452258300781,-1.5059528442382812,2.7916391357421872,8.564885496183207,25.236641221374047,8.16793893129771,0.0
12.450000524520874,-1.5634136840820312,3.7014357666015623,-1.235408056640625,6.106870229007634,47.3587786259542,6.244274809160306,-10.211270080566406,-1.5586252807617187,2.4947581298828125,1.7099236641221374,18.0,6.183206106870229,0.0
12.46000051498413,-2.8945898071289062,1.9632453613281249,3.5913024902343746,-0.8549618320610687,52.458015267175576,4.595419847328245,-11.451466540527344,-3.404554760742187,3.6942531616210936,5.511450381679389,12.65648854961832,6.549618320610687,0.0
12.470000505447388,-7.639897497558593,4.228160131835938,12.342109558105468,18.83969465648855,52.80916030534351,3.4656488549618323,-9.97903251953125,-2.959233251953125,1.9225439331054686,0.8091603053435115,6.152671755725191,4.67175572519084,0.0
12.480000734329224,-7.436390356445312,4.046200805664062,5.540182641601562,3.9389312977099236,43.404580152671755,6.870229007633588,-11.29344923095703,-6.057330200195312,3.009511486816406,12.687022900763358,3.8625954198473282,6.549618320610687,0.0
12.490000486373901,-9.552864624023437,1.1875240234375,-3.1459809814453124,-4.427480916030534,56.56488549618321,5.786259541984733,-11.441889733886718,-4.57771357421875,0.44532150878906246,35.11450381679389,-9.786259541984732,5.557251908396947,0.0
12.500000715255737,-13.958195678710936,-0.3687070556640625,1.8076222534179687,-1.6641221374045803,55.19083969465649,-1.7099236641221374,-14.930241552734374,-5.193023400878906,0.5746083984375,48.045801526717554,-9.893129770992367,6.137404580152672,0.0
12.510000705718994,-16.165649609375,4.058171813964844,10.352527978515624,31.14503816793893,53.87786259541985,5.801526717557252,-12.011709729003906,-1.0630255371093749,-2.8993782104492185,45.847328244274806,-17.14503816793893,-0.732824427480916,0.0
12.520000696182251,-13.570335009765625,4.7931917236328125,9.885658654785155,38.16793893129771,49.06870229007634,16.82442748091603,-14.336479541015624,-1.7190367919921874,-0.26815058593749996,45.29770992366412,-11.801526717557252,-1.4198473282442747,0.0
12.530000686645508,-9.528922607421874,3.038241906738281,5.427655163574219,34.35114503816794,50.213740458015266,19.84732824427481,-11.891999645996092,3.8139632446289062,-3.0119056884765625,37.083969465648856,-17.251908396946565,-6.183206106870229,0.0
12.540000677108765,-6.9360022094726554,-0.22744915771484372,0.16998831787109375,5.923664122137405,42.29007633587786,10.67175572519084,-12.186486450195313,3.0142998901367184,-2.2170307373046874,30.641221374045802,-21.19083969465649,-1.3740458015267176,0.0
12.550000429153442,-5.674257934570313,-0.93852705078125,-1.0342951171875,-1.2671755725190839,42.0,-0.9923664122137404,-12.157756030273436,5.360617517089843,-2.1499930908203124,7.251908396946565,-5.251908396946565,2.6717557251908395,0.0
12.560000658035278,-5.240907434082031,-3.6487633300781246,-0.20350714111328125,5.893129770992366,44.94656488549618,-7.877862595419847,-11.899182250976562,3.1364041748046874,-1.1444283935546875,-13.893129770992367,1.9389312977099236,9.877862595419847,0.0
12.570000648498535,-8.98304462890625,-2.461239306640625,2.114080065917969,31.251908396946565,62.595419847328245,-13.938931297709924,-11.968614099121092,-0.6536170532226562,0.033518823242187495,-9.068702290076336,0.07633587786259542,15.145038167938932,0.0
12.580000638961792,-11.918335864257811,1.6998831787109374,2.748543505859375,38.916030534351144,67.32824427480917,-19.358778625954198,-12.72997022705078,-2.090138049316406,-0.22505495605468748,0.5190839694656488,-4.961832061068702,14.229007633587786,0.0
12.590000867843628,-12.916717956542968,4.390965844726562,3.1842882080078123,32.30534351145038,68.16793893129771,-20.519083969465647,-10.457872851562499,-0.33758243408203126,-1.5251064575195312,-4.122137404580153,-10.076335877862595,8.076335877862595,0.0
12.600000381469727,-12.282254516601562,4.204218115234375,2.3511060302734372,15.435114503816793,62.213740458015266,-20.65648854961832,-9.624690673828125,0.8116343627929687,-1.5203180541992187,-11.893129770992367,-8.793893129770993,5.7251908396946565,0.0
12.610000848770142,-10.742782849121093,3.7924154296875,2.2601263671875,3.068702290076336,56.900763358778626,-20.091603053435115,-9.481038574218749,-1.0295067138671874,-0.7661445312499999,-13.404580152671755,-6.885496183206107,7.877862595419847,0.0
12.62000060081482,-10.939107385253905,3.5984850952148437,1.5298948608398437,-5.450381679389313,53.17557251908397,-19.297709923664122,-9.469067565917967,-2.3223756103515623,-0.2609679809570312,-3.8931297709923665,-11.908396946564885,8.702290076335878,0.0
12.630000829696655,-9.303867651367186,3.1387983764648437,0.8283937744140625,-9.419847328244275,47.587786259541986,-16.50381679389313,-9.89523546142578,-1.13006318359375,-1.4820108276367188,-1.1755725190839694,-15.053435114503817,7.709923664122138,0.0
12.640000581741333,-9.753977563476562,2.93050283203125,1.5562310791015623,-10.259541984732824,49.43511450381679,-14.442748091603054,-10.50815108642578,-1.458068811035156,-0.7015010864257812,3.0076335877862594,-10.748091603053435,7.603053435114504,0.0
12.65000033378601,-9.603142858886718,2.4349030883789062,1.7788918334960937,-7.114503816793893,50.58015267175573,-12.67175572519084,-10.098742602539062,-2.384624853515625,-0.8978256225585937,13.511450381679388,-15.221374045801527,7.587786259541985,0.0
12.660000324249268,-8.176198669433592,3.1076737548828124,2.3295582153320313,-1.8473282442748091,51.6793893129771,-10.763358778625955,-10.275913525390624,-0.7876923461914062,-1.7645266235351562,20.27480916030534,-17.114503816793892,4.625954198473282,0.0
12.670000553131104,-9.064447485351561,2.8898014038085935,3.0741549316406247,-3.282442748091603,53.49618320610687,-10.030534351145038,-8.702923034667968,1.7357962036132812,-2.877830395507812,10.366412213740459,-16.793893129770993,0.8702290076335878,0.0
12.68000078201294,-9.670180505371093,3.9432501342773434,3.8139632446289062,-7.709923664122138,52.54961832061068,-9.587786259541986,-9.054870678710937,1.4437036010742186,-2.825157958984375,-0.8396946564885496,-7.465648854961832,2.900763358778626,0.0
12.690000534057617,-9.124302526855468,3.356670727539062,3.5577836669921874,-13.725190839694656,47.969465648854964,-8.67175572519084,-9.622296472167967,0.25139117431640623,-1.6519991455078125,-5.755725190839694,2.2900763358778624,6.625954198473282,0.0
12.700000524520874,-10.769119067382812,3.296815686035156,4.584896179199219,-17.17557251908397,45.64885496183206,-9.206106870229007,-9.79946739501953,-0.05985504150390625,-1.8435352783203125,-1.5419847328244274,3.236641221374046,6.351145038167939,0.0
12.71000051498413,-9.198522778320312,1.3431471313476562,3.1603461914062496,-17.572519083969464,37.465648854961835,-6.793893129770993,-9.679757312011718,-0.24899697265624998,-2.1308394775390624,2.6564885496183206,3.6946564885496183,5.312977099236641,0.0
12.720000743865967,-7.632714892578124,1.3359645263671873,3.114856359863281,-3.312977099236641,39.603053435114504,-6.229007633587786,-8.815450512695312,0.0047884033203125,-1.66636435546875,6.396946564885496,5.938931297709924,4.290076335877862,0.0
12.730000495910645,-6.912060192871094,1.0390835205078124,2.8012159423828122,2.6564885496183206,39.41984732824427,-6.763358778625954,-9.284714038085937,0.30406361083984373,-1.659181750488281,9.633587786259541,7.282442748091603,4.488549618320611,0.0
12.740000486373901,-9.904812268066406,2.9472622436523435,4.029441394042968,2.9770992366412212,41.31297709923664,-9.923664122137405,-9.246406811523437,-0.13646949462890623,-0.814028564453125,11.48091603053435,8.274809160305344,4.259541984732825,0.0
12.750000476837158,-9.974244116210937,4.199429711914062,3.938461730957031,-10.580152671755725,33.954198473282446,-10.870229007633588,-9.60793126220703,0.3399766357421875,-0.7206546997070312,12.229007633587786,7.6183206106870225,4.290076335877862,0.0
12.760000705718994,-9.069235888671875,2.250549560546875,2.8945898071289062,-13.557251908396946,31.786259541984734,-8.763358778625955,-9.655815295410155,0.7948749511718749,-0.6679822631835937,9.86259541984733,6.656488549618321,3.8931297709923665,0.0
12.770000696182251,-7.453149768066406,0.5003881469726562,1.8698714965820311,-3.9236641221374047,32.87022900763359,-7.404580152671755,-9.617508068847656,0.6775590698242188,0.0047884033203125,5.00763358778626,4.870229007633588,4.5038167938931295,0.0
12.780000448226929,-8.358157995605469,1.8243816650390623,2.1811177124023438,0.04580152671755725,35.908396946564885,-11.038167938931299,-9.576806640625,0.4836287353515625,0.20350714111328125,1.3587786259541985,3.877862595419847,4.732824427480916,0.0
12.790000677108765,-8.82981572265625,2.6216508178710938,2.099714855957031,-6.183206106870229,33.16030534351145,-13.038167938931299,-9.5001921875,-0.0909796630859375,0.430956298828125,-1.9389312977099236,1.1297709923664123,4.549618320610687,0.0
12.800000429153442,-10.378864196777343,3.5577836669921874,2.6240450195312497,-13.068702290076336,32.99236641221374,-13.32824427480916,-9.639055883789062,-0.3399766357421875,0.6679822631835937,-5.114503816793893,-2.1526717557251906,4.290076335877862,0.0
12.8100004196167,-9.794678991699218,2.7820623291015623,2.5522189697265625,-10.610687022900763,35.12977099236641,-12.290076335877863,-9.832986218261718,0.031124621582031248,0.5961562133789062,-9.572519083969466,-5.038167938931298,3.9236641221374047,0.0
12.820000648498535,-10.364498986816406,3.603273498535156,3.0454245117187497,-20.38167938931298,29.770992366412212,-13.297709923664122,-9.720458740234374,-0.2561795776367187,0.9648632690429687,-13.969465648854962,-8.946564885496183,3.7557251908396947,0.0
12.830000638961792,-9.80665,2.645592834472656,2.3223756103515623,-19.49618320610687,28.290076335877863,-11.358778625954198,-9.5001921875,0.02633621826171875,0.7541735229492187,-18.458015267175572,-11.297709923664122,3.5267175572519083,0.0
12.840000629425049,-9.210493786621093,2.250549560546875,2.133233679199219,-15.923664122137405,28.16793893129771,-9.969465648854962,-9.560047229003906,-0.22744915771484372,0.5722141967773438,-22.549618320610687,-13.32824427480916,3.6030534351145036,0.0
12.850000619888306,-8.858546142578124,2.1356278808593747,2.1739351074218747,-9.267175572519085,30.763358778625953,-10.50381679389313,-9.603142858886718,-1.1516109985351561,0.8738836059570312,-23.19083969465649,-15.099236641221374,3.8473282442748094,0.0
12.860000610351562,-10.47702646484375,4.027047192382812,3.0813375366210938,-17.938931297709924,27.954198473282442,-12.076335877862595,-10.357316381835936,-2.001552587890625,0.59376201171875,-13.83206106870229,-20.33587786259542,2.7022900763358777,0.0
12.870000839233398,-9.105148913574219,2.020706201171875,1.6472107421875,-18.625954198473284,24.27480916030534,-9.206106870229007,-10.666168395996094,-2.540247961425781,1.2210428466796874,-1.9541984732824427,-25.64885496183206,1.0381679389312977,0.0
12.880000352859497,-11.394005700683593,3.9504327392578125,3.1842882080078123,-19.206106870229007,25.52671755725191,-9.694656488549619,-10.275913525390624,-1.7812860351562498,-0.08858546142578125,7.801526717557252,-31.81679389312977,-2.5801526717557253,0.0
12.890000820159912,-9.964667309570311,2.3582886352539063,2.6719290527343746,-19.068702290076335,23.83206106870229,-8.045801526717558,-10.149020837402343,0.7015010864257812,-1.3527239379882812,11.587786259541986,-34.916030534351144,-5.190839694656488,0.0
12.90000057220459,-9.418789331054686,2.4492682983398435,2.1212626708984375,-17.022900763358777,22.198473282442748,-5.801526717557252,-9.074024291992187,2.7724855224609373,-2.109291662597656,-3.2061068702290076,-30.0,-4.809160305343512,0.0
12.910000562667847,-9.234435803222656,2.8203695556640622,2.1260510742187497,-14.870229007633588,22.366412213740457,-4.717557251908397,-9.543287817382812,2.748543505859375,-1.3742717529296875,-16.50381679389313,-22.35114503816794,-1.4961832061068703,0.0
12.920000553131104,-9.840168823242188,3.047818713378906,2.5809493896484375,-19.00763358778626,20.03053435114504,-4.061068702290076,-10.230423693847655,0.5482721801757812,-0.6655880615234374,-24.137404580152673,-16.53435114503817,2.3053435114503817,0.0
12.93000078201294,-10.029310754394531,2.3487118286132813,2.501940734863281,-17.81679389312977,19.6793893129771,-2.7938931297709924,-10.488997473144531,-0.9074024291992187,-0.4955997436523437,-19.17557251908397,-17.14503816793893,1.4961832061068703,0.0
12.940000295639038,-9.811438403320311,2.1404162841796874,2.2098481323242187,-16.47328244274809,16.610687022900763,-1.83206106870229,-10.043675964355469,-0.9337386474609375,-0.63206923828125,-15.84732824427481,-17.282442748091604,-1.1145038167938932,0.0
12.950000524520874,-9.07163009033203,1.2880804931640624,2.3415292236328122,-10.290076335877863,18.18320610687023,-1.5725190839694656,-9.507374792480467,-1.005564697265625,-0.5434837768554687,-11.038167938931299,-17.206106870229007,-4.656488549618321,0.0
12.96000051498413,-10.254365710449218,2.7844565307617186,3.208230224609375,-12.83969465648855,17.69465648854962,-4.549618320610687,-9.090783703613281,-1.0079588989257813,-0.02633621826171875,-6.091603053435114,-17.267175572519083,-6.412213740458015,0.0
12.970000743865967,-9.53131680908203,3.0885201416015624,2.3391350219726563,-25.984732824427482,7.801526717557252,-4.473282442748092,-9.162609753417968,-0.6105214233398437,0.1149216796875,-2.0916030534351147,-18.244274809160306,-7.267175572519084,0.0
12.980000257492065,-8.552088330078124,0.7661445312499999,1.8028338500976562,-16.33587786259542,10.01526717557252,-2.030534351145038,-9.315838659667968,-0.51714755859375,0.7517793212890624,-0.24427480916030533,-18.549618320610687,-6.99236641221374,0.0
12.990000486373901,-8.149862451171874,0.469263525390625,1.5945383056640625,-11.389312977099237,10.534351145038167,-2.6412213740458017,-9.397241516113281,-0.689530078125,1.3335703247070312,1.2366412213740459,-19.96946564885496,-6.198473282442748,0.0
13.000000476837158,-10.409988818359375,2.8012159423828122,2.8993782104492185,-12.122137404580153,13.053435114503817,-7.145038167938932,-9.995791931152343,-1.3551181396484375,1.697488977050781,10.305343511450381,-22.213740458015266,-5.312977099236641,0.0
13.010000944137573,-9.938331091308592,2.4564509033203126,2.612074011230469,-11.251908396946565,10.274809160305344,-6.519083969465649,-9.677363110351562,-1.8363526733398436,1.4987702392578124,18.366412213740457,-27.603053435114504,-5.847328244274809,0.0
13.020000696182251,-10.115502014160155,2.6886884643554687,2.454056701660156,-12.045801526717558,7.786259541984733,-4.748091603053435,-10.20887587890625,-2.0374656127929685,1.4796166259765624,25.129770992366414,-31.557251908396946,-7.816793893129771,0.0
13.030000686645508,-10.228029492187499,3.143586779785156,2.5713725830078125,-14.961832061068701,5.0534351145038165,-3.969465648854962,-9.636661682128906,-0.20829554443359374,0.7876923461914062,25.52671755725191,-35.38931297709924,-10.900763358778626,0.0
13.040000438690186,-10.991779821777342,3.6583401367187496,2.877830395507812,-16.076335877862597,5.282442748091603,-2.9160305343511452,-8.645462194824217,0.8667010009765624,0.229843359375,15.282442748091603,-36.51908396946565,-11.786259541984732,0.0
13.050000667572021,-8.52335791015625,2.5378537597656248,1.3335703247070312,-19.83206106870229,-2.366412213740458,1.1908396946564885,-8.839392529296875,1.5873557006835937,0.19153613281249998,2.564885496183206,-31.435114503816795,-9.038167938931299,0.0
13.060000658035278,-9.428366137695312,1.8052280517578123,1.675941162109375,-17.267175572519083,-0.6870229007633588,2.33587786259542,-9.574412438964844,-0.46686932373046874,1.0271125122070313,-2.213740458015267,-25.267175572519083,-4.061068702290076,0.0
13.070000648498535,-9.14824454345703,0.5770026000976562,1.7717092285156248,-11.541984732824428,2.16793893129771,1.7251908396946565,-9.967061511230469,-1.2928688964843749,0.9696516723632812,3.7709923664122136,-26.18320610687023,-3.6946564885496183,0.0
13.080000638961792,-8.2743609375,-0.8954314208984374,1.1133037719726562,8.916030534351146,7.083969465648855,1.1908396946564885,-9.706093530273437,-0.8786720092773437,0.6392518432617187,7.32824427480916,-25.46564885496183,-5.145038167938932,0.0
13.09000039100647,-10.43871923828125,2.461239306640625,2.3319524169921872,9.664122137404581,10.549618320610687,-4.99236641221374,-10.014945544433592,-0.7158662963867187,0.5913678100585937,12.412213740458014,-24.198473282442748,-5.786259541984733,0.0
13.100000619888306,-10.733206042480468,2.1811177124023438,2.0566192260742184,2.900763358778626,4.305343511450381,-6.259541984732825,-10.386046801757812,-0.5506663818359374,0.8307879760742187,14.748091603053435,-24.366412213740457,-7.32824427480916,0.0
13.110000848770142,-9.892841259765625,1.2378022583007813,1.714248388671875,10.83969465648855,4.244274809160306,-5.541984732824427,-10.070012182617187,-0.5746083984375,0.7206546997070312,15.541984732824428,-25.87786259541985,-8.732824427480915,0.0
13.120000839233398,-9.160215551757812,0.5770026000976562,1.5155296508789062,15.877862595419847,4.641221374045801,-6.213740458015267,-10.084377392578125,-0.28969840087890625,0.8307879760742187,13.709923664122137,-27.374045801526716,-10.916030534351146,0.0
13.130000829696655,-10.512939489746094,1.4820108276367188,2.5570073730468748,21.19083969465649,8.580152671755725,-10.946564885496183,-10.958260998535156,-0.6392518432617187,1.158793603515625,15.679389312977099,-27.419847328244273,-10.183206106870228,0.0
13.140000581741333,-9.97903251953125,2.104503259277344,1.8938135131835936,22.18320610687023,6.625954198473282,-11.664122137404581,-9.995791931152343,0.6584054565429687,0.5913678100585937,8.045801526717558,-27.14503816793893,-12.0,0.0
13.15000057220459,-9.775525378417969,2.418143676757812,1.429338391113281,19.81679389312977,5.022900763358779,-11.587786259541986,-10.845733520507812,-0.35194764404296874,1.1731588134765625,4.122137404580153,-24.778625954198475,-9.923664122137405,0.0
13.160000324249268,-9.512163195800781,2.2936451904296873,1.0797849487304687,16.702290076335878,5.1603053435114505,-11.648854961832061,-10.704475622558594,-0.7565677246093749,1.0773907470703123,4.2748091603053435,-26.045801526717558,-10.381679389312977,0.0
13.170000553131104,-9.435548742675781,1.7908628417968748,0.7038952880859375,16.717557251908396,6.229007633587786,-12.259541984732824,-11.432312927246093,-1.9632453613281249,1.3742717529296875,8.83969465648855,-27.19083969465649,-10.65648854961832,0.0
13.18000054359436,-8.145074047851562,0.44532150878906246,0.12210428466796874,26.900763358778626,11.053435114503817,-11.98473282442748,-11.461043347167967,-1.8650830932617186,1.2593500732421874,14.961832061068701,-28.076335877862597,-11.969465648854962,0.0
13.190000295639038,-9.854534033203125,1.3431471313476562,0.8978256225585937,29.81679389312977,18.931297709923665,-16.12213740458015,-10.050858569335936,-1.8435352783203125,0.59376201171875,18.916030534351144,-32.58015267175573,-15.206106870229007,0.0
13.200000524520874,-10.259154113769531,2.703053674316406,1.0486603271484374,27.404580152671755,20.33587786259542,-18.99236641221374,-10.409988818359375,-1.6017209106445311,0.8595183959960937,24.916030534351144,-34.50381679389313,-16.610687022900763,0.0
13.21000051498413,-9.943119494628906,3.0526071166992184,0.5817910034179687,21.984732824427482,19.480916030534353,-18.65648854961832,-10.35492218017578,-0.8044517578125,0.8116343627929687,20.244274809160306,-32.83969465648855,-18.68702290076336,0.0
13.220000743865967,-10.86009873046875,2.5546131713867184,1.1276689819335937,14.65648854961832,20.946564885496183,-17.893129770992367,-10.407594616699217,-0.4429273071289062,0.33518823242187495,14.580152671755725,-31.770992366412212,-19.450381679389313,0.0
13.230000495910645,-10.232817895507813,2.5450363647460934,1.3623007446289062,11.603053435114504,22.213740458015266,-18.48854961832061,-10.529698901367187,-0.41419688720703124,0.2561795776367187,9.236641221374045,-29.358778625954198,-19.419847328244273,0.0
13.24000072479248,-10.36210478515625,2.24097275390625,1.3623007446289062,6.931297709923665,21.328244274809162,-19.00763358778626,-10.32379755859375,-1.3814543579101561,0.9241618408203125,4.091603053435114,-24.106870229007633,-18.076335877862597,0.0
13.250000476837158,-9.124302526855468,1.0917559570312498,1.1372457885742187,4.351145038167939,18.68702290076336,-18.137404580152673,-9.488221179199218,-0.9193734375,-0.16041151123046873,5.145038167938932,-24.076335877862597,-21.267175572519083,0.0
13.260000467300415,-10.850521923828124,1.3527239379882812,1.3623007446289062,6.9465648854961835,18.80916030534351,-18.870229007633586,-9.739612353515625,-0.9457096557617187,-0.02154781494140625,8.366412213740459,-22.076335877862597,-21.083969465648856,0.0
13.270000457763672,-9.801861596679688,1.4341267944335936,1.1659762084960936,11.221374045801527,20.213740458015266,-18.885496183206108,-9.387664709472656,-0.8930372192382812,0.35673604736328124,10.900763358778626,-20.27480916030534,-20.900763358778626,0.0
13.280000686645508,-9.682151513671874,1.1085153686523437,0.9241618408203125,12.564885496183207,19.6793893129771,-19.053435114503817,-9.85692823486328,-1.4891934326171874,0.6440402465820312,19.267175572519083,-22.15267175572519,-19.954198473282442,0.0
13.290000677108765,-10.283096130371094,0.6943184814453125,1.2617442749023438,14.702290076335878,20.85496183206107,-20.625954198473284,-8.542511523437499,-0.7733271362304687,0.49320554199218747,19.984732824427482,-24.65648854961832,-21.755725190839694,0.0
13.300000667572021,-9.107543115234375,1.5466542724609373,0.7757213378906249,16.076335877862597,19.297709923664122,-20.564885496183205,-9.617508068847656,-1.4149731811523436,1.1133037719726562,20.9618320610687,-22.99236641221374,-20.977099236641223,0.0
13.310000658035278,-10.77630167236328,1.917755529785156,1.6807295654296874,10.854961832061068,20.244274809160306,-21.740458015267176,-9.509768994140625,-2.0278888061523435,1.5801730957031248,22.717557251908396,-24.763358778625953,-21.84732824427481,0.0
13.320000648498535,-10.254365710449218,2.152387292480469,1.369483349609375,9.267175572519085,17.236641221374047,-20.076335877862597,-8.817844714355468,-0.5865794067382812,1.5322890624999999,23.14503816793893,-28.702290076335878,-23.358778625954198,0.0
13.330000638961792,-10.251971508789062,2.3774422485351563,1.3910311645507811,3.954198473282443,14.763358778625955,-17.404580152671755,-7.975085729980468,-1.4437036010742186,2.133233679199219,11.84732824427481,-27.480916030534353,-24.106870229007633,0.0
13.340000629425049,-10.450690246582031,1.8459294799804686,1.9823989746093749,2.50381679389313,15.603053435114504,-15.664122137404581,-6.7803791015625,-1.2928688964843749,1.9632453613281249,5.343511450381679,-28.38167938931298,-23.801526717557252,0.0
13.350000619888306,-8.911218579101561,0.9911994873046874,1.6424223388671875,1.6488549618320612,12.82442748091603,-13.236641221374045,-3.268085266113281,0.35194764404296874,0.9959878906249999,-3.984732824427481,-28.3206106870229,-22.793893129770993,0.0
13.360000610351562,-11.314997045898437,1.3335703247070312,3.3638533325195312,-3.8473282442748094,14.076335877862595,-14.748091603053435,-4.414907861328125,-0.21068974609375,-0.967257470703125,-4.0,-19.068702290076335,-15.816793893129772,0.0
13.370000839233398,-10.283096130371094,0.16041151123046873,3.411737365722656,1.7099236641221374,11.114503816793894,-12.641221374045802,-3.718195178222656,-0.45489831542968745,-2.521094348144531,-3.801526717557252,-8.763358778625955,-12.381679389312977,0.0
13.380000591278076,-10.412383020019531,-0.9576806640625,4.0222587890625,8.488549618320612,9.17557251908397,-11.969465648854962,-3.105279553222656,-0.5961562133789062,-4.113238452148437,1.1603053435114503,0.4122137404580153,-10.076335877862595,0.0
13.390000581741333,-10.000580334472655,-0.354341845703125,4.587290380859375,13.221374045801527,4.458015267175573,-13.17557251908397,-3.5506010620117183,-1.70467158203125,-6.119579443359375,10.16793893129771,14.01526717557252,-7.786259541984733,0.0
13.40000057220459,-9.68454571533203,-0.076614453125,4.991910461425781,14.763358778625955,-2.351145038167939,-14.106870229007633,-5.5449710449218745,-2.70065947265625,-5.791573815917968,21.49618320610687,27.374045801526716,-6.702290076335878,0.0
13.410000562667847,-8.425195642089843,0.09576806640624999,4.417302062988281,16.80916030534351,-12.396946564885496,-14.442748091603054,-8.049305981445311,-2.73896669921875,-3.191470812988281,34.25954198473283,35.81679389312977,-9.038167938931299,0.0
13.420000553131104,-6.471527087402343,0.02633621826171875,3.687070556640625,20.671755725190838,-20.03053435114504,-14.442748091603054,-8.8489693359375,-1.9297265380859374,-0.5602431884765625,37.083969465648856,39.3587786259542,-11.679389312977099,0.0
13.430000305175781,-6.081272216796875,0.47884033203125,3.1483751831054687,24.396946564885496,-23.49618320610687,-14.595419847328245,-10.848127722167968,-1.8770541015625,1.467645617675781,40.97709923664122,38.13740458015267,-10.13740458015267,0.0
13.440000534057617,-4.122815258789062,1.5251064575195312,1.7381904052734374,30.610687022900763,-25.236641221374047,-13.83206106870229,-12.059593762207031,-0.13646949462890623,2.6001030029296874,37.725190839694655,32.06106870229008,-10.610687022900763,0.0
13.450000524520874,-7.187393383789062,3.4739866088867184,2.626439221191406,27.16030534351145,-22.717557251908396,-14.854961832061068,-13.555969799804688,1.1947066284179686,4.620809204101562,26.564885496183205,27.81679389312977,-8.610687022900763,0.0
13.46000051498413,-9.162609753417968,5.446808776855469,3.134009973144531,17.17557251908397,-24.106870229007633,-12.473282442748092,-15.421052893066406,1.1444283935546875,6.062118603515625,19.984732824427482,19.206106870229007,-1.7099236641221374,0.0
13.470000267028809,-10.206481677246094,5.257666845703125,2.446874096679687,3.3587786259541983,-32.67175572519084,-4.717557251908397,-14.872780712890624,2.2361843505859373,5.559336254882812,13.664122137404581,3.7251908396946565,2.50381679389313,0.0
13.480000734329224,-12.897564343261719,5.966350537109375,3.3016040893554686,-4.0,-35.786259541984734,2.854961832061069,-13.922282653808592,2.1595698974609374,5.173869787597656,-3.7099236641221376,-4.198473282442748,6.580152671755725,0.0
13.490000486373901,-13.735534924316406,4.879382983398437,2.959233251953125,-9.206106870229007,-42.18320610687023,10.65648854961832,-11.441889733886718,1.3742717529296875,3.258508459472656,-26.27480916030534,-12.564885496183207,7.32824427480916,0.0
13.500000953674316,-15.27740079345703,4.498704919433593,3.6056677001953124,-13.099236641221374,-46.51908396946565,14.67175572519084,-10.08677159423828,-0.430956298828125,1.5945383056640625,-43.83206106870229,-16.595419847328245,8.610687022900763,0.0
13.510000705718994,-15.138537097167967,3.73495458984375,4.027047192382812,-21.297709923664122,-54.045801526717554,16.885496183206108,-8.743624462890624,-2.29843359375,0.0430956298828125,-55.25190839694657,-17.221374045801525,7.679389312977099,0.0
13.520000696182251,-15.318102221679686,2.839523168945312,4.836287353515624,-29.374045801526716,-60.656488549618324,17.34351145038168,-8.346186987304687,-4.228160131835938,-0.8786720092773437,-57.89312977099237,-14.854961832061068,3.816793893129771,0.0
13.530000686645508,-14.56871710205078,1.4317325927734375,5.221753820800781,-31.938931297709924,-68.38167938931298,17.52671755725191,-8.329427575683594,-5.102043737792968,-1.39821376953125,-51.770992366412216,-12.106870229007633,-0.549618320610687,0.0
13.540000677108765,-12.84489190673828,0.7996633544921875,5.166687182617188,-31.19083969465649,-74.4885496183206,16.65648854961832,-8.614337573242187,-5.140350964355468,-1.180341418457031,-38.3206106870229,-7.969465648854962,-5.572519083969466,0.0
13.550000429153442,-12.064382165527343,0.5698199951171875,5.231330627441406,-29.206106870229007,-78.99236641221374,15.969465648854962,-8.88009395751953,-4.529829541015625,-0.737414111328125,-24.763358778625953,-4.1679389312977095,-9.007633587786259,0.0
13.560000658035278,-11.037269653320312,0.6655880615234374,5.147533569335937,-23.69465648854962,-83.66412213740458,17.435114503816795,-9.437942944335937,-3.6918589599609373,-0.411802685546875,-10.580152671755725,-1.1450381679389312,-10.82442748091603,0.0
13.570000648498535,-10.512939489746094,0.6296750366210937,4.953603234863281,-19.66412213740458,-89.34351145038168,19.480916030534353,-9.763554370117188,-2.2864625854492187,-0.19871873779296872,2.7480916030534353,0.9618320610687023,-10.67175572519084,0.0
13.580000400543213,-9.859322436523437,-0.411802685546875,4.503493322753906,-15.068702290076336,-92.7175572519084,20.793893129770993,-10.026916552734374,-1.2617442749023438,-0.12449848632812499,10.83969465648855,3.1908396946564888,-9.206106870229007,0.0
13.59000039100647,-8.95670841064453,-1.936909143066406,3.4955344238281247,-11.83206106870229,-95.89312977099236,21.221374045801525,-10.292672937011718,-0.40462008056640625,-0.2657563842773437,16.0,5.877862595419847,-6.854961832061068,0.0
13.600000619888306,-8.959102612304687,-2.7269956909179687,2.24097275390625,-9.725190839694656,-98.01526717557252,18.3206106870229,-10.27830772705078,-0.086191259765625,-0.3064578125,20.702290076335878,7.633587786259542,-3.5267175572519083,0.0
13.610000848770142,-8.961496813964843,-2.806004345703125,1.3263877197265623,-4.33587786259542,-98.36641221374046,14.305343511450381,-9.811438403320311,0.6536170532226562,-0.7038952880859375,18.85496183206107,9.083969465648854,-1.83206106870229,0.0
13.62000060081482,-9.258377819824219,-2.5641899780273434,0.8882488159179687,3.8931297709923665,-98.76335877862596,10.305343511450381,-9.586383447265625,0.9337386474609375,-0.7206546997070312,13.389312977099237,12.106870229007633,0.9312977099236641,0.0
13.630000829696655,-9.8449572265625,-1.120486376953125,1.0654197387695312,14.427480916030534,-98.06106870229007,7.541984732824427,-9.591171850585937,0.24899697265624998,-0.5243301635742187,4.442748091603053,14.564885496183207,3.877862595419847,0.0
13.640000581741333,-10.58476553955078,0.373495458984375,1.2904746948242187,22.290076335877863,-97.1145038167939,6.687022900763359,-9.6917283203125,-0.4429273071289062,-0.18435352783203124,-1.618320610687023,15.603053435114504,6.061068702290076,0.0
13.65000033378601,-11.247959399414063,1.5083470458984374,1.8124106567382812,27.603053435114504,-93.45038167938931,8.106870229007633,-9.720458740234374,-1.1037269653320312,0.1149216796875,-7.083969465648855,16.748091603053435,6.67175572519084,0.0
13.660000562667847,-11.513715783691406,1.9129671264648436,2.3056161987304686,25.755725190839694,-93.05343511450381,8.946564885496183,-9.892841259765625,-1.5682020874023437,0.30406361083984373,-10.045801526717558,17.404580152671755,7.343511450381679,0.0
13.670000553131104,-10.510545288085936,0.7493851196289062,2.2864625854492187,28.85496183206107,-91.89312977099236,10.183206106870228,-9.911994873046874,-1.867477294921875,0.45489831542968745,-11.435114503816793,18.091603053435115,7.236641221374046,0.0
13.68000054359436,-10.01015714111328,0.7278373046875,2.4157494750976563,30.091603053435115,-89.34351145038168,10.259541984732824,-10.019733947753906,-2.042254016113281,0.7589619262695312,-10.946564885496183,18.198473282442748,6.870229007633588,0.0
13.690000295639038,-10.084377392578125,1.1133037719726562,2.664746447753906,26.85496183206107,-87.46564885496183,10.15267175572519,-10.098742602539062,-2.1404162841796874,1.0031704956054688,-9.572519083969466,18.68702290076336,6.625954198473282,0.0
13.700000524520874,-9.677363110351562,1.8459294799804686,2.710236279296875,23.129770992366414,-84.62595419847328,11.053435114503817,-10.120290417480469,-2.0781670410156248,0.9337386474609375,-7.175572519083969,18.977099236641223,6.99236641221374,0.0
13.71000051498413,-9.406818322753905,2.2194249389648437,2.7269956909179687,18.625954198473284,-80.94656488549619,12.320610687022901,-10.0748005859375,-1.9536685546875,0.814028564453125,-4.152671755725191,19.801526717557252,7.770992366412214,0.0
13.720000743865967,-8.671798413085938,2.427720483398437,2.5067291381835934,14.549618320610687,-78.25954198473282,14.274809160305344,-9.45470235595703,-1.5562310791015623,0.16041151123046873,-3.2213740458015265,20.015267175572518,7.938931297709924,0.0
13.730000495910645,-9.038111267089842,3.402160559082031,2.863465185546875,6.473282442748092,-74.91603053435115,15.98473282442748,-9.603142858886718,-1.5346832641601562,-0.2561795776367187,-2.9923664122137406,22.85496183206107,9.603053435114504,0.0
13.74000072479248,-8.540117321777343,3.3638533325195312,2.6001030029296874,-0.16793893129770993,-72.79389312977099,20.137404580152673,-8.832209924316405,-1.8219874633789062,-0.833182177734375,-6.015267175572519,25.954198473282442,10.091603053435115,0.0
13.750000476837158,-8.202534887695313,3.028665100097656,2.499546533203125,-5.465648854961832,-69.2824427480916,24.595419847328245,-8.444349255371094,-2.920926025390625,-1.6304513305664061,-6.717557251908397,27.72519083969466,10.366412213740459,0.0
13.760000705718994,-8.054094384765625,2.7724855224609373,2.806004345703125,-9.648854961832061,-63.43511450381679,26.900763358778626,-8.535328918457031,-0.5578489868164063,-1.8291700683593748,-16.290076335877863,35.786259541984734,10.534351145038167,0.0
13.770000696182251,-7.8170684204101555,2.370259643554687,2.8850130004882812,-13.236641221374045,-59.23664122137404,29.00763358778626,-9.485826977539062,-2.3223756103515623,0.4070142822265625,-18.03053435114504,48.19847328244275,16.290076335877863,0.0
13.780000686645508,-7.486668591308593,1.7214309936523438,2.9759926635742184,-17.389312977099237,-56.396946564885496,29.6793893129771,-10.754753857421875,-3.4261025756835934,0.8403647827148437,0.10687022900763359,45.9236641221374,19.740458015267176,0.0
13.790000438690186,-6.514622717285156,0.948103857421875,2.4588451049804685,-14.946564885496183,-51.52671755725191,28.99236641221374,-6.6510922119140625,1.7860744384765623,-2.961627453613281,-3.282442748091603,35.02290076335878,9.740458015267176,0.0
13.800000667572021,-6.943184814453125,1.7357962036132812,3.1842882080078123,-17.251908396946565,-45.55725190839695,27.236641221374047,-6.332663391113281,2.480392919921875,-2.50912333984375,-32.900763358778626,50.51908396946565,10.0,0.0
13.810000658035278,-6.449979272460937,1.3766659545898436,3.3111808959960936,-20.99236641221374,-40.56488549618321,26.99236641221374,-8.578424548339843,-0.02154781494140625,0.28490999755859375,-42.717557251908396,64.04580152671755,19.19083969465649,0.0
13.820000648498535,-5.9376201171875,0.8283937744140625,3.414131567382812,-20.38167938931298,-35.48091603053435,24.885496183206108,0.9002198242187499,12.138602416992187,-11.669338891601562,-78.65648854961832,49.06870229007634,10.82442748091603,0.0
13.830000638961792,-6.038176586914062,2.961627453613281,4.560954162597656,-20.732824427480917,-27.52671755725191,22.091603053435115,-6.203376501464843,12.411541406249999,-8.805873706054687,-203.14503816793894,118.59541984732824,20.885496183206108,0.0
13.840000629425049,-5.796362219238281,2.109291662597656,4.2305543334960936,-17.099236641221374,-25.72519083969466,26.30534351145038,-33.97611575927734,-32.84605257568359,27.071238171386717,-89.93893129770993,167.84732824427482,75.83206106870229,0.0
13.850000619888306,-6.533776330566406,-1.2928688964843749,3.287238879394531,-9.435114503816793,-30.290076335877863,25.603053435114504,-20.54464444580078,-26.338612463378904,12.121843005371092,208.01526717557252,16.076335877862597,63.37404580152672,0.0
13.860000371932983,-2.1595698974609374,-3.3327287109375,1.3024457031249999,22.076335877862597,-26.519083969465647,24.47328244274809,-14.075511560058592,-7.015010864257812,-3.6367923217773437,196.15267175572518,-45.17557251908397,-1.0229007633587786,0.0
13.870000839233398,-4.8506525634765625,1.446097802734375,3.1555577880859373,44.97709923664122,-5.679389312977099,18.610687022900763,-4.8314989501953125,7.7763669921875,-6.284779357910156,134.18320610687022,-52.61068702290076,-42.99236641221374,0.0
13.880000591278076,-5.767631799316406,6.337451794433593,5.195417602539062,15.877862595419847,-4.9465648854961835,16.091603053435115,-9.672574707031249,8.40843623046875,0.7110778930664062,97.69465648854961,-19.19083969465649,-29.358778625954198,0.0
13.890000820159912,-5.154716174316406,7.125144140624999,5.240907434082031,-22.106870229007633,-7.969465648854962,19.52671755725191,-8.947131604003905,7.031770275878906,3.0358477050781247,51.69465648854962,-23.31297709923664,-10.213740458015268,0.0
13.90000057220459,-3.265691064453125,6.117185241699218,3.4620156005859375,-41.19083969465649,-5.893129770992366,23.419847328244273,-8.80347950439453,6.4475850708007805,4.4819455078125,-4.259541984732825,-16.244274809160306,4.091603053435114,0.0
13.910000801086426,0.1580173095703125,3.009511486816406,0.41419688720703124,-44.61068702290076,6.106870229007634,29.72519083969466,-5.9950809570312495,4.053383410644531,3.6535517333984373,-51.083969465648856,1.4351145038167938,13.16030534351145,0.0
13.920000314712524,-1.0749965454101562,1.0103531005859374,0.2154781494140625,-59.48091603053435,17.435114503816795,26.03053435114504,-8.645462194824217,-1.5011644409179687,2.8754361938476563,-69.19083969465649,18.916030534351144,23.435114503816795,0.0
13.930000305175781,-1.7022773803710936,-0.9217676391601562,1.5705962890624998,-43.87786259541985,34.51908396946565,20.366412213740457,-9.330203869628905,-4.129997863769531,1.8531120849609375,-65.69465648854961,17.770992366412212,22.763358778625953,0.0
13.940000534057617,-3.5529952636718747,-1.158793603515625,5.513846423339843,-25.419847328244273,41.64885496183206,16.38167938931298,-9.3086560546875,-3.763685009765625,0.8068459594726562,-54.38167938931298,16.061068702290076,15.603053435114504,0.0
13.950000286102295,-7.694964135742187,0.7852981445312499,7.331045483398437,-11.557251908396946,45.603053435114504,12.335877862595419,-10.062829577636718,-4.256890551757812,1.3838485595703125,-42.56488549618321,16.12213740458015,13.679389312977099,0.0
13.96000051498413,-10.637437976074217,1.209071838378906,4.939238024902344,-4.625954198473282,48.6412213740458,12.82442748091603,-11.511321582031249,-4.333505004882812,1.5466542724609373,-25.19083969465649,11.404580152671755,13.755725190839694,0.0
13.970000505447388,-14.506467858886717,0.4477157104492187,7.122749938964843,1.5267175572519085,49.98473282442748,10.305343511450381,-11.743559143066406,-3.612850305175781,1.8363526733398436,-13.17557251908397,3.1297709923664123,12.335877862595419,0.0
13.980000734329224,-15.401899279785155,2.1116858642578125,11.422736120605467,15.221374045801527,41.43511450381679,10.183206106870228,-10.845733520507812,-0.842758984375,-0.047884033203124995,-12.717557251908397,-6.061068702290076,6.6106870229007635,0.0
13.990000486373901,-14.413093994140624,4.479551306152343,10.376469995117187,5.877862595419847,30.244274809160306,12.946564885496183,-11.082759484863281,-0.9217676391601562,-0.086191259765625,-22.045801526717558,-0.9465648854961832,6.519083969465649,0.0
14.000000715255737,-8.092401611328125,0.031124621582031248,6.105214233398437,11.17557251908397,25.404580152671755,18.50381679389313,-11.449072338867186,-0.9792284790039062,-0.143652099609375,-20.458015267175572,4.366412213740458,5.083969465648855,0.0
14.010000467300415,-5.832275244140624,-1.5131354492187499,3.2561142578125,-1.3129770992366412,15.664122137404581,8.961832061068701,-11.63821427001953,-0.7206546997070312,-0.4572925170898437,-11.435114503816793,6.122137404580153,4.458015267175573,0.0
14.020000696182251,-5.494692810058593,-2.090138049316406,2.2002713256835937,-1.3740458015267176,15.969465648854962,-1.7099236641221374,-11.863269226074218,0.07900865478515624,-1.1276689819335937,-2.2442748091603053,9.053435114503817,5.679389312977099,0.0
14.030000686645508,-5.9974751586914055,-1.6328455322265625,1.89620771484375,10.229007633587786,18.83969465648855,-8.183206106870228,-11.82975040283203,1.2641384765625,-1.8076222534179687,6.717557251908397,11.34351145038168,6.9465648854961835,0.0
14.040000677108765,-9.65342109375,4.036623999023437,3.440467785644531,10.259541984732824,22.229007633587788,-13.526717557251908,-11.401188305664062,3.1938650146484373,-2.882618798828125,4.3816793893129775,12.702290076335878,7.068702290076335,0.0
14.050000667572021,-9.145850341796875,3.8953661010742184,3.0454245117187497,9.511450381679388,21.389312977099237,-6.8396946564885495,-11.042058056640624,3.1316157714843746,-2.31758720703125,-8.01526717557252,19.908396946564885,10.305343511450381,0.0
14.060000658035278,-8.410830432128906,4.161122485351562,3.3973721557617185,10.80916030534351,29.923664122137403,-2.8091603053435112,-10.972626208496093,1.407790576171875,-1.8938135131835936,-14.244274809160306,25.572519083969464,14.229007633587786,0.0
14.070000648498535,-9.600748657226562,4.996698864746094,3.689464758300781,5.984732824427481,35.57251908396947,-1.4045801526717556,-10.582371337890624,-1.6328455322265625,-1.3479355346679687,-9.221374045801527,28.763358778625953,17.17557251908397,0.0
14.080000638961792,-8.992621435546875,4.3622354248046875,2.901772412109375,2.0763358778625953,36.18320610687023,1.6488549618320612,-10.941501586914061,-1.879448303222656,-1.1133037719726562,6.702290076335878,27.69465648854962,16.259541984732824,0.0
14.090000867843628,-8.765172277832031,4.412513659667969,2.592920397949219,-0.7480916030534351,36.70229007633588,2.6259541984732824,-9.744400756835937,-1.4317325927734375,-1.5322890624999999,14.946564885496183,21.740458015267176,12.50381679389313,0.0
14.100000619888306,-8.779537487792968,4.271255761718749,2.5426421630859375,-7.755725190839694,35.52671755725191,3.648854961832061,-9.272743029785156,0.4740519287109375,-1.5538368774414062,14.900763358778626,19.129770992366414,9.908396946564885,0.0
14.110000848770142,-8.080430603027343,3.7014357666015623,2.6408044311523438,-11.679389312977099,34.87022900763359,5.251908396946565,-9.414000927734374,1.0007762939453124,-0.9217676391601562,6.3816793893129775,17.46564885496183,10.290076335877863,0.0
14.12000060081482,-8.413224633789062,3.337517114257812,3.0741549316406247,-13.49618320610687,37.32824427480916,5.66412213740458,-9.294290844726563,1.2808978881835937,-0.2920926025390625,-5.908396946564886,16.0,11.34351145038168,0.0
14.130001068115234,-7.915230688476562,2.4205378784179685,3.0526071166992184,-12.931297709923664,37.06870229007634,6.8396946564885495,-9.938331091308592,0.5961562133789062,0.28969840087890625,-18.18320610687023,14.183206106870228,13.679389312977099,0.0
14.140000581741333,-9.33978067626953,2.6096798095703124,4.141968872070312,-13.083969465648854,39.89312977099237,5.8320610687022905,-10.807426293945312,-0.6943184814453125,0.7852981445312499,-21.893129770992367,14.076335877862595,15.633587786259541,0.0
14.15000057220459,-9.658209497070311,2.0781670410156248,4.209006518554688,-12.992366412213741,39.786259541984734,4.900763358778626,-10.01733974609375,-1.6232687255859375,0.430956298828125,-20.290076335877863,8.595419847328245,13.557251908396946,0.0
14.160000324249268,-8.71489404296875,1.4437036010742186,3.5242648437499997,-12.82442748091603,37.038167938931295,5.099236641221374,-9.205705383300781,-0.9600748657226562,-0.8667010009765624,-17.19083969465649,2.6717557251908395,7.847328244274809,0.0
14.170000314712524,-8.84178673095703,1.4532804077148436,3.9743747558593747,-9.297709923664122,39.969465648854964,3.5419847328244276,-8.779537487792968,-0.8643067993164062,-1.0103531005859374,-18.763358778625953,2.6412213740458017,5.633587786259542,0.0
14.18000054359436,-8.609549169921875,1.209071838378906,3.948038537597656,-9.572519083969466,39.11450381679389,3.1908396946564888,-8.444349255371094,-1.0295067138671874,-1.180341418457031,-17.51145038167939,2.595419847328244,4.320610687022901,0.0
14.190000534057617,-9.330203869628905,1.7214309936523438,4.402936853027343,-10.717557251908397,38.99236641221374,1.4045801526717556,-8.585607153320312,-1.189918225097656,-1.2378022583007813,-16.15267175572519,3.1603053435114505,4.2748091603053435,0.0
14.200000524520874,-9.023746057128905,1.2042834350585936,3.854664672851562,-12.916030534351146,34.50381679389313,1.7557251908396947,-8.717288244628906,-1.2042834350585936,-1.3144167114257812,-13.664122137404581,4.213740458015267,4.030534351145038,0.0
14.21000051498413,-8.93755479736328,1.1659762084960936,4.122815258789062,-10.80916030534351,34.56488549618321,0.7938931297709924,-8.619125976562499,-1.0630255371093749,-1.66636435546875,-10.549618320610687,6.305343511450381,3.954198473282443,0.0
14.220000743865967,-9.605537060546874,1.1180921752929687,4.407725256347656,-8.473282442748092,34.99236641221374,-0.8702290076335878,-8.793902697753905,-0.9193734375,-1.6304513305664061,-7.099236641221374,8.030534351145038,3.572519083969466,0.0
14.230000495910645,-8.549694128417968,1.3192051147460937,3.6008792968749996,-7.175572519083969,30.977099236641223,-1.297709923664122,-8.927977990722656,-0.7805097412109374,-1.5945383056640625,-3.9236641221374047,9.679389312977099,3.1908396946564888,0.0
14.240000486373901,-8.628702783203124,1.5777788940429687,3.603273498535156,-6.33587786259542,29.72519083969466,-1.8473282442748091,-9.05965908203125,-0.4908113403320312,-1.3096283081054687,-0.21374045801526717,9.923664122137405,3.267175572519084,0.0
14.250000476837158,-8.01818135986328,0.9217676391601562,3.1364041748046874,-5.312977099236641,26.778625954198475,-0.8396946564885496,-9.093177905273437,-0.373495458984375,-1.1444283935546875,1.2213740458015268,9.83206106870229,3.9083969465648853,0.0
14.260000705718994,-7.979874133300781,1.1156979736328125,3.268085266113281,-1.5877862595419847,27.17557251908397,-0.9007633587786259,-9.172186560058593,-0.36631285400390623,-0.9648632690429687,2.3053435114503817,10.122137404580153,4.748091603053435,0.0
14.270000457763672,-7.869740856933594,1.197100830078125,3.306392492675781,0.44274809160305345,25.31297709923664,-1.1603053435114503,-9.205705383300781,-0.38307226562499996,-0.8738836059570312,2.5343511450381677,9.740458015267176,4.900763358778626,0.0
14.280000448226929,-7.714117749023437,1.5155296508789062,3.31357509765625,4.977099236641221,25.69465648854962,-0.9770992366412213,-9.3086560546875,-0.49799394531249996,-0.7589619262695312,3.7709923664122136,9.358778625954198,5.465648854961832,0.0
14.290000438690186,-8.116343627929687,2.319981408691406,3.5529952636718747,6.6106870229007635,27.14503816793893,-0.9312977099236641,-9.488221179199218,-0.51714755859375,-0.612915625,4.702290076335878,8.595419847328245,4.748091603053435,0.0
14.300000667572021,-9.674968908691406,3.172317199707031,3.921702319335937,4.534351145038168,27.34351145038168,-1.1145038167938932,-9.775525378417969,-0.4572925170898437,-0.45489831542968745,5.206106870229007,7.572519083969466,4.580152671755725,0.0
14.3100004196167,-9.085995300292968,2.81558115234375,3.5889082885742187,4.122137404580153,25.17557251908397,0.732824427480916,-9.655815295410155,-0.30406361083984373,-0.603338818359375,4.213740458015267,6.702290076335878,4.198473282442748,0.0
14.320000648498535,-8.568847741699217,2.6192566162109374,3.23696064453125,1.0381679389312977,22.045801526717558,2.183206106870229,-9.87608184814453,-0.258573779296875,-0.5722141967773438,4.198473282442748,5.435114503816794,4.656488549618321,0.0
14.33000111579895,-8.616731774902343,2.5043349365234375,3.2441432495117186,-0.5801526717557252,21.14503816793893,2.2748091603053435,-9.854534033203125,-0.03591302490234375,-0.6272808349609375,3.0076335877862594,4.290076335877862,4.717557251908397,0.0
14.34000039100647,-9.289502441406249,3.189076611328125,3.754108203125,-3.480916030534351,21.221374045801525,1.6030534351145038,-9.859322436523437,0.1197100830078125,-0.6512228515624999,1.8931297709923665,3.6793893129770994,4.885496183206107,0.0
14.350000858306885,-7.864952453613281,1.7214309936523438,2.999934680175781,-0.5190839694656488,20.83969465648855,3.786259541984733,-9.94072529296875,0.19632453613281248,-0.689530078125,0.15267175572519084,3.435114503816794,5.083969465648855,0.0
14.360000371932983,-8.226476904296874,1.8219874633789062,3.0933085449218747,-0.7480916030534351,21.740458015267176,3.1755725190839694,-10.261548315429687,0.0143652099609375,-0.7350199096679687,-1.2366412213740459,3.1603053435114505,5.419847328244275,0.0
14.370000839233398,-9.157821350097656,2.4133552734375,3.2154128295898436,-2.9160305343511452,22.061068702290076,1.5267175572519085,-10.280701928710936,-0.01915361328125,-0.7278373046875,-2.381679389312977,3.0839694656488548,4.854961832061068,0.0
14.380000591278076,-9.320627062988281,1.7597382202148437,3.0621839233398433,1.1297709923664123,26.259541984732824,1.1603053435114503,-10.314220751953124,-0.040701428222656245,-0.6871358764648438,-3.282442748091603,2.1068702290076335,4.931297709923665,0.0
14.390000581741333,-9.562441430664062,1.9536685546875,2.767697119140625,-0.22900763358778625,26.702290076335878,-0.5954198473282443,-10.290278735351562,-0.07900865478515624,-0.33039982910156246,-4.656488549618321,0.366412213740458,4.67175572519084,0.0
14.40000057220459,-8.892064965820312,2.2864625854492187,2.346317626953125,1.984732824427481,27.81679389312977,-1.3282442748091603,-9.988609326171874,-0.3184288208007812,-0.0430956298828125,-6.870229007633588,-2.4580152671755724,3.6793893129770994,0.0
14.410000562667847,-9.047688073730468,2.5043349365234375,2.6144682128906247,0.44274809160305345,29.84732824427481,-2.045801526717557,-9.708487731933593,-0.5482721801757812,0.05985504150390625,-9.694656488549619,-5.511450381679389,3.5572519083969465,0.0
14.420000791549683,-9.574412438964844,2.4492682983398435,2.5258827514648434,-1.7557251908396947,30.30534351145038,-2.7022900763358777,-9.533711010742186,-1.0079588989257813,-0.07422025146484375,-11.34351145038168,-7.572519083969466,2.9618320610687023,0.0
14.43000054359436,-9.138667736816405,2.91134921875,2.5713725830078125,-1.251908396946565,31.480916030534353,-3.0839694656488548,-9.342174877929686,-1.1540052001953125,-0.40462008056640625,-10.946564885496183,-8.977099236641221,2.015267175572519,0.0
14.440000534057617,-9.265560424804686,2.7365724975585937,2.6384102294921874,-3.648854961832061,30.9618320610687,-2.717557251908397,-10.309432348632813,-2.1212626708984375,0.239420166015625,-5.00763358778626,-8.030534351145038,2.50381679389313,0.0
14.450000524520874,-9.832986218261718,3.0047230834960934,3.086125939941406,-7.358778625954199,30.442748091603054,-3.404580152671756,-11.183315954589844,-0.4955997436523437,-0.07422025146484375,2.8244274809160306,-10.83969465648855,0.5343511450381679,0.0
14.46000051498413,-9.94072529296875,2.6623522460937497,3.066972326660156,-9.17557251908397,29.69465648854962,-2.595419847328244,-10.93671318359375,1.0678139404296874,-0.35194764404296874,-3.6793893129770994,-11.267175572519085,-0.42748091603053434,0.0
14.470000505447388,-9.227253198242186,1.7429788085937499,2.9855694702148434,-6.793893129770993,29.801526717557252,-1.6641221374045803,-11.437101330566406,0.40462008056640625,0.26815058593749996,-6.030534351145038,-11.16030534351145,2.9770992366412212,0.0
14.480000734329224,-8.947131604003905,1.1348515869140625,2.607285607910156,-4.3816793893129775,28.38167938931298,-3.3740458015267176,-11.2240173828125,-0.45968671875,0.47884033203125,-2.4885496183206106,-19.114503816793892,2.4122137404580153,0.0
14.490000486373901,-8.63827958984375,1.7118541870117185,2.4109610717773435,2.015267175572519,29.6793893129771,-4.900763358778626,-10.32379755859375,0.1867477294921875,0.0909796630859375,-3.312977099236641,-25.984732824427482,-0.6412213740458015,0.0
14.500000715255737,-9.627084875488281,2.0302830078125,2.844311572265625,2.015267175572519,30.870229007633586,-6.442748091603053,-10.675745202636719,-1.22583125,1.5370774658203123,1.0076335877862594,-29.46564885496183,-1.0687022900763359,0.0
14.510000467300415,-10.160991845703125,1.8770541015625,2.8323405639648436,0.24427480916030533,28.916030534351144,-7.3893129770992365,-10.529698901367187,-0.488417138671875,1.3958195678710936,9.389312977099237,-37.541984732824424,-3.099236641221374,0.0
14.520000696182251,-9.227253198242186,1.13006318359375,2.2601263671875,5.221374045801527,28.38167938931298,-7.7251908396946565,-10.129867224121092,0.49799394531249996,1.0678139404296874,9.068702290076336,-42.88549618320611,-6.015267175572519,0.0
14.530000686645508,-8.513781103515624,1.5179238525390624,1.9680337646484374,6.931297709923665,28.442748091603054,-9.389312977099237,-9.129090930175781,2.7629087158203123,0.40940848388671874,-8.488549618320612,-43.29770992366412,-7.435114503816794,0.0
14.540000438690186,-9.358934289550781,2.760514514160156,2.427720483398437,5.00763358778626,30.396946564885496,-12.106870229007633,-9.349357482910156,1.9632453613281249,0.05027823486328125,-25.267175572519083,-36.396946564885496,-2.0,0.0
14.550000667572021,-10.127473022460936,2.8323405639648436,2.454056701660156,-0.8702290076335878,29.96946564885496,-13.007633587786259,-9.900023864746093,-0.062249243164062495,-1.5011644409179687,-23.541984732824428,-33.038167938931295,2.8244274809160306,0.0
14.5600004196167,-10.146626635742187,2.437297290039062,2.3415292236328122,-0.2748091603053435,30.641221374045802,-13.114503816793894,-10.54645831298828,0.24899697265624998,-2.978386865234375,-16.290076335877863,-28.076335877862597,4.564885496183206,0.0
14.570000648498535,-9.782707983398437,2.0278888061523435,1.8004396484374998,2.9770992366412212,31.923664122137403,-12.534351145038167,-10.342951171874999,0.8786720092773437,-3.8474820678710935,-18.229007633587788,-23.358778625954198,1.0076335877862594,0.0
14.580000638961792,-7.900865478515625,2.4444798950195312,0.6416460449218749,5.541984732824427,32.44274809160305,-11.404580152671755,-10.110713610839843,0.7110778930664062,-3.114856359863281,-23.236641221374047,-16.900763358778626,-0.6259541984732825,0.0
14.590000867843628,-9.560047229003906,2.93050283203125,1.4891934326171874,1.3740458015267176,37.57251908396947,-12.916030534351146,-11.575965026855467,-1.446097802734375,-0.7062894897460937,-15.694656488549619,-10.977099236641221,1.4809160305343512,0.0
14.600000619888306,-9.785102185058593,3.134009973144531,1.4604630126953124,-2.595419847328244,39.05343511450382,-13.770992366412214,-11.149797131347656,-1.6065093139648436,0.2346317626953125,-8.80916030534351,-12.320610687022901,-1.5877862595419847,0.0
14.610000848770142,-9.550470422363281,2.6048914062499997,1.149216796875,-1.6641221374045803,39.63358778625954,-12.641221374045802,-10.797849487304687,-1.4604630126953124,1.2330138549804688,-5.312977099236641,-15.267175572519085,-5.9541984732824424,0.0
14.62000060081482,-9.145850341796875,2.080561242675781,1.1731588134765625,0.24427480916030533,42.16793893129771,-11.84732824427481,-10.771513269042968,-1.3766659545898436,2.0566192260742184,-2.6564885496183206,-18.396946564885496,-8.458015267175572,0.0
14.630000829696655,-9.871293444824218,2.384624853515625,1.6136919189453125,-0.5648854961832062,43.969465648854964,-13.679389312977099,-10.967837805175781,-2.0566192260742184,3.189076611328125,1.9236641221374047,-21.755725190839694,-8.763358778625955,0.0
14.640000581741333,-10.524910498046875,2.1930887207031247,1.8028338500976562,-3.068702290076336,43.74045801526717,-15.083969465648854,-11.508927380371093,-1.3000515014648437,2.9927520751953125,8.351145038167939,-30.38167938931298,-11.816793893129772,0.0
14.65000057220459,-10.474632263183594,1.8818425048828125,1.618480322265625,-1.6030534351145038,43.11450381679389,-15.770992366412214,-10.819397302246093,-0.5698199951171875,2.81558115234375,7.6183206106870225,-37.69465648854962,-14.01526717557252,0.0
14.660000562667847,-10.409988818359375,1.6304513305664061,1.6711527587890624,-1.3893129770992367,42.656488549618324,-16.50381679389313,-10.915165368652342,-2.0829554443359375,3.0885201416015624,10.549618320610687,-44.091603053435115,-14.870229007633588,0.0
14.670000791549683,-10.091559997558592,1.1923124267578125,1.5155296508789062,0.2900763358778626,42.091603053435115,-17.893129770992367,-11.264718811035156,-1.1516109985351561,2.5641899780273434,19.66412213740458,-55.52671755725191,-16.885496183206108,0.0
14.68000054359436,-10.764330664062498,2.0973206542968748,1.7908628417968748,0.32061068702290074,42.534351145038165,-19.908396946564885,-9.588777648925781,1.697488977050781,1.7932570434570312,10.51908396946565,-59.969465648854964,-20.076335877862597,0.0
14.690000534057617,-9.471461767578125,2.346317626953125,1.149216796875,-4.519083969465649,37.31297709923664,-17.557251908396946,-9.45470235595703,0.7805097412109374,2.4588451049804685,-1.2213740458015268,-58.213740458015266,-16.946564885496183,0.0
14.700000524520874,-8.78432589111328,1.5131354492187499,1.3192051147460937,-8.51908396946565,36.56488549618321,-16.549618320610687,-10.43153663330078,0.06943184814453125,2.6240450195312497,-3.480916030534351,-61.221374045801525,-13.17557251908397,0.0
14.71000051498413,-9.981426721191406,0.8786720092773437,1.9919757812499999,-6.0,37.7557251908397,-17.923664122137403,-9.588777648925781,1.6472107421875,1.7764976318359373,-11.84732824427481,-64.22900763358778,-14.229007633587786,0.0
14.720000267028809,-8.573636145019531,1.24498486328125,1.599326708984375,0.7022900763358778,37.343511450381676,-17.938931297709924,-9.497797985839844,0.2825157958984375,2.501940734863281,-28.30534351145038,-58.2442748091603,-12.625954198473282,0.0
14.730000257492065,-8.815450512695312,1.149216796875,1.695094775390625,0.15267175572519084,36.93129770992366,-18.015267175572518,-10.704475622558594,-1.43652099609375,2.729389892578125,-27.34351145038168,-57.06870229007634,-10.076335877862595,0.0
14.740000486373901,-9.813832604980469,0.565031591796875,2.2673089721679687,7.893129770992366,38.74809160305343,-20.137404580152673,-10.271125122070313,-2.118868469238281,1.5322890624999999,-19.66412213740458,-62.732824427480914,-12.045801526717558,0.0
14.750000476837158,-9.698910925292969,1.1348515869140625,2.492363928222656,16.106870229007633,37.908396946564885,-20.99236641221374,-9.150638745117186,-1.0510545288085937,0.7661445312499999,-17.114503816793892,-61.61832061068702,-16.061068702290076,0.0
14.760000467300415,-10.067617980957031,1.4173673828125,2.6503812377929687,17.14503816793893,35.43511450381679,-21.328244274809162,-8.90643017578125,-0.8547299926757812,0.239420166015625,-20.9618320610687,-56.045801526717554,-18.244274809160306,0.0
14.770000696182251,-9.730035546875,1.8842367065429686,2.5354595581054684,20.65648854961832,34.70229007633588,-20.625954198473284,-8.954314208984375,-2.166752502441406,0.5913678100585937,-19.572519083969464,-50.717557251908396,-18.091603053435115,0.0
14.780000686645508,-10.78348427734375,2.4899697265625,2.6695348510742187,20.061068702290076,33.9236641221374,-21.603053435114504,-10.71884083251953,-3.380612744140625,1.2593500732421874,-5.557251908396947,-46.458015267175576,-18.564885496183205,0.0
