timestamp,Thigh_L_Acc_X,Thigh_L_Acc_Y,Thigh_L_Acc_Z,Thigh_L_Gyr_X,Thigh_L_Gyr_Y,Thigh_L_Gyr_Z,Thigh_R_Acc_X,Thigh_R_Acc_Y,Thigh_R_Acc_Z,Thigh_R_Gyr_X,Thigh_R_Gyr_Y,Thigh_R_Gyr_Z,gpio_output
10.000000476837158,1.4963760375976562,9.014169250488282,3.1555577880859373,4.3816793893129775,11.86259541984733,22.748091603053435,-13.17050333251953,-6.660669018554687,4.797980126953124,2.6717557251908395,29.6793893129771,20.3206106870229,0.0
10.010001420974731,1.7788918334960937,9.112331518554686,4.61602080078125,-17.49618320610687,24.68702290076336,30.412213740458014,-10.20887587890625,-0.5123591552734374,1.0223241088867188,59.11450381679389,17.72519083969466,10.290076335877863,1.0
10.02000117301941,3.0909143432617188,7.352593298339843,4.024652990722656,-37.41984732824427,34.229007633587784,36.35114503816794,-12.777854260253905,-5.616797094726562,4.062960217285156,41.05343511450382,15.923664122137405,12.549618320610687,1.0
10.030001163482666,2.767697119140625,6.655880615234374,3.0837317382812497,-48.274809160305345,52.2442748091603,40.274809160305345,-9.852139831542969,2.779668127441406,-0.21787235107421873,31.69465648854962,5.465648854961832,2.4427480916030535,1.0
10.040000677108765,2.7653029174804686,4.110844250488281,1.2138602416992186,-61.343511450381676,71.00763358778626,38.961832061068705,-12.284648718261717,-2.6623522460937497,3.287238879394531,20.50381679389313,14.50381679389313,8.885496183206106,1.0
10.0500009059906,2.43250888671875,-0.565031591796875,-0.5003881469726562,-60.18320610687023,94.06106870229007,38.900763358778626,-11.154585534667968,3.3877953491210935,-0.296881005859375,16.83969465648855,1.4045801526717556,3.8473282442748094,1.0
10.060000658035278,-11.535263598632811,-9.306261853027344,23.733721057128903,-58.38167938931298,89.48091603053435,38.274809160305345,-12.478579052734375,2.4516625,1.0702081420898437,-29.770992366412212,6.3816793893129775,9.267175572519085,1.0
10.070001363754272,-26.094403894042966,-15.413870288085937,39.22540289916992,65.38931297709924,56.213740458015266,49.083969465648856,-13.424288708496093,1.8914193115234375,1.1516109985351561,-46.94656488549618,1.1908396946564885,10.854961832061068,1.0
10.080000638961792,-23.85103693847656,-1.1228805786132812,13.2926076171875,94.09160305343511,57.11450381679389,61.404580152671755,-16.053122131347656,0.30406361083984373,1.6998831787109374,-53.64885496183206,-0.5801526717557252,13.603053435114504,1.0
10.090001106262207,-17.60695900878906,7.043741284179687,-12.243947290039062,79.78625954198473,51.51145038167939,15.32824427480916,-16.79771884765625,-1.7908628417968748,2.3822306518554686,-77.09923664122137,-9.374045801526718,16.366412213740457,1.0
10.100000619888306,1.8076222534179687,-13.761871142578125,-10.287884533691406,60.29007633587786,22.85496183206107,21.251908396946565,-18.988413366699216,-1.0797849487304687,2.128445275878906,-74.44274809160305,-25.068702290076335,20.366412213740457,1.0
10.110000610351562,4.96078583984375,-3.6200329101562496,0.6177040283203125,130.3053435114504,95.45038167938931,7.0534351145038165,-16.91024632568359,1.1085153686523437,3.31357509765625,-99.41984732824427,-55.3587786259542,30.549618320610687,1.0
10.12000060081482,0.6464344482421874,-0.9959878906249999,-2.4133552734375,124.87022900763358,111.06870229007633,10.0,-19.615694201660155,-1.7621324218749999,2.664746447753906,-48.916030534351144,-60.412213740458014,36.274809160305345,1.0
10.130000829696655,-12.97178459472656,-1.4796166259765624,0.1484405029296875,99.61832061068702,138.36641221374046,-5.786259541984733,-19.69470285644531,-0.8499415893554687,2.6982652709960937,-19.801526717557252,-83.26717557251908,34.44274809160305,1.0
10.140363693237305,-13.28542501220703,-5.896918688964844,3.189076611328125,92.30534351145039,122.18320610687023,-16.30534351145038,-18.01636749267578,-1.177947216796875,0.8547299926757812,-3.0839694656488548,-103.7557251908397,27.404580152671755,1.0
10.150040864944458,-16.737863806152344,-0.63206923828125,5.0014872680664055,96.16793893129771,139.5114503816794,-40.36641221374046,-15.598223815917969,-0.44532150878906246,-1.2832920898437499,3.1755725190839694,-118.70229007633588,19.267175572519083,1.0
10.160001277923584,-6.861781958007812,-7.48906279296875,-1.599326708984375,99.34351145038168,121.72519083969466,-34.045801526717554,-14.985308190917968,-1.2521674682617188,-3.4332851806640625,11.068702290076336,-119.95419847328245,11.267175572519085,1.0
10.170000791549683,-8.21690009765625,-1.7022773803710936,-0.7996633544921875,149.29770992366412,165.23664122137404,-42.56488549618321,-12.205640063476562,-1.9105729248046874,-6.8785413696289055,47.93893129770992,-108.13740458015268,1.0229007633587786,1.0
10.180001020431519,-15.181632727050781,7.898471276855468,2.645592834472656,109.40458015267176,155.0381679389313,-63.45038167938932,-12.492944262695312,-0.9433154541015625,-6.526593725585937,53.786259541984734,-103.77099236641222,-11.114503816793894,1.0
10.190000772476196,-15.377957263183593,9.476250170898437,1.7381904052734374,59.80152671755725,133.54198473282443,-65.58778625954199,-10.117896215820313,1.407790576171875,-8.030152368164062,39.6793893129771,-90.51908396946565,-17.19083969465649,1.0
10.200001001358032,-13.713987109375,6.993463049316406,0.9265560424804687,9.664122137404581,109.29770992366412,-66.50381679389314,-10.09395419921875,0.6536170532226562,-11.077971081542968,31.083969465648856,-69.0381679389313,-12.030534351145038,1.0
10.210000991821289,-11.401188305664062,3.545812658691406,-0.6440402465820312,2.0,104.12213740458016,-61.603053435114504,-9.368511096191405,2.3678654418945313,-11.9135474609375,16.748091603053435,-49.221374045801525,-8.076335877862595,0.0
10.220196962356567,-9.598354455566406,0.6536170532226562,-2.511517541503906,12.198473282442748,108.13740458015268,-56.16793893129771,-10.86009873046875,-0.3016694091796875,-9.840168823242188,6.8396946564885495,-24.702290076335878,-3.145038167938931,0.0
10.230000734329224,-9.284714038085937,0.3591302490234375,-1.2832920898437499,45.404580152671755,129.34351145038167,-54.50381679389313,-10.912771166992187,-3.2704794677734372,-7.005434057617187,19.00763358778626,-15.618320610687023,-4.748091603053435,0.0
10.24000072479248,-7.225700610351562,0.7972691528320313,-1.9105729248046874,60.12213740458015,141.05343511450383,-57.282442748091604,-10.59194814453125,-3.8690298828125,-3.787627026367187,42.74809160305343,-13.969465648854962,-10.931297709923664,0.0
10.250000715255737,-10.20169327392578,3.0238766967773434,-0.277727392578125,57.16030534351145,149.3740458015267,-63.55725190839695,-9.375693701171874,-2.0302830078125,-3.2249896362304686,55.20610687022901,-16.748091603053435,-17.099236641221374,0.0
10.260000705718994,-9.478644372558593,3.5817256835937497,0.7445967163085937,39.23664122137404,151.75572519083968,-68.21374045801527,-8.774749084472656,-0.40462008056640625,-1.0678139404296874,62.58015267175573,-20.244274809160306,-21.66412213740458,0.0
10.270000696182251,-9.119514123535156,4.168305090332031,0.5363011718749999,16.9618320610687,145.8320610687023,-71.74045801526718,-8.449137658691406,0.6344634399414062,-0.12449848632812499,63.63358778625954,-24.549618320610687,-22.53435114503817,0.0
10.280101537704468,-10.141838232421874,3.4811692138671875,0.29927520751953124,4.076335877862595,145.66412213740458,-70.47328244274809,-8.17859287109375,-0.09576806640624999,1.484405029296875,60.54961832061068,-30.946564885496183,-21.954198473282442,0.0
10.290001153945923,-9.636661682128906,3.399766357421875,0.6296750366210937,-1.5877862595419847,146.67175572519085,-68.18320610687023,-8.456320263671875,0.28730419921875,1.879448303222656,78.35114503816794,-37.83206106870229,-23.709923664122137,0.0
10.300000667572021,-7.096413720703125,0.04548983154296875,-1.0175357055664063,-0.8854961832061069,141.6946564885496,-61.465648854961835,-8.616731774902343,1.4963760375976562,2.1835119140624997,85.29770992366412,-52.656488549618324,-24.33587786259542,0.0
10.3100004196167,-7.9272016967773435,1.9488801513671874,1.8363526733398436,0.32061068702290074,143.4351145038168,-60.229007633587784,-7.721300354003906,3.421314172363281,1.944091748046875,81.08396946564885,-62.70229007633588,-25.068702290076335,0.0
10.320000886917114,-11.77228956298828,6.854599353027344,3.873818286132812,-14.687022900763358,146.44274809160305,-63.603053435114504,-7.498639599609374,2.4875755249023435,3.0621839233398433,69.90839694656489,-66.76335877862596,-19.19083969465649,0.0
10.33000111579895,-7.613561279296874,1.5729904907226562,0.8212111694335937,-39.954198473282446,127.64885496183206,-55.725190839694655,-7.151480358886718,4.352658618164062,1.8291700683593748,60.56488549618321,-78.3969465648855,-17.206106870229007,0.0
10.340000867843628,-12.105083593749999,7.364564306640625,2.389413256835937,-42.732824427480914,135.17557251908397,-54.82442748091603,-6.3973068359375,3.2920272827148436,2.616862414550781,40.595419847328245,-77.69465648854961,-11.938931297709924,0.0
10.350001096725464,-7.654262707519531,0.46686932373046874,0.5386953735351562,-55.98473282442748,119.40458015267176,-43.51145038167939,-5.97592734375,3.919308117675781,1.7166425903320313,19.435114503816795,-82.99236641221374,-9.17557251908397,0.0
10.360000610351562,-16.385916162109375,9.246406811523437,4.944026428222656,-61.02290076335878,131.08396946564886,-50.656488549618324,-7.898471276855468,1.714248388671875,2.3774422485351563,10.122137404580153,-82.74809160305344,-3.801526717557252,0.0
10.370000839233398,-10.479420666503906,1.5586252807617187,3.919308117675781,-106.54961832061069,98.12213740458016,-42.717557251908396,-7.594407666015624,1.8938135131835936,1.2018892333984375,4.076335877862595,-89.72519083969466,-2.900763358778626,0.0
10.380000591278076,-16.122553979492185,6.526593725585937,7.453149768066406,-110.77862595419847,88.25954198473282,-39.9236641221374,-8.698134631347656,1.180341418457031,0.5602431884765625,0.10687022900763359,-90.90076335877863,-0.07633587786259542,0.0
10.390000581741333,-8.863334545898438,-1.4030021728515625,4.359841223144531,-87.3587786259542,84.25954198473282,-25.96946564885496,-8.441955053710936,0.7445967163085937,0.5889736083984375,-2.4122137404580153,-92.91603053435115,0.8549618320610687,0.0
10.400001287460327,-12.306196533203124,1.8602946899414061,5.549759448242187,-87.08396946564885,77.16030534351145,-28.595419847328245,-8.865728747558594,0.7565677246093749,0.3136404174804687,-2.50381679389313,-94.76335877862596,1.6946564885496183,0.0
10.410000801086426,-10.82179150390625,2.327164013671875,2.1978771240234374,-76.35114503816794,77.57251908396947,-28.885496183206108,-9.414000927734374,1.0749965454101562,0.8714894042968749,4.412213740458015,-98.50381679389314,4.442748091603053,0.0
10.420001029968262,-15.028403820800781,5.832275244140624,1.9680337646484374,-96.53435114503817,72.19847328244275,-32.74809160305343,-9.823409411621093,1.2808978881835937,0.37828386230468747,-3.2213740458015265,-93.92366412213741,8.458015267175572,0.0
10.43000078201294,-5.925649108886718,1.0965443603515623,-3.076549133300781,-86.6412213740458,72.61068702290076,-20.732824427480917,-9.86411083984375,2.3439234252929686,-1.1827356201171875,-4.687022900763359,-96.19847328244275,10.442748091603054,0.0
10.440001249313354,-9.528922607421874,7.352593298339843,-1.5562310791015623,-82.68702290076335,88.85496183206106,-22.015267175572518,-9.528922607421874,1.24498486328125,-0.9050082275390624,-16.885496183206108,-83.92366412213741,15.450381679389313,0.0
10.450000762939453,-6.667851623535156,3.469198205566406,-4.517858532714843,-94.7175572519084,96.3969465648855,-12.885496183206106,-10.134655627441406,0.7996633544921875,-0.17477672119140625,-10.381679389312977,-85.96946564885496,16.549618320610687,0.0
10.460000991821289,-5.968744738769531,-2.3151930053710936,-5.228936425781249,-68.27480916030534,109.46564885496183,0.0916030534351145,-6.940790612792968,2.085349645996094,-1.3862427612304686,-16.549618320610687,-81.95419847328245,12.625954198473282,0.0
10.470000743865967,-11.880028637695311,2.9185318237304685,2.068590234375,-67.8473282442748,126.82442748091603,-43.19083969465649,-8.020575561523437,0.40940848388671874,0.0,-17.34351145038168,-69.72519083969466,13.129770992366412,0.0
10.480000972747803,-14.609418530273437,2.882618798828125,5.667075329589843,-94.91603053435115,103.89312977099236,-14.67175572519084,-9.119514123535156,-0.24899697265624998,-0.4477157104492187,-5.923664122137405,-75.70992366412214,13.099236641221374,0.0
10.49000072479248,-13.393164086914062,-1.944091748046875,6.679822631835937,-80.3206106870229,80.74809160305344,-2.0610687022900764,-7.991845141601562,1.24498486328125,-1.177947216796875,-3.114503816793893,-79.32824427480917,11.053435114503817,0.0
10.500000953674316,-16.002843896484375,1.2761094848632812,9.495403784179686,-60.01526717557252,67.19083969465649,-3.9389312977099236,-7.165845568847656,1.0773907470703123,-0.5458779785156249,-12.320610687022901,-68.80916030534351,10.900763358778626,0.0
10.510000944137573,-13.864821813964843,-1.6807295654296874,7.592013464355468,-61.57251908396947,29.541984732824428,-0.2748091603053435,-8.75320126953125,-0.6943184814453125,-0.19632453613281248,0.21374045801526717,-67.6030534351145,11.816793893129772,0.0
10.52000117301941,-14.42267080078125,-1.6424223388671875,6.026205578613281,-30.83969465648855,13.740458015267176,-1.0229007633587786,-7.187393383789062,-0.6464344482421874,-0.9864110839843749,4.564885496183206,-67.31297709923665,4.641221374045801,0.0
10.530001163482666,-12.923900561523437,-1.66636435546875,4.963180041503906,-16.519083969465647,5.908396946564886,-2.1526717557251906,-8.391676818847655,-1.62805712890625,0.16280571289062498,7.32824427480916,-56.61068702290076,1.83206106870229,0.0
10.540000915527344,-12.006921325683592,-2.1404162841796874,3.342305517578125,0.4580152671755725,2.732824427480916,-4.061068702290076,-10.467449658203124,-2.2768857788085937,0.3112462158203125,23.64885496183206,-56.93129770992366,0.916030534351145,0.0
10.5500009059906,-10.9175595703125,-2.446874096679687,2.205059729003906,18.85496183206107,5.419847328244275,-7.984732824427481,-9.610325463867188,-0.47644613037109373,-0.0718260498046875,26.53435114503817,-52.0763358778626,-4.33587786259542,0.0
10.560001134872437,-9.466673364257812,-1.5035586425781249,0.9169792358398436,29.17557251908397,9.282442748091603,-14.122137404580153,-8.530540515136718,0.3184288208007812,-0.373495458984375,15.099236641221374,-42.229007633587784,-7.694656488549619,0.0
10.570001363754272,-8.793902697753905,-1.5131354492187499,-0.7900865478515624,38.61068702290076,13.557251908396946,-17.19083969465649,-8.106766821289062,0.6081272216796875,-0.30885201416015623,15.435114503816793,-33.17557251908397,-9.48091603053435,0.0
10.580000877380371,-10.302249743652343,1.9608511596679685,-1.0127473022460938,29.099236641221374,10.290076335877863,-20.412213740458014,-7.999027746582031,-0.19393033447265623,0.4213794921875,13.236641221374045,-23.786259541984734,-10.396946564885496,0.0
10.590000867843628,-11.880028637695311,1.0175357055664063,0.229843359375,36.67175572519084,12.488549618320612,-16.671755725190838,-7.062894897460937,0.5315127685546874,1.0462661254882812,12.992366412213741,-17.450381679389313,-12.67175572519084,0.0
10.600000619888306,-12.454637036132812,0.4860229370117187,0.40462008056640625,56.25954198473283,15.358778625954198,-11.48091603053435,-6.5218053222656245,1.2330138549804688,0.9959878906249999,9.022900763358779,-10.15267175572519,-14.045801526717558,0.0
10.610000610351562,-12.440271826171875,3.1364041748046874,1.6328455322265625,54.87022900763359,9.526717557251908,-13.664122137404581,-6.311115576171875,1.2114660400390624,1.3192051147460937,1.1145038167938932,-4.885496183206107,-15.48091603053435,0.0
10.620000839233398,-12.301408129882812,4.280832568359375,1.0342951171875,36.85496183206107,-8.65648854961832,-14.595419847328245,-6.6893994384765625,1.1707646118164061,1.675941162109375,-3.801526717557252,0.0916030534351145,-15.541984732824428,0.0
10.630000591278076,-12.86404552001953,4.817133740234374,0.86191259765625,16.259541984732824,-20.671755725190838,-13.358778625954198,-7.501033801269531,-0.6560112548828124,1.5203180541992187,-3.114503816793893,5.32824427480916,-15.007633587786259,0.0
10.640000820159912,-11.48498536376953,3.3399113159179685,0.5793968017578125,8.412213740458014,-28.641221374045802,-9.450381679389313,-7.517793212890624,-0.6488286499023437,2.281674182128906,-0.916030534351145,6.152671755725191,-16.18320610687023,0.0
10.65000057220459,-8.856151940917968,-0.3064578125,-3.6080619018554687,9.786259541984732,-38.045801526717554,-4.396946564885496,-7.237671618652343,0.36631285400390623,1.0797849487304687,-0.3511450381679389,7.1603053435114505,-19.46564885496183,0.0
10.660000562667847,-10.812214697265624,2.7581203125,0.22744915771484372,-13.465648854961833,-35.64885496183206,-11.389312977099237,-7.3669585083007805,0.09816226806640624,1.388636962890625,-9.49618320610687,21.984732824427482,-17.908396946564885,0.0
10.670000553131104,-9.30147344970703,-0.852335791015625,-0.689530078125,-15.648854961832061,-35.81679389312977,-11.877862595419847,-8.37012900390625,-1.3192051147460937,0.6823474731445313,2.519083969465649,27.022900763358777,-15.435114503816793,0.0
10.68000078201294,-8.681375219726561,-2.578555187988281,0.2753331909179687,-30.580152671755727,-35.52671755725191,-13.404580152671755,-8.226476904296874,-1.180341418457031,0.8188169677734375,14.061068702290076,23.19083969465649,-19.053435114503817,0.0
10.690000772476196,-9.87608184814453,-2.549824768066406,0.20350714111328125,-17.557251908396946,-30.732824427480917,-21.419847328244273,-6.517016918945312,1.9584569580078124,-0.9744400756835937,20.717557251908396,26.0,-22.48854961832061,0.0
10.700001001358032,-7.862558251953125,-1.9704279663085937,0.39743747558593745,-14.931297709923664,-26.946564885496183,-28.778625954198475,-4.939238024902344,4.292803576660156,-2.2002713256835937,0.061068702290076333,38.67175572519084,-24.091603053435115,0.0
10.710000991821289,-8.678981018066406,-2.205059729003906,1.1827356201171875,-6.809160305343512,-22.106870229007633,-32.0,-5.118803149414062,3.852270471191406,-1.6256629272460936,-33.083969465648856,53.55725190839695,-18.977099236641223,0.0
10.720000982284546,-11.049240661621093,1.0031704956054688,3.4715924072265625,-9.312977099236642,-19.358778625954198,-36.82442748091603,-6.098031628417968,1.254561669921875,-0.3854664672851562,-42.33587786259542,66.21374045801527,-15.923664122137405,0.0
10.730000734329224,-10.050858569335936,0.7134720947265625,4.173093493652344,-16.412213740458014,-34.3206106870229,-34.51908396946565,-6.785167504882812,0.48123453369140623,-0.9911994873046874,-37.81679389312977,71.69465648854961,-19.557251908396946,0.0
10.74000072479248,-11.037269653320312,2.6982652709960937,5.506663818359375,-13.17557251908397,-42.62595419847328,-34.10687022900763,-6.572083557128906,0.9720458740234375,-2.5426421630859375,-46.595419847328245,80.51908396946565,-23.297709923664122,0.0
10.750000715255737,-11.40837091064453,2.8850130004882812,7.146691955566406,-25.84732824427481,-60.68702290076336,-34.0,-7.690175732421874,0.948103857421875,-2.882618798828125,-46.656488549618324,94.33587786259542,-24.213740458015266,0.0
10.760000944137573,-12.20085166015625,2.511517541503906,9.04050546875,-31.862595419847327,-82.19847328244275,-34.0763358778626,-9.318232861328125,-0.29448680419921874,-1.7645266235351562,-54.045801526717554,106.7175572519084,-24.702290076335878,0.0
10.770000696182251,-12.679691992187498,1.3455413330078123,10.678139404296875,-34.93129770992366,-105.74045801526718,-31.34351145038168,-10.038887561035155,0.016759411621093748,-0.5291185668945312,-47.06870229007634,107.00763358778626,-24.717557251908396,0.0
10.780000686645508,-13.898340637207031,0.5123591552734374,13.558364001464843,-30.65648854961832,-127.34351145038168,-29.81679389312977,-11.303026037597656,0.35194764404296874,1.1851298217773436,-35.38931297709924,103.72519083969466,-20.442748091603054,0.0
10.790000677108765,-14.480131640624998,-2.3726538452148436,14.788983654785156,-16.061068702290076,-152.54961832061068,-27.389312977099237,-11.647791076660155,1.8698714965820311,2.0925322509765625,-26.244274809160306,101.23664122137404,-12.687022900763358,0.0
10.8000009059906,-15.782577343749999,-2.3367408203125,15.397110876464843,5.572519083969466,-182.74809160305344,-32.458015267175576,-14.099453576660155,1.2617442749023438,1.1324573852539062,-8.366412213740459,96.22900763358778,-5.557251908396947,0.0
10.810000896453857,-17.283741784667967,-2.4684219116210935,13.029245434570312,26.549618320610687,-214.90076335877862,-37.3587786259542,-14.822502478027342,0.17477672119140625,0.277727392578125,6.732824427480916,96.01526717557252,-1.0229007633587786,0.0
10.820000648498535,-20.436905371093747,-1.0965443603515623,10.026916552734374,48.99236641221374,-244.06106870229007,-33.725190839694655,-12.715605017089842,0.2705447875976562,-1.1923124267578125,21.267175572519083,87.2824427480916,0.7175572519083969,0.0
10.830000638961792,-23.118411230468748,1.6208745239257811,7.675810522460937,60.2442748091603,-263.19083969465646,-22.213740458015266,-10.065223779296874,0.6488286499023437,-1.8052280517578123,22.106870229007633,84.18320610687023,3.435114503816794,0.0
10.840000867843628,-20.94687032470703,1.6304513305664061,6.995857250976562,68.73282442748092,-284.1374045801527,-1.618320610687023,-8.78432589111328,-0.45010991210937495,-2.0302830078125,22.625954198473284,85.64885496183206,5.755725190839694,0.0
10.850001096725464,-19.41458126220703,2.1308394775390624,0.29448680419921874,87.16030534351145,-289.87786259541986,24.15267175572519,-7.4579381713867186,-1.8339584716796873,-2.2481553588867187,13.679389312977099,89.92366412213741,6.030534351145038,0.0
10.860000848770142,-19.821595544433592,4.848258361816406,-3.4572271972656248,84.35114503816794,-281.78625954198475,50.091603053435115,-8.619125976562499,-4.709394665527343,-2.3151930053710936,15.465648854961833,98.50381679389314,6.595419847328245,0.0
10.870000839233398,-16.699556579589842,3.0166940917968748,-8.614337573242187,67.52671755725191,-280.1679389312977,71.72519083969466,-9.375693701171874,-3.201047619628906,-3.208230224609375,17.572519083969464,102.3969465648855,4.3816793893129775,0.0
10.880000591278076,-13.757082739257811,1.6927005737304686,-9.76116016845703,39.51145038167939,-266.6564885496183,78.1526717557252,-10.168174450683592,-2.1212626708984375,-2.9855694702148434,8.320610687022901,105.54198473282443,3.404580152671756,0.0
10.890000820159912,-11.077971081542968,0.296881005859375,-7.60398447265625,14.82442748091603,-244.87022900763358,80.01526717557252,-11.674127294921874,-2.252943762207031,0.30406361083984373,-3.404580152671756,114.59541984732824,8.229007633587786,0.0
10.900000810623169,-12.43069501953125,2.7916391357421872,-0.9169792358398436,10.15267175572519,-218.0916030534351,80.99236641221374,-9.560047229003906,3.0837317382812497,-3.749319799804687,-34.88549618320611,109.6030534351145,3.4198473282442747,0.0
10.910000562667847,-13.046004846191405,2.2673089721679687,6.196193896484375,15.297709923664122,-207.6030534351145,86.21374045801527,-11.702857714843748,0.10295067138671875,-0.181959326171875,-78.07633587786259,113.02290076335878,9.49618320610687,0.0
10.920000553131104,-10.97502041015625,-2.5354595581054684,5.9591679321289055,19.587786259541986,-192.06106870229007,84.68702290076335,-9.751583361816406,2.81558115234375,-3.438073583984375,-85.25190839694656,95.86259541984732,9.083969465648854,0.0
10.93000054359436,-11.228805786132812,-3.778050219726562,3.2034418212890623,20.38167938931298,-180.7175572519084,67.55725190839695,-13.426682910156249,-2.6048914062499997,1.6519991455078125,-92.18320610687023,96.22900763358778,17.267175572519083,0.0
10.940001249313354,-11.623849060058593,-4.797980126953124,-0.26815058593749996,28.519083969465647,-178.21374045801528,54.83969465648855,-12.84489190673828,-6.217741711425781,3.5817256835937497,-54.030534351145036,78.56488549618321,16.85496183206107,0.0
10.950000762939453,-13.912705847167969,-1.8435352783203125,-1.2928688964843749,29.435114503816795,-171.98473282442748,41.49618320610687,-6.842628344726562,8.738836059570312,-2.7341782958984373,-3.6946564885496183,54.534351145038165,-7.206106870229007,0.0
10.960001230239868,-10.625466967773438,1.7094599853515624,2.0566192260742184,10.320610687022901,-165.29770992366412,39.11450381679389,-9.387664709472656,6.7037646484375,-5.157110375976562,-157.7709923664122,63.89312977099237,3.648854961832061,0.0
10.970000505447388,-6.947973217773437,0.19153613281249998,1.5897499023437498,-10.80916030534351,-159.34351145038167,44.412213740458014,-11.054029064941405,-4.209006518554688,0.928950244140625,-153.87786259541986,78.29007633587786,22.82442748091603,0.0
10.980000972747803,-8.645462194824217,-0.24660277099609373,0.44532150878906246,-21.938931297709924,-146.04580152671755,42.0763358778626,-5.042188696289062,0.8307879760742187,-2.85388837890625,-105.09923664122137,56.12213740458015,15.068702290076336,0.0
10.99000072479248,-6.169857678222656,1.438915197753906,0.062249243164062495,-20.442748091603054,-134.36641221374046,42.47328244274809,-8.820238916015624,-4.141968872070312,-1.2234370483398436,-109.16030534351145,68.22900763358778,18.38167938931298,0.0
11.000000953674316,-3.8091748413085935,-0.9840168823242187,-1.7334020019531249,-18.65648854961832,-119.86259541984732,44.01526717557252,-9.229647399902344,-7.917624890136718,1.2569558715820313,-51.267175572519086,67.25190839694656,14.992366412213741,0.0
11.010001420974731,-2.5043349365234375,-2.6527754394531247,-2.3343466186523436,-18.244274809160306,-106.21374045801527,39.770992366412216,-9.291896643066405,-4.582501977539062,0.35673604736328124,-12.870229007633588,50.213740458015266,7.358778625954199,0.0
11.02000117301941,-0.1292868896484375,-1.458068811035156,0.1005564697265625,-17.0381679389313,-86.91603053435115,33.3587786259542,-9.868899243164062,-2.461239306640625,-0.25139117431640623,-10.641221374045802,42.091603053435115,10.091603053435115,0.0
11.030001163482666,1.5658078857421873,-2.767697119140625,0.49320554199218747,-22.137404580152673,-74.44274809160305,23.709923664122137,-9.919177478027343,-2.0470424194335934,0.7685387329101562,-0.12213740458015267,38.396946564885496,9.358778625954198,0.0
11.040000677108765,4.271255761718749,-4.220977526855468,-0.8810662109374999,-14.488549618320612,-60.2442748091603,15.48091603053435,-12.16254443359375,-2.607285607910156,2.4396914916992185,23.49618320610687,40.48854961832061,12.946564885496183,0.0
11.050001382827759,0.8762778076171874,-1.7812860351562498,0.4955997436523437,4.809160305343512,-33.49618320610687,4.290076335877862,-9.593566052246093,-0.9888052856445312,0.4908113403320312,25.755725190839694,32.97709923664122,12.687022900763358,0.0
11.060000896453857,3.0142998901367184,-2.990357873535156,-1.1731588134765625,34.01526717557252,-21.34351145038168,5.984732824427481,-11.726799731445311,-5.482721801757812,2.2673089721679687,41.86259541984733,38.74809160305343,18.198473282442748,0.0
11.070000886917114,0.9720458740234375,2.0278888061523435,1.0749965454101562,48.76335877862596,-2.015267175572519,2.7938931297709924,-7.989450939941406,0.7134720947265625,-0.7015010864257812,49.48091603053435,25.14503816793893,10.778625954198473,0.0
11.08000111579895,2.7916391357421872,1.6615759521484375,0.6248866333007812,57.49618320610687,4.519083969465649,9.022900763358779,-13.977349291992187,-10.40041201171875,6.318298181152343,35.64885496183206,30.702290076335878,18.30534351145038,0.0
11.090001106262207,1.0223241088867188,5.078101721191406,2.023100402832031,53.02290076335878,21.053435114503817,9.694656488549619,-9.89523546142578,3.1364041748046874,-5.820304235839844,83.70992366412214,13.755725190839694,9.908396946564885,0.0
11.100000619888306,0.201112939453125,5.8226984375,3.2441432495117186,22.458015267175572,22.16793893129771,8.442748091603054,-11.805808386230469,-3.3590649291992185,2.940079638671875,42.82442748091603,22.946564885496183,12.427480916030534,0.0
11.110000610351562,-1.6041151123046875,6.306327172851562,5.05655390625,-11.16030534351145,25.81679389312977,9.511450381679388,-8.645462194824217,4.3071687866210935,-1.3670891479492187,66.22900763358778,17.068702290076335,-3.5114503816793894,0.0
11.120000839233398,-3.229778039550781,7.278373046874999,7.211335400390625,-46.51908396946565,24.33587786259542,10.091603053435115,-9.246406811523437,6.478709692382812,-1.0007762939453124,20.30534351145038,30.763358778625953,0.5343511450381679,0.0
11.130000829696655,-2.5570073730468748,3.8690298828125,6.8569935546875,-67.95419847328245,20.610687022900763,18.595419847328245,-13.283030810546874,-3.6942531616210936,6.79953271484375,-6.534351145038168,42.25954198473283,13.98473282442748,0.0
11.140000820159912,0.46686932373046874,-0.3758896606445312,4.848258361816406,-58.961832061068705,30.595419847328245,25.587786259541986,-11.487379565429686,-3.3399113159179685,2.0063409912109376,8.381679389312977,35.770992366412216,12.885496183206106,0.0
11.150000810623169,1.4101847778320311,-3.4165257690429685,2.6886884643554687,-41.63358778625954,47.954198473282446,21.236641221374047,-10.457872851562499,0.5099649536132812,-0.40462008056640625,11.404580152671755,26.259541984732824,9.954198473282442,0.0
11.160000562667847,-2.5761609863281247,-7.053318090820312,8.650250598144531,-22.595419847328245,64.16793893129771,13.954198473282442,-13.891158032226562,-3.902548706054687,1.9393033447265624,1.4198473282442747,38.916030534351144,13.038167938931299,0.0
11.170000553131104,-13.757082739257811,-7.864952453613281,31.694441577148435,20.82442748091603,42.42748091603053,11.557251908396946,-13.74511173095703,-1.37906015625,-0.21308394775390624,16.015267175572518,18.137404580152673,8.549618320610687,0.0
11.180001020431519,-21.57893956298828,-4.584896179199219,37.308844470214844,99.8473282442748,40.51908396946565,34.961832061068705,-13.587094421386718,1.467645617675781,-1.707065783691406,-17.770992366412212,9.877862595419847,6.5038167938931295,0.0
11.190001010894775,-15.593435412597655,0.047884033203124995,6.215347509765625,157.17557251908397,61.70992366412214,40.30534351145038,-13.41950030517578,2.3439234252929686,-2.8562825805664063,-37.083969465648856,9.221374045801527,4.198473282442748,0.0
11.200001239776611,-3.1842882080078123,-2.932897033691406,-9.662997900390625,91.63358778625954,34.83969465648855,-4.687022900763359,-16.38831036376953,-1.7166425903320313,-0.9217676391601562,-50.80916030534351,18.18320610687023,10.229007633587786,0.0
11.21000051498413,-3.4859576171874997,-2.4899697265625,0.16280571289062498,99.49618320610686,58.35114503816794,-15.17557251908397,-17.638083630371092,-2.5713725830078125,-0.016759411621093748,-45.969465648854964,11.801526717557252,13.526717557251908,0.0
11.220000505447388,7.2903440551757805,-4.6998178588867185,-1.9680337646484374,156.38167938931298,76.09160305343511,8.458015267175572,-18.236634045410156,-1.5466542724609373,-1.2593500732421874,-35.86259541984733,1.0381679389312977,18.427480916030536,0.0
11.230000495910645,-2.327164013671875,4.601655590820312,1.3383587280273437,150.29007633587787,138.35114503816794,-6.580152671755725,-17.176002709960937,-1.3862427612304686,-2.925714428710937,-30.03053435114504,-7.1603053435114505,23.099236641221374,0.0
11.24000072479248,-7.802703210449218,-0.7613561279296874,-2.674323254394531,131.3740458015267,150.0916030534351,-10.488549618320612,-17.46091270751953,-1.120486376953125,-3.0023288818359375,-4.3816793893129775,-19.587786259541986,21.34351145038168,0.0
11.250000238418579,-17.99721387939453,5.461173986816406,4.390965844726562,111.25190839694656,157.45038167938932,-27.541984732824428,-15.988478686523436,0.201112939453125,-2.1930887207031247,-6.809160305343512,-29.908396946564885,23.862595419847327,0.0
11.260000467300415,-13.01727442626953,1.5394716674804687,2.327164013671875,76.21374045801527,131.80152671755727,-20.229007633587788,-14.963760375976562,1.0414777221679687,-0.6703764648437499,-3.969465648854962,-40.35114503816794,26.85496183206107,0.0
11.27000093460083,-14.171279626464843,7.862558251953125,3.687070556640625,69.81679389312977,144.93129770992365,-22.702290076335878,-13.953407275390624,-0.055066638183593745,0.36152445068359373,-2.4122137404580153,-52.534351145038165,32.229007633587784,0.0
11.280001163482666,-10.472238061523436,3.191470812988281,0.14125789794921875,34.961832061068705,126.42748091603053,-23.206106870229007,-14.611812731933593,-2.1883003173828124,1.180341418457031,10.412213740458014,-65.78625954198473,30.778625954198475,0.0
11.290001392364502,-10.955866796875,2.6599580444335937,1.6328455322265625,33.32824427480916,132.77862595419847,-27.236641221374047,-13.299790222167967,-1.9512743530273435,0.8379705810546875,21.251908396946565,-87.20610687022901,22.85496183206107,0.0
11.300000667572021,-11.058817468261719,2.5522189697265625,-0.4572925170898437,3.648854961832061,127.61832061068702,-36.13740458015267,-12.46900224609375,-0.8834604125976562,0.24181436767578124,15.206106870229007,-101.98473282442748,14.931297709923664,0.0
11.310001134872437,-10.419565624999999,1.1755530151367186,-0.430956298828125,-15.86259541984733,125.29770992366412,-39.45038167938932,-12.655749975585938,-1.0079588989257813,-0.833182177734375,21.908396946564885,-114.1526717557252,7.190839694656488,0.0
11.320000886917114,-7.802703210449218,-2.3965958618164063,-1.3120225097656248,-6.778625954198473,129.7709923664122,-38.85496183206107,-11.872846032714843,-0.7302315063476562,-1.7022773803710936,14.900763358778626,-113.29770992366412,1.6030534351145038,0.0
11.33000111579895,-10.663774194335938,-2.8107927490234372,-1.3766659545898436,8.122137404580153,138.42748091603053,-44.74809160305343,-9.773131176757811,1.3718775512695311,-3.2920272827148436,16.641221374045802,-115.20610687022901,-6.595419847328245,0.0
11.340000629425049,-13.172897534179686,0.5195417602539062,0.48123453369140623,23.587786259541986,148.7175572519084,-50.18320610687023,-10.122684619140625,0.19871873779296872,-5.444414575195312,6.015267175572519,-102.21374045801527,-7.633587786259542,0.0
11.350000858306885,-13.101071484375,1.5945383056640625,1.1037269653320312,22.519083969465647,150.44274809160305,-52.717557251908396,-8.202534887695313,1.9488801513671874,-6.967126831054687,-4.1679389312977095,-92.94656488549619,-11.587786259541986,0.0
11.360000371932983,-12.842497705078124,2.252943762207031,1.8052280517578123,10.488549618320612,147.70992366412213,-57.908396946564885,-9.97184991455078,-0.6823474731445313,-6.830657336425781,-8.916030534351146,-76.54961832061069,-12.564885496183207,0.0
11.370001554489136,-13.41950030517578,1.8698714965820311,2.310404602050781,1.1450381679389312,146.41221374045801,-61.6793893129771,-10.153809240722655,-1.3766659545898436,-5.446808776855469,0.5343511450381679,-70.3969465648855,-16.931297709923665,0.0
11.380000829696655,-10.189722265624999,1.5562310791015623,1.2330138549804688,-1.8473282442748091,141.89312977099237,-63.282442748091604,-9.555258825683593,-1.0390835205078124,-3.8235400512695312,8.488549618320612,-64.38167938931298,-19.954198473282442,0.0
11.390000581741333,-9.0788126953125,-0.9361328491210937,0.2609679809570312,-0.2748091603053435,136.45801526717557,-60.80916030534351,-9.375693701171874,-0.6200982299804687,-3.2609026611328122,16.412213740458014,-62.83969465648855,-22.65648854961832,0.0
11.40000057220459,-9.181763366699219,-0.01915361328125,1.7334020019531249,4.473282442748092,136.01526717557252,-64.07633587786259,-8.71489404296875,-0.4740519287109375,-2.0063409912109376,24.18320610687023,-59.908396946564885,-24.137404580152673,0.0
11.410000562667847,-9.5384994140625,-0.1005564697265625,1.838746875,13.068702290076336,137.9083969465649,-65.34351145038168,-8.56166513671875,-0.6727706665039062,-1.6256629272460936,40.19847328244275,-62.19847328244275,-26.3206106870229,0.0
11.420001029968262,-12.454637036132812,5.343858105468749,3.0693665283203124,11.297709923664122,142.3206106870229,-70.30534351145039,-8.975862023925782,0.3687070556640625,-1.608903515625,50.0763358778626,-67.22137404580153,-28.106870229007633,0.0
11.43000054359436,-9.725247143554688,1.8219874633789062,0.7158662963867187,-8.213740458015268,127.90839694656489,-64.04580152671755,-7.287949853515625,2.360682836914062,-2.360682836914062,43.587786259541986,-70.13740458015268,-29.389312977099237,0.0
11.440000295639038,-12.119448803710936,7.204152795410156,2.291250988769531,-12.778625954198473,132.65648854961833,-64.04580152671755,-9.188945971679686,0.3902548706054687,-1.8818425048828125,45.221374045801525,-66.87022900763358,-25.34351145038168,0.0
11.450000286102295,-9.282319836425781,1.8100164550781248,-0.4381389038085937,-26.213740458015266,120.80916030534351,-56.50381679389313,-7.618349682617187,2.492363928222656,-2.683900061035156,40.94656488549618,-73.81679389312977,-25.740458015267176,0.0
11.46000075340271,-11.396399902343749,5.635950708007812,0.3112462158203125,-21.114503816793892,129.17557251908397,-54.229007633587784,-8.262389929199218,0.7541735229492187,-1.5322890624999999,39.221374045801525,-67.55725190839695,-21.099236641221374,0.0
11.470000267028809,-9.054870678710937,1.8650830932617186,-0.8738836059570312,-38.656488549618324,121.29770992366412,-49.02290076335878,-7.364564306640625,2.370259643554687,-2.0757728393554684,43.14503816793893,-74.12213740458016,-20.763358778625953,0.0
11.480000495910645,-14.247894079589843,9.861716638183593,3.5003228271484375,-65.52671755725191,118.59541984732824,-53.61832061068702,-7.714117749023437,1.2042834350585936,-0.622492431640625,40.12213740458015,-68.06106870229007,-15.587786259541986,0.0
11.490000486373901,-8.238447912597655,0.8403647827148437,0.5865794067382812,-96.07633587786259,97.92366412213741,-40.29007633587786,-7.264007836914062,3.1675287963867187,-1.3455413330078123,40.091603053435115,-76.90076335877863,-16.519083969465647,0.0
11.500000476837158,-11.341333264160156,4.819527941894531,2.461239306640625,-91.32824427480917,103.95419847328245,-37.69465648854962,-7.410054138183593,2.70065947265625,-1.0486603271484374,28.80916030534351,-70.12213740458016,-11.84732824427481,0.0
11.510000705718994,-6.739677673339843,-2.059013427734375,0.5219359619140624,-81.72519083969466,100.1526717557252,-24.702290076335878,-6.983886242675781,2.971204260253906,-0.8738836059570312,20.290076335877863,-75.96946564885496,-10.778625954198473,0.0
11.520000696182251,-13.907917443847655,6.306327172851562,4.204218115234375,-89.6030534351145,99.3587786259542,-29.984732824427482,-7.7979148071289055,1.9416975463867185,0.18914193115234373,17.114503816793892,-69.78625954198473,-5.633587786259542,0.0
11.530000686645508,-9.370905297851563,0.2753331909179687,1.8411410766601561,-95.34351145038168,89.95419847328245,-20.85496183206107,-6.593631372070312,3.6296097167968746,-0.6368576416015624,8.641221374045802,-74.90076335877863,-6.183206106870229,0.0
11.540000438690186,-10.419565624999999,0.6823474731445313,2.1619640991210938,-96.19847328244275,81.69465648854961,-17.358778625954198,-8.027758166503906,1.9776105712890624,1.0630255371093749,6.595419847328245,-68.45801526717557,0.6717557251908397,0.0
11.5500009059906,-9.512163195800781,-1.2473790649414063,1.158793603515625,-81.89312977099236,80.82442748091603,-16.244274809160306,-6.782773303222656,2.0183119995117185,0.44053310546874996,3.7709923664122136,-74.13740458015268,-0.21374045801526717,0.0
11.560000658035278,-14.666879370117186,2.4875755249023435,2.528276953125,-96.13740458015268,73.48091603053435,-21.6793893129771,-8.202534887695313,1.1348515869140625,0.8762778076171874,6.885496183206107,-69.09923664122137,1.618320610687023,0.0
11.570000886917114,-10.230423693847655,-1.2880804931640624,1.350329736328125,-95.81679389312977,63.17557251908397,-13.374045801526718,-7.417236743164062,1.407790576171875,-0.40222587890625,4.625954198473282,-72.38167938931298,-0.04580152671755725,0.0
11.580000638961792,-12.555193505859375,1.0965443603515623,3.39018955078125,-78.29007633587786,63.37404580152672,-9.770992366412214,-7.81467421875,0.30885201416015623,-0.258573779296875,0.0,-64.70229007633588,3.282442748091603,0.0
11.590000867843628,-11.082759484863281,-1.0654197387695312,2.7964275390625,-62.62595419847328,61.725190839694655,-7.770992366412214,-7.7763669921875,1.3239935180664062,-0.852335791015625,6.641221374045801,-68.61068702290076,3.0229007633587788,0.0
11.600000858306885,-14.310143322753905,2.0542250244140625,4.019864587402344,-55.725190839694655,57.603053435114504,-14.045801526717558,-7.931990100097655,0.612915625,0.59376201171875,-0.732824427480916,-59.847328244274806,3.6793893129770994,0.0
11.610000610351562,-12.859257116699219,-0.15083470458984374,4.522646936035156,-47.49618320610687,44.88549618320611,-10.335877862595419,-9.842563024902343,-0.7398083129882812,1.2425906616210938,8.610687022900763,-60.82442748091603,3.3740458015267176,0.0
11.62000060081482,-11.942277880859374,-1.8602946899414061,4.410119458007812,-14.67175572519084,40.045801526717554,-7.557251908396947,-8.307879760742187,0.22744915771484372,0.21308394775390624,4.977099236641221,-60.80916030534351,-1.6488549618320612,0.0
11.630000829696655,-12.629413757324219,-0.5506663818359374,4.833893151855468,-0.7938931297709924,32.36641221374046,-10.13740458015267,-9.880870251464843,-0.7685387329101562,0.3112462158203125,8.213740458015268,-51.43511450381679,-1.5267175572519085,0.0
11.640000581741333,-12.102689392089843,-1.0175357055664063,3.900154504394531,12.183206106870228,19.51145038167939,-12.641221374045802,-9.813832604980469,-0.6631938598632812,1.20667763671875,18.732824427480917,-53.3587786259542,-1.450381679389313,0.0
11.65000057220459,-12.217611071777343,0.3806780639648437,3.258508459472656,29.81679389312977,14.229007633587786,-13.664122137404581,-8.556876733398436,1.1755530151367186,0.584185205078125,13.32824427480916,-50.51908396946565,-4.473282442748092,0.0
11.660000562667847,-12.23915888671875,2.104503259277344,2.2026655273437497,36.916030534351144,9.374045801526718,-12.580152671755725,-9.323021264648437,1.1109095703125,0.7254431030273437,11.419847328244275,-37.7557251908397,-2.3206106870229006,0.0
11.670000553131104,-12.74912384033203,2.750937707519531,0.7398083129882812,33.6793893129771,6.473282442748092,-6.717557251908397,-10.251971508789062,0.258573779296875,0.488417138671875,17.404580152671755,-34.38167938931298,-2.2748091603053435,0.0
11.68000078201294,-12.50730947265625,1.7405846069335937,0.055066638183593745,30.885496183206108,5.8320610687022905,-1.786259541984733,-9.801861596679688,0.8475473876953125,-0.031124621582031248,18.366412213740457,-37.63358778625954,-6.2748091603053435,0.0
11.690001249313354,-12.205640063476562,1.4820108276367188,0.4429273071289062,28.412213740458014,7.267175572519084,-3.49618320610687,-7.917624890136718,1.8914193115234375,0.26336218261718747,7.969465648854962,-29.068702290076335,-10.442748091603054,0.0
11.700000762939453,-11.877634436035155,1.5035586425781249,0.7900865478515624,22.68702290076336,5.343511450381679,-8.106870229007633,-8.231265307617187,2.123656872558594,-0.02633621826171875,-3.5572519083969465,-16.48854961832061,-10.274809160305344,0.0
11.71000051498413,-11.444283935546874,1.199495031738281,0.8068459594726562,14.900763358778626,0.2900763358778626,-14.625954198473282,-8.990227233886719,1.1540052001953125,0.40222587890625,-5.862595419847328,-10.595419847328245,-8.641221374045802,0.0
11.720000743865967,-10.364498986816406,0.16280571289062498,-0.06464344482421874,13.938931297709924,-3.435114503816794,-19.923664122137403,-8.858546142578124,0.6200982299804687,0.6488286499023437,-8.076335877862595,-5.374045801526718,-9.374045801526718,0.0
11.730000495910645,-10.196904870605469,1.47482822265625,0.47165772705078124,6.152671755725191,-5.938931297709924,-27.328244274809162,-8.688557824707031,0.5219359619140624,0.5219359619140624,-7.358778625954199,-0.916030534351145,-10.442748091603054,0.0
11.740000486373901,-10.900800158691405,2.1308394775390624,1.2401964599609374,-10.763358778625955,-13.221374045801527,-31.022900763358777,-8.061276989746093,0.8259995727539062,0.8595183959960937,-10.396946564885496,1.251908396946565,-10.916030534351146,0.0
11.750000476837158,-10.407594616699217,2.2577321655273437,1.9823989746093749,-16.85496183206107,-17.572519083969464,-32.33587786259542,-8.032546569824218,0.17956512451171874,0.8068459594726562,-12.854961832061068,4.656488549618321,-10.65648854961832,0.0
11.760000705718994,-9.45470235595703,1.3575123413085937,2.427720483398437,-23.87786259541985,-24.68702290076336,-31.908396946564885,-7.465120776367187,0.0909796630859375,0.5219359619140624,-16.47328244274809,4.793893129770993,-11.86259541984733,0.0
11.770000457763672,-9.555258825683593,2.032677209472656,3.375824340820312,-24.137404580152673,-29.923664122137403,-33.83206106870229,-7.429207751464843,0.02633621826171875,0.9744400756835937,-15.114503816793894,6.99236641221374,-12.076335877862595,0.0
11.780000686645508,-7.740453967285156,1.6304513305664061,4.1563340820312495,-24.99236641221374,-37.11450381679389,-33.770992366412216,-6.404489440917969,0.06464344482421874,0.97683427734375,-18.38167938931298,6.793893129770993,-13.786259541984732,0.0
11.790000677108765,-7.754819177246094,2.6001030029296874,4.7884033203125,-28.549618320610687,-49.770992366412216,-32.412213740458014,-6.167463476562499,-0.0526724365234375,1.0534487304687499,-15.923664122137405,10.992366412213741,-12.82442748091603,0.0
11.800000429153442,-8.504204296874999,1.6112977172851561,6.270414147949219,-34.25954198473283,-62.213740458015266,-29.633587786259543,-2.4971523315429685,3.5027170288085934,-0.5363011718749999,-22.47328244274809,8.183206106870228,-16.931297709923665,0.0
11.810000896453857,-8.183381274414062,3.2034418212890623,7.675810522460937,-36.06106870229008,-73.52671755725191,-25.954198473282442,-3.9552211425781247,0.4525041137695312,0.35673604736328124,-29.755725190839694,23.541984732824428,-10.83969465648855,0.0
11.820000648498535,-9.205705383300781,1.43652099609375,9.255983618164063,-51.87786259541985,-92.22900763358778,-23.984732824427482,-3.0693665283203124,0.6775590698242188,0.9864110839843749,-30.85496183206107,22.580152671755727,-9.679389312977099,0.0
11.830000877380371,-8.626308581542968,-0.584185205078125,8.386888415527343,-46.38167938931298,-110.36641221374046,-19.51145038167939,-1.9512743530273435,0.3232172241210937,0.2059013427734375,-42.0763358778626,30.99236641221374,-9.786259541984732,0.0
11.840000629425049,-9.514557397460937,-1.16837041015625,9.143456140136719,-40.42748091603053,-121.08396946564885,-21.16030534351145,-3.356670727539062,-1.1324573852539062,0.1197100830078125,-36.25954198473283,37.00763358778626,-8.854961832061068,0.0
11.850000858306885,-9.41639512939453,-2.4588451049804685,9.035717065429687,-34.045801526717554,-134.90076335877862,-26.396946564885496,-3.5242648437499997,-0.5195417602539062,-0.411802685546875,-21.755725190839694,36.94656488549618,-11.755725190839694,0.0
11.860000610351562,-9.907206469726562,-2.35589443359375,8.279149340820313,-19.389312977099237,-146.7175572519084,-32.916030534351144,-4.649539624023437,0.93852705078125,-2.061407629394531,-25.923664122137403,42.56488549618321,-21.328244274809162,0.0
11.87000036239624,-10.572794531249999,-2.327164013671875,7.249642626953125,-6.519083969465649,-158.74809160305344,-40.97709923664122,-11.614272253417967,-0.19632453613281248,0.3806780639648437,-22.35114503816794,59.43511450381679,-26.18320610687023,0.0
11.880000591278076,-12.011709729003906,-0.5123591552734374,7.544129431152343,10.16793893129771,-166.33587786259542,-47.64885496183206,-19.007566979980467,1.9895815795898437,2.070984436035156,-21.17557251908397,59.87786259541985,-36.656488549618324,0.0
11.890000343322754,-13.96298408203125,-0.5410895751953124,6.622361791992187,24.83969465648855,-178.24427480916032,-45.17557251908397,-26.82702960205078,2.2385785522460937,5.061342309570312,-21.6793893129771,67.78625954198473,-29.129770992366414,0.0
11.90000033378601,-17.216704138183594,-1.2378022583007813,6.270414147949219,65.2824427480916,-181.55725190839695,-28.442748091603054,-21.86145535888672,7.40526573486328,2.6599580444335937,-29.603053435114504,51.25190839694657,-5.7251908396946565,0.0
11.910000562667847,-21.890185778808593,0.24181436767578124,7.067683300781249,90.76335877862596,-185.57251908396947,-11.312977099236642,-12.581529724121093,9.241618408203124,-1.0342951171875,-55.17557251908397,39.80152671755725,27.068702290076335,0.0
11.920000553131104,-25.749638854980468,3.7708676147460936,5.614402893066406,102.27480916030534,-192.15267175572518,13.541984732824428,-9.670180505371093,3.6391865234374996,-0.7326257080078125,-82.47328244274809,37.9236641221374,39.74045801526717,0.0
11.93000054359436,-24.44479895019531,6.004657763671875,1.5322890624999999,92.30534351145039,-202.06106870229007,38.961832061068705,-10.232817895507813,-3.7110125732421873,-0.5985504150390625,-86.3206106870229,26.65648854961832,36.06106870229008,0.0
11.940000772476196,-21.72498586425781,6.581660363769531,-2.583343591308594,72.99236641221374,-200.74809160305344,61.969465648854964,-8.501810095214843,-10.673351000976561,-2.4396914916992185,-73.09923664122137,23.96946564885496,10.534351145038167,0.0
11.950000524520874,-18.171990600585936,3.5529952636718747,-7.168239770507812,39.603053435114504,-196.35114503816794,76.56488549618321,-10.991779821777342,-12.871228125,-0.3327940307617187,-48.61068702290076,16.290076335877863,7.511450381679389,0.0
11.96000075340271,-16.68040296630859,2.6623522460937497,-7.972691528320312,-12.16793893129771,-186.0763358778626,72.2442748091603,-9.18655177001953,-10.896011755371093,-3.5290532470703124,-30.290076335877863,11.358778625954198,-6.625954198473282,0.0
11.970000743865967,-13.283030810546874,1.889025109863281,-5.908889697265625,-51.969465648854964,-176.0916030534351,68.91603053435115,-8.037334973144532,-9.093177905273437,-4.752490295410156,-28.977099236641223,19.068702290076335,-11.419847328244275,0.0
11.980000972747803,-13.074735266113281,3.227383837890625,1.0271125122070313,-60.54961832061068,-159.7709923664122,72.91603053435115,-9.167398156738281,-7.884106066894531,-4.953603234863281,-15.267175572519085,25.053435114503817,-11.34351145038168,0.0
11.990000247955322,-12.129025610351562,1.695094775390625,7.867346655273437,-44.74809160305343,-152.25954198473283,86.22900763358778,-9.811438403320311,-5.425260961914062,-4.149151477050781,-3.435114503816794,35.19083969465649,-8.549618320610687,0.0
12.000000476837158,-10.433930834960936,-0.8930372192382812,8.966285217285156,-38.56488549618321,-146.5648854961832,93.23664122137404,-6.524199523925781,0.229843359375,-5.331887097167969,9.312977099236642,38.97709923664122,-10.320610687022901,0.0
12.010000705718994,-8.772354882812499,-2.281674182128906,4.944026428222656,-45.63358778625954,-148.45801526717557,88.3969465648855,-7.635109094238281,18.97404815673828,1.9225439331054686,-19.96946564885496,63.9236641221374,-5.374045801526718,0.0
12.020000696182251,-7.953537915039062,-3.9839515624999997,1.608903515625,-53.51145038167939,-154.0,80.04580152671755,-4.975151049804687,8.66940421142578,-7.105990527343749,-45.69465648854962,78.58015267175573,0.5190839694656488,0.0
12.030001163482666,-7.738059765625,-4.958391638183594,1.0199299072265624,-52.47328244274809,-155.2824427480916,69.5114503816794,-10.328585961914062,5.741295581054687,-5.7125651611328125,-72.4885496183206,114.1526717557252,18.900763358778626,0.0
12.040000677108765,-7.37414111328125,-6.306327172851562,1.6711527587890624,-45.17557251908397,-154.7175572519084,59.69465648854962,-5.085284326171875,9.320627062988281,-7.831433630371094,-92.99236641221374,119.6793893129771,20.091603053435115,0.0
12.050000429153442,-7.122749938964843,-5.9400143188476555,3.2345664428710936,-28.916030534351144,-151.38931297709922,47.17557251908397,-10.850521923828124,0.8930372192382812,-3.9887399658203124,-120.04580152671755,151.5267175572519,33.23664122137404,0.0
12.060000896453857,-7.4579381713867186,-6.356605407714843,1.4101847778320311,-13.587786259541986,-154.21374045801528,38.33587786259542,1.235408056640625,20.62844150390625,-2.786850732421875,-79.54198473282443,144.03053435114504,16.625954198473284,0.0
12.070000886917114,-6.890512377929687,-2.5617957763671875,3.897760302734375,-6.259541984732825,-149.58778625954199,25.541984732824428,-10.73799444580078,-1.9488801513671874,-1.7214309936523438,-218.04580152671755,190.0763358778626,39.221374045801525,0.0
12.080000877380371,-6.138733056640625,-5.858611462402344,1.3910311645507811,1.8931297709923665,-155.7709923664122,21.083969465648856,-5.398924743652343,-6.148309863281249,0.718260498046875,-134.67175572519085,163.93893129770993,44.12213740458015,0.0
12.090000867843628,-4.505887524414062,-7.563283044433593,0.28969840087890625,18.3206106870229,-156.3053435114504,10.732824427480915,-11.69567510986328,-15.921441040039062,6.229712719726562,-38.19847328244275,158.91603053435114,44.76335877862596,0.0
12.100000381469727,-4.340687609863281,-7.790732202148437,0.040701428222656245,53.20610687022901,-144.3053435114504,2.33587786259542,-9.919177478027343,-14.30774912109375,4.774038110351563,47.343511450381676,129.17557251908397,26.671755725190838,0.0
12.110000371932983,-2.829946362304687,-5.774814404296874,0.14125789794921875,80.99236641221374,-133.1908396946565,-3.9236641221374047,-10.319009155273436,-2.8371289672851563,2.04943662109375,97.93893129770993,91.32824427480917,10.80916030534351,0.0
12.12000060081482,-2.463633508300781,-3.545812658691406,1.5514426757812498,96.62595419847328,-119.57251908396947,-8.549618320610687,-14.717157604980468,-1.1085153686523437,6.517016918945312,98.56488549618321,72.09160305343511,13.17557251908397,0.0
12.130000352859497,-3.303998291015625,-1.8746598999023436,1.0031704956054688,106.27480916030534,-108.74809160305344,-11.725190839694656,-14.381969372558594,0.8858546142578124,10.419565624999999,107.55725190839695,49.9236641221374,15.267175572519085,0.0
12.140000581741333,-1.5322890624999999,-2.901772412109375,-1.2808978881835937,111.69465648854961,-106.12213740458016,-12.183206106870228,-16.69476817626953,-10.014945544433592,14.829685083007812,96.44274809160305,47.587786259541986,25.633587786259543,0.0
12.15000057220459,-2.4396914916992185,-0.6153098266601562,-0.27293898925781246,128.73282442748092,-81.72519083969466,-13.938931297709924,-10.687716210937499,3.9911341674804683,2.528276953125,135.29770992366412,17.236641221374047,8.82442748091603,0.0
12.160000562667847,2.2601263671875,-0.19871873779296872,-1.9776105712890624,148.9618320610687,-64.53435114503817,-5.7251908396946565,-14.815319873046874,-2.252943762207031,6.912060192871094,75.83206106870229,32.0763358778626,16.442748091603054,0.0
12.170000553131104,-2.427720483398437,7.455543969726562,0.928950244140625,140.4732824427481,-31.022900763358777,-4.763358778625954,-10.87206973876953,2.212242333984375,-1.3910311645507811,94.1526717557252,12.854961832061068,7.633587786259542,0.0
12.18000078201294,0.4908113403320312,8.307879760742187,1.5873557006835937,118.44274809160305,-21.52671755725191,2.50381679389313,-13.345280053710937,-5.183446594238281,-2.9281086303710935,20.641221374045802,24.213740458015266,19.954198473282442,0.0
12.190000534057617,-2.0829554443359375,12.521674682617187,3.9911341674804683,81.66412213740458,-7.786259541984733,6.015267175572519,-9.023746057128905,-0.3016694091796875,-3.227383837890625,61.55725190839695,24.3206106870229,14.458015267175572,0.0
12.200000762939453,-1.707065783691406,11.844115612792969,5.437231970214843,24.68702290076336,-10.992366412213741,8.717557251908397,-10.953472595214842,-4.278438366699218,-0.2825157958984375,51.14503816793893,35.61832061068702,15.603053435114504,0.0
12.21000051498413,-1.9105729248046874,12.133814013671874,6.962338427734375,-15.267175572519085,1.2671755725190839,15.84732824427481,-9.548076220703125,0.4213794921875,-2.138022082519531,36.412213740458014,28.595419847328245,5.038167938931298,0.0
12.220000743865967,-0.9816226806640624,9.727641345214844,6.890512377929687,-49.465648854961835,11.312977099236642,21.84732824427481,-12.026074938964843,-1.62805712890625,0.5410895751953124,12.381679389312977,38.16793893129771,7.770992366412214,0.0
12.230000495910645,2.250549560546875,4.7381250854492185,2.3151930053710936,-74.3206106870229,21.022900763358777,29.068702290076335,-12.509703674316405,0.3112462158203125,0.7829039428710937,2.33587786259542,30.610687022900763,5.557251908396947,0.0
12.240000486373901,4.970362646484375,0.7326257080078125,-1.4006079711914061,-72.21374045801527,51.847328244274806,32.19847328244275,-13.946224670410155,-1.1348515869140625,0.6655880615234374,-8.717557251908397,24.442748091603054,9.435114503816793,0.0
12.250000476837158,5.748478186035156,-1.7453730102539062,-7.414842541503906,-56.29007633587786,93.26717557251908,28.549618320610687,-13.536816186523437,-1.0319009155273438,0.086191259765625,-22.015267175572518,12.641221374045802,7.526717557251908,0.0
12.260000705718994,1.0271125122070313,-3.6655227416992187,-3.794809631347656,-46.80916030534351,132.67175572519085,25.49618320610687,-13.034033837890624,2.1691467041015624,-0.97683427734375,-49.282442748091604,5.7251908396946565,5.450381679389313,0.0
12.270000696182251,-16.876727502441405,-13.41950030517578,37.6560037109375,20.900763358778626,125.72519083969466,36.70229007633588,-14.180856433105468,3.0813375366210938,-0.8667010009765624,-75.2824427480916,4.732824427480916,8.82442748091603,0.0
12.280000686645508,-28.378472277832028,1.5969325073242187,39.22540289916992,139.6946564885496,105.38931297709924,45.98473282442748,-16.08903515625,1.429338391113281,-0.48123453369140623,-91.69465648854961,3.068702290076336,15.358778625954198,0.0
12.290000677108765,-24.59084525146484,7.747636572265624,3.1411925781249996,150.9770992366412,130.2290076335878,42.213740458015266,-16.263811877441405,-1.8052280517578123,-0.06703764648437499,-94.18320610687023,1.450381679389313,17.358778625954198,0.0
12.300000667572021,-14.200010046386717,10.280701928710936,-12.84489190673828,51.89312977099237,70.16793893129771,1.450381679389313,-18.212692028808593,-3.967192150878906,1.0366893188476562,-77.55725190839695,-8.106870229007633,18.213740458015266,0.0
12.310001134872437,-4.070142822265625,-1.3048399047851562,5.717353564453124,21.61832061068702,85.02290076335878,0.8854961832061069,-18.083405139160156,-3.294421484375,0.7637503295898437,-62.0763358778626,-27.51145038167939,24.717557251908396,0.0
12.320005178451538,5.324704492187499,-5.461173986816406,-3.0980969482421874,36.56488549618321,106.56488549618321,18.916030534351144,-19.49598411865234,-3.306392492675781,-0.7972691528320313,-28.50381679389313,-45.541984732824424,32.229007633587784,0.0
12.33000111579895,-2.760514514160156,-5.7077767578125,-1.3934253662109375,33.00763358778626,143.38931297709922,0.2748091603053435,-19.56062756347656,-1.2330138549804688,-2.5737667846679684,14.961832061068701,-54.85496183206107,35.19083969465649,0.0
12.340000629425049,-3.88818349609375,-12.631807958984375,-1.7286135986328124,51.038167938931295,137.84732824427482,-3.66412213740458,-17.147272290039062,-0.0047884033203125,-1.2306196533203124,16.48854961832061,-73.72519083969466,30.27480916030534,0.0
12.350001096725464,-13.84806240234375,-8.145074047851562,2.5546131713867184,92.76335877862596,167.1145038167939,-27.587786259541986,-14.233528869628906,0.09337386474609374,-1.3575123413085937,26.977099236641223,-83.17557251908397,24.27480916030534,0.0
12.360000610351562,-7.8338278320312495,-10.972626208496093,-0.49320554199218747,112.19847328244275,151.63358778625954,-39.31297709923664,-12.306196533203124,0.38786066894531246,-2.3487118286132813,28.641221374045802,-82.42748091603053,18.458015267175572,0.0
12.370000839233398,-13.295001818847656,-3.2609026611328122,1.7764976318359373,172.99236641221373,202.1679389312977,-51.7557251908397,-10.71884083251953,-2.2577321655273437,-1.209071838378906,27.374045801526716,-79.49618320610686,14.183206106870228,0.0
12.380000829696655,-17.393875061035157,5.851428857421874,1.6112977172851561,119.98473282442748,174.6412213740458,-73.6793893129771,-9.74200655517578,-1.707065783691406,-0.6200982299804687,41.12977099236641,-82.58015267175573,4.702290076335878,0.0
12.390000820159912,-16.079458349609375,9.696516723632811,2.834734765625,63.725190839694655,149.4198473282443,-79.8473282442748,-9.028534460449219,0.8259995727539062,-2.2864625854492187,27.69465648854962,-76.77862595419847,-1.099236641221374,0.0
12.400000810623169,-13.086706274414063,7.247248425292969,2.6096798095703124,14.335877862595419,117.49618320610686,-79.61832061068702,-8.892064965820312,-0.4070142822265625,-4.182670300292968,23.541984732824428,-66.0,0.5954198473282443,0.0
12.410000801086426,-9.536105212402344,4.125209460449218,-0.9050082275390624,-3.49618320610687,99.40458015267176,-71.5114503816794,-8.700528833007812,1.8219874633789062,-8.073247998046874,14.83969465648855,-56.93129770992366,-0.15267175572519084,0.0
12.42000126838684,-6.658274816894531,-0.277727392578125,-2.9472622436523435,21.84732824427481,106.56488549618321,-57.70992366412214,-9.744400756835937,-1.3623007446289062,-7.180210778808593,11.603053435114504,-41.45038167938932,-0.32061068702290074,0.0
12.430000305175781,-8.394071020507813,1.1109095703125,-1.8100164550781248,43.69465648854962,123.12977099236642,-55.282442748091604,-9.17458076171875,-2.806004345703125,-5.705382556152343,27.358778625954198,-36.152671755725194,-3.1908396946564888,0.0
12.440001010894775,-11.669338891601562,2.829946362304687,0.07900865478515624,62.534351145038165,141.54198473282443,-57.32824427480916,-9.801861596679688,-2.7964275390625,-2.882618798828125,35.52671755725191,-32.36641221374046,-7.190839694656488,0.0
12.450001001358032,-8.432378247070313,2.70065947265625,0.8690952026367187,55.52671755725191,142.65648854961833,-62.47328244274809,-7.9295958984374995,-0.00718260498046875,-3.584119885253906,38.900763358778626,-31.709923664122137,-10.549618320610687,0.0
12.460000991821289,-7.874529260253905,3.3303345092773435,1.9847931762695312,43.16030534351145,138.0763358778626,-67.29770992366412,-8.190563879394531,-1.218648645019531,-1.714248388671875,40.93129770992366,-25.221374045801525,-8.458015267175572,0.0
12.470000505447388,-10.658985791015624,2.7820623291015623,1.6208745239257811,27.52671755725191,132.3206106870229,-71.55725190839695,-8.767566479492187,-0.9265560424804687,-0.584185205078125,54.61068702290076,-28.564885496183205,-8.091603053435115,0.0
12.480001211166382,-8.741230261230468,3.9528269409179684,1.438915197753906,17.633587786259543,128.9618320610687,-71.46564885496183,-7.81467421875,0.4070142822265625,-0.27293898925781246,55.9236641221374,-33.908396946564885,-10.198473282442748,0.0
12.49000072479248,-7.426813549804687,3.5314474487304683,0.8667010009765624,14.244274809160306,131.55725190839695,-66.68702290076335,-7.1395093505859375,1.656787548828125,-0.39983167724609375,65.0381679389313,-36.74809160305343,-11.34351145038168,0.0
12.500000715255737,-8.614337573242187,3.323151904296875,1.9225439331054686,3.786259541984733,126.85496183206106,-62.18320610687023,-7.388506323242187,0.4860229370117187,0.82360537109375,70.33587786259542,-44.396946564885496,-8.870229007633588,0.0
12.510000705718994,-9.387664709472656,3.5865140869140624,1.7549498168945312,0.42748091603053434,126.0,-59.847328244274806,-6.907271789550781,2.3774422485351563,0.5099649536132812,74.03053435114504,-56.50381679389313,-12.595419847328245,0.0
12.52000093460083,-10.35492218017578,7.127538342285156,3.787627026367187,-10.854961832061068,125.05343511450381,-59.02290076335878,-5.6383449096679685,3.9504327392578125,0.6272808349609375,49.83206106870229,-58.091603053435115,-11.17557251908397,0.0
12.530000686645508,-9.176974963378905,4.347870214843749,2.863465185546875,-45.61832061068702,105.46564885496183,-52.56488549618321,-7.829039428710937,3.201047619628906,0.15322890625,40.93129770992366,-57.6793893129771,-6.702290076335878,0.0
12.540001153945923,-11.034875451660156,5.154716174316406,2.1811177124023438,-47.099236641221374,107.41984732824427,-49.17557251908397,-6.299144567871093,3.5098996337890624,0.6703764648437499,23.786259541984734,-59.31297709923664,-4.244274809160306,0.0
12.55000114440918,-7.359775903320312,0.6847416748046875,0.45968671875,-49.31297709923664,101.05343511450381,-39.45038167938932,-7.173028173828125,1.6112977172851561,1.1228805786132812,13.954198473282442,-62.13740458015267,-0.7022900763358778,0.0
12.560000658035278,-15.552733984375,10.172962854003906,6.019022973632812,-73.3587786259542,103.6030534351145,-48.213740458015266,-7.544129431152343,1.687912170410156,1.4796166259765624,11.541984732824428,-68.1526717557252,0.48854961832061067,0.0
12.570001125335693,-8.449137658691406,-0.26336218261718747,1.5322890624999999,-84.01526717557252,82.77862595419847,-36.16793893129771,-7.967903124999999,1.0773907470703123,0.86191259765625,6.99236641221374,-74.0,0.5343511450381679,0.0
12.580000638961792,-16.68997977294922,4.826710546875,3.3638533325195312,-92.07633587786259,79.89312977099236,-36.656488549618324,-8.465897070312499,0.93852705078125,0.51714755859375,0.5954198473282443,-75.6793893129771,0.0916030534351145,0.0
12.590001344680786,-9.576806640625,-0.6560112548828124,2.6862942626953124,-67.86259541984732,73.19083969465649,-24.778625954198475,-8.458714465332031,0.10295067138671875,0.3854664672851562,3.5877862595419847,-77.74045801526718,0.8702290076335878,0.0
12.600001096725464,-12.658144177246093,1.3718775512695311,3.7924154296875,-71.61832061068702,63.00763358778626,-23.786259541984734,-8.916006982421875,-0.8403647827148437,1.0869675537109373,4.076335877862595,-76.80916030534351,1.0687022900763359,0.0
12.610000848770142,-11.5304751953125,1.3766659545898436,2.693476867675781,-57.221374045801525,60.38167938931298,-20.702290076335878,-8.259995727539062,-0.6488286499023437,0.16041151123046873,15.282442748091603,-81.5114503816794,-0.4122137404580153,0.0
12.620000839233398,-15.107412475585937,9.955090502929687,7.417236743164062,-81.80152671755725,52.58015267175573,-25.46564885496183,-8.836998327636719,-1.2976572998046874,-0.33518823242187495,16.748091603053435,-76.04580152671755,0.04580152671755725,0.0
12.630000829696655,-10.24718310546875,3.361459130859375,2.6719290527343746,-106.79389312977099,23.893129770992367,-9.83206106870229,-9.047688073730468,-0.09816226806640624,-1.0654197387695312,24.27480916030534,-81.00763358778626,-1.6946564885496183,0.0
12.640000820159912,-11.592724438476562,4.316745593261719,2.437297290039062,-89.1145038167939,22.85496183206107,0.3969465648854962,-8.678981018066406,-0.6727706665039062,-0.814028564453125,17.81679389312977,-71.31297709923665,0.32061068702290074,0.0
12.650000810623169,-7.678204724121093,-1.7836802368164062,-0.23223756103515625,-75.54198473282443,21.053435114503817,9.694656488549619,-10.187328063964843,-1.3000515014648437,0.354341845703125,31.938931297709924,-72.9618320610687,0.32061068702290074,0.0
12.660000801086426,-12.761094848632812,3.6104561035156246,4.3454760131835934,-64.3969465648855,29.221374045801525,-0.4122137404580153,-8.779537487792968,-0.22266075439453123,-0.3902548706054687,31.267175572519083,-68.80916030534351,-2.5343511450381677,0.0
12.670000553131104,-10.905588562011719,1.2569558715820313,1.5155296508789062,-79.86259541984732,16.137404580152673,2.2748091603053435,-10.280701928710936,-0.19632453613281248,0.5889736083984375,40.12213740458015,-65.81679389312977,-2.1374045801526718,0.0
12.680000305175781,-11.01332763671875,-0.36631285400390623,0.9720458740234375,-51.099236641221374,17.81679389312977,6.458015267175573,-9.516951599121093,1.2234370483398436,0.12210428466796874,42.50381679389313,-69.00763358778626,-2.015267175572519,0.0
12.690000772476196,-8.827421520996094,-2.6527754394531247,0.12689268798828124,-27.72519083969466,23.923664122137403,6.717557251908397,-8.870517150878905,1.6065093139648436,0.39264907226562495,33.37404580152672,-62.595419847328245,-1.6946564885496183,0.0
12.700000762939453,-11.271901416015623,-0.8475473876953125,2.27927998046875,-11.893129770992367,34.51908396946565,-5.282442748091603,-10.333374365234375,0.6368576416015624,0.9074024291992187,36.916030534351144,-61.969465648854964,0.9312977099236641,0.0
12.71000075340271,-10.204087475585936,-1.8171990600585937,0.8475473876953125,2.946564885496183,32.35114503816794,-9.358778625954198,-9.222464794921875,2.185906115722656,0.0718260498046875,33.465648854961835,-65.6030534351145,-4.229007633587786,0.0
12.720000743865967,-9.402029919433593,-0.967257470703125,0.34715924072265625,29.114503816793892,39.64885496183206,-10.366412213740459,-8.700528833007812,1.7884686401367187,1.1755530151367186,18.870229007633586,-55.9236641221374,-3.3435114503816794,0.0
12.730000495910645,-10.929530578613281,1.68551796875,0.4860229370117187,25.938931297709924,34.534351145038165,-11.816793893129772,-10.402806213378906,0.7709329345703124,0.2753331909179687,24.778625954198475,-54.56488549618321,-2.595419847328244,0.0
12.740000486373901,-9.682151513671874,0.16519991455078123,0.47644613037109373,36.091603053435115,34.091603053435115,-8.595419847328245,-8.932766394042968,1.6424223388671875,-0.16041151123046873,21.81679389312977,-58.70229007633588,-4.076335877862595,0.0
12.750000476837158,-10.692504614257812,0.4525041137695312,1.3359645263671873,46.595419847328245,39.16030534351145,-7.603053435114504,-8.70771143798828,2.3056161987304686,-0.3064578125,12.320610687022901,-49.465648854961835,-4.122137404580153,0.0
12.760000705718994,-11.262324609375,1.369483349609375,1.5370774658203123,45.74045801526717,36.94656488549618,-9.98473282442748,-9.715670336914062,1.867477294921875,0.1292868896484375,4.748091603053435,-42.61068702290076,-3.114503816793893,0.0
12.770000457763672,-10.733206042480468,1.3096283081054687,0.32082302246093747,45.81679389312977,34.29007633587786,-10.778625954198473,-11.080365283203124,-0.181959326171875,0.9050082275390624,-2.122137404580153,-40.412213740458014,-1.1755725190839694,0.0
12.780000686645508,-10.82179150390625,2.1595698974609374,0.9313444458007812,43.80152671755725,31.129770992366414,-10.916030534351146,-10.481814868164061,0.7805097412109374,0.3902548706054687,10.351145038167939,-41.48091603053435,-3.282442748091603,0.0
12.790000677108765,-11.305420239257812,3.6463691284179687,1.8722656982421875,31.46564885496183,27.419847328244273,-12.610687022900763,-8.853757739257812,2.39420166015625,-0.5147533569335937,10.610687022900763,-36.3206106870229,-5.6183206106870225,0.0
12.800000429153442,-10.697293017578124,3.0980969482421874,1.8171990600585937,23.603053435114504,22.33587786259542,-10.80916030534351,-7.7763669921875,3.057395520019531,-0.01915361328125,-3.816793893129771,-32.82442748091603,-5.267175572519084,0.0
12.810001134872437,-10.721235034179687,3.0238766967773434,1.5610194824218748,16.442748091603054,19.053435114503817,-8.763358778625955,-9.60793126220703,1.6256629272460936,0.7972691528320313,-16.015267175572518,-22.229007633587788,-2.1374045801526718,0.0
12.820000410079956,-10.465055456542968,1.889025109863281,0.5506663818359374,6.931297709923665,15.725190839694656,-9.770992366412214,-10.041281762695311,0.39983167724609375,1.3144167114257812,-17.984732824427482,-22.137404580152673,-1.4961832061068703,0.0
12.830000877380371,-12.588712329101561,4.264073156738281,1.9608511596679685,-7.603053435114504,18.27480916030534,-15.267175572519085,-9.124302526855468,1.2952630981445312,0.3902548706054687,-3.0381679389312977,-24.641221374045802,-5.083969465648855,0.0
12.84000039100647,-11.611878051757811,3.957615344238281,1.177947216796875,-22.83969465648855,12.259541984732824,-14.564885496183207,-10.01015714111328,0.7829039428710937,1.2497732666015624,-23.129770992366414,-19.450381679389313,-4.809160305343512,0.0
12.850000858306885,-9.382876306152344,0.28730419921875,-0.7110778930664062,-19.46564885496183,11.251908396946565,-9.099236641221374,-9.830592016601562,0.7398083129882812,1.5490484741210937,-24.091603053435115,-17.572519083969464,-5.343511450381679,0.0
12.860000848770142,-11.79862578125,2.281674182128906,-0.2825157958984375,-19.557251908396946,17.053435114503817,-14.366412213740459,-9.05965908203125,0.6679822631835937,1.7525556152343749,-26.717557251908396,-15.206106870229007,-6.1679389312977095,0.0
12.87000060081482,-11.75313594970703,1.7836802368164062,-0.143652099609375,-33.45038167938932,11.511450381679388,-18.549618320610687,-9.236830004882812,-0.3447650390625,1.5969325073242187,-23.16030534351145,-12.595419847328245,-7.541984732824427,0.0
12.880000829696655,-12.648567370605468,1.7860744384765623,0.4477157104492187,-47.343511450381676,6.3816793893129775,-21.984732824427482,-8.573636145019531,0.07900865478515624,1.5107412475585937,-27.053435114503817,-9.816793893129772,-7.770992366412214,0.0
12.890000581741333,-11.21683477783203,0.5746083984375,1.426944189453125,-48.70229007633588,2.549618320610687,-21.786259541984734,-8.243236315917969,-0.23223756103515625,0.9983820922851562,-22.35114503816794,-6.244274809160306,-8.320610687022901,0.0
12.90000057220459,-11.547234606933593,1.70467158203125,2.461239306640625,-53.267175572519086,-0.22900763358778625,-25.435114503816795,-7.615955480957031,-0.23223756103515625,0.8762778076171874,-21.328244274809162,-2.3969465648854964,-9.526717557251908,0.0
12.910000562667847,-10.955866796875,0.8283937744140625,2.437297290039062,-61.29770992366412,-12.473282442748092,-23.6793893129771,-7.560888842773437,-0.6919242797851562,0.43574470214843747,-21.572519083969464,3.3893129770992365,-9.618320610687023,0.0
12.920000553131104,-11.552023010253906,1.7238251953125,4.062960217285156,-61.969465648854964,-16.427480916030536,-23.31297709923664,-5.422866760253906,1.209071838378906,-1.0534487304687499,-14.83969465648855,6.106870229007634,-14.50381679389313,0.0
12.93000054359436,-10.690110412597656,0.28969840087890625,4.005499377441406,-66.30534351145039,-26.412213740458014,-19.84732824427481,-5.6958057495117185,0.1005564697265625,0.38786066894531246,-43.52671755725191,21.282442748091604,-10.870229007633588,0.0
12.940000772476196,-10.960655200195312,0.0383072265625,4.3071687866210935,-60.29007633587786,-33.69465648854962,-19.099236641221374,-6.591237170410156,-1.1468225952148436,0.4261678955078125,-27.954198473282442,24.427480916030536,-10.290076335877863,0.0
12.950000524520874,-10.0748005859375,-0.852335791015625,5.894524487304687,-58.229007633587784,-43.847328244274806,-21.541984732824428,-5.250484240722656,-0.36631285400390623,-0.16280571289062498,-24.946564885496183,32.458015267175576,-14.045801526717558,0.0
12.96000075340271,-10.251971508789062,-0.507570751953125,7.244854223632812,-57.29770992366412,-57.908396946564885,-27.389312977099237,-3.842693664550781,1.2665326782226562,-1.2497732666015624,-26.625954198473284,40.778625954198475,-16.900763358778626,0.0
12.970000505447388,-10.065223779296874,-1.1133037719726562,7.824251025390624,-58.67175572519084,-73.29770992366412,-29.17557251908397,-4.876988781738281,-0.8762778076171874,-0.10773907470703124,-29.87786259541985,52.458015267175576,-13.068702290076336,0.0
12.980000734329224,-10.443507641601562,-1.7597382202148437,9.162609753417968,-51.7557251908397,-87.77099236641222,-31.87786259541985,-3.7421371948242186,-0.6344634399414062,-1.024718310546875,-21.0381679389313,51.80152671755725,-14.412213740458014,0.0
12.990000486373901,-9.775525378417969,-2.868253588867187,10.304643945312499,-40.33587786259542,-103.89312977099236,-33.847328244274806,-1.956062756347656,0.7757213378906249,-1.8842367065429686,-26.458015267175572,62.2442748091603,-15.465648854961833,0.0
13.000000476837158,-10.548852514648438,-2.2481553588867187,10.053252770996092,-29.450381679389313,-117.26717557251908,-35.93893129770992,-3.438073583984375,-0.9720458740234375,-0.8307879760742187,-23.236641221374047,71.61832061068702,-11.664122137404581,0.0
13.010000467300415,-10.666168395996094,-3.0310593017578125,9.167398156738281,-18.198473282442748,-132.6259541984733,-38.94656488549618,-3.229778039550781,0.1580173095703125,-1.350329736328125,-19.572519083969464,72.8854961832061,-12.274809160305344,0.0
13.020000696182251,-11.71482872314453,-1.936909143066406,9.7683427734375,-3.49618320610687,-144.51908396946564,-42.61068702290076,-3.7900212280273435,-0.39264907226562495,-1.419761584472656,-23.435114503816795,81.93893129770993,-10.80916030534351,0.0
13.030000686645508,-11.25514200439453,-1.848323681640625,9.440337145996093,6.5038167938931295,-163.3740458015267,-46.595419847328245,-6.021417175292968,-0.5626373901367188,-1.4317325927734375,-13.618320610687023,82.7175572519084,-13.954198473282442,0.0
13.040000677108765,-12.229582080078124,-1.2138602416992186,9.272743029785156,16.595419847328245,-180.91603053435114,-53.05343511450382,-10.046070166015625,-1.5514426757812498,0.08858546142578125,-12.625954198473282,93.34351145038168,-19.282442748091604,0.0
13.0500009059906,-13.077129467773437,-0.5099649536132812,9.72285294189453,22.366412213740457,-198.54961832061068,-58.595419847328245,-17.5830169921875,-3.84987626953125,2.760514514160156,7.129770992366412,92.62595419847328,-28.778625954198475,0.0
13.060000658035278,-14.638148950195312,-0.39743747558593745,9.552864624023437,33.32824427480916,-215.70992366412213,-59.80152671755725,-23.022643164062497,-0.26815058593749996,3.778050219726562,16.610687022900763,89.46564885496183,-38.06106870229008,0.0
13.070000886917114,-16.328455322265626,-2.252943762207031,10.196904870605469,62.10687022900763,-229.12977099236642,-47.89312977099237,-20.685902343749998,8.659827404785156,0.9624690673828125,27.114503816793892,81.1145038167939,-27.984732824427482,0.0
13.080000638961792,-20.776882006835937,-0.17956512451171874,9.114725720214842,106.93129770992367,-236.27480916030535,-26.27480916030534,-14.604630126953124,12.928688964843749,0.37828386230468747,-8.580152671755725,69.05343511450381,5.8320610687022905,0.0
13.090000867843628,-22.194249389648437,3.5960908935546874,4.848258361816406,141.57251908396947,-240.41221374045801,6.030534351145038,-9.76116016845703,9.598354455566406,-1.3168109130859373,-64.30534351145039,89.86259541984732,38.595419847328245,0.0
13.100000381469727,-22.79998240966797,6.37815322265625,-0.9648632690429687,154.3969465648855,-238.21374045801528,40.79389312977099,-1.7118541870117185,11.540052001953125,-4.8506525634765625,-86.36641221374046,90.8854961832061,36.99236641221374,0.0
13.110000848770142,-20.530279235839842,9.387664709472656,-5.652710119628906,137.49618320610688,-225.17557251908397,69.92366412213741,-8.767566479492187,0.8259995727539062,-6.2201359130859375,-197.5267175572519,126.54961832061069,44.12213740458015,0.0
13.120000839233398,-16.440982800292968,3.995922570800781,-9.435548742675781,98.73282442748092,-215.5267175572519,93.26717557251908,-6.976703637695312,-2.6815058593749996,-2.7054478759765623,-144.45801526717557,127.6030534351145,38.274809160305345,0.0
13.130000352859497,-14.360421557617187,1.209071838378906,-9.234435803222656,51.404580152671755,-194.44274809160305,84.8854961832061,-10.984597216796875,-16.94376514892578,-2.767697119140625,-148.1679389312977,133.5114503816794,35.19083969465649,0.0
13.140000581741333,-10.673351000976561,-1.4700398193359374,-9.418789331054686,26.53435114503817,-179.1145038167939,78.53435114503817,-3.708618371582031,-6.610390783691406,-11.463437548828125,-84.51908396946565,105.72519083969466,8.213740458015268,0.0
13.15000057220459,-13.919888452148436,5.521029028320312,2.6575638427734374,9.664122137404581,-145.4198473282443,68.51908396946565,-10.019733947753906,-11.077971081542968,-6.009446166992187,-108.70229007633588,138.74809160305344,10.473282442748092,0.0
13.160000801086426,-11.698069311523437,2.8107927490234372,12.555193505859375,22.717557251908396,-138.50381679389312,86.65648854961832,-9.267954626464844,-9.720458740234374,-5.054159704589844,-38.534351145038165,119.74045801526718,13.557251908396946,0.0
13.170000553131104,-9.07163009033203,-0.6368576416015624,9.119514123535156,30.53435114503817,-124.04580152671755,87.02290076335878,-11.420341918945311,-6.5577183471679685,0.047884033203124995,12.763358778625955,105.19083969465649,15.786259541984732,0.0
13.18000078201294,-9.26316622314453,-1.6400281372070311,3.0071172851562498,6.198473282442748,-128.27480916030535,73.7557251908397,-12.081141577148436,-2.5354595581054684,0.5195417602539062,41.93893129770992,86.54961832061069,15.19083969465649,0.0
13.190000534057617,-9.179369165039063,-2.6431986328124997,0.0383072265625,-11.17557251908397,-137.06870229007635,66.01526717557252,-11.520898388671874,5.046977099609375,1.3263877197265623,39.63358778625954,64.44274809160305,11.755725190839694,0.0
13.200001001358032,-7.134720947265625,-2.8730419921875,0.5626373901367188,-22.38167938931298,-137.40458015267177,61.57251908396947,-12.258312499999999,7.637503295898437,1.0223241088867188,-1.0687022900763359,53.64885496183206,13.358778625954198,0.0
13.21000051498413,-7.343016491699219,-2.913743420410156,3.42849677734375,-29.480916030534353,-130.0,54.6412213740458,-12.454637036132812,3.5601778686523438,2.1715409057617188,-25.740458015267176,51.908396946564885,19.099236641221374,0.0
13.220000743865967,-8.319850769042969,-2.4588451049804685,3.679887951660156,-36.656488549618324,-125.34351145038168,45.221374045801525,-10.9175595703125,1.0702081420898437,2.2553379638671873,-20.83969465648855,42.76335877862596,19.49618320610687,0.0
13.230000495910645,-6.866570361328125,-2.4301146850585935,1.419761584472656,-27.923664122137403,-119.87786259541984,40.717557251908396,-9.404424121093749,1.0558429321289062,0.05746083984375,-21.603053435114504,34.916030534351144,16.564885496183205,0.0
13.240000486373901,-4.522646936035156,-4.04141240234375,-2.403778466796875,-22.259541984732824,-117.58778625954199,38.091603053435115,-11.303026037597656,0.02154781494140625,-0.00718260498046875,-19.893129770992367,38.97709923664122,18.30534351145038,0.0
13.250000476837158,-4.410119458007812,-1.7741034301757812,-0.852335791015625,-12.412213740458014,-97.92366412213741,33.038167938931295,-8.463502868652343,-0.4285620971679687,-0.44532150878906246,-32.94656488549618,35.80152671755725,14.641221374045802,0.0
13.260000705718994,-3.4644098022460934,-2.109291662597656,-0.8355763793945312,-16.47328244274809,-92.65648854961832,29.374045801526716,-10.302249743652343,-7.44357296142578,2.7174188842773437,-18.900763358778626,42.01526717557252,17.587786259541986,0.0
13.27000093460083,-3.399766357421875,-1.455674609375,0.5315127685546874,-19.022900763358777,-80.2442748091603,24.732824427480917,-7.254431030273437,-0.39983167724609375,0.45489831542968745,3.1603053435114505,27.267175572519083,8.687022900763358,0.0
13.280000686645508,-1.4245499877929686,-3.0550013183593747,-0.22744915771484372,-21.572519083969464,-74.01526717557252,15.49618320610687,-11.535263598632811,-7.321468676757812,4.429273071289062,-5.190839694656488,33.587786259541986,15.48091603053435,0.0
13.290000677108765,-0.6177040283203125,-3.9791631591796874,-0.38307226562499996,-12.748091603053435,-57.49618320610687,5.465648854961832,-9.05965908203125,-1.8650830932617186,-0.00239420166015625,51.770992366412216,16.427480916030536,7.893129770992366,0.0
13.3000009059906,1.3958195678710936,-5.331887097167969,-2.114080065917969,9.801526717557252,-41.3587786259542,-2.351145038167939,-12.287042919921875,-6.3709706176757805,0.9002198242187499,22.68702290076336,16.366412213740457,9.954198473282442,0.0
13.310000896453857,0.9576806640625,-3.4835634155273434,-1.5610194824218748,35.83206106870229,-20.549618320610687,-8.427480916030534,-9.734823950195311,-0.5267243652343749,0.16998831787109375,63.725190839694655,6.916030534351145,6.748091603053435,0.0
13.320000886917114,-2.3822306518554686,1.1731588134765625,1.3192051147460937,46.2442748091603,-1.1908396946564885,-15.557251908396946,-12.586318127441405,-9.753977563476562,5.070919116210937,62.83969465648855,11.618320610687023,12.977099236641221,0.0
13.330000877380371,-2.7246014892578123,3.0071172851562498,1.9536685546875,49.099236641221374,-0.2900763358778626,-9.236641221374045,-10.309432348632813,-0.7398083129882812,0.5793968017578125,107.93893129770993,-5.419847328244275,6.1679389312977095,0.0
13.340000629425049,-0.40940848388671874,7.089231115722656,3.864241479492187,54.85496183206107,12.702290076335878,2.7480916030534353,-12.184092248535155,-3.6918589599609373,3.1459809814453124,91.22137404580153,0.22900763358778625,5.816793893129771,0.0
13.350000619888306,-1.2401964599609374,10.216058483886718,6.019022973632812,29.893129770992367,15.038167938931299,15.389312977099237,-9.038111267089842,5.817910034179687,-3.289633081054687,84.53435114503817,-7.969465648854962,-4.305343511450381,0.0
13.360000848770142,-0.8259995727539062,11.796231579589843,7.043741284179687,1.0229007633587786,16.290076335877863,29.099236641221374,-10.874463940429687,5.415684155273437,-1.8076222534179687,50.916030534351144,11.19083969465649,4.778625954198473,0.0
13.370000839233398,-0.34237083740234375,9.473855969238281,6.382941625976562,-24.091603053435115,18.82442748091603,44.94656488549618,-11.688492504882811,4.544194750976562,-1.3623007446289062,42.51908396946565,25.374045801526716,12.687022900763358,0.0
13.380000829696655,-0.15322890625,6.995857250976562,4.896142395019531,-51.7557251908397,33.3587786259542,50.87022900763359,-11.073182678222656,4.46279189453125,-0.36631285400390623,-11.465648854961833,28.885496183206108,14.992366412213741,0.0
13.390000820159912,-1.8722656982421875,1.908178723144531,8.288726147460936,-70.36641221374046,38.48854961832061,49.221374045801525,-10.544064111328124,3.689464758300781,0.47644613037109373,-42.82442748091603,33.17557251908397,17.862595419847327,0.0
13.40000057220459,-5.3007624755859375,-4.3263223999023435,22.09608712158203,-55.603053435114504,29.114503816793892,47.45038167938932,-11.844115612792969,2.6527754394531247,0.7972691528320313,-62.3206106870229,37.786259541984734,19.46564885496183,0.0
13.410000562667847,-6.813897924804687,-8.267178332519531,17.343596826171876,9.755725190839694,37.20610687022901,49.32824427480916,-13.718775512695311,1.407790576171875,1.5251064575195312,-83.05343511450381,30.778625954198475,21.053435114503817,0.0
13.420000553131104,-12.073958972167969,-0.5051765502929687,-3.1076737548828124,34.33587786259542,65.83206106870229,39.29770992366412,-15.533580371093748,0.6823474731445313,0.6751648681640625,-99.22137404580153,21.64885496183206,22.68702290076336,0.0
13.43000054359436,-15.708357092285155,-3.4572271972656248,-1.5562310791015623,26.412213740458014,66.16793893129771,25.450381679389313,-20.56379805908203,-5.307945080566406,1.0486603271484374,-105.46564885496183,14.702290076335878,29.770992366412212,0.0
13.440001010894775,-11.097124694824219,-8.920795385742187,10.172962854003906,64.97709923664122,78.59541984732824,19.72519083969466,-22.177489978027342,-5.829881042480468,2.664746447753906,-111.08396946564885,-5.190839694656488,22.9618320610687,0.0
13.450000524520874,-12.397176196289061,6.385335827636719,7.762001782226562,78.87022900763358,84.18320610687023,4.396946564885496,-22.81195341796875,-4.199429711914062,1.158793603515625,-77.63358778625954,-27.34351145038168,28.549618320610687,0.0
13.46000075340271,-5.916072302246094,1.4149731811523436,1.2282254516601563,61.87786259541985,79.80152671755725,17.480916030534353,-21.550209143066404,-2.1547814941406247,-0.033518823242187495,-34.900763358778626,-50.0,37.25190839694657,0.0
13.470000505447388,-10.417171423339843,1.2234370483398436,1.0773907470703123,16.366412213740457,95.38931297709924,1.4961832061068703,-21.48317149658203,-5.137956762695312,0.08379705810546874,9.83206106870229,-50.778625954198475,37.6793893129771,0.0
13.480000734329224,-5.5641246582031245,-6.885723974609375,0.45968671875,18.458015267175572,97.58778625954199,1.1145038167938932,-15.890316418457031,1.8914193115234375,-2.2553379638671873,10.931297709923664,-71.81679389312977,29.770992366412212,0.0
13.490000247955322,-9.852139831542969,-7.388506323242187,2.5450363647460934,44.3206106870229,127.12977099236642,-17.66412213740458,-13.974955090332031,0.316034619140625,-1.9656395629882812,15.923664122137405,-69.90839694656489,27.46564885496183,0.0
13.500000476837158,-6.8402341430664055,-9.090783703613281,-1.5969325073242187,84.74809160305344,130.2290076335878,-22.137404580152673,-13.800178369140625,-0.6296750366210937,-2.1883003173828124,34.152671755725194,-72.65648854961832,23.129770992366414,0.0
13.510000705718994,-10.86009873046875,-3.0358477050781247,0.6560112548828124,121.26717557251908,160.76335877862596,-45.343511450381676,-11.420341918945311,-0.7948749511718749,-3.0166940917968748,28.9618320610687,-72.93129770992367,13.236641221374045,0.0
13.520000696182251,-13.742717529296874,-1.695094775390625,0.5315127685546874,119.38931297709924,159.0381679389313,-55.41984732824427,-11.635820068359374,-3.4859576171874997,-1.618480322265625,33.66412213740458,-67.31297709923665,3.572519083969466,0.0
13.530000686645508,-14.9781255859375,3.7924154296875,1.6328455322265625,106.62595419847328,157.84732824427482,-63.83206106870229,-10.424354028320312,-1.4820108276367188,-3.019088293457031,38.213740458015266,-67.7557251908397,-5.603053435114504,0.0
13.540000915527344,-14.640543151855468,7.654262707519531,2.2601263671875,60.274809160305345,138.85496183206106,-72.68702290076335,-9.471461767578125,0.5267243652343749,-5.499481213378906,16.458015267175572,-58.44274809160305,-9.572519083969466,0.0
13.55000114440918,1.6256629272460936,-8.655039001464843,-6.866570361328125,90.21374045801527,130.8854961832061,-45.89312977099237,-10.388441003417968,-0.8044517578125,-6.7085530517578125,19.908396946564885,-44.88549618320611,-5.4961832061068705,0.0
13.560000658035278,-2.798821740722656,-8.051700183105469,-7.5465236328125,186.44274809160305,187.61832061068702,-47.954198473282446,-8.74601866455078,-1.216254443359375,-6.260837341308593,30.045801526717558,-40.79389312977099,-5.984732824427481,0.0
13.570000886917114,-16.493655236816405,6.706158850097656,-0.6679822631835937,199.75572519083968,224.6412213740458,-74.1526717557252,-8.429984045410155,-0.36152445068359373,-5.796362219238281,30.53435114503817,-35.083969465648856,-12.65648854961832,0.0
13.580000638961792,-18.691532360839844,14.432247607421875,2.3582886352539063,128.04580152671755,205.6030534351145,-81.95419847328245,-9.433154541015625,-3.0119056884765625,-2.916137622070312,34.68702290076336,-22.900763358778626,-15.84732824427481,0.0
13.590000629425049,-12.306196533203124,12.227187878417968,2.7748797241210936,52.732824427480914,172.45801526717557,-85.14503816793894,-8.817844714355468,-2.4444798950195312,-1.7238251953125,46.19847328244275,-25.46564885496183,-19.786259541984734,0.0
13.600000619888306,-10.941501586914061,7.996633544921875,3.1459809814453124,-11.86259541984733,138.94656488549617,-85.16030534351145,-8.157045056152343,-0.8379705810546875,-2.3918074584960936,45.69465648854962,-31.6793893129771,-21.709923664122137,0.0
13.610000848770142,-9.409212524414063,4.934449621582031,1.9728221679687499,-37.16030534351145,121.78625954198473,-76.33587786259542,-7.71890615234375,0.6057330200195312,-1.707065783691406,42.97709923664122,-32.595419847328245,-19.206106870229007,0.0
13.62000060081482,-6.294356164550781,-0.5315127685546874,-0.8499415893554687,-18.85496183206107,123.05343511450381,-63.64885496183206,-7.975085729980468,-0.6296750366210937,0.3136404174804687,44.152671755725194,-33.74045801526717,-15.19083969465649,0.0
13.630000829696655,-6.342240197753906,-0.718260498046875,-0.3184288208007812,-2.3206106870229006,128.793893129771,-59.87786259541985,-8.137891442871092,-0.842758984375,0.5195417602539062,66.9618320610687,-39.55725190839695,-17.236641221374047,0.0
13.640000820159912,-8.767566479492187,0.08140285644531249,-0.04548983154296875,25.267175572519083,147.2824427480916,-59.41984732824427,-7.321468676757812,1.0342951171875,-0.02633621826171875,83.78625954198473,-55.465648854961835,-23.541984732824428,0.0
13.65000057220459,-7.764395983886718,0.5578489868164063,-0.7398083129882812,28.03053435114504,148.8091603053435,-59.343511450381676,-5.892130285644531,4.062960217285156,-0.7158662963867187,73.72519083969466,-59.41984732824427,-30.68702290076336,0.0
13.660000324249268,-8.705317236328124,1.908178723144531,-0.1484405029296875,12.473282442748092,145.5267175572519,-62.229007633587784,-6.406883642578125,4.091690637207031,-0.5243301635742187,67.52671755725191,-56.44274809160305,-23.099236641221374,0.0
13.670000553131104,-9.289502441406249,2.9448680419921875,-0.3495534423828125,3.312977099236641,142.793893129771,-64.68702290076335,-5.442020373535156,5.011064074707031,-0.6057330200195312,41.25190839694657,-56.3206106870229,-20.442748091603054,0.0
13.68000078201294,-7.8529814453124995,3.6343981201171873,0.44053310546874996,2.885496183206107,146.9770992366412,-61.847328244274806,-5.145139367675781,3.124433166503906,-0.17238251953125,12.610687022900763,-50.29007633587786,-14.458015267175572,0.0
13.690000772476196,-6.945579016113281,1.5658078857421873,0.36152445068359373,7.480916030534351,147.06870229007635,-58.0763358778626,-6.351817004394531,1.4173673828125,-0.35673604736328124,10.916030534351146,-45.05343511450382,-10.305343511450381,0.0
13.700000762939453,-16.08185255126953,16.091429357910155,6.512228515625,-44.152671755725194,139.9236641221374,-69.41984732824427,-7.56567724609375,0.4860229370117187,1.43652099609375,14.931297709923664,-49.29770992366412,-9.16030534351145,0.0
13.71000075340271,-10.036493359375,3.4739866088867184,4.04141240234375,-111.22137404580153,97.96946564885496,-55.55725190839695,-6.945579016113281,2.999934680175781,-0.63206923828125,11.053435114503817,-61.37404580152672,-12.992366412213741,0.0
13.720000505447388,-11.164162341308593,5.051765502929687,4.120421057128906,-104.9618320610687,91.25190839694656,-41.52671755725191,-7.235277416992187,2.501940734863281,0.16998831787109375,-6.977099236641221,-56.458015267175576,-9.114503816793894,0.0
13.730000257492065,-7.716511950683593,-0.5410895751953124,0.5985504150390625,-79.83206106870229,84.80916030534351,-23.435114503816795,-8.67658681640625,0.3495534423828125,1.3263877197265623,-5.480916030534351,-62.42748091603053,-5.587786259541985,0.0
13.74000072479248,-15.782577343749999,4.1754876953124995,2.2457611572265623,-92.13740458015268,72.47328244274809,-24.85496183206107,-10.079588989257813,-0.10295067138671875,0.040701428222656245,13.755725190839694,-70.3969465648855,-5.877862595419847,0.0
13.750000715255737,-11.310208642578125,-0.7541735229492187,1.8267758666992187,-83.37404580152672,67.48091603053435,-15.923664122137405,-9.471461767578125,0.2154781494140625,0.5578489868164063,26.9618320610687,-82.2442748091603,-7.648854961832061,0.0
13.760000944137573,-22.84786644287109,12.133814013671874,9.279925634765624,-107.31297709923665,66.04580152671755,-24.580152671755727,-9.255983618164063,-0.16280571289062498,1.5586252807617187,29.709923664122137,-84.59541984732824,-6.137404580152672,0.0
13.770000696182251,-12.174515441894531,1.8124106567382812,5.492298608398437,-182.0763358778626,16.50381679389313,-11.511450381679388,-9.064447485351561,1.8459294799804686,-1.484405029296875,32.44274809160305,-96.80916030534351,-8.274809160305344,0.0
13.780000686645508,-16.37394515380859,5.351040710449219,6.296750366210937,-176.15267175572518,3.4656488549618323,-4.519083969465649,-8.674192614746094,2.473210314941406,-0.4381389038085937,22.061068702290076,-91.78625954198473,-2.6412213740458017,0.0
13.790000677108765,-11.705251916503906,-2.5953145996093747,2.5905261962890624,-161.6946564885496,-13.48091603053435,13.16030534351145,-10.307038146972655,0.6871358764648438,-0.8068459594726562,20.213740458015266,-87.80152671755725,2.6717557251908395,0.0
13.800000667572021,-13.196839550781249,-1.924938134765625,2.003946789550781,-119.17557251908397,-6.488549618320611,12.67175572519084,-9.86411083984375,-1.2952630981445312,-0.009576806640625,20.244274809160306,-80.80916030534351,6.396946564885496,0.0
13.810000896453857,-6.332663391113281,-1.9584569580078124,1.2665326782226562,-69.98473282442748,4.99236641221374,14.977099236641221,-7.848193041992187,-0.584185205078125,-0.679953271484375,37.14503816793893,-86.85496183206106,2.4122137404580153,0.0
13.820000648498535,-9.540893615722656,-2.4013842651367185,0.36631285400390623,-50.47328244274809,10.717557251908397,6.183206106870229,-10.182539660644531,-0.8834604125976562,-0.24181436767578124,46.54961832061068,-76.65648854961832,1.1755725190839694,0.0
13.830000877380371,-9.311050256347656,-2.978386865234375,0.32561142578124996,-15.526717557251908,23.81679389312977,4.519083969465649,-8.17859287109375,0.8667010009765624,-1.0917559570312498,42.961832061068705,-75.40458015267176,-5.022900763358779,0.0
13.840000629425049,-9.351751684570312,-2.731784094238281,0.5267243652343749,6.091603053435114,33.603053435114504,-1.0534351145038168,-9.504980590820312,0.8307879760742187,0.22026655273437498,35.81679389312977,-65.48091603053435,-5.938931297709924,0.0
13.850000858306885,-9.835380419921874,-1.9009961181640624,0.11252747802734374,26.580152671755727,41.83206106870229,-7.099236641221374,-9.694122521972655,2.059013427734375,-0.5147533569335937,32.48854961832061,-63.16030534351145,-7.068702290076335,0.0
13.860000610351562,-9.911994873046874,-0.7637503295898437,-0.34237083740234375,38.916030534351144,46.458015267175576,-10.412213740458014,-8.724470849609375,3.2561142578125,-0.5865794067382812,12.763358778625955,-58.85496183206107,-7.66412213740458,0.0
13.87000060081482,-10.479420666503906,0.4261678955078125,-0.44053310546874996,42.80916030534351,47.7557251908397,-11.435114503816793,-9.809044201660155,2.6527754394531247,1.4101847778320311,-1.984732824427481,-53.954198473282446,-3.633587786259542,0.0
13.880000829696655,-11.86805762939453,1.637633935546875,0.6296750366210937,44.396946564885496,45.80152671755725,-11.938931297709924,-11.540052001953125,1.3718775512695311,0.7733271362304687,0.061068702290076333,-43.038167938931295,-0.5343511450381679,0.0
13.890000581741333,-12.15536182861328,1.66636435546875,1.1563994018554686,38.44274809160305,37.20610687022901,-12.106870229007633,-11.121066711425781,0.5506663818359374,1.1156979736328125,2.122137404580153,-46.732824427480914,-0.42748091603053434,0.0
13.90000057220459,-13.019668627929686,2.1906945190429687,1.9656395629882812,33.83206106870229,29.267175572519083,-14.13740458015267,-9.878476049804688,1.7812860351562498,0.23702596435546874,5.312977099236641,-51.48091603053435,-5.374045801526718,0.0
13.910000801086426,-12.263100903320312,3.383006945800781,1.6711527587890624,19.14503816793893,15.648854961832061,-14.82442748091603,-8.044517578125,3.1651345947265623,-0.5219359619140624,-7.801526717557252,-41.52671755725191,-8.641221374045802,0.0
13.920001029968262,-11.494562170410155,2.4875755249023435,1.1061211669921875,14.0,8.992366412213741,-13.038167938931299,-6.9527616210937495,4.077325427246094,-0.5530605834960938,-29.267175572519083,-34.36641221374046,-8.412213740458014,0.0
13.93000054359436,-12.030863342285155,3.265691064453125,1.1013327636718748,4.1679389312977095,4.99236641221374,-13.17557251908397,-8.91840118408203,0.9552864624023437,0.97683427734375,-35.12977099236641,-21.236641221374047,-4.5038167938931295,0.0
13.940000772476196,-12.713210815429687,2.8371289672851563,0.8643067993164062,-8.687022900763358,-1.2366412213740459,-14.335877862595419,-9.028534460449219,0.031124621582031248,0.6296750366210937,-32.152671755725194,-22.198473282442748,-6.0458015267175576,0.0
13.950000762939453,-11.298237634277344,1.6136919189453125,0.15562310791015624,-10.50381679389313,-5.297709923664122,-12.458015267175572,-9.631873278808593,-0.603338818359375,0.9193734375,-23.541984732824428,-16.16793893129771,-7.282442748091603,0.0
13.960000991821289,-10.654197387695312,2.5546131713867184,-0.1005564697265625,-17.34351145038168,-4.854961832061068,-15.374045801526718,-8.923189587402343,0.38307226562499996,0.39743747558593745,-19.64885496183206,-16.763358778625953,-10.183206106870228,0.0
13.970000505447388,-9.320627062988281,2.0302830078125,-1.0893617553710937,-30.885496183206108,-10.13740458015267,-15.114503816793894,-9.129090930175781,0.08858546142578125,0.6871358764648438,-20.137404580152673,-10.351145038167939,-9.98473282442748,0.0
13.980000734329224,-9.066841687011719,1.7764976318359373,-1.1635820068359375,-30.900763358778626,-7.236641221374046,-12.67175572519084,-7.862558251953125,0.7422025146484375,0.011971008300781249,-19.66412213740458,-12.870229007633588,-11.694656488549619,0.0
13.990000486373901,-9.188945971679686,1.0510545288085937,-0.373495458984375,-31.786259541984734,-1.7557251908396947,-11.86259541984733,-8.729259252929687,-0.3687070556640625,1.1635820068359375,-15.618320610687023,-5.847328244274809,-10.748091603053435,0.0
14.000000715255737,-10.390835205078124,1.455674609375,0.612915625,-28.106870229007633,4.534351145038168,-14.198473282442748,-6.1459156616210935,2.0302830078125,-0.3447650390625,-16.717557251908396,-5.297709923664122,-15.022900763358779,0.0
14.010000705718994,-10.311826550292968,0.928950244140625,1.024718310546875,-29.251908396946565,4.015267175572519,-15.419847328244275,-7.783549597167968,-0.1484405029296875,1.1611878051757811,-31.52671755725191,8.076335877862595,-12.778625954198473,0.0
14.020000696182251,-10.077194787597655,-0.21308394775390624,1.3551181396484375,-20.412213740458014,2.122137404580153,-16.3206106870229,-7.498639599609374,0.47884033203125,1.0127473022460938,-26.68702290076336,6.5038167938931295,-13.679389312977099,0.0
14.030001163482666,-9.627084875488281,0.18914193115234373,2.8107927490234372,-15.435114503816793,-0.7480916030534351,-19.480916030534353,-7.874529260253905,-0.0047884033203125,1.2378022583007813,-27.83206106870229,16.412213740458014,-13.786259541984732,0.0
14.040001153945923,-10.941501586914061,2.3319524169921872,4.1563340820312495,-24.106870229007633,-7.8320610687022905,-25.099236641221374,-5.935225915527344,1.93451494140625,0.16280571289062498,-28.625954198473284,19.6793893129771,-17.022900763358777,0.0
14.05000114440918,-10.747571252441405,1.5682020874023437,5.058948107910156,-35.099236641221374,-21.786259541984734,-24.412213740458014,-6.406883642578125,0.8978256225585937,1.6041151123046875,-50.62595419847328,33.25190839694657,-14.335877862595419,0.0
14.060000658035278,-10.314220751953124,0.814028564453125,5.286397265624999,-36.6412213740458,-32.0763358778626,-23.099236641221374,-7.326257080078125,-1.5370774658203123,2.583343591308594,-37.89312977099237,33.465648854961835,-11.099236641221374,0.0
14.070000886917114,-9.749189160156249,0.8068459594726562,6.325480786132812,-42.274809160305345,-52.274809160305345,-25.786259541984734,-6.715735656738281,-1.7477672119140624,2.195482922363281,-22.85496183206107,27.068702290076335,-13.068702290076336,0.0
14.080000638961792,-10.740388647460938,1.0869675537109373,7.352593298339843,-43.14503816793893,-68.29007633587786,-28.900763358778626,-5.063736511230468,-0.5889736083984375,1.2856862915039062,-15.648854961832061,26.641221374045802,-15.206106870229007,0.0
14.090000867843628,-9.682151513671874,0.7350199096679687,8.839392529296875,-45.37404580152672,-87.34351145038168,-28.85496183206107,-4.7381250854492185,-0.9169792358398436,1.707065783691406,-15.526717557251908,28.885496183206108,-14.67175572519084,0.0
14.100000619888306,-10.51533369140625,0.7206546997070312,10.216058483886718,-43.32824427480916,-103.89312977099236,-29.64885496183206,-3.6535517333984373,-0.5027823486328125,1.2042834350585936,-10.320610687022901,34.18320610687023,-14.854961832061068,0.0
14.110000610351562,-10.797849487304687,0.1771709228515625,10.82179150390625,-42.48854961832061,-123.93893129770993,-29.908396946564885,-4.431667272949219,-1.8267758666992187,0.5913678100585937,2.763358778625954,37.61832061068702,-13.84732824427481,0.0
14.12000060081482,-11.238382592773437,-1.3359645263671873,10.912771166992187,-32.50381679389313,-139.63358778625954,-29.770992366412212,-3.076549133300781,-0.8355763793945312,-1.0223241088867188,11.435114503816793,30.061068702290076,-18.53435114503817,0.0
14.130000829696655,-11.336544860839844,-1.7812860351562498,10.702081420898438,-22.396946564885496,-155.16030534351145,-32.82442748091603,-5.456385583496093,0.9169792358398436,-1.7573440185546874,-3.267175572519084,50.83969465648855,-22.931297709923665,0.0
14.140000581741333,-12.674903588867187,-0.8283937744140625,10.692504614257812,-20.015267175572518,-168.53435114503816,-39.06870229007634,-2.3151930053710936,5.6311623046875,-0.28730419921875,-5.908396946564886,64.91603053435115,-32.916030534351144,0.0
14.150000810623169,-12.911929553222656,0.19632453613281248,10.443507641601562,-10.625954198473282,-182.54961832061068,-43.52671755725191,-13.17050333251953,6.224924316406249,1.0582371337890624,-90.10687022900764,100.53435114503817,-24.30534351145038,0.0
14.160000801086426,-13.235146777343749,-3.201047619628906,9.725247143554688,17.52671755725191,-197.98473282442748,-36.656488549618324,-15.691597680664062,12.816161486816405,-0.6081272216796875,-106.29007633587786,109.2824427480916,-21.419847328244273,0.0
14.170000791549683,-15.35401524658203,-2.147598889160156,8.003816149902343,51.57251908396947,-204.15267175572518,-36.16793893129771,-23.803152905273436,6.2392895263671875,-0.40462008056640625,-178.03053435114504,135.32824427480915,3.2061068702290076,0.0
14.18000078201294,-19.80244193115234,-3.4763808105468748,7.587225061035156,82.30534351145039,-208.03053435114504,-24.732824427480917,-18.248605053710936,1.3934253662109375,0.10295067138671875,-130.68702290076337,112.67175572519083,33.11450381679389,0.0
14.190000534057617,-22.732944763183593,-2.8131869506835936,5.9783215454101555,117.80152671755725,-213.26717557251908,-11.587786259541986,-10.658985791015624,-3.1172505615234374,0.7757213378906249,-89.05343511450381,96.76335877862596,49.23664122137404,0.0
14.200000762939453,-23.501483496093748,-0.3758896606445312,0.08858546142578125,145.55725190839695,-216.85496183206106,7.465648854961832,-0.01915361328125,7.465120776367187,-5.343858105468749,-75.25190839694656,60.82442748091603,24.732824427480917,0.0
14.21000051498413,-20.977994946289062,4.857835168457031,-1.6208745239257811,139.45038167938932,-214.90076335877862,25.755725190839694,-5.717353564453124,-5.1882349975585935,-6.394912634277343,-151.9236641221374,101.80152671755725,21.72519083969466,0.0
14.220000743865967,-17.444153295898438,3.6152445068359373,-6.6510922119140625,118.94656488549619,-210.94656488549617,50.152671755725194,-3.375824340820312,-7.3094976684570305,-6.030993981933594,-127.6793893129771,92.21374045801527,15.572519083969466,0.0
14.230000495910645,-14.360421557617187,3.6463691284179687,-7.809885815429687,74.1526717557252,-199.4198473282443,55.70992366412214,-9.485826977539062,-15.416264489746093,-3.1483751831054687,-88.9618320610687,109.81679389312977,22.885496183206108,0.0
14.240000247955322,-10.735600244140624,1.5011644409179687,-8.267178332519531,36.13740458015267,-189.46564885496184,55.770992366412216,-9.04050546875,-13.867216015624999,-5.468356591796875,-17.297709923664122,99.49618320610686,16.870229007633586,0.0
14.250000238418579,-9.983820922851562,2.916137622070312,-3.5338416503906247,4.748091603053435,-167.22137404580153,52.94656488549618,-11.195286962890624,-10.953472595214842,-5.42047255859375,34.12213740458015,99.66412213740458,13.022900763358779,0.0
14.260000467300415,-9.60793126220703,3.23696064453125,3.6008792968749996,4.916030534351145,-147.9083969465649,60.732824427480914,-9.787496386718749,-1.5370774658203123,-5.293579870605469,40.18320610687023,89.69465648854961,2.183206106870229,0.0
14.270000457763672,-8.98304462890625,2.6096798095703124,9.260772021484375,10.15267175572519,-136.68702290076337,70.12213740458016,-11.17852755126953,-1.5251064575195312,-1.1133037719726562,26.0,91.08396946564885,6.6106870229007635,0.0
14.280000686645508,-10.433930834960936,1.1659762084960936,7.376535314941406,3.6793893129770994,-129.81679389312978,72.42748091603053,-12.050016955566406,0.3447650390625,1.6304513305664061,40.44274809160305,80.12213740458016,10.076335877862595,0.0
14.290000438690186,-10.139444030761718,-0.3591302490234375,3.699041564941406,-6.122137404580153,-135.6946564885496,65.87786259541984,-11.659762084960937,1.5849614990234373,2.288856787109375,25.633587786259543,75.7557251908397,15.877862595419847,0.0
14.300000429153442,-12.313379138183594,-0.24660277099609373,2.0781670410156248,-26.045801526717558,-146.9618320610687,57.221374045801525,-11.214440576171874,0.8906430175781249,2.0159177978515626,23.893129770992367,65.6030534351145,18.595419847328245,0.0
14.310000896453857,-11.022904443359375,-2.1883003173828124,-0.3902548706054687,-34.68702290076336,-155.46564885496184,55.02290076335878,-10.254365710449218,2.1021090576171875,1.5634136840820312,13.572519083969466,56.3206106870229,15.587786259541986,0.0
14.320000648498535,-6.957550024414062,-4.446032482910156,0.2346317626953125,-31.83206106870229,-155.54198473282443,53.770992366412216,-11.767501159667969,4.522646936035156,0.48123453369140623,-4.305343511450381,49.80152671755725,12.595419847328245,0.0
14.330000877380371,-7.7979148071289055,-2.834734765625,2.0183119995117185,-23.14503816793893,-142.50381679389312,47.7557251908397,-10.82179150390625,3.208230224609375,0.7398083129882812,-32.274809160305345,49.55725190839695,12.80916030534351,0.0
14.340000629425049,-4.182670300292968,-3.859453076171875,0.02633621826171875,-6.33587786259542,-137.22137404580153,48.56488549618321,-9.112331518554686,-1.4772224243164063,1.0127473022460938,-39.02290076335878,46.48854961832061,13.068702290076336,0.0
14.350000619888306,-4.271255761718749,-2.3391350219726563,0.3112462158203125,-0.16793893129770993,-122.91603053435115,43.954198473282446,-9.823409411621093,-2.5617957763671875,1.6136919189453125,-22.80916030534351,45.63358778625954,12.732824427480915,0.0
14.360000371932983,-4.189852905273438,-1.5490484741210937,0.5027823486328125,-0.3969465648854962,-112.06106870229007,40.19847328244275,-7.9463553100585935,-0.6248866333007812,-0.33039982910156246,-26.061068702290076,36.74809160305343,8.213740458015268,0.0
14.37000060081482,-4.091690637207031,-1.9536685546875,0.4070142822265625,-6.396946564885496,-105.05343511450381,35.51145038167939,-8.008604553222655,-1.7262193969726563,-0.08858546142578125,-20.977099236641223,33.49618320610687,8.534351145038167,0.0
14.380000352859497,-2.118868469238281,-4.187458703613281,-0.16041151123046873,-2.4122137404580153,-97.43511450381679,32.61068702290076,-9.555258825683593,-3.9695863525390624,1.0486603271484374,-4.9465648854961835,35.64885496183206,10.931297709923664,0.0
14.390000581741333,-2.6575638427734374,-4.106055847167968,0.7350199096679687,6.412213740458015,-83.0381679389313,22.9618320610687,-8.954314208984375,-2.0159177978515626,-0.316034619140625,8.763358778625955,30.427480916030536,10.854961832061068,0.0
14.40000057220459,-0.7589619262695312,-4.8889597900390624,-0.29448680419921874,23.0381679389313,-74.53435114503817,14.13740458015267,-11.247959399414063,-1.7836802368164062,0.46208092041015625,31.61832061068702,35.465648854961835,14.931297709923664,0.0
14.410000562667847,-1.5083470458984374,-3.584119885253906,0.023942016601562498,36.3206106870229,-63.61832061068702,3.1755725190839694,-10.05564697265625,-2.568978381347656,-0.5458779785156249,28.671755725190838,33.969465648854964,14.381679389312977,0.0
14.420000553131104,0.35673604736328124,-4.726154077148437,-1.2761094848632812,60.88549618320611,-53.43511450381679,1.5267175572519085,-9.967061511230469,-0.296881005859375,-0.9241618408203125,44.94656488549618,32.412213740458014,14.183206106870228,0.0
14.43000078201294,-1.6136919189453125,-1.3455413330078123,0.34715924072265625,85.69465648854961,-29.923664122137403,-0.4732824427480916,-9.787496386718749,-1.618480322265625,-1.158793603515625,45.06870229007634,34.534351145038165,15.633587786259541,0.0
14.440000772476196,-2.0829554443359375,1.2378022583007813,0.7062894897460937,92.94656488549619,-22.259541984732824,0.3969465648854962,-12.425906616210936,-7.41244833984375,-0.5051765502929687,45.38931297709924,36.656488549618324,20.931297709923665,0.0
14.450000524520874,-2.829946362304687,4.350264416503906,1.879448303222656,88.56488549618321,-10.763358778625955,4.076335877862595,-8.37012900390625,0.19871873779296872,-2.4301146850585935,70.35114503816794,28.03053435114504,11.908396946564885,0.0
14.46000075340271,-1.6160861206054686,6.354211206054687,2.8467057739257813,77.7557251908397,-2.2595419847328246,10.992366412213741,-11.010933435058593,-1.2210428466796874,-0.833182177734375,48.85496183206107,40.412213740458014,14.793893129770993,0.0
14.470000743865967,-2.93050283203125,9.686939916992188,5.025429284667968,48.3206106870229,3.984732824427481,16.0,-9.600748657226562,2.5617957763671875,-1.2521674682617188,39.52671755725191,39.69465648854962,10.625954198473282,0.0
14.480000734329224,-1.9393033447265624,8.856151940917968,5.595249279785156,11.770992366412214,6.183206106870229,23.66412213740458,-14.43464180908203,-7.481880187988281,1.4030021728515625,33.23664122137404,38.35114503816794,18.53435114503817,0.0
14.490000486373901,-3.6918589599609373,9.476250170898437,7.163451367187499,-28.290076335877863,12.15267175572519,25.16030534351145,-10.692504614257812,-0.105344873046875,-0.040701428222656245,61.083969465648856,31.51145038167939,9.938931297709924,0.0
14.500000238418579,-1.4317325927734375,6.811503723144531,6.196193896484375,-46.045801526717554,19.099236641221374,31.389312977099237,-11.645396875,0.3950432739257812,1.4437036010742186,44.900763358778626,30.671755725190838,8.82442748091603,0.0
14.510000705718994,-1.3192051147460937,5.336675500488281,4.7764323120117185,-59.49618320610687,32.50381679389313,32.595419847328245,-11.149797131347656,4.031835595703125,-1.8842367065429686,26.290076335877863,24.931297709923665,3.648854961832061,0.0
14.52000093460083,-1.5203180541992187,2.1499930908203124,4.280832568359375,-63.83206106870229,45.587786259541986,30.519083969465647,-13.673285681152343,-1.1133037719726562,0.8906430175781249,-16.778625954198475,30.442748091603054,14.595419847328245,0.0
14.530000448226929,-4.821922143554687,-4.302380383300781,16.340426330566405,-39.20610687022901,50.47328244274809,31.709923664122137,-12.861651318359375,-0.7661445312499999,0.05746083984375,-18.16793893129771,24.564885496183205,13.755725190839694,0.0
14.540000677108765,-12.145785021972655,-4.716577270507813,27.667394384765622,16.427480916030536,52.3206106870229,37.969465648854964,-15.528791967773437,-4.283226770019531,2.2170307373046874,-26.625954198473284,23.083969465648856,15.038167938931299,0.0
14.5500009059906,-14.00129130859375,-0.8954314208984374,9.411606726074218,68.58015267175573,80.16793893129771,44.33587786259542,-14.791377856445312,0.6560112548828124,-1.6927005737304686,-35.23664122137404,8.610687022900763,7.526717557251908,0.0
14.560000658035278,-13.864821813964843,-0.9074024291992187,-2.4899697265625,48.38167938931298,80.29007633587786,19.755725190839694,-16.98925498046875,0.8188169677734375,-1.3479355346679687,-63.29770992366412,8.732824427480915,9.312977099236642,0.0
14.570000886917114,-10.414777221679687,-5.475539196777343,2.3870190551757813,38.900763358778626,80.18320610687023,2.3969465648854964,-19.03150899658203,-0.9576806640625,-0.05027823486328125,-75.12977099236642,4.748091603053435,12.244274809160306,0.0
14.580000638961792,-4.158728283691406,-1.1851298217773436,5.667075329589843,76.70229007633588,89.43511450381679,3.1297709923664123,-22.601263671875,-1.618480322265625,0.833182177734375,-66.3969465648855,-2.8396946564885495,18.931297709923665,0.0
14.590000867843628,-5.7700260009765625,2.8131869506835936,4.237736938476562,81.00763358778626,113.98473282442748,1.8473282442748091,-20.515914025878907,-0.6967126831054687,-0.8954314208984374,-52.93129770992366,-20.045801526717558,24.30534351145038,0.0
14.600000619888306,-7.024587670898437,-0.565031591796875,-2.655169641113281,43.3587786259542,117.23664122137404,0.7175572519083969,-19.60611739501953,-1.2473790649414063,-0.6560112548828124,-35.52671755725191,-32.54961832061068,28.717557251908396,0.0
14.610000610351562,-12.703634008789061,-2.920926025390625,1.8028338500976562,36.74809160305343,137.2824427480916,-17.221374045801525,-16.371550952148436,1.7286135986328124,-0.7398083129882812,-13.389312977099237,-49.41984732824427,33.465648854961835,0.0
14.62000036239624,-6.885723974609375,-8.56166513671875,-1.448492004394531,57.41984732824427,139.74045801526717,-17.64885496183206,-15.409081884765625,2.1883003173828124,-2.5426421630859375,3.450381679389313,-62.458015267175576,32.54961832061068,0.0
14.630000591278076,-13.543998791503906,-2.1260510742187497,2.398990063476562,82.47328244274809,171.63358778625954,-37.74045801526717,-14.518438867187498,-1.0893617553710937,-0.7206546997070312,-3.5572519083969465,-63.86259541984733,36.213740458015266,0.0
14.640000581741333,-14.918270544433593,0.4213794921875,0.6344634399414062,81.0381679389313,171.70992366412213,-42.35114503816794,-13.462595935058593,-5.6766521362304685,1.1133037719726562,12.229007633587786,-75.17557251908397,30.427480916030536,0.0
14.65000057220459,-16.78335363769531,2.8802245971679685,2.310404602050781,67.0381679389313,169.54198473282443,-49.70992366412214,-12.394781994628906,-6.045359191894531,-0.9313444458007812,41.038167938931295,-87.61832061068702,19.755725190839694,0.0
14.660000562667847,-2.437297290039062,-9.935936889648437,-5.863399865722656,87.38931297709924,156.61068702290078,-35.89312977099237,-10.527304699707031,-2.3582886352539063,-2.1308394775390624,37.49618320610687,-91.41984732824427,5.480916030534351,0.0
14.670000553131104,-5.80354482421875,-4.072537023925781,-3.1771056030273437,148.4732824427481,205.66412213740458,-55.81679389312977,-10.376469995117187,-3.890577697753906,-2.310404602050781,42.656488549618324,-82.21374045801527,-1.5572519083969465,0.0
14.680001020431519,-7.173028173828125,-0.3806780639648437,-5.111620544433594,148.21374045801528,205.49618320610688,-68.8854961832061,-10.141838232421874,-2.7748797241210936,-4.508281726074219,49.14503816793893,-73.92366412213741,-1.7099236641221374,0.0
14.690001010894775,-14.073117358398436,9.042899670410156,-0.5817910034179687,130.44274809160305,213.45038167938932,-73.98473282442748,-8.37012900390625,1.68551796875,-7.580042456054687,41.45038167938932,-67.3587786259542,-6.458015267175573,0.0
14.700001239776611,-16.098611962890622,12.363657373046875,3.1483751831054687,50.94656488549618,187.0381679389313,-83.29770992366412,-8.664615808105468,0.9528922607421875,-6.782773303222656,14.061068702290076,-49.725190839694655,-7.1603053435114505,0.0
14.71000051498413,-16.48407843017578,9.382876306152344,3.670311145019531,-6.412213740458015,156.77862595419847,-81.43511450381679,-9.562441430664062,-2.808398547363281,-4.168305090332031,25.46564885496183,-34.85496183206107,-5.236641221374046,0.0
14.720000743865967,-9.404424121093749,2.403778466796875,0.4070142822265625,-21.46564885496183,135.8320610687023,-68.83969465648855,-8.702923034667968,-1.388636962890625,-2.7269956909179687,41.221374045801525,-38.48854961832061,-6.870229007633588,0.0
14.730000495910645,-8.664615808105468,0.7996633544921875,0.22744915771484372,-10.091603053435115,137.34351145038167,-63.52671755725191,-7.0102224609374995,1.8914193115234375,-2.96881005859375,38.58015267175573,-38.6412213740458,-10.488549618320612,0.0
14.740000486373901,-8.604760766601562,1.3335703247070312,0.9074024291992187,11.022900763358779,148.4885496183206,-61.98473282442748,-7.524975817871093,-0.24181436767578124,-0.7110778930664062,42.717557251908396,-32.25954198473283,-9.312977099236642,0.0
14.750000476837158,-6.89530078125,0.13168109130859373,-0.7924807495117187,24.3206106870229,154.35114503816794,-59.74045801526717,-7.505822204589843,0.22266075439453123,0.055066638183593745,62.12213740458015,-39.954198473282446,-11.465648854961833,0.0
14.760000705718994,-7.433996154785156,0.6655880615234374,-0.5506663818359374,28.641221374045802,159.31297709923663,-61.343511450381676,-7.848193041992187,0.09816226806640624,0.6943184814453125,72.76335877862596,-51.06870229007634,-11.755725190839694,0.0
14.770000696182251,-8.264784130859374,0.9097966308593749,-0.28969840087890625,22.65648854961832,160.01526717557252,-62.25954198473283,-6.5960255737304685,2.2960393920898436,-1.0917559570312498,71.70992366412214,-58.50381679389313,-15.19083969465649,0.0
