timestamp,Thigh_L_Acc_X,Thigh_L_Acc_Y,Thigh_L_Acc_Z,Thigh_L_Gyr_X,Thigh_L_Gyr_Y,Thigh_L_Gyr_Z,Thigh_R_Acc_X,Thigh_R_Acc_Y,Thigh_R_Acc_Z,Thigh_R_Gyr_X,Thigh_R_Gyr_Y,Thigh_R_Gyr_Z,gpio_output
10.000000715255737,-10.613495959472656,1.599326708984375,1.0390835205078124,-25.770992366412212,29.709923664122137,-2.6106870229007635,-8.068459594726562,2.1356278808593747,1.2737152832031249,-30.763358778625953,-23.954198473282442,19.923664122137403,0.0
10.010000705718994,-8.444349255371094,-1.197100830078125,-0.34715924072265625,-20.229007633587788,24.427480916030536,-0.4732824427480916,-9.641450085449218,0.9816226806640624,2.185906115722656,-33.11450381679389,-19.34351145038168,21.328244274809162,1.0
10.02000117301941,-9.866505041503906,0.0909796630859375,1.3359645263671873,-10.931297709923664,28.870229007633586,-3.236641221374046,-9.890447058105469,-1.1252747802734375,2.4133552734375,-22.076335877862597,-21.770992366412212,20.35114503816794,1.0
10.030000686645508,-10.740388647460938,1.0486603271484374,1.1540052001953125,-7.679389312977099,23.709923664122137,-5.9541984732824424,-8.911218579101561,-0.488417138671875,1.0582371337890624,-13.267175572519085,-28.061068702290076,15.17557251908397,1.0
10.040000677108765,-9.8449572265625,0.7302315063476562,0.8092401611328125,-9.129770992366412,17.862595419847327,-2.519083969465649,-14.207192651367187,-2.0470424194335934,3.5122938354492184,3.404580152671756,-29.755725190839694,15.648854961832061,1.0
10.0500009059906,-9.502586389160156,0.9026140258789062,0.30885201416015623,-5.129770992366412,16.015267175572518,-1.7404580152671756,-9.138667736816405,1.2880804931640624,-0.040701428222656245,0.183206106870229,-30.65648854961832,9.099236641221374,1.0
10.060000896453857,-9.80665,1.9656395629882812,0.928950244140625,-3.49618320610687,20.33587786259542,-1.3129770992366412,-8.212111694335936,3.0142998901367184,-0.8786720092773437,-13.526717557251908,-23.053435114503817,9.007633587786259,1.0
10.070000648498535,-9.330203869628905,1.6352397338867186,0.5219359619140624,-13.954198473282442,15.206106870229007,0.07633587786259542,-8.688557824707031,2.114080065917969,-0.296881005859375,-19.84732824427481,-15.251908396946565,13.145038167938932,1.0
10.080000638961792,-10.436325036621094,1.7166425903320313,0.6607996582031249,-9.84732824427481,14.564885496183207,1.633587786259542,-10.505756884765624,-0.9816226806640624,1.4317325927734375,-18.442748091603054,-6.885496183206107,17.374045801526716,1.0
10.090001344680786,-9.794678991699218,0.09576806640624999,0.6655880615234374,-3.267175572519084,12.80916030534351,3.1755725190839694,-9.718064538574218,-1.0007762939453124,0.928950244140625,-8.793893129770993,-11.450381679389313,12.229007633587786,1.0
10.100000619888306,-9.969455712890625,0.7278373046875,1.0534487304687499,-0.7633587786259542,12.50381679389313,1.7404580152671756,-11.21683477783203,-1.7693150268554687,2.2673089721679687,0.6717557251908397,-6.519083969465649,10.534351145038167,1.0
10.11000108718872,-9.320627062988281,0.7829039428710937,0.82360537109375,0.5190839694656488,11.86259541984733,-0.32061068702290074,-9.042899670410156,-0.7924807495117187,0.06464344482421874,10.992366412213741,-13.98473282442748,4.748091603053435,1.0
10.12000060081482,-10.058041174316406,1.4508862060546874,1.1252747802734375,0.07633587786259542,11.099236641221374,-2.3969465648854964,-9.425971936035156,-0.44532150878906246,0.28969840087890625,16.68702290076336,-14.213740458015268,1.5877862595419847,1.0
10.130000829696655,-9.89523546142578,1.484405029296875,0.9911994873046874,2.7022900763358777,11.603053435114504,-2.5343511450381677,-8.863334545898438,0.9935936889648437,-0.40222587890625,17.282442748091604,-14.045801526717558,-0.9618320610687023,1.0
10.140000343322754,-9.928754284667969,1.838746875,0.7829039428710937,1.2671755725190839,11.572519083969466,-1.8015267175572518,-8.798691101074219,1.13006318359375,1.0319009155273438,12.595419847328245,-8.778625954198473,-1.0229007633587786,1.0
10.150000810623169,-9.739612353515625,1.8315642700195311,0.5482721801757812,-0.8396946564885496,11.145038167938932,-1.1297709923664123,-8.810662109374999,1.1851298217773436,0.5267243652343749,12.625954198473282,-7.908396946564886,-1.1145038167938932,1.0
10.160000562667847,-10.20169327392578,2.0638018310546875,0.7350199096679687,-2.1374045801526718,11.312977099236642,-0.48854961832061067,-9.775525378417969,0.5865794067382812,1.7741034301757812,11.053435114503817,-1.1755725190839694,1.83206106870229,1.0
10.170000553131104,-9.698910925292969,1.2641384765625,0.45010991210937495,-3.8625954198473282,10.458015267175572,0.7175572519083969,-9.191340173339842,0.30406361083984373,1.9752163696289062,11.694656488549619,-1.297709923664122,0.6106870229007634,1.0
10.18000054359436,-9.991003527832031,1.6232687255859375,0.6153098266601562,-7.984732824427481,9.557251908396946,-0.04580152671755725,-9.624690673828125,-0.23702596435546874,2.422932080078125,14.351145038167939,-1.282442748091603,0.04580152671755725,1.0
10.190000534057617,-9.53131680908203,1.197100830078125,0.49320554199218747,-5.938931297709924,9.908396946564885,-0.6870229007633588,-10.790666882324219,-1.419761584472656,3.670311145019531,23.053435114503817,-2.183206106870229,0.15267175572519084,1.0
10.200000524520874,-9.641450085449218,1.2832920898437499,0.34237083740234375,-6.99236641221374,8.870229007633588,-0.9770992366412213,-10.24000050048828,-0.7493851196289062,2.6886884643554687,28.30534351145038,-11.145038167938932,-4.488549618320611,1.0
10.21000051498413,-9.6917283203125,1.0678139404296874,0.5267243652343749,-4.442748091603053,9.221374045801527,-1.099236641221374,-9.900023864746093,-0.8020575561523438,2.6479870361328124,32.44274809160305,-14.488549618320612,-7.297709923664122,0.0
10.220000505447388,-10.172962854003906,1.0606313354492187,1.1037269653320312,-5.465648854961832,8.412213740458014,-1.2366412213740459,-10.232817895507813,0.1388636962890625,3.284844677734375,36.88549618320611,-17.572519083969464,-9.206106870229007,0.0
10.230000495910645,-9.737218151855469,0.39983167724609375,1.1420341918945311,-1.6030534351145038,8.335877862595419,-1.2213740458015268,-8.353369592285155,1.3024457031249999,1.9728221679687499,30.916030534351144,-23.6793893129771,-12.396946564885496,0.0
10.240000486373901,-10.060435375976562,0.8810662109374999,1.649604943847656,-3.435114503816794,7.083969465648855,-2.6106870229007635,-8.549694128417968,2.7964275390625,2.81558115234375,19.66412213740458,-17.938931297709924,-11.526717557251908,0.0
10.250000476837158,-10.172962854003906,1.0079588989257813,1.8339584716796873,-5.0534351145038165,4.8396946564885495,-3.435114503816794,-7.651868505859374,2.1619640991210938,2.4157494750976563,6.870229007633588,-15.770992366412214,-8.992366412213741,0.0
10.260000944137573,-10.587159741210938,1.0510545288085937,1.879448303222656,-4.687022900763359,1.4961832061068703,-3.49618320610687,-9.349357482910156,1.0462661254882812,2.7150246826171873,4.213740458015267,-14.381679389312977,-4.748091603053435,0.0
10.270000457763672,-10.036493359375,0.7398083129882812,1.0079588989257813,1.984732824427481,-0.42748091603053434,-2.763358778625954,-10.299855541992187,-0.06703764648437499,3.268085266113281,3.7557251908396947,-13.755725190839694,-4.3816793893129775,0.0
10.280000925064087,-9.701305126953125,0.9864110839843749,0.5147533569335937,4.641221374045801,-0.6259541984732825,-2.4580152671755724,-9.947907897949218,-0.229843359375,2.6695348510742187,6.183206106870229,-19.633587786259543,-7.1603053435114505,0.0
10.290000677108765,-8.954314208984375,1.13006318359375,-0.19871873779296872,8.244274809160306,0.07633587786259542,-2.3053435114503817,-10.54645831298828,0.20350714111328125,2.4205378784179685,10.198473282442748,-21.068702290076335,-9.221374045801527,0.0
10.300000667572021,-8.655039001464843,1.944091748046875,-0.6775590698242188,8.122137404580153,1.4351145038167938,-2.519083969465649,-9.514557397460937,0.6200982299804687,1.9800047729492187,8.274809160305344,-24.396946564885496,-11.541984732824428,0.0
10.310000658035278,-9.105148913574219,3.009511486816406,-0.30885201416015623,4.488549618320611,4.580152671755725,-0.5190839694656488,-8.468291271972657,1.4413093994140624,1.9776105712890624,0.0916030534351145,-24.045801526717558,-10.702290076335878,0.0
10.320000648498535,-9.605537060546874,2.789244934082031,0.45010991210937495,0.44274809160305345,6.549618320610687,3.618320610687023,-7.886500268554687,1.8411410766601561,2.5665841796874997,-10.091603053435115,-19.450381679389313,-9.633587786259541,0.0
10.330000638961792,-10.441113439941406,2.051830822753906,1.2306196533203124,-4.931297709923665,6.213740458015267,6.458015267175573,-9.102754711914063,0.5626373901367188,2.9927520751953125,-15.648854961832061,-13.740458015267176,-5.465648854961832,0.0
10.34000039100647,-10.857704528808593,0.14604630126953125,1.7980454467773437,-7.022900763358779,3.801526717557252,4.809160305343512,-9.5001921875,-0.8499415893554687,3.1771056030273437,-14.13740458015267,-13.618320610687023,-6.198473282442748,0.0
10.350000619888306,-10.603919152832031,-1.0582371337890624,1.8363526733398436,-4.0458015267175576,0.4122137404580153,0.8091603053435115,-10.493785876464843,-1.7429788085937499,3.5194764404296874,-4.0458015267175576,-15.083969465648854,-7.923664122137405,0.0
10.360000610351562,-10.16338604736328,-0.8882488159179687,1.9129671264648436,2.7022900763358777,-2.519083969465649,-4.687022900763359,-10.204087475585936,-0.17956512451171874,2.166752502441406,1.6946564885496183,-20.580152671755727,-12.793893129770993,0.0
10.370000839233398,-10.041281762695311,0.39264907226562495,2.27927998046875,7.847328244274809,-5.694656488549619,-9.267175572519085,-9.306261853027344,-0.13168109130859373,2.0829554443359375,4.931297709923665,-18.931297709923665,-13.34351145038168,0.0
10.380000352859497,-9.9215716796875,1.1635820068359375,2.3965958618164063,12.870229007633588,-9.98473282442748,-10.549618320610687,-9.744400756835937,-0.05746083984375,3.5697546752929687,8.80916030534351,-17.770992366412212,-13.312977099236642,0.0
10.390000820159912,-10.541669909667968,0.9265560424804687,2.327164013671875,21.16030534351145,-11.923664122137405,-10.030534351145038,-9.035717065429687,-0.20350714111328125,3.375824340820312,9.145038167938932,-19.96946564885496,-13.648854961832061,0.0
10.40000057220459,-9.90241806640625,1.3934253662109375,2.1595698974609374,21.572519083969464,-14.473282442748092,-9.404580152671755,-8.343792785644531,-0.411802685546875,2.5665841796874997,9.770992366412214,-21.908396946564885,-14.732824427480915,0.0
10.410000801086426,-10.958260998535156,3.2561142578125,1.8722656982421875,9.19083969465649,-19.404580152671755,-8.961832061068701,-9.018957653808593,0.4381389038085937,3.0645781249999997,9.923664122137405,-17.52671755725191,-14.900763358778626,0.0
10.420000553131104,-9.983820922851562,3.21780703125,1.0558429321289062,0.6564885496183206,-25.541984732824428,-4.977099236641221,-7.979874133300781,0.9433154541015625,2.398990063476562,2.427480916030534,-13.755725190839694,-13.694656488549619,0.0
10.43000078201294,-12.471396447753905,2.4157494750976563,1.7405846069335937,-1.465648854961832,-21.862595419847327,-2.16793893129771,-9.344569079589844,-0.3495534423828125,2.896984008789062,5.893129770992366,-10.992366412213741,-10.65648854961832,0.0
10.440000534057617,-10.067617980957031,2.712630480957031,1.13006318359375,-10.870229007633588,-28.732824427480917,-0.07633587786259542,-8.805873706054687,0.086191259765625,1.9919757812499999,7.068702290076335,-12.717557251908397,-13.114503816793894,0.0
10.450000524520874,-9.141061938476563,0.411802685546875,0.9840168823242187,-4.488549618320611,-27.786259541984734,3.877862595419847,-8.927977990722656,0.02633621826171875,2.214636535644531,11.374045801526718,-11.099236641221374,-13.083969465648854,0.0
10.460000276565552,-7.752424975585937,-0.040701428222656245,1.6352397338867186,6.091603053435114,-23.328244274809162,1.633587786259542,-8.037334973144532,0.4285620971679687,1.7022773803710936,12.580152671755725,-10.931297709923664,-14.885496183206106,0.0
10.470000267028809,-10.110713610839843,0.3806780639648437,3.086125939941406,7.0534351145038165,-22.3206106870229,-5.572519083969466,-8.695740429687499,0.14604630126953125,2.422932080078125,16.977099236641223,-7.419847328244275,-14.580152671755725,0.0
10.480000257492065,-10.64222637939453,2.085349645996094,4.448426684570312,14.106870229007633,-21.83206106870229,-9.48091603053435,-7.8553756469726554,0.5913678100585937,2.0446482177734375,16.16793893129771,-7.282442748091603,-15.450381679389313,0.0
10.490000486373901,-10.386046801757812,1.6017209106445311,4.783614916992187,13.389312977099237,-27.328244274809162,-6.732824427480916,-8.760383874511719,0.18914193115234373,2.4779987182617185,19.00763358778626,-5.404580152671755,-14.198473282442748,0.0
10.500000715255737,-11.413159313964844,1.3814543579101561,3.9935283691406247,14.50381679389313,-33.343511450381676,-3.7404580152671754,-8.015787158203125,0.5506663818359374,2.2744915771484373,18.15267175572519,-5.343511450381679,-15.114503816793894,0.0
10.510000705718994,-9.507374792480467,0.9744400756835937,2.8658593872070313,14.15267175572519,-38.13740458015267,-1.6946564885496183,-8.169016064453125,0.7637503295898437,2.2673089721679687,18.870229007633586,-5.251908396946565,-15.221374045801527,0.0
10.52000093460083,-9.165003955078124,0.7110778930664062,2.2266075439453124,12.580152671755725,-41.099236641221374,-2.9160305343511452,-8.341398583984375,0.8906430175781249,2.528276953125,16.946564885496183,-4.549618320610687,-15.022900763358779,0.0
10.530000448226929,-8.94473740234375,1.0989385620117187,1.5682020874023437,14.15267175572519,-42.42748091603053,-4.702290076335878,-7.989450939941406,1.426944189453125,2.0638018310546875,12.916030534351146,-4.6106870229007635,-15.32824427480916,0.0
10.540000677108765,-9.016563452148437,0.22266075439453123,1.8818425048828125,18.091603053435115,-41.29770992366412,-6.091603053435114,-8.482656481933594,1.1563994018554686,2.3247698120117186,10.83969465648855,-2.9618320610687023,-14.198473282442748,0.0
10.550000667572021,-9.05965908203125,0.5051765502929687,2.003946789550781,22.061068702290076,-42.38167938931298,-8.01526717557252,-8.662221606445312,1.0749965454101562,2.4779987182617185,9.145038167938932,-2.3969465648854964,-13.648854961832061,0.0
10.560000658035278,-8.564059338378906,0.46208092041015625,2.9472622436523435,29.068702290076335,-43.69465648854962,-11.312977099236642,-8.068459594726562,1.3479355346679687,2.123656872558594,6.229007633587786,-2.3053435114503817,-13.709923664122137,0.0
10.570000648498535,-8.149862451171874,0.5291185668945312,3.5314474487304683,35.89312977099237,-48.152671755725194,-13.648854961832061,-7.936778503417968,1.4006079711914061,2.1787235107421874,2.8091603053435112,-0.015267175572519083,-12.564885496183207,0.0
10.580000638961792,-10.084377392578125,1.5131354492187499,4.800374328613281,36.045801526717554,-50.47328244274809,-15.603053435114504,-8.427589843749999,0.23223756103515625,3.4548329956054684,-2.213740458015267,6.473282442748092,-10.335877862595419,0.0
10.590000867843628,-9.227253198242186,1.0845733520507812,4.180276098632812,32.396946564885496,-59.3587786259542,-8.50381679389313,-8.166621862792969,-0.30885201416015623,2.607285607910156,6.9465648854961835,-1.0229007633587786,-10.717557251908397,0.0
10.600000619888306,-8.659827404785156,0.8475473876953125,3.1268273681640624,31.72519083969466,-62.82442748091603,-3.7099236641221376,-7.184999182128906,0.09816226806640624,2.6216508178710938,7.374045801526718,-3.3893129770992365,-12.274809160305344,0.0
10.610000610351562,-8.013392956542969,1.5658078857421873,0.7038952880859375,26.396946564885496,-66.85496183206106,-0.9312977099236641,-6.823474731445312,0.6009446166992187,2.5617957763671875,7.801526717557252,-4.580152671755725,-13.34351145038168,0.0
10.62000060081482,-7.905653881835937,3.5889082885742187,-1.419761584472656,19.51145038167939,-63.32824427480916,-0.5801526717557252,-7.170633972167968,0.6607996582031249,2.4947581298828125,5.603053435114504,-5.251908396946565,-12.106870229007633,0.0
10.630001068115234,-7.228094812011718,3.1794998046874996,-2.8036101440429686,11.557251908396946,-55.64885496183206,0.21374045801526717,-7.580042456054687,1.0295067138671874,2.454056701660156,1.297709923664122,-5.190839694656488,-11.236641221374045,0.0
10.640000581741333,-6.828263134765624,1.5227122558593749,-2.96881005859375,11.557251908396946,-42.30534351145038,-0.22900763358778625,-7.860164050292968,0.8762778076171874,2.70065947265625,-2.854961832061069,-3.7557251908396947,-10.259541984732824,0.0
10.650000810623169,-6.754042883300781,-0.2920926025390625,-2.9185318237304685,12.198473282442748,-27.603053435114504,-4.656488549618321,-7.920019091796875,0.5913678100585937,2.916137622070312,-6.076335877862595,-1.5572519083969465,-9.145038167938932,0.0
10.660000324249268,-6.45476767578125,0.39264907226562495,-1.5514426757812498,13.816793893129772,-12.732824427480915,-12.931297709923664,-7.706935144042968,0.4644751220703125,2.7174188842773437,-10.106870229007633,0.0916030534351145,-9.251908396946565,0.0
10.670000553131104,-9.991003527832031,5.1140147460937495,2.360682836914062,0.24427480916030533,-6.198473282442748,-19.755725190839694,-8.389282617187499,0.1580173095703125,3.0406361083984375,-12.122137404580153,1.9083969465648856,-8.67175572519084,0.0
10.680000305175781,-9.624690673828125,4.436455676269531,3.746925598144531,-0.061068702290076333,-11.84732824427481,-13.465648854961833,-8.317456567382813,0.6919242797851562,3.028665100097656,-17.282442748091604,1.6030534351145038,-9.007633587786259,0.0
10.690000534057617,-7.802703210449218,2.5713725830078125,4.953603234863281,3.5114503816793894,-16.625954198473284,-6.473282442748092,-7.44357296142578,1.3000515014648437,2.50912333984375,-21.61832061068702,0.32061068702290074,-8.625954198473282,0.0
10.700000762939453,-7.563283044433593,1.5753846923828123,6.528987927246093,4.458015267175573,-23.557251908396946,-6.763358778625954,-5.439626171875,1.944091748046875,0.9097966308593749,-31.435114503816795,3.7557251908396947,-7.694656488549619,0.0
10.71000051498413,-7.922413293457031,1.235408056640625,7.6614453125,4.259541984732825,-33.41984732824427,-5.129770992366412,-8.295908752441406,0.1867477294921875,3.835511059570312,-33.587786259541986,13.801526717557252,-3.053435114503817,0.0
10.720000505447388,-8.609549169921875,2.0183119995117185,8.456320263671875,7.572519083969466,-45.80152671755725,-6.641221374045801,-10.417171423339843,0.22266075439453123,4.544194750976562,-30.244274809160306,12.946564885496183,-2.519083969465649,0.0
10.730000495910645,-10.457872851562499,5.588066674804687,8.904035974121093,-5.00763358778626,-65.58778625954199,-6.793893129770993,-9.042899670410156,-0.9840168823242187,1.8938135131835936,-33.16030534351145,12.15267175572519,-3.8473282442748094,0.0
10.740000486373901,-12.27746611328125,4.5322237426757805,9.45470235595703,-20.137404580152673,-86.87022900763358,-1.5877862595419847,-12.761094848632812,-0.967257470703125,1.6328455322265625,-10.82442748091603,19.603053435114504,-2.33587786259542,0.0
10.750000476837158,-12.320561743164061,0.6631938598632812,9.191340173339842,-14.290076335877863,-107.92366412213741,4.961832061068702,-16.99643758544922,0.1867477294921875,2.5617957763671875,0.3816793893129771,18.259541984732824,-8.946564885496183,0.0
10.760000705718994,-13.09388887939453,-1.350329736328125,9.0788126953125,5.572519083969466,-122.35114503816794,8.13740458015267,-18.375497741699217,1.7860744384765623,6.212953308105468,2.015267175572519,12.931297709923664,-18.47328244274809,0.0
10.770000696182251,-14.92545314941406,-0.36631285400390623,8.95670841064453,25.603053435114504,-133.8320610687023,9.938931297709924,-18.045097912597654,2.767697119140625,6.9910688476562495,-3.0229007633587788,-0.9923664122137404,-16.946564885496183,0.0
10.780000925064087,-17.83201396484375,0.6440402465820312,8.568847741699217,43.404580152671755,-145.26717557251908,14.65648854961832,-17.47527791748047,1.3670891479492187,6.524199523925781,-8.580152671755725,-6.320610687022901,-4.67175572519084,0.0
10.790000677108765,-18.301277490234373,1.5203180541992187,7.539341027832031,59.87786259541985,-153.45038167938932,21.770992366412212,-17.405846069335936,2.2074539306640624,5.035006091308594,-4.793893129770993,-17.251908396946565,11.282442748091603,0.0
10.800000667572021,-19.256563952636718,1.7621324218749999,6.1267620483398435,79.02290076335878,-157.06870229007635,29.129770992366414,-12.126631408691406,3.3638533325195312,-1.3311761230468748,-6.763358778625954,-30.748091603053435,16.946564885496183,0.0
10.810000658035278,-20.099322937011717,3.7301661865234372,4.824316345214844,77.86259541984732,-155.3740458015267,32.62595419847328,-9.9215716796875,1.1707646118164061,-3.5913024902343746,-25.862595419847327,-21.46564885496183,17.435114503816795,0.0
10.820000648498535,-19.450494287109375,3.7205893798828122,2.935291235351562,54.916030534351144,-154.99236641221373,36.82442748091603,-10.302249743652343,-5.231330627441406,-3.6727053466796873,-29.14503816793893,-8.580152671755725,16.793893129770993,0.0
10.830000638961792,-16.776171032714842,0.40462008056640625,0.3854664672851562,38.42748091603053,-151.1145038167939,41.20610687022901,-9.399635717773437,-10.002974536132811,-4.467580297851562,-19.893129770992367,-0.030534351145038167,8.82442748091603,0.0
10.84000039100647,-13.256694592285156,-2.039859814453125,-1.1085153686523437,35.587786259541986,-132.38167938931298,41.25190839694657,-9.785102185058593,-9.672574707031249,-4.122815258789062,1.282442748091603,10.748091603053435,1.8778625954198473,0.0
10.850000619888306,-10.357316381835936,-2.300827795410156,-2.01112939453125,40.900763358778626,-108.16793893129771,35.86259541984733,-9.133879333496093,-5.054159704589844,-4.970362646484375,10.442748091603054,22.610687022900763,-6.916030534351145,0.0
10.860000610351562,-7.048529687499999,-3.0310593017578125,-1.3623007446289062,49.89312977099237,-87.20610687022901,33.083969465648856,-9.504980590820312,-4.0988732421875,-2.9376854370117185,7.1603053435114505,37.083969465648856,-9.19083969465649,0.0
10.870000839233398,-6.4739212890625,-0.37828386230468747,-0.0526724365234375,53.05343511450382,-51.969465648854964,30.48854961832061,-10.558429321289061,-3.718195178222656,-1.4891934326171874,7.236641221374046,47.3587786259542,-7.8320610687022905,0.0
10.880000352859497,-8.544905725097657,2.4444798950195312,-0.9864110839843749,33.908396946564885,-27.984732824427482,32.13740458015267,-9.282319836425781,-1.3192051147460937,-0.814028564453125,3.648854961832061,52.12213740458015,-5.984732824427481,0.0
10.890000820159912,-9.162609753417968,-0.39264907226562495,1.0749965454101562,7.694656488549619,-16.229007633587788,36.74809160305343,-10.984597216796875,-1.3335703247070312,1.2761094848632812,5.3893129770992365,54.51908396946565,1.3129770992366412,0.0
10.90000057220459,-7.826645227050781,-3.536235852050781,0.7709329345703124,-6.473282442748092,-6.687022900763359,37.725190839694655,-10.735600244140624,-0.5458779785156249,1.0989385620117187,5.068702290076335,48.16793893129771,4.549618320610687,0.0
10.910000801086426,-5.183446594238281,-4.814739538574218,-0.5817910034179687,-1.4198473282442747,2.198473282442748,35.81679389312977,-9.081206896972656,0.6177040283203125,1.4149731811523436,-5.755725190839694,48.152671755725194,3.6030534351145036,0.0
10.920000553131104,-4.656722229003906,-2.231395947265625,-0.26336218261718747,-2.885496183206107,13.358778625954198,30.519083969465647,-10.153809240722655,-0.45489831542968745,3.6535517333984373,-8.045801526717558,48.80916030534351,7.083969465648855,0.0
10.930000305175781,-6.265625744628906,0.4381389038085937,0.737414111328125,-15.038167938931299,22.885496183206108,22.396946564885496,-9.133879333496093,-0.4285620971679687,2.9640216552734375,-5.9541984732824424,39.908396946564885,7.175572519083969,0.0
10.940000534057617,-6.928819604492187,0.7398083129882812,1.455674609375,-37.66412213740458,24.610687022900763,16.045801526717558,-9.145850341796875,-0.055066638183593745,2.480392919921875,-2.9618320610687023,30.82442748091603,4.564885496183206,0.0
10.950000524520874,-4.6064439941406246,-1.1923124267578125,-0.5195417602539062,-49.63358778625954,22.38167938931298,14.122137404580153,-8.894459167480468,0.48123453369140623,2.806004345703125,-12.900763358778626,28.946564885496183,1.786259541984733,0.0
10.96000051498413,-4.8650177734375,-1.0821791503906248,0.6703764648437499,-61.404580152671755,32.045801526717554,8.702290076335878,-8.511386901855468,-0.40940848388671874,3.545812658691406,-19.96946564885496,27.099236641221374,1.7709923664122138,0.0
10.970000505447388,-4.910507604980468,-1.0390835205078124,0.10773907470703124,-75.83206106870229,32.12213740458015,4.8396946564885495,-8.650250598144531,0.05985504150390625,3.3446997192382812,-22.885496183206108,23.49618320610687,1.7709923664122138,0.0
10.980000495910645,-3.555389465332031,-1.7286135986328124,-0.7493851196289062,-82.70229007633588,34.229007633587784,4.3816793893129775,-8.844180932617187,0.1005564697265625,3.622427111816406,-25.17557251908397,21.923664122137403,2.549618320610687,0.0
10.990000247955322,-2.04943662109375,-2.212242333984375,-1.5586252807617187,-82.3969465648855,43.74045801526717,2.6106870229007635,-8.233659509277343,0.7948749511718749,2.6575638427734374,-28.30534351145038,18.83969465648855,2.122137404580153,0.0
11.000000238418579,-3.2417490478515623,-1.3934253662109375,-1.20667763671875,-83.37404580152672,56.396946564885496,-2.5801526717557253,-8.56166513671875,-0.5339069702148437,3.1004911499023438,-28.244274809160306,18.3206106870229,2.9160305343511452,0.0
11.010000705718994,-3.0550013183593747,-1.6160861206054686,-1.139639990234375,-82.54961832061069,66.50381679389314,-6.763358778625954,-9.516951599121093,-1.8818425048828125,3.6655227416992187,-24.519083969465647,17.114503816793892,3.816793893129771,0.0
11.02000093460083,-3.402160559082031,-1.9512743530273435,-0.9504980590820312,-75.70992366412214,77.52671755725191,-11.038167938931299,-9.409212524414063,-1.8052280517578123,2.920926025390625,-20.213740458015266,13.435114503816793,2.8702290076335877,0.0
11.030000686645508,-4.44363828125,-1.484405029296875,-0.03591302490234375,-67.32824427480917,88.4885496183206,-15.633587786259541,-9.483432775878907,-1.8698714965820311,3.2058360229492187,-13.465648854961833,11.618320610687023,2.549618320610687,0.0
11.040000677108765,-4.836287353515624,-1.1923124267578125,0.4165910888671875,-56.229007633587784,95.45038167938931,-16.946564885496183,-10.474632263183594,-1.659181750488281,3.7014357666015623,-7.068702290076335,11.221374045801527,3.2977099236641223,0.0
11.050000429153442,-5.348646508789062,-0.4429273071289062,1.0965443603515623,-39.465648854961835,103.2824427480916,-16.82442748091603,-9.70369932861328,-1.2401964599609374,2.7461493041992187,-4.030534351145038,9.038167938931299,3.3282442748091605,0.0
11.060000896453857,-6.4643444824218745,1.1013327636718748,2.1116858642578125,-23.14503816793893,107.93893129770993,-14.213740458015268,-10.058041174316406,-2.042254016113281,3.289633081054687,2.6259541984732824,7.938931297709924,4.793893129770993,0.0
11.070000410079956,-7.445967163085937,1.9105729248046874,3.2728736694335936,-6.244274809160306,111.49618320610686,-8.473282442748092,-9.330203869628905,-0.8571241943359375,2.1068974609374997,5.8320610687022905,4.854961832061068,4.0458015267175576,0.0
11.080000877380371,-8.300697155761718,2.6216508178710938,3.6750995483398436,-1.251908396946565,111.06870229007633,-4.5038167938931295,-10.618284362792968,-1.917755529785156,3.632003918457031,9.16030534351145,6.412213740458015,5.7251908396946565,0.0
11.090000629425049,-8.808267907714843,1.1372457885742187,4.273649963378906,-3.2061068702290076,108.99236641221374,-1.251908396946565,-10.9941740234375,-1.7693150268554687,3.27526787109375,16.15267175572519,4.656488549618321,6.625954198473282,0.0
11.100000619888306,-10.338162768554687,-0.5722141967773438,6.042964990234375,-5.8320610687022905,105.74045801526718,-2.3206106870229006,-11.33175645751953,-1.149216796875,3.3303345092773435,21.69465648854962,2.0610687022900764,6.778625954198473,0.0
11.110000610351562,-12.521674682617187,-3.3399113159179685,10.180145458984374,-0.9923664122137404,96.93129770992367,-3.5267175572519083,-10.924742175292968,-0.9840168823242187,2.8131869506835936,19.51145038167939,-0.3053435114503817,7.908396946564886,0.0
11.12000060081482,-15.528791967773437,-4.84586416015625,14.609418530273437,17.404580152671755,83.61832061068702,-3.49618320610687,-11.180921752929686,-1.438915197753906,2.1715409057617188,16.732824427480917,-3.0076335877862594,8.67175572519084,0.0
11.130000591278076,-16.778565234374998,-2.418143676757812,11.765106958007811,30.15267175572519,67.14503816793894,-5.312977099236641,-12.129025610351562,-2.3295582153320313,2.1452046874999997,13.694656488549619,-4.900763358778626,9.083969465648854,0.0
11.140000343322754,-14.982913989257812,-0.47644613037109373,4.414907861328125,47.786259541984734,58.29007633587786,-5.267175572519084,-12.050016955566406,-2.540247961425781,1.4820108276367188,8.778625954198473,-7.587786259541985,8.595419847328245,0.0
11.15000057220459,-16.345214733886717,3.9719805541992184,3.289633081054687,36.717557251908396,55.343511450381676,-8.229007633587786,-11.245565197753905,-2.1787235107421874,1.2473790649414063,7.541984732824427,-8.961832061068701,7.633587786259542,0.0
11.160000562667847,-13.256694592285156,2.942473840332031,3.105279553222656,28.65648854961832,49.267175572519086,-2.4122137404580153,-10.98699141845703,-1.7645266235351562,1.4891934326171874,5.526717557251908,-7.679389312977099,8.030534351145038,0.0
11.170000553131104,-10.235212097167969,-0.2561795776367187,4.651933825683593,37.45038167938932,47.099236641221374,-1.2366412213740459,-10.958260998535156,-1.9967641845703124,2.2481553588867187,11.465648854961833,-8.030534351145038,7.450381679389313,0.0
11.18000054359436,-8.896853369140624,0.16759411621093748,5.042188696289062,42.36641221374046,43.7557251908397,-6.885496183206107,-10.218452685546874,-0.15562310791015624,1.4915876342773438,10.83969465648855,-9.129770992366412,4.67175572519084,0.0
11.190000534057617,-7.941566906738281,1.1180921752929687,2.185906115722656,32.12213740458015,40.80916030534351,-9.801526717557252,-9.184157568359375,1.3263877197265623,1.2401964599609374,0.16793893129770993,-7.587786259541985,5.572519083969466,0.0
11.200000286102295,-7.783549597167968,1.0007762939453124,0.20829554443359374,18.229007633587788,42.80916030534351,-10.82442748091603,-9.842563024902343,1.0319009155273438,0.8882488159179687,0.9923664122137404,-10.80916030534351,8.717557251908397,0.0
11.210000276565552,-8.537723120117187,0.9002198242187499,-0.26815058593749996,11.312977099236642,47.57251908396947,-12.198473282442748,-9.222464794921875,1.3144167114257812,0.8882488159179687,-9.770992366412214,-8.870229007633588,10.534351145038167,0.0
11.220000505447388,-8.303091357421874,-0.9313444458007812,0.22505495605468748,7.404580152671755,54.778625954198475,-11.465648854961833,-9.014169250488282,1.1444283935546875,1.0869675537109373,-12.458015267175572,-9.129770992366412,13.786259541984732,0.0
11.230000734329224,-7.364564306640625,-2.3535002319335936,0.33758243408203126,9.572519083969466,60.213740458015266,-13.908396946564885,-9.220070593261719,0.5434837768554687,1.37906015625,-14.183206106870228,-9.450381679389313,17.31297709923664,0.0
11.240000486373901,-7.675810522460937,-1.6615759521484375,0.7254431030273437,20.198473282442748,69.93893129770993,-19.068702290076335,-8.798691101074219,0.11252747802734374,1.5370774658203123,-14.595419847328245,-9.16030534351145,19.52671755725191,0.0
11.250000238418579,-9.081206896972656,1.7334020019531249,1.5682020874023437,24.076335877862597,76.80916030534351,-23.587786259541986,-9.2320416015625,-1.1827356201171875,2.1811177124023438,-10.488549618320612,-10.351145038167939,22.412213740458014,0.0
11.260000705718994,-9.473855969238281,4.309562988281249,0.852335791015625,15.969465648854962,75.61832061068702,-19.46564885496183,-8.305485559082031,-0.22744915771484372,0.7230489013671875,-4.366412213740458,-18.244274809160306,20.99236641221374,0.0
11.270000696182251,-11.010933435058593,5.849034655761718,1.7812860351562498,-1.4809160305343512,74.4885496183206,-13.282442748091603,-9.85692823486328,-0.6488286499023437,1.7453730102539062,-3.969465648854962,-17.633587786259543,21.893129770992367,0.0
11.280000925064087,-10.28549033203125,5.202600207519531,2.291250988769531,-18.778625954198475,65.58778625954199,-10.320610687022901,-9.89523546142578,-0.6512228515624999,2.2840683837890623,-6.702290076335878,-15.099236641221374,21.358778625954198,0.0
11.290000438690186,-9.3852705078125,2.7964275390625,1.5514426757812498,-31.6793893129771,60.091603053435115,2.8702290076335877,-8.877699755859375,0.7278373046875,0.8188169677734375,-7.145038167938932,-19.129770992366414,18.045801526717558,0.0
11.3000009059906,-9.854534033203125,2.1883003173828124,2.308010400390625,-32.56488549618321,57.93893129770992,5.679389312977099,-9.057264880371093,0.5865794067382812,1.465251416015625,-10.045801526717558,-16.610687022900763,16.442748091603054,0.0
11.3100004196167,-12.121843005371092,2.4660277099609376,2.6001030029296874,-31.129770992366414,54.13740458015267,-0.2900763358778626,-9.363722692871093,0.7829039428710937,1.6400281372070311,-9.083969465648854,-17.022900763358777,15.603053435114504,0.0
11.320000648498535,-10.27830772705078,0.7924807495117187,3.8690298828125,-36.900763358778626,45.25190839694657,-0.1984732824427481,-9.928754284667969,0.565031591796875,2.042254016113281,-12.534351145038167,-15.114503816793894,15.84732824427481,0.0
11.330000638961792,-9.634267480468749,-0.277727392578125,2.4660277099609376,-32.534351145038165,39.57251908396947,1.8778625954198473,-9.447519750976562,0.6488286499023437,1.1923124267578125,-15.557251908396946,-16.53435114503817,15.755725190839694,0.0
11.340000629425049,-10.235212097167969,0.9193734375,2.6216508178710938,-23.14503816793893,35.48091603053435,-0.3969465648854962,-9.68454571533203,-0.19153613281249998,1.5969325073242187,-15.374045801526718,-14.82442748091603,16.625954198473284,0.0
11.350000619888306,-9.868899243164062,2.04943662109375,2.674323254394531,-21.0381679389313,28.12213740458015,-0.42748091603053434,-9.612719665527344,-0.13407529296874998,0.6847416748046875,-12.580152671755725,-17.633587786259543,14.82442748091603,0.0
11.360000848770142,-11.901576452636718,2.43250888671875,3.3016040893554686,-21.862595419847327,26.702290076335878,1.8778625954198473,-10.548852514648438,-0.8762778076171874,1.8818425048828125,-4.99236641221374,-14.65648854961832,15.32824427480916,0.0
11.370000839233398,-11.355698474121093,2.422932080078125,3.1555577880859373,-24.412213740458014,19.908396946564885,5.374045801526718,-10.807426293945312,-0.32561142578124996,1.9225439331054686,0.549618320610687,-16.33587786259542,11.969465648854962,0.0
11.380000829696655,-9.399635717773437,-0.14604630126953125,1.7812860351562498,-21.480916030534353,14.473282442748092,9.84732824427481,-9.782707983398437,0.469263525390625,1.6998831787109374,-5.068702290076335,-12.198473282442748,7.816793893129771,0.0
11.390000581741333,-9.548076220703125,-0.9193734375,1.6807295654296874,-13.419847328244275,14.687022900763358,8.961832061068701,-10.409988818359375,-0.5291185668945312,1.9991583862304687,3.450381679389313,-9.786259541984732,7.66412213740458,0.0
11.40000057220459,-9.564835632324218,-1.7645266235351562,0.6584054565429687,-1.6641221374045803,14.51908396946565,3.969465648854962,-9.847351428222655,0.19393033447265623,1.438915197753906,8.625954198473282,-10.412213740458014,5.145038167938932,0.0
11.410000801086426,-10.098742602539062,-1.2713210815429687,0.2753331909179687,17.49618320610687,17.81679389312977,-0.13740458015267176,-9.859322436523437,-0.35673604736328124,1.8100164550781248,18.412213740458014,-11.34351145038168,3.8931297709923665,0.0
11.420000553131104,-10.149020837402343,0.32561142578124996,1.216254443359375,20.412213740458014,20.610687022900763,-5.541984732824427,-10.441113439941406,-0.15562310791015624,1.2880804931640624,25.61832061068702,-12.473282442748092,2.4885496183206106,0.0
11.43000054359436,-9.026140258789061,1.2497732666015624,0.59376201171875,19.96946564885496,15.98473282442748,-6.0,-10.007762939453125,0.4572925170898437,1.1851298217773436,30.15267175572519,-16.27480916030534,-0.5038167938931297,0.0
11.440000772476196,-10.364498986816406,2.375048046875,0.8355763793945312,13.603053435114504,12.763358778625955,-5.083969465648855,-9.323021264648437,0.5482721801757812,0.8307879760742187,26.732824427480917,-15.083969465648854,-2.030534351145038,0.0
11.450000762939453,-9.64623848876953,2.887407202148437,0.35673604736328124,2.0916030534351147,8.916030534351146,-1.3282442748091603,-9.773131176757811,1.5849614990234373,1.62805712890625,22.580152671755727,-10.564885496183207,-1.450381679389313,0.0
11.46000051498413,-9.70369932861328,2.81558115234375,0.143652099609375,1.5267175572519085,10.381679389312977,0.8854961832061069,-10.149020837402343,0.6967126831054687,2.5857377929687497,12.82442748091603,-1.3435114503816794,1.816793893129771,0.0
11.470000743865967,-8.743624462890624,1.419761584472656,-0.35194764404296874,-3.83206106870229,7.755725190839694,3.816793893129771,-9.200916979980468,1.8698714965820311,1.2880804931640624,10.977099236641221,-2.900763358778626,-1.251908396946565,0.0
11.480000257492065,-9.737218151855469,1.9488801513671874,-0.3136404174804687,-6.061068702290076,7.709923664122138,3.572519083969466,-9.95987890625,1.3575123413085937,2.0781670410156248,8.67175572519084,1.5572519083969465,0.5190839694656488,0.0
11.490000486373901,-9.744400756835937,1.3192051147460937,-0.2346317626953125,-7.969465648854962,8.091603053435115,2.6259541984732824,-8.595183959960938,2.961627453613281,0.7924807495117187,4.290076335877862,-1.7251908396946565,-3.0229007633587788,0.0
11.500000238418579,-10.223241088867187,2.0254946044921875,0.09576806640624999,-13.19083969465649,9.022900763358779,2.045801526717557,-9.957484704589843,1.7717092285156248,2.0470424194335934,-1.5419847328244274,4.687022900763359,0.13740458015267176,0.0
11.510000705718994,-9.552864624023437,1.3551181396484375,0.2346317626953125,-16.671755725190838,8.80916030534351,1.9083969465648856,-9.121908325195312,1.484405029296875,2.2840683837890623,-7.068702290076335,3.7404580152671754,-0.6106870229007634,0.0
11.52000093460083,-9.813832604980469,1.0630255371093749,0.181959326171875,-19.64885496183206,8.51908396946565,1.786259541984733,-9.193734375,0.7948749511718749,2.068590234375,-9.511450381679388,3.49618320610687,-1.5114503816793894,0.0
11.530000686645508,-9.562441430664062,1.1444283935546875,0.09576806640624999,-20.213740458015266,9.19083969465649,1.984732824427481,-9.107543115234375,0.28490999755859375,2.3487118286132813,-11.618320610687023,3.984732824427481,-2.4122137404580153,0.0
11.540000677108765,-9.366116894531249,0.9528922607421875,0.0,-21.31297709923664,10.412213740458014,1.4961832061068703,-9.85692823486328,0.07900865478515624,2.588131994628906,-9.633587786259541,4.1679389312977095,-2.6259541984732824,0.0
11.550000429153442,-9.564835632324218,0.5339069702148437,0.5243301635742187,-20.68702290076336,10.778625954198473,0.7786259541984732,-10.407594616699217,-1.3766659545898436,3.778050219726562,-2.6412213740458017,2.2595419847328246,-2.366412213740458,0.0
11.560000658035278,-9.313444458007812,0.28730419921875,0.5003881469726562,-16.732824427480917,11.022900763358779,-0.22900763358778625,-10.91037696533203,-0.41419688720703124,3.4069489624023435,3.1603053435114505,-3.053435114503817,-5.251908396946565,0.0
11.570000648498535,-9.770736975097655,0.4381389038085937,0.8044517578125,-14.106870229007633,10.748091603053435,-1.9083969465648856,-10.16338604736328,-0.26336218261718747,3.785232824707031,6.030534351145038,-7.374045801526718,-7.4961832061068705,0.0
11.580000400543213,-9.89523546142578,0.35194764404296874,1.2976572998046874,-11.755725190839694,9.511450381679388,-3.0229007633587788,-9.756371765136718,-0.34237083740234375,3.3351229125976563,10.320610687022901,-12.198473282442748,-8.793893129770993,0.0
11.590000629425049,-9.952696301269532,0.38786066894531246,1.8100164550781248,-6.687022900763359,9.282442748091603,-4.488549618320611,-9.727641345214844,0.5698199951171875,3.1747114013671873,8.870229007633588,-15.969465648854962,-10.916030534351146,0.0
11.600000619888306,-10.441113439941406,1.5682020874023437,2.085349645996094,-6.595419847328245,7.282442748091603,-4.564885496183206,-8.353369592285155,0.9145850341796874,2.068590234375,-1.0076335877862594,-14.580152671755725,-10.870229007633588,0.0
11.610000610351562,-9.279925634765624,1.0582371337890624,1.4724340209960938,-5.358778625954199,6.0458015267175576,-3.145038167938931,-8.47786807861328,0.373495458984375,3.5601778686523438,-8.778625954198473,-5.709923664122138,-8.198473282442748,0.0
11.62000060081482,-9.392453112792968,1.8914193115234375,0.9337386474609375,-6.916030534351145,6.229007633587786,-1.7404580152671756,-8.537723120117187,0.5889736083984375,2.6096798095703124,-12.564885496183207,-5.175572519083969,-8.259541984732824,0.0
11.630000829696655,-9.804255798339844,2.834734765625,0.3711012573242187,-11.98473282442748,6.931297709923665,-1.0381679389312977,-9.3086560546875,-0.39983167724609375,3.0023288818359375,-11.694656488549619,-3.450381679389313,-7.267175572519084,0.0
11.640000581741333,-8.913612780761719,1.180341418457031,-0.8116343627929687,-18.916030534351144,4.6106870229007635,1.297709923664122,-9.124302526855468,-0.5027823486328125,3.337517114257812,-10.610687022900763,-4.67175572519084,-8.854961832061068,0.0
11.65000057220459,-10.089165795898436,1.8459294799804686,0.06703764648437499,-21.96946564885496,7.770992366412214,-0.0,-9.679757312011718,-0.13646949462890623,3.375824340820312,-8.885496183206106,-4.519083969465649,-9.206106870229007,0.0
11.660000562667847,-9.018957653808593,-0.11013327636718749,-0.40940848388671874,-13.206106870229007,12.351145038167939,-1.4045801526717556,-10.024522351074218,-0.7781155395507812,3.4332851806640625,-2.030534351145038,-8.778625954198473,-10.030534351145038,0.0
11.670000553131104,-11.054029064941405,2.43250888671875,1.3814543579101561,-20.9618320610687,13.923664122137405,-5.7251908396946565,-9.445125549316407,-0.21308394775390624,2.7437551025390623,-1.1908396946564885,-14.83969465648855,-13.221374045801527,0.0
11.68000054359436,-10.55364091796875,1.6519991455078125,1.3215993164062498,-19.87786259541985,12.106870229007633,-5.7251908396946565,-10.165780249023436,0.3806780639648437,3.9264907226562498,-1.816793893129771,-11.786259541984732,-13.755725190839694,0.0
11.690000772476196,-9.509768994140625,0.8571241943359375,1.4173673828125,-18.244274809160306,8.977099236641221,-4.183206106870229,-9.490615380859374,-0.07422025146484375,4.223371728515625,-3.572519083969466,-15.251908396946565,-13.664122137404581,0.0
11.700000762939453,-9.988609326171874,1.1061211669921875,2.0374656127929685,-17.267175572519083,6.137404580152672,-5.572519083969466,-8.839392529296875,0.19153613281249998,4.2521021484374995,-6.793893129770993,-17.31297709923664,-13.801526717557252,0.0
11.71000051498413,-10.067617980957031,1.4053963745117186,2.4588451049804685,-14.564885496183207,3.404580152671756,-6.488549618320611,-8.767566479492187,0.8786720092773437,3.6583401367187496,-14.442748091603054,-14.213740458015268,-13.603053435114504,0.0
11.720000743865967,-9.689334118652344,1.6831237670898436,2.370259643554687,-14.427480916030534,-0.13740458015267176,-6.33587786259542,-8.137891442871092,0.8882488159179687,3.3255461059570313,-23.83206106870229,-9.022900763358779,-12.045801526717558,0.0
11.730000495910645,-9.605537060546874,1.3192051147460937,2.3032219970703123,-12.977099236641221,-4.625954198473282,-5.297709923664122,-9.588777648925781,-0.7110778930664062,3.8235400512695312,-18.48854961832061,-9.557251908396946,-9.114503816793894,0.0
11.740000486373901,-9.4618849609375,1.1947066284179686,1.8626888916015625,-5.969465648854962,-7.9541984732824424,-4.748091603053435,-9.07163009033203,-0.6009446166992187,3.8474820678710935,-18.03053435114504,-12.198473282442748,-11.633587786259541,0.0
11.750000238418579,-9.18655177001953,1.1180921752929687,1.5298948608398437,-3.1603053435114505,-8.885496183206106,-2.9770992366412212,-8.662221606445312,-0.38786066894531246,3.459621398925781,-14.702290076335878,-13.664122137404581,-12.687022900763358,0.0
11.760000705718994,-9.006986645507812,0.9552864624023437,0.9792284790039062,0.6564885496183206,-7.816793893129771,-2.6564885496183206,-8.695740429687499,-0.622492431640625,3.5984850952148437,-12.198473282442748,-14.305343511450381,-12.82442748091603,0.0
11.770000696182251,-9.057264880371093,1.0678139404296874,0.7517793212890624,1.7404580152671756,-6.106870229007634,-3.404580152671756,-7.819462622070312,-0.411802685546875,2.9640216552734375,-11.84732824427481,-16.396946564885496,-13.923664122137405,0.0
11.780000925064087,-9.409212524414063,1.6017209106445311,0.8762778076171874,0.9770992366412213,-4.396946564885496,-4.442748091603053,-8.36294639892578,-0.5482721801757812,3.1483751831054687,-8.885496183206106,-15.816793893129772,-12.580152671755725,0.0
11.790000438690186,-9.612719665527344,1.8052280517578123,0.9600748657226562,0.366412213740458,-3.5572519083969465,-4.625954198473282,-8.489839086914062,-0.5889736083984375,3.1603461914062496,-6.396946564885496,-14.748091603053435,-12.641221374045802,0.0
11.800000667572021,-10.290278735351562,2.032677209472656,1.5586252807617187,-4.106870229007634,-4.351145038167939,-4.778625954198473,-7.685387329101562,-0.10295067138671875,2.252943762207031,-5.435114503816794,-14.580152671755725,-13.236641221374045,0.0
11.8100004196167,-9.504980590820312,0.7565677246093749,1.9321207397460936,-0.9618320610687023,-6.351145038167939,-4.442748091603053,-8.743624462890624,-0.8044517578125,2.9041666137695312,-0.183206106870229,-11.893129770992367,-11.770992366412214,0.0
11.820000648498535,-9.548076220703125,0.8595183959960937,2.9664158569335934,1.5877862595419847,-9.877862595419847,-6.931297709923665,-8.482656481933594,-0.6200982299804687,2.9185318237304685,1.9541984732824427,-10.534351145038167,-12.50381679389313,0.0
11.830000400543213,-10.536881506347656,2.6862942626953124,4.580107775878906,-2.6259541984732824,-14.748091603053435,-9.709923664122137,-7.843404638671874,-0.23223756103515625,2.3127988037109373,3.801526717557252,-10.305343511450381,-13.022900763358779,0.0
11.840000629425049,-6.691793640136718,3.0645781249999997,3.69664736328125,-4.564885496183206,-28.83969465648855,-5.541984732824427,-8.164227661132813,-0.22505495605468748,2.4684219116210935,6.442748091603053,-8.82442748091603,-12.763358778625955,0.0
11.850001096725464,-9.064447485351561,2.27927998046875,4.352658618164062,-16.916030534351144,-41.29770992366412,-2.8244274809160306,-8.365340600585936,-0.19632453613281248,2.6503812377929687,8.320610687022901,-7.511450381679389,-12.13740458015267,0.0
11.860000610351562,-9.809044201660155,1.35990654296875,5.030217687988281,-11.923664122137405,-48.76335877862596,-0.07633587786259542,-7.771578588867187,-0.229843359375,2.4205378784179685,8.320610687022901,-6.900763358778626,-12.213740458015268,0.0
11.870000839233398,-9.176974963378905,0.45010991210937495,4.6255976074218745,-11.374045801526718,-57.41984732824427,-0.9618320610687023,-7.544129431152343,-0.2442085693359375,2.511517541503906,11.465648854961833,-6.305343511450381,-11.648854961832061,0.0
11.880000591278076,-8.394071020507813,-1.1109095703125,4.192247106933594,-2.198473282442748,-64.62595419847328,-1.0687022900763359,-7.42441934814453,-0.23702596435546874,2.7150246826171873,13.389312977099237,-5.175572519083969,-11.465648854961833,0.0
11.890000820159912,-9.004592443847656,-0.5051765502929687,3.268085266113281,7.679389312977099,-64.0,-2.1526717557251906,-7.235277416992187,-0.04548983154296875,2.5378537597656248,15.114503816793894,-4.351145038167939,-11.740458015267176,0.0
11.90000057220459,-8.497021691894531,-0.07900865478515624,1.9608511596679685,9.206106870229007,-66.68702290076335,-2.931297709923664,-7.036558679199218,0.3136404174804687,2.2840683837890623,15.816793893129772,-4.183206106870229,-12.381679389312977,0.0
11.910000801086426,-7.216123803710937,-1.005564697265625,0.12210428466796874,15.664122137404581,-66.38167938931298,-0.07633587786259542,-6.967126831054687,0.6392518432617187,2.252943762207031,13.526717557251908,-3.7099236641221376,-12.83969465648855,0.0
11.920000553131104,-6.610390783691406,-1.1923124267578125,-0.42377369384765623,25.770992366412212,-58.50381679389313,-2.0,-6.770802294921874,0.7829039428710937,2.2936451904296873,10.15267175572519,-3.099236641221374,-12.65648854961832,0.0
11.930000305175781,-7.180210778808593,0.3447650390625,0.18914193115234373,27.16030534351145,-49.93893129770992,-8.580152671755725,-6.579266162109374,0.7254431030273437,2.370259643554687,6.412213740458015,-2.763358778625954,-11.786259541984732,0.0
11.940000295639038,-7.484274389648437,1.6831237670898436,0.7230489013671875,24.80916030534351,-47.14503816793893,-12.793893129770993,-6.655880615234374,0.5578489868164063,2.4779987182617185,2.900763358778626,-2.0916030534351147,-9.587786259541986,0.0
11.950000524520874,-7.072471704101562,0.5339069702148437,1.180341418457031,26.061068702290076,-45.51145038167939,-12.274809160305344,-6.825868933105468,0.3232172241210937,2.6671406494140624,-0.7633587786259542,-2.015267175572519,-7.190839694656488,0.0
11.960000276565552,-7.908048083496094,0.3399766357421875,2.7246014892578123,31.34351145038168,-41.25190839694657,-13.923664122137405,-6.675034228515624,0.05027823486328125,2.722207287597656,-3.435114503816794,-3.145038167938931,-5.648854961832061,0.0
11.970000505447388,-9.198522778320312,2.6312276245117188,3.459621398925781,29.755725190839694,-40.97709923664122,-14.183206106870228,-5.896918688964844,0.2154781494140625,2.2577321655273437,-6.67175572519084,-5.297709923664122,-5.572519083969466,0.0
11.980000495910645,-10.141838232421874,3.8666356811523435,3.337517114257812,17.938931297709924,-41.19083969465649,-7.786259541984733,-8.238447912597655,-0.4525041137695312,3.7708676147460936,-12.793893129770993,1.4961832061068703,-2.763358778625954,0.0
11.99000072479248,-7.601590270996093,2.6862942626953124,0.7924807495117187,14.244274809160306,-40.778625954198475,2.2442748091603053,-3.7229835815429686,0.5578489868164063,1.189918225097656,-19.49618320610687,-5.893129770992366,-4.916030534351145,0.0
12.000000715255737,-7.410054138183593,2.8802245971679685,-0.814028564453125,7.374045801526718,-36.62595419847328,-0.5648854961832062,-7.6231380859375,-0.39983167724609375,2.104503259277344,-20.50381679389313,0.8091603053435115,-4.076335877862595,0.0
12.010000467300415,-6.756437084960937,2.1643583007812497,-1.3838485595703125,-0.1984732824427481,-28.229007633587788,-5.404580152671755,-7.9846625366210935,0.28012159423828126,2.0278888061523435,-26.65648854961832,3.7251908396946565,-7.236641221374046,0.0
12.02000093460083,-7.900865478515625,1.5011644409179687,-0.5003881469726562,-2.9770992366412212,-16.3206106870229,-10.51908396946565,-10.58476553955078,0.16759411621093748,3.9624037475585934,-31.49618320610687,13.709923664122137,-9.84732824427481,0.0
12.030000925064087,-9.466673364257812,3.7205893798828122,0.38786066894531246,-14.16793893129771,-9.877862595419847,-17.83206106870229,-11.104307299804686,-0.3399766357421875,1.4700398193359374,-31.099236641221374,16.702290076335878,-12.13740458015267,0.0
12.040000438690186,-11.475408557128906,5.884947680664062,2.090138049316406,-23.709923664122137,-6.793893129770993,-19.251908396946565,-14.020444921874999,0.8762778076171874,0.8379705810546875,-33.41984732824427,24.671755725190838,-14.366412213740459,0.0
12.050000667572021,-9.651026892089844,1.8004396484374998,1.4317325927734375,-17.282442748091604,-9.786259541984732,-11.526717557251908,-18.921375720214844,2.834734765625,4.661510632324219,-37.587786259541986,32.900763358778626,-14.213740458015268,0.0
12.060000896453857,-10.809820495605468,2.0566192260742184,2.7054478759765623,-10.534351145038167,-6.122137404580153,-12.870229007633588,-21.83272493896484,2.205059729003906,6.7803791015625,-40.33587786259542,25.984732824427482,-12.274809160305344,0.0
12.070000648498535,-12.00213292236328,2.5905261962890624,3.9887399658203124,1.2366412213740459,-5.893129770992366,-13.17557251908397,-20.190302600097656,2.8467057739257813,7.0652890991210935,-39.786259541984734,13.740458015267176,-3.49618320610687,0.0
12.080000638961792,-13.065158459472656,1.2497732666015624,3.632003918457031,7.404580152671755,-15.954198473282442,-6.687022900763359,-18.650830932617186,1.9129671264648436,8.279149340820313,-37.89312977099237,6.351145038167939,14.16793893129771,0.0
12.090000629425049,-16.165649609375,0.9193734375,4.594472985839843,13.450381679389313,-24.65648854961832,-4.488549618320611,-15.890316418457031,1.714248388671875,6.222530114746093,-28.427480916030536,-10.183206106870228,27.221374045801525,0.0
12.100000619888306,-18.62928311767578,0.6512228515624999,4.996698864746094,27.81679389312977,-33.32824427480916,-3.6030534351145036,-12.804190478515624,1.1540052001953125,2.1164742675781247,-21.61832061068702,-26.458015267175572,32.54961832061068,0.0
12.110000610351562,-22.139182751464844,4.4005426513671875,7.206546997070312,22.748091603053435,-44.3206106870229,0.5801526717557252,-7.6087728759765625,2.1835119140624997,-2.5426421630859375,-42.48854961832061,-25.49618320610687,26.015267175572518,0.0
12.12000060081482,-23.01546055908203,5.384559533691406,7.48906279296875,13.770992366412214,-60.67175572519084,14.916030534351146,-7.041347082519531,-2.138022082519531,-1.9800047729492187,-51.969465648854964,-12.412213740458014,27.587786259541986,0.0
12.130000591278076,-21.191078894042967,4.060566015625,7.266402038574219,8.717557251908397,-75.26717557251908,29.633587786259543,-7.41244833984375,-6.72291826171875,-3.4165257690429685,-34.93129770992366,-8.67175572519084,23.572519083969464,0.0
12.140000581741333,-18.241422448730468,2.308010400390625,5.463568188476562,5.908396946564886,-87.48091603053435,37.9236641221374,-6.83783994140625,-7.972691528320312,-2.85388837890625,-28.900763358778626,4.320610687022901,11.450381679389313,0.0
12.150000810623169,-15.138537097167967,1.5514426757812498,4.754884497070313,-2.549618320610687,-97.6793893129771,43.80152671755725,-8.66940421142578,-7.8529814453124995,-2.070984436035156,-5.374045801526718,15.19083969465649,1.0076335877862594,0.0
12.160000562667847,-12.536039892578124,0.7757213378906249,1.0989385620117187,-10.549618320610687,-105.46564885496183,46.19847328244275,-10.587159741210938,-7.012616662597656,-1.62805712890625,13.679389312977099,22.946564885496183,-11.725190839694656,0.0
12.170000553131104,-10.433930834960936,-2.319981408691406,0.8068459594726562,-19.419847328244273,-103.22137404580153,44.13740458015267,-11.939883679199218,-5.178658190917968,-1.0127473022460938,32.900763358778626,28.580152671755727,-17.129770992366414,0.0
12.18000054359436,-10.12507882080078,-3.3782185424804685,0.6296750366210937,-22.244274809160306,-97.81679389312977,41.343511450381676,-11.166556542968749,-1.5370774658203123,-1.13006318359375,40.44274809160305,28.12213740458015,-16.16793893129771,0.0
12.190000534057617,-9.0788126953125,-4.678270043945313,0.33518823242187495,-13.877862595419847,-97.00763358778626,39.64885496183206,-8.664615808105468,2.4109610717773435,-1.3311761230468748,31.740458015267176,26.900763358778626,-12.702290076335878,0.0
12.200000524520874,-7.40526573486328,-4.860229370117187,1.62805712890625,-1.9236641221374047,-83.08396946564885,39.19083969465649,-9.459490759277344,2.8610709838867185,0.6584054565429687,21.022900763358777,34.732824427480914,-3.5267175572519083,0.0
12.21000075340271,-8.482656481933594,-3.6822821533203123,2.559401574707031,1.1450381679389312,-73.49618320610686,33.23664122137404,-9.916783276367187,1.5538368774414062,0.5147533569335937,11.221374045801527,37.16030534351145,5.984732824427481,0.0
12.220000505447388,-9.689334118652344,-4.503493322753906,3.19865341796875,3.450381679389313,-70.0,28.03053435114504,-10.534487304687499,0.48123453369140623,1.0797849487304687,5.419847328244275,40.16793893129771,12.717557251908397,0.0
12.230000257492065,-6.9360022094726554,-8.580818749999999,1.4772224243164063,23.328244274809162,-69.54198473282443,23.557251908396946,-9.974244116210937,-0.39983167724609375,0.6177040283203125,13.374045801526718,34.18320610687023,15.664122137404581,0.0
12.240000486373901,-7.41244833984375,-7.110778930664062,1.4724340209960938,44.19847328244275,-58.58015267175573,9.618320610687023,-9.689334118652344,-0.6344634399414062,-0.30885201416015623,13.557251908396946,32.091603053435115,12.396946564885496,0.0
12.250000238418579,-7.955932116699218,-2.789244934082031,2.123656872558594,51.38931297709924,-53.25190839694657,-2.4732824427480917,-9.181763366699219,-0.5434837768554687,1.2737152832031249,12.977099236641221,36.6412213740458,8.229007633587786,0.0
12.260000944137573,-8.901641772460938,-0.28012159423828126,0.7781155395507812,34.16793893129771,-53.19083969465649,-7.603053435114504,-9.562441430664062,0.39264907226562495,0.7900865478515624,4.885496183206107,37.083969465648856,4.9465648854961835,0.0
12.270000696182251,-6.907271789550781,-2.2577321655273437,0.7709329345703124,27.755725190839694,-61.099236641221374,-9.48091603053435,-7.199364392089843,0.852335791015625,-0.48123453369140623,-6.198473282442748,36.35114503816794,3.0229007633587788,0.0
12.280000925064087,-6.777984899902344,-1.4891934326171874,1.2641384765625,22.442748091603054,-52.25954198473283,-12.687022900763358,-9.679757312011718,-0.040701428222656245,1.0007762939453124,-14.305343511450381,45.83206106870229,5.083969465648855,0.0
12.290000915527344,-6.655880615234374,-1.2521674682617188,0.36152445068359373,19.19083969465649,-50.045801526717554,-15.389312977099237,-10.498574279785156,-1.8028338500976562,2.5857377929687497,-6.961832061068702,46.85496183206107,7.3893129770992365,0.0
12.300000429153442,-6.354211206054687,-0.9050082275390624,-0.28490999755859375,19.557251908396946,-43.63358778625954,-17.557251908396946,-10.998962426757812,-2.7653029174804686,3.057395520019531,3.0076335877862594,41.55725190839695,7.923664122137405,0.0
12.3100004196167,-5.8083332275390624,-0.5602431884765625,-1.24498486328125,19.603053435114504,-37.37404580152672,-18.213740458015266,-9.203311181640624,-1.4221557861328125,1.4700398193359374,8.213740458015268,33.7557251908397,4.0458015267175576,0.0
12.320000410079956,-5.906495495605468,0.13646949462890623,-1.7190367919921874,18.977099236641223,-23.572519083969464,-18.519083969465647,-9.107543115234375,-1.2425906616210938,1.678335363769531,10.610687022900763,35.00763358778626,3.9236641221374047,0.0
12.330000638961792,-6.076483813476562,0.82360537109375,-1.8195932617187498,16.412213740458014,-9.221374045801527,-17.6793893129771,-9.622296472167967,-2.1356278808593747,1.6208745239257811,16.03053435114504,36.396946564885496,5.938931297709924,0.0
12.34000039100647,-5.597643481445312,1.0678139404296874,-2.2290017456054687,13.32824427480916,0.9312977099236641,-16.03053435114504,-10.108319409179687,-2.980781066894531,1.3311761230468748,24.671755725190838,35.57251908396947,7.022900763358779,0.0
12.350000619888306,-5.2816088623046875,0.7637503295898437,-1.8722656982421875,4.702290076335878,10.488549618320612,-15.236641221374045,-9.629479077148437,-2.4301146850585935,0.37828386230468747,29.6793893129771,34.30534351145038,5.419847328244275,0.0
12.360000610351562,-5.533000036621093,1.946485949707031,-1.2425906616210938,-9.603053435114504,22.091603053435115,-17.068702290076335,-10.47702646484375,-2.427720483398437,0.8355763793945312,33.93893129770992,38.79389312977099,6.6106870229007635,0.0
12.370000839233398,-4.5585599609375,0.6392518432617187,-1.7501614135742187,-11.664122137404581,34.0763358778626,-14.564885496183207,-10.01015714111328,-2.990357873535156,1.5394716674804687,45.11450381679389,35.32824427480916,5.633587786259542,0.0
12.380000591278076,-6.287173559570312,3.744531396484375,0.15562310791015624,-13.32824427480916,50.29007633587786,-17.34351145038168,-10.287884533691406,-1.7190367919921874,1.9847931762695312,52.0,29.267175572519083,3.053435114503817,0.0
12.390000820159912,-5.805939025878906,2.50912333984375,-1.0630255371093749,-25.297709923664122,52.732824427480914,-11.801526717557252,-10.251971508789062,-0.1580173095703125,3.0430303100585934,48.229007633587784,31.236641221374047,3.267175572519084,0.0
12.40000057220459,-5.391742138671875,0.8307879760742187,-0.8810662109374999,-24.137404580152673,68.10687022900764,-7.847328244274809,-10.319009155273436,0.07422025146484375,3.9504327392578125,39.267175572519086,31.267175572519083,5.862595419847328,0.0
12.410000801086426,-4.939238024902344,0.49320554199218747,-0.5123591552734374,-22.076335877862597,80.91603053435115,-8.106870229007633,-9.904812268066406,0.12210428466796874,3.019088293457031,35.00763358778626,24.35114503816794,5.404580152671755,0.0
12.420000553131104,-6.193799694824218,1.8650830932617186,0.43574470214843747,-19.52671755725191,97.22137404580153,-9.17557251908397,-9.871293444824218,-0.4860229370117187,3.076549133300781,24.99236641221374,21.435114503816795,5.6183206106870225,0.0
12.430000305175781,-6.284779357910156,1.927332336425781,0.8906430175781249,-22.0,108.80916030534351,-6.2748091603053435,-10.450690246582031,-1.1540052001953125,3.2561142578125,20.27480916030534,19.81679389312977,7.083969465648855,0.0
12.440000534057617,-6.694187841796874,1.5131354492187499,1.3144167114257812,-28.198473282442748,117.93893129770993,-2.1526717557251906,-10.548852514648438,-1.7860744384765623,3.1603461914062496,16.076335877862597,15.526717557251908,8.427480916030534,0.0
12.450000286102295,-7.4962453979492185,0.9816226806640624,2.9281086303710935,-33.19083969465649,123.6030534351145,-0.13740458015267176,-10.953472595214842,-1.9919757812499999,3.0933085449218747,14.595419847328245,11.282442748091603,8.045801526717558,0.0
12.46000051498413,-9.246406811523437,0.5674257934570313,6.555324145507812,-34.67175572519084,123.34351145038168,-0.3053435114503817,-10.893617553710937,-1.458068811035156,2.6408044311523438,10.793893129770993,7.908396946564886,6.687022900763359,0.0
12.470000505447388,-10.347739575195313,-0.1197100830078125,10.263942517089843,-29.72519083969466,112.10687022900764,1.3740458015267176,-11.003750830078124,-0.833182177734375,2.7150246826171873,9.129770992366412,4.656488549618321,6.076335877862595,0.0
12.480000495910645,-12.646173168945312,0.6296750366210937,15.37316885986328,-15.206106870229007,94.73282442748092,2.33587786259542,-10.330980163574218,0.5099649536132812,2.212242333984375,4.595419847328245,1.3893129770992367,6.33587786259542,0.0
12.490000247955322,-11.77947216796875,-1.35990654296875,13.144167114257812,13.48091603053435,68.74809160305344,13.816793893129772,-9.351751684570312,2.2936451904296873,1.1755530151367186,-5.526717557251908,-0.2748091603053435,7.297709923664122,0.0
12.500000238418579,-11.578359228515625,1.3455413330078123,6.232106921386718,16.732824427480917,63.49618320610687,15.587786259541986,-9.121908325195312,1.7525556152343749,1.1851298217773436,-24.412213740458014,5.251908396946565,13.038167938931299,0.0
12.510000944137573,-12.914323754882812,1.0390835205078124,1.1013327636718748,-10.030534351145038,54.19847328244275,12.351145038167939,-10.029310754394531,0.47165772705078124,1.7932570434570312,-32.6412213740458,9.251908396946565,19.541984732824428,0.0
12.52000093460083,-14.908693737792968,-1.8435352783203125,4.728548278808593,19.51145038167939,65.57251908396947,15.709923664122137,-10.781090075683593,-1.2617442749023438,1.4700398193359374,-32.33587786259542,7.3893129770992365,23.755725190839694,0.0
12.530000448226929,-14.803348864746093,-6.83783994140625,7.766790185546874,16.702290076335878,42.42748091603053,14.763358778625955,-9.605537060546874,-2.3223756103515623,1.1659762084960936,-22.48854961832061,4.519083969465649,22.564885496183205,0.0
12.540000677108765,-13.946224670410155,-9.447519750976562,10.374075793457031,54.67175572519084,37.9236641221374,6.900763358778626,-9.624690673828125,-2.9089550170898435,0.8499415893554687,-9.633587786259541,1.7557251908396947,22.35114503816794,0.0
12.550000667572021,-11.343727465820312,-4.96078583984375,9.294290844726563,89.46564885496183,27.46564885496183,-9.587786259541986,-8.528146313476562,-1.7645266235351562,0.09337386474609374,-4.198473282442748,3.5267175572519083,20.671755725190838,0.0
12.560000658035278,-12.425906616210936,3.6918589599609373,5.504269616699219,84.13740458015268,18.290076335877863,-18.290076335877863,-10.505756884765624,-2.6791116577148437,1.1420341918945311,12.229007633587786,3.1755725190839694,24.16793893129771,0.0
12.570000410079956,-8.95670841064453,2.8850130004882812,0.8786720092773437,83.3587786259542,11.19083969465649,-15.511450381679388,-10.749965454101561,-2.1021090576171875,1.3862427612304686,19.114503816793892,1.0534351145038168,23.389312977099237,0.0
12.580000638961792,-10.963049401855468,3.7924154296875,0.7948749511718749,67.40458015267176,15.954198473282442,-12.244274809160306,-10.491391674804687,-0.5339069702148437,1.7286135986328124,20.580152671755727,-1.3129770992366412,21.61832061068702,0.0
12.59000039100647,-11.104307299804686,2.9496564453125,-0.7493851196289062,49.32824427480916,12.198473282442748,-8.51908396946565,-11.054029064941405,-0.21068974609375,2.971204260253906,20.33587786259542,-4.106870229007634,23.129770992366414,0.0
12.600000381469727,-9.873687646484374,1.9847931762695312,-0.852335791015625,42.62595419847328,18.244274809160306,-6.641221374045801,-10.572794531249999,0.7350199096679687,2.7844565307617186,14.977099236641221,-11.068702290076336,22.931297709923665,0.0
12.610000610351562,-7.697358337402343,2.8562825805664063,-1.8746598999023436,26.0,18.977099236641223,-6.67175572519084,-10.498574279785156,0.7062894897460937,2.422932080078125,10.534351145038167,-16.47328244274809,22.396946564885496,0.0
12.62000060081482,-8.44674345703125,4.084508032226562,-1.2521674682617188,11.129770992366412,26.076335877862597,-5.358778625954199,-10.067617980957031,1.8195932617187498,0.9840168823242187,4.473282442748092,-20.610687022900763,20.244274809160306,0.0
12.630000591278076,-8.647856396484375,3.9911341674804683,-0.09816226806640624,1.3282442748091603,31.236641221374047,-1.5877862595419847,-9.509768994140625,0.7278373046875,1.2378022583007813,-3.9389312977099236,-19.603053435114504,20.35114503816794,0.0
12.640000343322754,-10.160991845703125,3.440467785644531,1.4604630126953124,-9.053435114503817,35.66412213740458,0.9618320610687023,-8.963891015625,0.55545478515625,0.8307879760742187,-9.801526717557252,-20.061068702290076,19.587786259541986,0.0
12.650001049041748,-8.738836059570312,1.197100830078125,0.411802685546875,-11.419847328244275,36.229007633587784,7.190839694656488,-8.772354882812499,0.45010991210937495,0.5291185668945312,-10.82442748091603,-20.82442748091603,18.916030534351144,0.0
12.660000562667847,-9.083601098632812,1.0965443603515623,0.4740519287109375,-16.595419847328245,41.847328244274806,8.625954198473282,-8.537723120117187,0.6919242797851562,0.20350714111328125,-12.061068702290076,-21.221374045801525,17.81679389312977,0.0
12.670000553131104,-9.193734375,0.5458779785156249,-0.06464344482421874,-24.916030534351144,43.69465648854962,6.366412213740458,-8.815450512695312,0.8834604125976562,0.1484405029296875,-13.694656488549619,-20.3206106870229,17.358778625954198,0.0
12.68000054359436,-8.935160595703124,0.28012159423828126,0.11252747802734374,-30.35114503816794,44.06106870229008,4.305343511450381,-9.53131680908203,0.08140285644531249,0.6105214233398437,-11.48091603053435,-19.801526717557252,18.18320610687023,0.0
12.690000295639038,-9.236830004882812,-0.05027823486328125,0.12210428466796874,-33.19083969465649,42.83969465648855,0.7633587786259542,-9.184157568359375,0.7900865478515624,-0.031124621582031248,-8.732824427480915,-22.33587786259542,15.32824427480916,0.0
12.700000524520874,-8.963891015625,0.7661445312499999,0.086191259765625,-33.541984732824424,43.05343511450382,-0.3511450381679389,-10.333374365234375,1.7525556152343749,0.12449848632812499,-12.534351145038167,-22.229007633587788,14.900763358778626,0.0
12.71000051498413,-9.035717065429687,0.05027823486328125,0.24660277099609373,-31.068702290076335,43.099236641221374,1.8778625954198473,-10.309432348632813,2.051830822753906,0.316034619140625,-20.229007633587788,-19.17557251908397,15.145038167938932,0.0
12.720000267028809,-9.145850341796875,-0.1867477294921875,0.8379705810546875,-21.755725190839694,46.16793893129771,2.8244274809160306,-9.873687646484374,2.195482922363281,-0.086191259765625,-26.702290076335878,-18.290076335877863,14.580152671755725,0.0
12.730000257492065,-10.709264025878905,-0.0143652099609375,1.7932570434570312,-21.587786259541986,45.083969465648856,-0.44274809160305345,-10.970232006835937,0.43574470214843747,0.9864110839843749,-25.633587786259543,-15.572519083969466,14.748091603053435,0.0
12.740000486373901,-11.468225952148437,-0.28012159423828126,1.9871873779296874,-14.076335877862595,42.36641221374046,-5.022900763358779,-9.425971936035156,1.3551181396484375,-0.22026655273437498,-26.47328244274809,-19.64885496183206,9.740458015267176,0.0
12.750000238418579,-10.991779821777342,0.1149216796875,1.5825672973632812,-12.83969465648855,37.221374045801525,-5.66412213740458,-10.687716210937499,0.277727392578125,0.6560112548828124,-24.610687022900763,-16.244274809160306,8.885496183206106,0.0
12.760000944137573,-10.510545288085936,0.74699091796875,1.5442600708007812,-5.648854961832061,34.88549618320611,-8.076335877862595,-10.319009155273436,-0.5291185668945312,1.1228805786132812,-23.251908396946565,-13.86259541984733,7.206106870229007,0.0
12.770000457763672,-10.740388647460938,0.23702596435546874,1.5370774658203123,-3.7251908396946565,28.763358778625953,-8.13740458015267,-10.596736547851561,-0.3591302490234375,1.0366893188476562,-12.351145038167939,-16.366412213740457,3.7557251908396947,0.0
12.780000925064087,-9.852139831542969,1.0295067138671874,1.0486603271484374,0.8244274809160306,21.862595419847327,-8.091603053435115,-10.632649572753905,-0.8714894042968749,0.8475473876953125,-4.870229007633588,-19.206106870229007,0.5954198473282443,0.0
12.790000677108765,-9.734823950195311,0.6153098266601562,1.1228805786132812,10.061068702290076,20.65648854961832,-4.488549618320611,-9.789890588378906,0.7158662963867187,0.28012159423828126,1.099236641221374,-21.14503816793893,-3.0839694656488548,0.0
12.800000667572021,-9.888052856445311,2.693476867675781,1.5705962890624998,7.801526717557252,21.61832061068702,-3.4656488549618323,-9.370905297851563,0.316034619140625,0.8451531860351562,1.5419847328244274,-17.96946564885496,-4.183206106870229,0.0
12.810000658035278,-10.338162768554687,2.73896669921875,1.5825672973632812,7.3893129770992365,18.99236641221374,-1.8778625954198473,-8.777143286132812,1.3814543579101561,0.7422025146484375,-1.984732824427481,-15.34351145038168,-4.137404580152672,0.0
12.820000410079956,-8.825027319335938,1.707065783691406,0.5363011718749999,4.641221374045801,15.038167938931299,1.4198473282442747,-9.062053283691405,1.2378022583007813,0.4213794921875,-4.091603053435114,-11.923664122137405,-3.4656488549618323,0.0
12.830000877380371,-9.95987890625,2.887407202148437,0.7158662963867187,-3.6030534351145036,9.282442748091603,1.4198473282442747,-9.840168823242188,0.18914193115234373,1.0534487304687499,-0.8244274809160306,-8.198473282442748,-2.6259541984732824,0.0
12.840000629425049,-8.796296899414061,0.6536170532226562,-0.19153613281249998,6.824427480916031,10.51908396946565,3.145038167938931,-9.306261853027344,-0.30406361083984373,1.2665326782226562,2.0,-7.282442748091603,-4.412213740458015,0.0
12.850000619888306,-9.598354455566406,1.4628572143554686,0.6607996582031249,4.1679389312977095,13.022900763358779,0.7633587786259542,-9.674968908691406,-0.45489831542968745,1.7190367919921874,9.145038167938932,-6.183206106870229,-7.877862595419847,0.0
12.860000848770142,-9.581595043945311,0.74699091796875,0.6440402465820312,0.6717557251908397,8.992366412213741,-0.061068702290076333,-9.557653027343749,-0.28730419921875,1.879448303222656,15.664122137404581,-7.083969465648855,-10.900763358778626,0.0
12.870000839233398,-9.667786303710937,0.9816226806640624,0.15322890625,-3.877862595419847,6.244274809160306,1.3282442748091603,-10.682927807617187,-0.8403647827148437,2.7629087158203123,24.748091603053435,-8.946564885496183,-11.923664122137405,0.0
12.880000591278076,-9.919177478027343,1.1659762084960936,-0.6248866333007812,-12.488549618320612,2.6717557251908395,2.2748091603053435,-10.180145458984374,0.11731588134765625,1.9704279663085937,26.80916030534351,-12.15267175572519,-15.312977099236642,0.0
12.890000820159912,-9.521740002441407,0.4860229370117187,-1.005564697265625,-11.358778625954198,6.0458015267175576,1.6030534351145038,-9.900023864746093,-0.17477672119140625,1.7956512451171873,31.236641221374047,-15.404580152671755,-15.49618320610687,0.0
12.90000033378601,-8.961496813964843,-0.055066638183593745,-0.737414111328125,-11.969465648854962,8.244274809160306,-1.099236641221374,-10.402806213378906,-0.016759411621093748,1.927332336425781,36.58015267175573,-19.450381679389313,-16.625954198473284,0.0
12.910000801086426,-9.79946739501953,0.16280571289062498,-0.59376201171875,-12.885496183206106,9.816793893129772,-3.8625954198473282,-9.552864624023437,0.8906430175781249,2.389413256835937,36.61068702290076,-23.984732824427482,-17.709923664122137,0.0
12.920000553131104,-9.689334118652344,0.02154781494140625,-0.40940848388671874,-13.129770992366412,10.229007633587786,-5.267175572519084,-8.817844714355468,2.3822306518554686,2.1499930908203124,30.82442748091603,-25.83206106870229,-18.80916030534351,0.0
12.93000054359436,-10.046070166015625,0.8475473876953125,0.009576806640625,-14.641221374045802,11.648854961832061,-7.129770992366412,-8.377311608886718,2.7629087158203123,1.8411410766601561,15.099236641221374,-22.946564885496183,-15.541984732824428,0.0
12.940000534057617,-9.636661682128906,-0.7972691528320313,-0.41419688720703124,-12.396946564885496,11.725190839694656,-6.427480916030534,-10.369287390136718,1.8195932617187498,2.626439221191406,9.419847328244275,-17.572519083969464,-10.16793893129771,0.0
12.950000524520874,-10.78348427734375,0.44053310546874996,0.34237083740234375,2.4580152671755724,18.290076335877863,-9.755725190839694,-10.888829150390624,-0.3232172241210937,4.639962817382812,10.473282442748092,-18.213740458015266,-7.893129770992366,0.0
12.96000051498413,-9.5001921875,0.5698199951171875,-0.4572925170898437,2.6564885496183206,13.755725190839694,-9.32824427480916,-9.873687646484374,-0.22744915771484372,2.370259643554687,13.664122137404581,-27.61832061068702,-12.687022900763358,0.0
12.970000505447388,-9.751583361816406,3.0334535034179684,-0.11731588134765625,-1.7404580152671756,15.114503816793894,-8.687022900763358,-9.275137231445312,0.8044517578125,2.473210314941406,14.396946564885496,-30.091603053435115,-14.259541984732824,0.0
12.980000495910645,-9.816226806640625,2.454056701660156,0.07422025146484375,-16.80916030534351,9.17557251908397,-4.137404580152672,-8.671798413085938,1.438915197753906,1.8938135131835936,9.374045801526718,-32.29007633587786,-14.473282442748092,0.0
12.99000072479248,-10.58476553955078,1.9728221679687499,0.16998831787109375,-13.587786259541986,10.549618320610687,-1.2213740458015268,-9.349357482910156,1.0438719238281249,3.124433166503906,4.33587786259542,-27.52671755725191,-9.053435114503817,0.0
13.000000715255737,-9.497797985839844,1.0845733520507812,0.41898529052734373,-12.01526717557252,11.603053435114504,-2.0916030534351147,-10.338162768554687,0.19871873779296872,3.4452561889648434,7.00763358778626,-29.374045801526716,-6.977099236641221,0.0
13.010000944137573,-10.383652600097655,0.9457096557617187,0.4955997436523437,-11.938931297709924,8.916030534351146,-4.3816793893129775,-10.462661254882812,-0.30885201416015623,2.5330653564453125,11.435114503816793,-35.6793893129771,-9.725190839694656,0.0
13.020000696182251,-10.180145458984374,1.3215993164062498,0.5458779785156249,-10.488549618320612,9.312977099236642,-5.114503816793893,-9.550470422363281,0.9600748657226562,2.616862414550781,11.770992366412214,-36.3206106870229,-13.419847328244275,0.0
13.030000686645508,-10.05564697265625,1.5490484741210937,0.6416460449218749,-13.908396946564885,8.458015267175572,-5.297709923664122,-8.954314208984375,0.8307879760742187,2.5953145996093747,6.931297709923665,-33.20610687022901,-13.251908396946565,0.0
13.040000677108765,-9.880870251464843,1.608903515625,0.9792284790039062,-14.992366412213741,8.045801526717558,-5.129770992366412,-9.782707983398437,1.0845733520507812,3.3016040893554686,8.076335877862595,-31.114503816793892,-9.801526717557252,0.0
13.050000667572021,-10.206481677246094,1.4053963745117186,1.0103531005859374,-13.633587786259541,5.572519083969466,-4.961832061068702,-9.600748657226562,0.7517793212890624,3.1794998046874996,9.312977099236642,-32.412213740458014,-9.389312977099237,0.0
13.0600004196167,-10.0748005859375,1.1109095703125,1.1468225952148436,-5.4961832061068705,4.0,-3.6793893129770994,-10.153809240722655,0.603338818359375,2.760514514160156,9.083969465648854,-33.37404580152672,-10.641221374045802,0.0
13.070000648498535,-10.0748005859375,1.2832920898437499,1.0726023437499999,-3.7709923664122136,2.3969465648854964,-3.0381679389312977,-8.856151940917968,1.6735469604492186,1.407790576171875,4.809160305343512,-33.32824427480916,-13.17557251908397,0.0
13.080000638961792,-9.567229833984374,1.1635820068359375,0.9744400756835937,-1.9694656488549618,2.0610687022900764,-2.687022900763359,-8.875305554199219,1.7310078002929687,1.3455413330078123,-1.4045801526717556,-27.389312977099237,-11.48091603053435,0.0
13.090000629425049,-9.394847314453125,1.0295067138671874,0.9959878906249999,-1.5419847328244274,0.7480916030534351,-3.3587786259541983,-8.451531860351562,0.7541735229492187,2.750937707519531,-3.9389312977099236,-22.18320610687023,-8.335877862595419,0.0
13.100000381469727,-9.74200655517578,1.149216796875,0.86191259765625,0.732824427480916,-0.13740458015267176,-4.687022900763359,-10.156203442382813,0.39743747558593745,2.370259643554687,-0.3969465648854962,-22.33587786259542,-7.603053435114504,0.0
13.110000371932983,-10.139444030761718,1.4317325927734375,0.6967126831054687,3.053435114503817,-1.6946564885496183,-5.32824427480916,-8.853757739257812,-0.39743747558593745,2.1787235107421874,1.5725190839694656,-25.755725190839694,-9.389312977099237,0.0
13.12000060081482,-9.756371765136718,1.3096283081054687,0.565031591796875,3.9236641221374047,-2.3969465648854964,-5.969465648854962,-9.052476477050782,0.2154781494140625,1.4508862060546874,5.114503816793893,-23.862595419847327,-11.267175572519085,0.0
13.130000591278076,-9.334992272949219,1.3551181396484375,0.5913678100585937,3.3740458015267176,-3.053435114503817,-6.366412213740458,-9.572018237304688,0.5722141967773438,2.882618798828125,7.984732824427481,-20.564885496183205,-11.038167938931299,0.0
13.140000581741333,-9.363722692871093,1.6543933471679686,0.9696516723632812,4.3816793893129775,-3.3282442748091605,-6.351145038167939,-8.422801440429687,1.1085153686523437,1.7022773803710936,4.427480916030534,-20.916030534351144,-12.01526717557252,0.0
13.150000810623169,-9.227253198242186,1.8339584716796873,1.0797849487304687,4.702290076335878,-4.458015267175573,-5.801526717557252,-8.40125362548828,1.4101847778320311,1.4867992309570313,2.2595419847328246,-19.83206106870229,-11.068702290076336,0.0
13.160000562667847,-9.289502441406249,2.147598889160156,1.2210428466796874,6.549618320610687,-4.900763358778626,-4.152671755725191,-8.652644799804687,0.9600748657226562,2.5905261962890624,-4.8396946564885495,-11.17557251908397,-9.267175572519085,0.0
13.170000553131104,-9.17458076171875,1.5466542724609373,1.6112977172851561,5.374045801526718,-6.641221374045801,-2.564885496183206,-8.288726147460936,0.6392518432617187,2.1547814941406247,-3.8625954198473282,-10.625954198473282,-8.778625954198473,0.0
13.18000054359436,-9.488221179199218,1.4939818359375,1.7286135986328124,6.732824427480916,-9.053435114503817,-2.122137404580153,-8.609549169921875,0.27293898925781246,2.3343466186523436,-1.251908396946565,-9.435114503816793,-9.053435114503817,0.0
13.190000534057617,-9.670180505371093,1.6065093139648436,1.8052280517578123,8.091603053435115,-9.572519083969466,-2.3206106870229006,-8.257601525878906,0.4429273071289062,2.0829554443359375,-0.366412213740458,-7.572519083969466,-10.931297709923664,0.0
13.200000524520874,-9.682151513671874,1.407790576171875,1.5298948608398437,8.076335877862595,-10.290076335877863,-2.16793893129771,-8.226476904296874,0.4285620971679687,1.9728221679687499,1.7404580152671756,-5.923664122137405,-11.801526717557252,0.0
13.210000276565552,-10.36210478515625,1.6232687255859375,1.5011644409179687,7.755725190839694,-10.412213740458014,-2.717557251908397,-8.116343627929687,0.201112939453125,1.8650830932617186,2.2900763358778624,-3.3435114503816794,-11.511450381679388,0.0
13.220000505447388,-9.943119494628906,0.49320554199218747,1.1659762084960936,8.030534351145038,-11.816793893129772,-3.3587786259541983,-8.353369592285155,-0.07422025146484375,1.8842367065429686,3.5877862595419847,-2.1374045801526718,-10.564885496183207,0.0
13.230000495910645,-9.904812268066406,0.4285620971679687,1.1324573852539062,7.32824427480916,-11.770992366412214,-5.679389312977099,-7.75721337890625,0.18435352783203124,1.7645266235351562,3.404580152671756,-1.9083969465648856,-10.259541984732824,0.0
13.240000486373901,-9.873687646484374,0.8307879760742187,1.199495031738281,5.969465648854962,-12.396946564885496,-7.8320610687022905,-8.992621435546875,-0.38307226562499996,2.346317626953125,6.809160305343512,0.5954198473282443,-8.488549618320612,0.0
13.250000476837158,-10.084377392578125,1.9297265380859374,1.8267758666992187,4.656488549618321,-13.297709923664122,-9.48091603053435,-8.451531860351562,0.21787235107421873,2.094926452636719,6.396946564885496,0.5801526717557252,-9.572519083969466,0.0
13.260000944137573,-10.711658227539061,2.96881005859375,2.817975354003906,-4.213740458015267,-16.85496183206107,-9.541984732824428,-8.765172277832031,0.33758243408203126,2.1715409057617188,7.297709923664122,1.8015267175572518,-10.244274809160306,0.0
13.270000696182251,-11.135431921386719,2.0757728393554684,2.8323405639648436,-5.374045801526718,-21.64885496183206,-7.282442748091603,-8.465897070312499,0.47884033203125,2.0446482177734375,5.66412213740458,3.5114503816793894,-10.67175572519084,0.0
13.280000925064087,-11.283872424316405,2.767697119140625,4.99909306640625,-16.47328244274809,-21.19083969465649,-5.847328244274809,-8.32463917236328,0.4525041137695312,1.9393033447265624,4.748091603053435,6.076335877862595,-11.038167938931299,0.0
13.290000438690186,-10.271125122070313,1.5059528442382812,2.779668127441406,-20.68702290076336,-34.732824427480914,-0.8702290076335878,-7.663839514160156,1.1228805786132812,1.446097802734375,1.3435114503816794,7.419847328244275,-10.67175572519084,0.0
13.300000667572021,-8.046911779785155,-0.9457096557617187,1.24498486328125,-14.610687022900763,-38.48854961832061,2.351145038167939,-6.282385156249999,2.1691467041015624,0.6751648681640625,-9.435114503816793,11.511450381679388,-10.67175572519084,0.0
13.310000658035278,-7.819462622070312,-0.6009446166992187,0.9241618408203125,-7.9541984732824424,-35.61832061068702,-2.549618320610687,-8.087613208007811,1.5705962890624998,2.1068974609374997,-17.068702290076335,22.885496183206108,-6.305343511450381,0.0
13.320000886917114,-7.56567724609375,-0.29927520751953124,-0.0047884033203125,-0.015267175572519083,-33.70992366412214,-7.1603053435114505,-8.312668164062499,0.82360537109375,2.868253588867187,-20.50381679389313,26.30534351145038,-3.877862595419847,0.0
13.330000638961792,-9.370905297851563,0.7589619262695312,0.7781155395507812,5.068702290076335,-28.610687022900763,-10.778625954198473,-8.463502868652343,0.316034619140625,2.839523168945312,-20.259541984732824,24.198473282442748,-3.816793893129771,0.0
13.340000629425049,-9.840168823242188,1.0462661254882812,2.039859814453125,6.732824427480916,-26.80916030534351,-10.65648854961832,-8.032546569824218,0.3232172241210937,2.6695348510742187,-21.81679389312977,23.603053435114504,-5.1603053435114505,0.0
13.350000619888306,-11.233594189453123,2.090138049316406,2.779668127441406,6.427480916030534,-29.786259541984734,-9.633587786259541,-7.637503295898437,-0.4213794921875,2.8730419921875,-26.38167938931298,22.610687022900763,-5.923664122137405,0.0
13.360000610351562,-11.587936035156249,2.212242333984375,4.429273071289062,-0.9770992366412213,-33.93893129770992,-9.374045801526718,-7.465120776367187,-1.5107412475585937,2.839523168945312,-22.595419847328245,16.244274809160306,-6.793893129770993,0.0
13.370000839233398,-11.839327209472655,2.3343466186523436,5.1331683593749995,-3.4198473282442747,-42.656488549618324,-7.923664122137405,-9.41639512939453,-2.2601263671875,4.441244079589843,-14.80916030534351,14.641221374045802,-5.343511450381679,0.0
13.380000591278076,-10.359710583496094,1.16837041015625,4.589684582519531,-2.381679389312977,-52.396946564885496,-5.068702290076335,-9.660603698730467,-0.8499415893554687,4.458003491210937,-8.16793893129771,10.977099236641221,-7.587786259541985,0.0
13.390000820159912,-9.311050256347656,1.3096283081054687,4.934449621582031,-0.6717557251908397,-58.6412213740458,-5.282442748091603,-7.704540942382812,-0.4070142822265625,3.411737365722656,-8.793893129770993,7.129770992366412,-9.511450381679388,0.0
13.40000057220459,-7.189787585449218,1.0175357055664063,2.8036101440429686,-1.7557251908396947,-68.62595419847328,-4.809160305343512,-7.101202124023437,0.42377369384765623,2.8802245971679685,-8.122137404580153,5.190839694656488,-10.183206106870228,0.0
13.410000801086426,-5.463568188476562,1.5227122558593749,0.9050082275390624,1.0687022900763359,-73.52671755725191,-4.793893129770993,-7.235277416992187,0.105344873046875,2.7246014892578123,-6.8396946564885495,5.770992366412214,-7.7251908396946565,0.0
13.420000553131104,-3.6248213134765623,0.5961562133789062,-0.6200982299804687,6.809160305343512,-71.09923664122137,-3.6793893129770994,-6.196193896484375,0.5482721801757812,2.0183119995117185,-7.404580152671755,5.847328244274809,-7.267175572519084,0.0
13.430000305175781,-2.9664158569335934,0.14125789794921875,-1.2473790649414063,12.748091603053435,-65.12977099236642,-3.572519083969466,-6.217741711425781,-0.09337386474609374,1.8124106567382812,-3.3893129770992365,8.16793893129771,-5.419847328244275,0.0
13.440000534057617,-4.560954162597656,-0.1197100830078125,-0.49799394531249996,18.33587786259542,-56.274809160305345,-4.961832061068702,-5.353434912109375,-0.8451531860351562,1.4628572143554686,2.0,6.916030534351145,-5.221374045801527,0.0
13.450000524520874,-7.362170104980469,1.5849614990234373,2.2936451904296873,24.366412213740457,-47.49618320610687,-7.66412213740458,-4.797980126953124,-1.3048399047851562,0.2059013427734375,5.312977099236641,9.679389312977099,-7.083969465648855,0.0
13.46000051498413,-10.570400329589843,3.0071172851562498,5.305550878906249,21.374045801526716,-45.19083969465649,-9.86259541984733,-6.2584431396484375,-0.17238251953125,-0.1292868896484375,6.595419847328245,17.0381679389313,-13.98473282442748,0.0
13.470000743865967,-9.85692823486328,3.6727053466796873,6.5385647338867185,20.30534351145038,-52.2442748091603,-7.083969465648855,-8.825027319335938,1.8842367065429686,1.139639990234375,-0.061068702290076333,31.572519083969464,-18.885496183206108,0.0
13.480000972747803,-9.94072529296875,1.2473790649414063,8.398859423828124,18.229007633587788,-62.58015267175573,-4.900763358778626,-11.906364855957031,3.189076611328125,2.817975354003906,-11.053435114503817,40.961832061068705,-20.33587786259542,0.0
13.490000247955322,-11.860875024414062,0.699106884765625,10.105925207519531,21.34351145038168,-76.74809160305344,-5.66412213740458,-16.831237670898435,2.7437551025390623,5.609614489746093,-24.12213740458015,45.86259541984733,-21.328244274809162,0.0
13.500000715255737,-12.296619726562499,1.1180921752929687,10.594342346191405,31.6793893129771,-96.27480916030534,-3.435114503816794,-22.251710229492186,0.9361328491210937,8.702923034667968,-38.38167938931298,45.6793893129771,-21.19083969465649,0.0
13.510000705718994,-13.311761230468749,2.250549560546875,9.753977563476562,34.56488549618321,-118.85496183206106,2.1374045801526718,-22.601263671875,-0.00239420166015625,8.959102612304687,-25.64885496183206,25.66412213740458,-16.427480916030536,0.0
13.520000696182251,-15.399505078125,2.463633508300781,8.039729174804688,33.41984732824427,-138.29007633587787,7.923664122137405,-23.293187951660155,-1.6400281372070311,9.354145886230468,9.954198473282442,-3.5114503816793894,-0.4122137404580153,0.0
13.530000686645508,-17.367538842773435,1.8411410766601561,4.556165759277343,42.87022900763359,-153.09923664122138,15.694656488549619,-19.565415966796873,2.023100402832031,4.671087438964843,25.221374045801525,-30.35114503816794,10.625954198473282,0.0
13.540000677108765,-20.00116066894531,2.8323405639648436,2.664746447753906,49.83206106870229,-156.19847328244273,23.297709923664122,-14.659696765136719,5.947196923828125,2.291250988769531,11.83206106870229,-37.70992366412214,18.763358778625953,0.0
13.550000667572021,-20.875044274902343,2.9089550170898435,2.2266075439453124,50.70229007633588,-156.68702290076337,34.13740458015267,-9.591171850585937,5.7149593627929685,-1.197100830078125,-24.366412213740457,-34.152671755725194,26.748091603053435,0.0
13.560000658035278,-20.554221252441405,2.403778466796875,2.0183119995117185,50.717557251908396,-148.41221374045801,42.38167938931298,-9.504980590820312,-0.718260498046875,-1.9967641845703124,-40.44274809160305,-25.328244274809162,32.10687022900763,0.0
13.570000648498535,-16.5104146484375,-0.0430956298828125,1.0893617553710937,51.52671755725191,-140.67175572519085,43.969465648854964,-8.420407238769531,-7.666233715820312,-4.204218115234375,-44.29007633587786,-15.389312977099237,24.53435114503817,0.0
13.580000638961792,-14.695609790039061,-1.2593500732421874,0.5219359619140624,53.404580152671755,-122.04580152671755,40.82442748091603,-9.619902270507811,-13.376404675292967,-3.859453076171875,-21.083969465648856,-2.6564885496183206,12.045801526717558,0.0
13.59000039100647,-11.496956372070311,-1.7669208251953124,-0.6392518432617187,55.69465648854962,-105.20610687022901,36.18320610687023,-8.513781103515624,-11.92551846923828,-4.515464331054687,5.816793893129771,5.969465648854962,-1.6946564885496183,0.0
13.600000619888306,-10.12507882080078,-1.3742717529296875,1.0175357055664063,54.97709923664122,-81.20610687022901,36.458015267175576,-7.881711865234375,-5.252878442382812,-4.192247106933594,10.442748091603054,22.458015267175572,-11.84732824427481,0.0
13.610000371932983,-10.453084448242187,0.040701428222656245,1.2713210815429687,49.93893129770992,-68.16793893129771,31.755725190839694,-8.456320263671875,-4.108450048828125,-2.7174188842773437,8.412213740458014,38.76335877862596,-12.16793893129771,0.0
13.62000060081482,-7.520187414550781,-1.4053963745117186,-1.2856862915039062,45.404580152671755,-53.083969465648856,37.05343511450382,-10.108319409179687,-4.910507604980468,-1.618480322265625,17.14503816793893,45.66412213740458,-10.15267175572519,0.0
13.630000829696655,-9.641450085449218,0.6751648681640625,0.9002198242187499,29.862595419847327,-30.290076335877863,36.18320610687023,-10.273519323730468,-2.8227637573242186,-0.507570751953125,30.33587786259542,45.587786259541986,-8.625954198473282,0.0
13.640000581741333,-11.192892761230468,1.1180921752929687,2.47081611328125,-8.305343511450381,-30.35114503816794,36.99236641221374,-9.220070593261719,-0.18435352783203124,0.6607996582031249,29.34351145038168,49.06870229007634,-6.061068702290076,0.0
13.650000810623169,-7.6997525390625,-3.3207577026367185,0.8164227661132812,-17.541984732824428,-25.633587786259543,39.847328244274806,-10.560823522949217,-0.05027823486328125,1.6711527587890624,27.923664122137403,49.31297709923664,1.8473282442748091,0.0
13.660000562667847,-8.14028564453125,-3.303998291015625,2.0757728393554684,-23.19083969465649,-15.679389312977099,35.80152671755725,-10.769119067382812,1.0582371337890624,1.1061211669921875,26.80916030534351,41.00763358778626,3.633587786259542,0.0
13.670000791549683,-6.87614716796875,-2.8562825805664063,1.9632453613281249,-23.83206106870229,-12.458015267175572,32.152671755725194,-9.545682019042967,2.5258827514648434,1.1348515869140625,11.34351145038168,39.63358778625954,3.6793893129770994,0.0
13.68000078201294,-5.925649108886718,-2.0757728393554684,1.7262193969726563,-24.045801526717558,-7.8320610687022905,27.114503816793892,-10.129867224121092,1.4030021728515625,2.0973206542968748,-0.3053435114503817,42.595419847328245,6.564885496183206,0.0
13.690000534057617,-7.280767248535156,-0.2154781494140625,3.19865341796875,-31.374045801526716,0.48854961832061067,18.671755725190838,-9.830592016601562,0.12210428466796874,2.3247698120117186,-1.251908396946565,37.06870229007634,8.16793893129771,0.0
13.700000524520874,-5.889736083984375,-2.2361843505859373,2.152387292480469,-37.786259541984734,-4.427480916030534,14.580152671755725,-10.386046801757812,-0.30885201416015623,2.4899697265625,-1.1603053435114503,32.82442748091603,6.748091603053435,0.0
13.71000051498413,-5.176263989257812,-3.3399113159179685,1.6256629272460936,-38.030534351145036,1.0381679389312977,9.022900763358779,-8.56166513671875,0.9959878906249999,1.6543933471679686,-5.190839694656488,24.198473282442748,2.183206106870229,0.0
13.720000267028809,-5.384559533691406,-2.418143676757812,1.7214309936523438,-36.76335877862596,9.86259541984733,1.618320610687023,-7.841010437011718,2.1452046874999997,1.6328455322265625,-16.198473282442748,23.587786259541986,0.13740458015267176,0.0
13.730000734329224,-5.238513232421875,-2.2577321655273437,1.3263877197265623,-43.98473282442748,10.67175572519084,-2.1068702290076335,-8.674192614746094,1.649604943847656,2.1547814941406247,-25.46564885496183,24.931297709923665,0.48854961832061067,0.0
13.740000486373901,-4.96078583984375,-2.013523596191406,1.22583125,-44.01526717557252,17.083969465648856,-6.6106870229007635,-9.217676391601563,0.928950244140625,1.7812860351562498,-33.19083969465649,23.61832061068702,1.5419847328244274,0.0
13.750000476837158,-5.003881469726562,-1.4245499877929686,1.01514150390625,-44.213740458015266,22.625954198473284,-10.061068702290076,-9.624690673828125,-0.8020575561523438,2.384624853515625,-33.37404580152672,22.106870229007633,2.5343511450381677,0.0
13.760000944137573,-5.398924743652343,-0.93852705078125,0.9409212524414062,-48.30534351145038,25.786259541984734,-13.709923664122137,-9.49300958251953,-0.8906430175781249,1.7764976318359373,-30.549618320610687,20.53435114503817,3.7251908396946565,0.0
13.770000696182251,-5.892130285644531,-0.6272808349609375,0.7565677246093749,-52.534351145038165,28.412213740458014,-17.480916030534353,-10.060435375976562,-1.446097802734375,2.250549560546875,-25.96946564885496,19.480916030534353,5.297709923664122,0.0
13.780000925064087,-6.026205578613281,-0.34237083740234375,0.36152445068359373,-55.099236641221374,31.282442748091604,-20.458015267175572,-9.639055883789062,-1.6160861206054686,1.9105729248046874,-23.053435114503817,17.51145038167939,6.183206106870229,0.0
13.790000677108765,-5.358223315429687,-0.9911994873046874,-0.6057330200195312,-51.69465648854962,35.80152671755725,-20.03053435114504,-9.9215716796875,-1.8938135131835936,2.2002713256835937,-20.625954198473284,16.778625954198475,6.0,0.0
13.800000429153442,-5.635950708007812,-0.9720458740234375,-0.7924807495117187,-35.63358778625954,50.0,-20.18320610687023,-10.43871923828125,-3.392583752441406,3.1124621582031247,-12.0,16.702290076335878,7.740458015267175,0.0
13.8100004196167,-5.717353564453124,-0.1005564697265625,-0.38307226562499996,-19.984732824427482,63.038167938931295,-21.633587786259543,-8.992621435546875,-3.5529952636718747,1.8219874633789062,3.984732824427481,10.625954198473282,6.656488549618321,0.0
13.820000648498535,-6.347028601074219,1.0582371337890624,0.16041151123046873,-10.229007633587786,73.16030534351145,-22.076335877862597,-10.675745202636719,-2.6862942626953124,2.0302830078125,13.312977099236642,8.198473282442748,5.251908396946565,0.0
13.830000400543213,-6.500257507324219,2.645592834472656,0.7709329345703124,-4.259541984732825,82.59541984732824,-19.221374045801525,-10.510545288085936,-2.8706477905273435,2.7653029174804686,15.709923664122137,9.954198473282442,4.961832061068702,0.0
13.840000629425049,-6.864176159667968,3.1364041748046874,1.5275006591796874,-5.206106870229007,89.95419847328245,-14.244274809160306,-9.828197814941406,-2.0470424194335934,1.649604943847656,15.32824427480916,9.923664122137405,4.977099236641221,0.0
13.850000619888306,-7.292738256835937,3.1555577880859373,2.2026655273437497,-5.374045801526718,94.16793893129771,-7.816793893129771,-10.656591589355468,-2.8419173706054686,2.849099975585937,22.610687022900763,9.251908396946565,5.480916030534351,0.0
13.860000610351562,-7.60398447265625,2.93050283203125,2.990357873535156,-6.442748091603053,98.12213740458016,-2.931297709923664,-10.479420666503906,-1.93451494140625,2.3247698120117186,27.328244274809162,7.526717557251908,3.114503816793893,0.0
13.870001077651978,-8.52335791015625,2.104503259277344,4.086902233886718,-15.48091603053435,97.08396946564885,1.282442748091603,-11.161768139648437,-0.9074024291992187,3.1579519897460937,29.572519083969464,7.7251908396946565,2.4732824427480917,0.0
13.880000352859497,-9.241618408203124,0.565031591796875,5.054159704589844,-25.16030534351145,95.09923664122137,2.946564885496183,-10.36210478515625,0.4429273071289062,2.5665841796874997,24.47328244274809,5.679389312977099,3.7099236641221376,0.0
13.890000820159912,-9.878476049804688,-0.22026655273437498,4.920084411621094,-32.18320610687023,92.27480916030534,3.450381679389313,-10.16338604736328,1.0917559570312498,2.1619640991210938,16.18320610687023,2.687022900763359,7.374045801526718,0.0
13.90000033378601,-9.380482104492186,-2.0278888061523435,4.139574670410156,-29.786259541984734,90.44274809160305,3.480916030534351,-10.788272680664061,0.38786066894531246,2.2194249389648437,7.435114503816794,0.21374045801526717,11.267175572519085,0.0
13.910000562667847,-9.627084875488281,-2.7365724975585937,5.324704492187499,-19.16030534351145,90.29007633587786,1.297709923664122,-10.579977136230468,-0.2346317626953125,1.4317325927734375,0.33587786259541985,-3.2977099236641223,13.236641221374045,0.0
13.920000553131104,-10.206481677246094,-2.7078420776367187,7.096413720703125,-6.427480916030534,86.77862595419847,0.2748091603053435,-10.287884533691406,-1.216254443359375,1.0223241088867188,-5.129770992366412,-5.603053435114504,14.717557251908397,0.0
13.93000078201294,-11.824961999511718,-0.928950244140625,7.742848168945312,5.7251908396946565,83.37404580152672,-1.1145038167938932,-10.601524951171875,-2.2481553588867187,0.9600748657226562,-5.083969465648855,-5.282442748091603,16.900763358778626,0.0
13.940000295639038,-13.749900134277343,1.5394716674804687,7.338228088378906,3.8931297709923665,75.7557251908397,0.3511450381679389,-10.199299072265624,-2.427720483398437,0.33039982910156246,-4.198473282442748,-6.122137404580153,17.099236641221374,0.0
13.950000524520874,-13.029245434570312,0.6775590698242188,6.770802294921874,19.801526717557252,69.23664122137404,5.083969465648855,-9.821015209960937,-1.7597382202148437,-0.19393033447265623,-2.5801526717557253,-6.33587786259542,16.03053435114504,0.0
13.96000051498413,-15.298948608398437,0.9169792358398436,8.075642199707032,14.045801526717558,62.091603053435115,3.3587786259541983,-9.847351428222655,-1.0917559570312498,-0.01915361328125,-1.2061068702290076,-4.641221374045801,13.435114503816793,0.0
13.970000505447388,-13.769053747558592,-2.817975354003906,8.188169677734374,9.465648854961833,48.83969465648855,-3.0839694656488548,-9.390058911132812,-0.21068974609375,0.16041151123046873,-4.488549618320611,-1.0381679389312977,12.030534351145038,0.0
13.98006010055542,-11.805808386230469,-4.285620971679688,7.388506323242187,17.46564885496183,35.786259541984734,-10.80916030534351,-9.160215551757812,0.15083470458984374,0.6584054565429687,-7.908396946564886,1.9389312977099236,11.877862595419847,0.0
13.990000247955322,-8.585607153320312,-3.775656018066406,3.0358477050781247,41.31297709923664,27.251908396946565,-12.488549618320612,-9.890447058105469,0.076614453125,1.3383587280273437,-10.305343511450381,3.1603053435114505,14.13740458015267,0.0
14.000000715255737,-8.607154968261717,0.06703764648437499,1.37906015625,57.86259541984733,33.969465648854964,-16.045801526717558,-10.587159741210938,-0.18435352783203124,1.8171990600585937,-11.603053435114504,1.1450381679389312,16.85496183206107,0.0
14.010000467300415,-8.327033374023436,1.8291700683593748,0.08858546142578125,55.11450381679389,35.603053435114504,-17.251908396946565,-10.838550915527343,-0.143652099609375,2.310404602050781,-9.16030534351145,-1.4809160305343512,18.870229007633586,0.0
14.02000093460083,-8.985438830566405,2.3415292236328122,-0.7110778930664062,51.80152671755725,42.152671755725194,-15.450381679389313,-10.790666882324219,-0.02154781494140625,2.6144682128906247,-8.51908396946565,-5.022900763358779,20.870229007633586,0.0
14.030000686645508,-7.201758593749999,2.2002713256835937,-1.7525556152343749,45.57251908396947,45.23664122137404,-11.007633587786259,-10.374075793457031,0.1197100830078125,2.583343591308594,-8.259541984732824,-10.335877862595419,21.709923664122137,0.0
14.040000677108765,-8.611943371582031,3.6655227416992187,-0.14125789794921875,42.18320610687023,55.87786259541985,-9.145038167938932,-10.034099157714843,-0.08379705810546874,2.748543505859375,-10.305343511450381,-13.358778625954198,23.893129770992367,0.0
14.050000667572021,-9.849745629882811,5.295974072265625,1.5562310791015623,24.610687022900763,58.656488549618324,-7.343511450381679,-9.95987890625,-0.16280571289062498,2.8275521606445313,-10.610687022900763,-16.885496183206108,24.366412213740457,0.0
14.060000658035278,-10.445901843261717,5.446808776855469,2.3223756103515623,2.0916030534351147,53.64885496183206,-1.816793893129771,-9.888052856445311,-0.1771709228515625,2.6910826660156246,-10.763358778625955,-21.068702290076335,24.671755725190838,0.0
14.070000648498535,-10.134655627441406,3.7325603881835936,2.4349030883789062,-14.320610687022901,48.213740458015266,3.2977099236641223,-9.708487731933593,-0.12449848632812499,2.521094348144531,-11.221374045801527,-24.213740458015266,24.442748091603054,0.0
14.080000638961792,-10.613495959472656,2.085349645996094,2.8562825805664063,-21.862595419847327,45.9236641221374,5.4961832061068705,-9.907206469726562,-0.0143652099609375,2.5163059448242184,-11.526717557251908,-26.946564885496183,23.938931297709924,0.0
14.090000629425049,-9.605537060546874,0.3016694091796875,2.4349030883789062,-22.38167938931298,38.44274809160305,6.320610687022901,-10.690110412597656,-1.3311761230468748,3.4093431640625,-7.114503816793893,-28.717557251908396,24.519083969465647,0.0
14.100000619888306,-10.474632263183594,-0.507570751953125,3.3159692993164063,-15.954198473282442,36.48854961832061,4.076335877862595,-10.570400329589843,-0.4213794921875,2.9544448486328125,-1.6641221374045803,-33.603053435114504,20.80916030534351,0.0
14.11000108718872,-9.866505041503906,0.28730419921875,3.1100679565429687,-13.404580152671755,32.0,1.4961832061068703,-9.636661682128906,0.03591302490234375,1.4796166259765624,-1.2671755725190839,-40.13740458015267,16.931297709923665,0.0
14.12000060081482,-10.929530578613281,0.7445967163085937,3.1747114013671873,-14.687022900763358,27.83206106870229,-2.946564885496183,-10.328585961914062,-0.2537853759765625,2.070984436035156,0.5954198473282443,-39.343511450381676,14.870229007633588,0.0
14.130000829696655,-11.528080993652344,1.1180921752929687,3.0430303100585934,-16.53435114503817,25.328244274809162,-3.984732824427481,-10.36210478515625,0.8834604125976562,1.9297265380859374,3.3740458015267176,-41.908396946564885,12.183206106870228,0.0
14.140000581741333,-9.945513696289062,1.9632453613281249,1.5131354492187499,-18.0,14.412213740458014,-3.8625954198473282,-9.696516723632811,2.104503259277344,1.2689268798828124,-3.648854961832061,-39.69465648854962,9.557251908396946,0.0
14.15000057220459,-10.067617980957031,1.8243816650390623,1.4125789794921875,-24.198473282442748,7.0534351145038165,-0.6259541984732825,-9.200916979980468,3.153163586425781,-0.3327940307617187,-12.793893129770993,-35.55725190839695,9.83206106870229,0.0
14.160000562667847,-9.414000927734374,0.13407529296874998,0.967257470703125,-16.916030534351144,4.366412213740458,3.1908396946564888,-9.70369932861328,2.50912333984375,0.4165910888671875,-16.748091603053435,-27.96946564885496,13.297709923664122,0.0
14.170000553131104,-8.614337573242187,-0.9457096557617187,0.7278373046875,-3.8625954198473282,5.587786259541985,2.900763358778626,-8.781931689453124,1.8411410766601561,0.3184288208007812,-20.793893129770993,-23.64885496183206,14.045801526717558,0.0
14.180000305175781,-10.510545288085936,1.7884686401367187,2.3965958618164063,-2.8244274809160306,5.709923664122138,-1.465648854961832,-10.223241088867187,1.2210428466796874,0.16041151123046873,-17.022900763358777,-17.84732824427481,13.84732824427481,0.0
14.190000534057617,-10.673351000976561,1.2832920898437499,1.9704279663085937,2.213740458015267,2.1374045801526718,-0.6412213740458015,-10.517727893066406,-1.1085153686523437,1.5203180541992187,-9.786259541984732,-15.435114503816793,11.969465648854962,0.0
14.200000286102295,-9.485826977539062,0.4860229370117187,0.7733271362304687,13.49618320610687,1.4961832061068703,2.9160305343511452,-9.540893615722656,-1.1420341918945311,-0.34715924072265625,-1.633587786259542,-19.66412213740458,6.229007633587786,0.0
14.21000051498413,-8.765172277832031,1.2665326782226562,0.15083470458984374,16.53435114503817,4.900763358778626,3.801526717557252,-9.87608184814453,-0.5363011718749999,-0.41419688720703124,6.580152671755725,-18.259541984732824,1.984732824427481,0.0
14.220000505447388,-8.535328918457031,2.408566870117187,-0.34715924072265625,13.877862595419847,9.251908396946565,2.519083969465649,-9.03332286376953,-0.0718260498046875,0.6703764648437499,6.8396946564885495,-13.938931297709924,-0.8396946564885496,0.0
14.230000734329224,-8.619125976562499,3.1483751831054687,-1.0295067138671874,7.404580152671755,12.717557251908397,4.534351145038168,-8.157045056152343,0.7781155395507812,0.7493851196289062,1.5572519083969465,-9.664122137404581,-1.83206106870229,0.0
14.24000096321106,-9.030928662109375,3.5386300537109374,-1.5227122558593749,-2.427480916030534,15.893129770992367,7.4961832061068705,-9.414000927734374,0.011971008300781249,1.0773907470703123,6.320610687022901,-4.8396946564885495,0.6564885496183206,0.0
14.250000238418579,-8.86812294921875,1.0295067138671874,-1.7262193969726563,-1.7251908396946565,18.48854961832061,9.801526717557252,-9.330203869628905,0.12689268798828124,1.2306196533203124,9.297709923664122,-3.1603053435114505,-0.8091603053435115,0.0
14.260000944137573,-9.153032946777342,-0.19153613281249998,-1.3096283081054687,3.099236641221374,24.213740458015266,8.854961832061068,-9.375693701171874,0.10295067138671875,1.8171990600585937,13.419847328244275,-0.5801526717557252,-2.8244274809160306,0.0
14.270000457763672,-10.998962426757812,1.0199299072265624,0.5123591552734374,-2.5801526717557253,30.793893129770993,1.786259541984733,-9.016563452148437,0.6655880615234374,1.8076222534179687,14.763358778625955,0.0916030534351145,-5.9541984732824424,0.0
14.280000925064087,-12.167332836914062,2.729389892578125,1.7310078002929687,-17.84732824427481,24.396946564885496,-0.8244274809160306,-9.167398156738281,1.0893617553710937,1.7764976318359373,15.541984732824428,0.061068702290076333,-6.67175572519084,0.0
14.290000677108765,-10.172962854003906,2.4253262817382812,1.2617442749023438,-21.0381679389313,22.137404580152673,0.5801526717557252,-9.579200842285156,1.37906015625,2.1356278808593747,13.114503816793894,0.7633587786259542,-6.427480916030534,0.0
14.300000667572021,-10.785878479003905,2.592920397949219,1.8004396484374998,-24.38167938931298,21.19083969465649,0.6106870229007634,-10.235212097167969,0.6631938598632812,2.7820623291015623,11.389312977099237,2.549618320610687,-5.969465648854962,0.0
14.310000658035278,-9.648632690429688,2.3726538452148436,0.8810662109374999,-27.46564885496183,16.244274809160306,2.3206106870229006,-11.247959399414063,-0.6248866333007812,3.845087866210937,17.69465648854962,1.1145038167938932,-5.1603053435114505,0.0
14.320000648498535,-9.677363110351562,2.4061726684570313,0.3184288208007812,-35.05343511450382,9.48091603053435,6.137404580152672,-10.73799444580078,0.19393033447265623,2.384624853515625,18.793893129770993,-8.580152671755725,-9.801526717557252,0.0
14.330000638961792,-10.445901843261717,1.9488801513671874,0.8714894042968749,-32.396946564885496,12.076335877862595,8.488549618320612,-10.960655200195312,-0.33758243408203126,4.225765930175781,22.244274809160306,-7.770992366412214,-10.213740458015268,0.0
14.340000867843628,-9.435548742675781,0.09337386474609374,0.55545478515625,-31.603053435114504,12.442748091603054,8.442748091603054,-10.235212097167969,-0.22744915771484372,3.4548329956054684,28.717557251908396,-18.16793893129771,-12.67175572519084,0.0
14.350000619888306,-10.479420666503906,0.7733271362304687,1.3192051147460937,-34.67175572519084,12.82442748091603,4.900763358778626,-9.354145886230468,1.5825672973632812,2.6982652709960937,23.87786259541985,-24.68702290076336,-15.84732824427481,0.0
14.360000610351562,-9.976638317871092,-0.011971008300781249,1.2808978881835937,-32.213740458015266,12.229007633587786,3.3282442748091605,-7.8912886718749995,2.5761609863281247,2.1691467041015624,8.80916030534351,-25.114503816793892,-15.312977099236642,0.0
14.370000839233398,-10.206481677246094,-0.0143652099609375,1.6831237670898436,-33.465648854961835,10.106870229007633,2.045801526717557,-9.95987890625,2.250549560546875,3.670311145019531,-1.7557251908396947,-16.916030534351144,-8.625954198473282,0.0
14.380000352859497,-9.9215716796875,-0.4860229370117187,1.5777788940429687,-26.65648854961832,6.488549618320611,1.1755725190839694,-10.345345373535155,1.1635820068359375,2.913743420410156,-7.984732824427481,-18.671755725190838,-5.801526717557252,0.0
14.390001058578491,-9.639055883789062,-0.5985504150390625,1.3623007446289062,-15.83206106870229,5.099236641221374,0.732824427480916,-9.394847314453125,0.3280056274414062,2.7724855224609373,-10.244274809160306,-23.022900763358777,-7.786259541984733,0.0
14.40000057220459,-9.907206469726562,-0.17956512451171874,1.1731588134765625,-7.755725190839694,3.7099236641221376,0.2595419847328244,-10.563217724609375,-0.181959326171875,3.191470812988281,-4.106870229007634,-24.9618320610687,-9.679389312977099,0.0
14.410000801086426,-9.682151513671874,0.45968671875,0.46208092041015625,0.48854961832061067,3.4198473282442747,-1.2061068702290076,-10.321403356933594,0.29448680419921874,3.5889082885742187,1.5267175572519085,-27.69465648854962,-12.916030534351146,0.0
14.420000553131104,-9.593566052246093,0.9935936889648437,0.4285620971679687,6.137404580152672,4.137404580152672,-2.213740458015267,-8.987833032226561,1.20667763671875,1.8411410766601561,-4.244274809160306,-29.87786259541985,-14.931297709923664,0.0
14.430000305175781,-9.536105212402344,1.7860744384765623,0.4525041137695312,5.145038167938932,4.8396946564885495,-2.351145038167939,-8.279149340820313,1.2713210815429687,2.4492682983398435,-12.488549618320612,-25.297709923664122,-11.786259541984732,0.0
14.440000772476196,-10.326191760253906,2.133233679199219,0.8379705810546875,1.0381679389312977,2.900763358778626,-2.0,-10.307038146972655,0.6153098266601562,3.229778039550781,-14.80916030534351,-18.33587786259542,-7.633587786259542,0.0
14.450000524520874,-9.787496386718749,1.0223241088867188,0.469263525390625,3.8473282442748094,1.7251908396946565,-0.7633587786259542,-8.882488159179687,-0.01915361328125,2.061407629394531,-14.80916030534351,-23.923664122137403,-9.099236641221374,0.0
14.46000051498413,-9.677363110351562,0.7685387329101562,0.7206546997070312,3.5419847328244276,2.4885496183206106,-0.7022900763358778,-10.022128149414062,-0.4070142822265625,3.7325603881835936,-8.442748091603054,-21.221374045801525,-9.770992366412214,0.0
14.470000505447388,-10.196904870605469,1.6424223388671875,1.4796166259765624,-0.33587786259541985,2.045801526717557,-3.0381679389312977,-8.585607153320312,-0.2753331909179687,2.6479870361328124,-3.648854961832061,-25.984732824427482,-12.351145038167939,0.0
14.480000495910645,-10.256759912109374,2.5570073730468748,1.714248388671875,-6.290076335877862,-0.3969465648854962,-3.053435114503817,-8.231265307617187,-0.25139117431640623,1.7597382202148437,-0.9618320610687023,-26.778625954198475,-15.312977099236642,0.0
14.490000486373901,-8.327033374023436,0.39983167724609375,0.12449848632812499,-6.290076335877862,-4.396946564885496,0.16793893129770993,-9.227253198242186,0.39743747558593745,3.210624426269531,-2.5343511450381677,-17.557251908396946,-12.854961832061068,0.0
14.500000715255737,-9.514557397460937,2.1068974609374997,1.2808978881835937,-6.931297709923665,-0.6564885496183206,-1.5267175572519085,-8.104372619628906,0.833182177734375,2.920926025390625,-7.068702290076335,-15.450381679389313,-13.236641221374045,0.0
14.510000705718994,-8.650250598144531,0.1867477294921875,0.4285620971679687,-5.6183206106870225,-3.7404580152671754,-0.8854961832061069,-8.678981018066406,0.33518823242187495,3.0142998901367184,-6.534351145038168,-12.564885496183207,-11.083969465648854,0.0
14.52000093460083,-10.002974536132811,1.675941162109375,1.3934253662109375,-0.33587786259541985,0.12213740458015267,-2.6564885496183206,-9.035717065429687,-0.4908113403320312,3.2034418212890623,-2.6412213740458017,-11.893129770992367,-9.648854961832061,0.0
14.530000448226929,-9.777919580078125,1.177947216796875,1.3024457031249999,-3.8931297709923665,-3.3893129770992365,-3.786259541984733,-8.954314208984375,-0.5003881469726562,2.8706477905273435,2.015267175572519,-12.778625954198473,-11.297709923664122,0.0
14.540000677108765,-9.873687646484374,1.0797849487304687,1.4915876342773438,-2.2900763358778624,-4.854961832061068,-2.6106870229007635,-8.355763793945313,-0.12689268798828124,2.6527754394531247,5.435114503816794,-12.198473282442748,-12.061068702290076,0.0
14.5500009059906,-9.89523546142578,0.9457096557617187,1.8219874633789062,-0.04580152671755725,-5.435114503816794,-3.5114503816793894,-8.267178332519531,0.0526724365234375,2.5761609863281247,9.007633587786259,-11.801526717557252,-12.580152671755725,0.0
14.560000658035278,-9.773131176757811,0.7230489013671875,1.9776105712890624,3.816793893129771,-7.419847328244275,-4.366412213740458,-8.597578161621094,0.16759411621093748,2.683900061035156,11.022900763358779,-10.83969465648855,-12.122137404580153,0.0
14.570000648498535,-9.765948571777344,0.4836287353515625,1.8195932617187498,8.549618320610687,-9.038167938931299,-4.549618320610687,-8.772354882812499,0.19393033447265623,2.93050283203125,12.687022900763358,-9.679389312977099,-11.603053435114504,0.0
14.580000400543213,-9.744400756835937,0.5602431884765625,1.3479355346679687,10.961832061068701,-10.13740458015267,-4.091603053435114,-8.125920434570313,0.430956298828125,2.5522189697265625,12.732824427480915,-10.0,-11.86259541984733,0.0
14.590000629425049,-9.09796630859375,0.34237083740234375,0.7685387329101562,13.435114503816793,-9.893129770992367,-4.916030534351145,-8.113949426269532,0.3327940307617187,2.6312276245117188,14.83969465648855,-8.946564885496183,-10.977099236641221,0.0
14.600000858306885,-8.896853369140624,0.737414111328125,0.7565677246093749,16.213740458015266,-8.396946564885496,-6.290076335877862,-8.528146313476562,0.33039982910156246,2.602497204589844,16.793893129770993,-7.770992366412214,-9.938931297709924,0.0
14.610000610351562,-9.473855969238281,1.649604943847656,0.9528922607421875,16.045801526717558,-7.358778625954199,-7.740458015267175,-8.109161022949218,0.4908113403320312,2.1499930908203124,15.038167938931299,-6.458015267175573,-10.427480916030534,0.0
14.620000839233398,-9.133879333496093,1.4317325927734375,0.6823474731445313,15.786259541984732,-7.129770992366412,-6.595419847328245,-8.789114294433594,0.38307226562499996,2.4564509033203126,16.412213740458014,-4.213740458015267,-9.32824427480916,0.0
14.630000829696655,-9.303867651367186,1.429338391113281,0.8283937744140625,15.49618320610687,-6.122137404580153,-6.396946564885496,-8.312668164062499,0.6536170532226562,2.3678654418945313,14.717557251908397,-3.572519083969466,-9.511450381679388,0.0
14.640000343322754,-8.034940771484374,4.874594580078124,1.4125789794921875,13.129770992366412,-6.625954198473282,-7.374045801526718,-8.820238916015624,0.469263525390625,2.825157958984375,14.045801526717558,-1.0534351145038168,-8.106870229007633,0.0
14.650000810623169,-10.977414611816405,2.384624853515625,1.5586252807617187,-1.0076335877862594,-13.282442748091603,-5.083969465648855,-8.317456567382813,1.0630255371093749,2.3391350219726563,11.908396946564885,-1.3282442748091603,-7.740458015267175,0.0
14.660000562667847,-9.153032946777342,-0.373495458984375,0.967257470703125,11.694656488549619,-14.732824427480915,1.4809160305343512,-8.504204296874999,0.9002198242187499,2.4013842651367185,7.709923664122138,0.9923664122137404,-6.580152671755725,0.0
14.670000553131104,-9.119514123535156,0.07900865478515624,1.7908628417968748,20.12213740458015,-8.259541984732824,-4.366412213740458,-8.281543542480469,0.34237083740234375,3.246537451171875,1.251908396946565,5.801526717557252,-6.183206106870229,0.0
14.68000054359436,-10.333374365234375,1.9105729248046874,2.5450363647460934,11.572519083969466,-9.221374045801527,-9.938931297709924,-9.387664709472656,-0.5817910034179687,3.1555577880859373,7.877862595419847,2.122137404580153,-5.938931297709924,0.0
14.690000534057617,-11.207257971191405,3.210624426269531,2.93050283203125,3.3893129770992365,-14.732824427480915,-11.267175572519085,-9.354145886230468,-0.1771709228515625,3.323151904296875,6.748091603053435,0.015267175572519083,-7.511450381679389,0.0
14.700000524520874,-10.697293017578124,2.7653029174804686,2.849099975585937,2.5801526717557253,-17.572519083969464,-8.442748091603054,-9.076418493652342,0.6057330200195312,3.0334535034179684,4.5038167938931295,-1.2061068702290076,-8.65648854961832,0.0
14.710000276565552,-10.534487304687499,2.2744915771484373,2.365471240234375,-2.9160305343511452,-22.03053435114504,-7.343511450381679,-8.978256225585938,0.9145850341796874,2.959233251953125,1.7557251908396947,-2.0,-8.335877862595419,0.0
14.720000505447388,-9.583989245605467,1.1061211669921875,2.003946789550781,-8.412213740458014,-24.65648854961832,-5.740458015267175,-8.741230261230468,0.8834604125976562,2.844311572265625,-1.4045801526717556,-2.5343511450381677,-7.206106870229007,0.0
14.730000257492065,-7.8170684204101555,-0.488417138671875,0.1149216796875,-3.145038167938931,-26.458015267175572,-4.366412213740458,-8.403647827148436,0.8092401611328125,2.6599580444335937,-4.488549618320611,-1.786259541984733,-7.0534351145038165,0.0
14.740000486373901,-7.244854223632812,0.21068974609375,-0.2059013427734375,1.297709923664122,-22.610687022900763,-7.511450381679389,-7.896077075195312,0.7924807495117187,2.2361843505859373,-7.511450381679389,-0.3511450381679389,-7.282442748091603,0.0
14.750000238418579,-6.993463049316406,0.5961562133789062,-0.29448680419921874,3.4656488549618323,-21.419847328244273,-10.580152671755725,-7.44357296142578,0.46208092041015625,1.7621324218749999,-9.145038167938932,1.4198473282442747,-7.099236641221374,0.0
14.760000944137573,-6.742071875,0.7517793212890624,0.7350199096679687,9.84732824427481,-15.267175572519085,-10.51908396946565,-7.235277416992187,-0.1149216796875,1.695094775390625,-9.740458015267176,3.5877862595419847,-6.580152671755725,0.0
14.770000696182251,-9.138667736816405,2.365471240234375,2.269703173828125,13.48091603053435,-9.038167938931299,-10.229007633587786,-7.132326745605468,-0.7517793212890624,1.7573440185546874,-6.854961832061068,4.961832061068702,-7.114503816793893,0.0
