timestamp,Thigh_L_Acc_X,Thigh_L_Acc_Y,Thigh_L_Acc_Z,Thigh_L_Gyr_X,Thigh_L_Gyr_Y,Thigh_L_Gyr_Z,Thigh_R_Acc_X,Thigh_R_Acc_Y,Thigh_R_Acc_Z,Thigh_R_Gyr_X,Thigh_R_Gyr_Y,Thigh_R_Gyr_Z,gpio_output
10.000000476837158,-10.445901843261717,0.5602431884765625,3.2225954345703123,14.198473282442748,-0.2900763358778626,-0.9618320610687023,-11.451466540527344,0.8978256225585937,2.0877438476562498,-21.129770992366414,-3.5572519083969465,16.519083969465647,0.0
10.010000467300415,-8.846575134277343,-0.6943184814453125,0.031124621582031248,11.969465648854962,-3.0076335877862594,-3.2061068702290076,-13.053187451171874,-0.26815058593749996,4.42448466796875,-30.50381679389313,-2.015267175572519,19.083969465648856,1.0
10.020000457763672,-5.372588525390625,-5.147533569335937,-2.942473840332031,33.541984732824424,5.755725190839694,-2.595419847328244,-11.88721124267578,-1.3766659545898436,4.477157104492187,-21.72519083969466,-17.221374045801525,18.99236641221374,1.0
10.030000448226929,-6.696582043457031,-1.7118541870117185,-3.248931652832031,38.62595419847328,19.572519083969464,-10.045801526717558,-10.189722265624999,1.5969325073242187,2.4756045166015626,-30.65648854961832,-31.31297709923664,14.916030534351146,1.0
10.040001153945923,-6.301538769531249,1.9584569580078124,-3.907337109375,28.68702290076336,26.290076335877863,-10.274809160305344,-10.721235034179687,1.3407529296874998,3.5218706420898434,-40.61068702290076,-32.900763358778626,20.519083969465647,1.0
10.050000667572021,-7.520187414550781,4.477157104492187,-2.442085693359375,14.045801526717558,39.9236641221374,-6.106870229007634,-9.890447058105469,-0.07900865478515624,2.990357873535156,-42.412213740458014,-40.6412213740458,22.610687022900763,1.0
10.060001134872437,-7.7979148071289055,4.687846850585937,-1.9105729248046874,4.091603053435114,47.98473282442748,-0.8702290076335878,-10.127473022460936,0.19632453613281248,2.1739351074218747,-38.916030534351144,-45.587786259541986,21.786259541984734,1.0
10.070000410079956,-8.427589843749999,3.883395092773437,-1.2856862915039062,-7.709923664122138,55.282442748091604,4.473282442748092,-9.792284790039062,-1.1348515869140625,2.4061726684570313,-30.213740458015266,-50.30534351145038,21.96946564885496,1.0
10.080000638961792,-8.267178332519531,0.16519991455078123,-0.6823474731445313,-18.259541984732824,58.916030534351144,8.229007633587786,-9.572018237304688,-1.2928688964843749,1.4724340209960938,-16.671755725190838,-57.465648854961835,19.374045801526716,1.0
10.090000629425049,-9.861716638183593,-0.105344873046875,1.1635820068359375,-18.396946564885496,63.3587786259542,5.038167938931298,-8.722076647949219,-0.040701428222656245,-0.20829554443359374,-15.053435114503817,-60.458015267175576,15.954198473282442,1.0
10.100000619888306,-11.513715783691406,0.8379705810546875,2.6575638427734374,-26.229007633587788,60.80916030534351,0.5190839694656488,-8.865728747558594,1.6903063720703124,-0.20829554443359374,-19.587786259541986,-54.13740458015267,15.572519083969466,1.0
10.110000610351562,-12.72997022705078,1.0702081420898437,3.4261025756835934,-34.51908396946565,51.51145038167939,-3.145038167938931,-8.027758166503906,1.3670891479492187,-0.5458779785156249,-31.022900763358777,-44.51908396946565,17.14503816793893,1.0
10.12000060081482,-10.134655627441406,-2.0087351928710935,2.2577321655273437,-27.72519083969466,40.38167938931298,-2.6259541984732824,-9.464279162597656,0.2753331909179687,0.3854664672851562,-25.893129770992367,-37.48091603053435,19.72519083969466,1.0
10.130000352859497,-10.864887133789061,-0.373495458984375,2.2960393920898436,-12.50381679389313,36.54961832061068,-7.022900763358779,-10.295067138671874,-0.7900865478515624,0.11013327636718749,-14.183206106870228,-36.13740458015267,17.64885496183206,1.0
10.140000343322754,-10.421959826660157,0.24660277099609373,1.7166425903320313,1.1908396946564885,29.374045801526716,-11.679389312977099,-10.105925207519531,0.3447650390625,-0.03591302490234375,-6.763358778625954,-34.961832061068705,13.374045801526718,1.0
10.15000057220459,-10.436325036621094,1.3359645263671873,1.695094775390625,0.7938931297709924,22.732824427480917,-8.381679389312977,-8.44674345703125,1.4532804077148436,-1.649604943847656,5.755725190839694,-41.267175572519086,9.16030534351145,1.0
10.160000324249268,-10.199299072265624,1.2330138549804688,1.4317325927734375,4.656488549618321,15.007633587786259,-6.229007633587786,-9.579200842285156,3.019088293457031,-1.9895815795898437,-1.786259541984733,-24.16793893129771,7.00763358778626,1.0
10.170000314712524,-9.466673364257812,1.89620771484375,1.7932570434570312,7.923664122137405,16.625954198473284,-3.0839694656488548,-8.729259252929687,2.061407629394531,-1.9847931762695312,-5.4961832061068705,-15.389312977099237,7.679389312977099,1.0
10.18000054359436,-8.851363537597656,1.1611878051757811,0.59376201171875,7.3893129770992365,10.16793893129771,-1.083969465648855,-9.567229833984374,1.005564697265625,-1.4628572143554686,-0.3053435114503817,-8.610687022900763,7.358778625954199,1.0
10.190000534057617,-9.588777648925781,1.5275006591796874,0.4525041137695312,17.893129770992367,12.106870229007633,-0.32061068702290074,-9.342174877929686,0.033518823242187495,-0.2825157958984375,3.786259541984733,-4.152671755725191,5.083969465648855,1.0
10.200000762939453,-8.82263311767578,1.5921441040039062,-0.016759411621093748,17.068702290076335,12.076335877862595,1.5419847328244274,-9.892841259765625,-0.6751648681640625,0.82360537109375,15.129770992366412,-2.16793893129771,3.7404580152671754,1.0
10.210000991821289,-9.035717065429687,2.0254946044921875,-0.37828386230468747,16.763358778625953,14.580152671755725,1.1297709923664123,-10.91037696533203,-0.33758243408203126,1.0797849487304687,25.61832061068702,-0.9465648854961832,2.6717557251908395,0.0
10.220000505447388,-9.30147344970703,1.9776105712890624,-0.25139117431640623,12.15267175572519,15.740458015267176,-0.0916030534351145,-8.985438830566405,0.40940848388671874,0.028730419921875,26.519083969465647,-4.2748091603053435,-0.015267175572519083,0.0
10.230000495910645,-9.701305126953125,2.281674182128906,0.373495458984375,5.0534351145038165,17.61832061068702,-0.549618320610687,-8.564059338378906,0.7254431030273437,0.4381389038085937,27.450381679389313,-5.404580152671755,-2.1068702290076335,0.0
10.240000247955322,-9.9981861328125,2.3343466186523436,1.0678139404296874,-1.4809160305343512,17.954198473282442,-1.0229007633587786,-8.346186987304687,1.8171990600585937,1.2018892333984375,18.9618320610687,-2.900763358778626,-5.541984732824427,0.0
10.250000715255737,-10.079588989257813,2.0877438476562498,1.3670891479492187,-7.679389312977099,16.229007633587788,-0.8396946564885496,-9.753977563476562,0.6440402465820312,2.281674182128906,14.351145038167939,2.885496183206107,-2.7480916030534353,0.0
10.260000705718994,-8.528146313476562,-0.22266075439453123,0.7517793212890624,-1.1908396946564885,14.259541984732824,0.549618320610687,-9.655815295410155,0.3806780639648437,2.511517541503906,14.351145038167939,1.2671755725190839,-4.6106870229007635,0.0
10.270000696182251,-9.469067565917967,2.001552587890625,2.1547814941406247,0.5343511450381679,16.900763358778626,-3.786259541984733,-10.01733974609375,0.0383072265625,2.913743420410156,16.68702290076336,-0.22900763358778625,-6.625954198473282,0.0
10.280000925064087,-11.118672509765624,3.9504327392578125,2.5570073730468748,-12.076335877862595,14.305343511450381,-6.473282442748092,-9.85692823486328,0.35194764404296874,2.916137622070312,17.267175572519083,-1.633587786259542,-10.122137404580153,0.0
10.290000677108765,-9.787496386718749,1.350329736328125,0.6368576416015624,-21.297709923664122,5.038167938931298,-1.9389312977099236,-10.467449658203124,0.4860229370117187,2.2673089721679687,26.137404580152673,-7.435114503816794,-11.511450381679388,0.0
10.30000114440918,-9.904812268066406,2.4947581298828125,0.51714755859375,-16.946564885496183,8.900763358778626,-1.816793893129771,-8.202534887695313,1.7381904052734374,1.3814543579101561,21.786259541984734,-11.740458015267176,-15.633587786259541,0.0
10.310000658035278,-10.443507641601562,2.7629087158203123,-0.11731588134765625,-30.229007633587788,6.0458015267175576,-1.450381679389313,-8.990227233886719,2.281674182128906,2.408566870117187,15.725190839694656,-7.786259541984733,-13.404580152671755,0.0
10.320000886917114,-8.892064965820312,0.47884033203125,-1.455674609375,-24.290076335877863,8.290076335877863,1.2213740458015268,-11.068394274902342,1.4173673828125,3.375824340820312,15.526717557251908,-7.221374045801527,-8.274809160305344,0.0
10.330000400543213,-8.461108666992187,0.928950244140625,-1.429338391113281,-23.267175572519083,12.16793893129771,0.07633587786259542,-10.527304699707031,1.1659762084960936,4.046200805664062,12.305343511450381,-11.740458015267176,-8.274809160305344,0.0
10.340000629425049,-10.857704528808593,3.801992236328125,-0.076614453125,-33.87786259541985,14.595419847328245,-2.213740458015267,-10.290278735351562,1.3646949462890625,2.961627453613281,4.641221374045801,-16.396946564885496,-9.511450381679388,0.0
10.350000619888306,-10.105925207519531,2.8227637573242186,-0.19153613281249998,-51.38931297709924,7.236641221374046,1.9083969465648856,-9.133879333496093,1.8770541015625,2.6862942626953124,-1.6641221374045803,-20.076335877862597,-10.13740458015267,0.0
10.360000610351562,-9.236830004882812,0.6464344482421874,0.8164227661132812,-49.16030534351145,11.435114503816793,4.8396946564885495,-8.200140686035155,1.6041151123046875,3.189076611328125,-13.17557251908397,-20.076335877862597,-8.045801526717558,0.0
10.37000060081482,-10.235212097167969,-0.70868369140625,2.0254946044921875,-43.20610687022901,14.51908396946565,2.122137404580153,-9.131485131835937,1.2617442749023438,3.4165257690429685,-25.053435114503817,-14.763358778625955,-5.282442748091603,0.0
10.380000591278076,-9.476250170898437,-2.1212626708984375,1.6903063720703124,-26.458015267175572,14.717557251908397,-1.3129770992366412,-8.628702783203124,1.2425906616210938,2.5857377929687497,-30.80916030534351,-16.35114503816794,-5.969465648854962,0.0
10.390000581741333,-10.946289990234375,0.41898529052734373,2.877830395507812,-21.206106870229007,12.335877862595419,-7.312977099236641,-10.479420666503906,-1.0366893188476562,3.9336733276367184,-27.541984732824428,-14.610687022900763,-4.549618320610687,0.0
10.400000810623169,-10.687716210937499,0.45010991210937495,2.6982652709960937,-13.954198473282442,4.427480916030534,-8.961832061068701,-10.371681591796875,-0.7230489013671875,3.749319799804687,-23.114503816793892,-18.198473282442748,-7.679389312977099,0.0
10.410000801086426,-9.698910925292969,0.4165910888671875,1.9943699829101562,-4.977099236641221,-0.0,-7.221374045801527,-10.560823522949217,-0.45489831542968745,3.0645781249999997,-16.717557251908396,-20.366412213740457,-9.251908396946565,0.0
10.420000553131104,-9.445125549316407,1.216254443359375,1.0630255371093749,2.3206106870229006,-1.5877862595419847,-6.763358778625954,-9.605537060546874,0.2609679809570312,2.5258827514648434,-10.763358778625955,-25.129770992366414,-12.641221374045802,0.0
10.43000078201294,-9.334992272949219,1.9967641845703124,0.47884033203125,6.717557251908397,-0.15267175572519084,-5.969465648854962,-8.8872765625,0.23223756103515625,1.848323681640625,-11.19083969465649,-24.3206106870229,-14.274809160305344,0.0
10.440000772476196,-9.380482104492186,2.308010400390625,0.488417138671875,6.305343511450381,-0.4122137404580153,-4.290076335877862,-7.752424975585937,2.114080065917969,0.7852981445312499,-17.358778625954198,-23.480916030534353,-15.34351145038168,0.0
10.450000762939453,-9.449913952636718,3.0047230834960934,0.5506663818359374,3.7709923664122136,1.2213740458015268,-2.8091603053435112,-8.365340600585936,0.9504980590820312,2.4899697265625,-29.083969465648856,-9.236641221374045,-9.648854961832061,0.0
10.46000051498413,-9.260772021484375,1.678335363769531,0.4644751220703125,0.16793893129770993,0.6412213740458015,-1.4045801526717556,-8.954314208984375,-0.6967126831054687,2.540247961425781,-25.19083969465649,-8.564885496183207,-7.969465648854962,0.0
10.470000267028809,-9.550470422363281,1.3958195678710936,0.9121908325195311,3.145038167938931,3.0839694656488548,-1.6946564885496183,-9.509768994140625,-1.6519991455078125,2.932897033691406,-15.526717557251908,-9.938931297709924,-8.931297709923664,0.0
10.480000257492065,-8.736441857910156,0.9983820922851562,0.6464344482421874,-2.9923664122137406,-1.2366412213740459,-1.1297709923664123,-9.0021982421875,-1.2737152832031249,3.162740393066406,-7.251908396946565,-10.396946564885496,-12.122137404580153,0.0
10.490000486373901,-10.043675964355469,1.484405029296875,1.6807295654296874,-2.0610687022900764,1.3587786259541985,-2.8702290076335877,-8.968679418945312,-0.8906430175781249,3.201047619628906,0.0,-10.183206106870228,-14.061068702290076,0.0
10.500000715255737,-10.005368737792969,1.448492004394531,2.1116858642578125,-2.6717557251908395,-0.6259541984732825,-3.633587786259542,-8.951920007324219,-0.5003881469726562,3.1172505615234374,4.183206106870229,-10.244274809160306,-14.732824427480915,0.0
10.510000705718994,-10.067617980957031,1.1109095703125,1.8602946899414061,-0.7175572519083969,-3.3587786259541983,-3.0381679389312977,-8.394071020507813,0.03591302490234375,2.829946362304687,4.244274809160306,-9.526717557251908,-16.076335877862597,0.0
10.52000117301941,-9.986215124511718,1.1252747802734375,2.0733786376953125,2.1374045801526718,-4.916030534351145,-3.969465648854962,-8.55448253173828,0.26336218261718747,2.7150246826171873,6.549618320610687,-9.297709923664122,-15.664122137404581,0.0
10.530000686645508,-9.670180505371093,1.2880804931640624,2.310404602050781,6.213740458015267,-6.717557251908397,-5.297709923664122,-8.9255837890625,0.19632453613281248,3.1579519897460937,7.740458015267175,-7.587786259541985,-15.022900763358779,0.0
10.540000915527344,-9.883264453125,1.6927005737304686,2.0542250244140625,8.274809160305344,-9.374045801526718,-6.259541984732825,-8.911218579101561,0.20829554443359374,3.191470812988281,7.557251908396947,-5.847328244274809,-14.366412213740459,0.0
10.550000667572021,-10.244788903808594,2.7916391357421872,2.319981408691406,5.190839694656488,-12.900763358778626,-6.0458015267175576,-8.429984045410155,0.42377369384765623,2.750937707519531,7.541984732824427,-6.320610687022901,-15.465648854961833,0.0
10.560000658035278,-11.59990704345703,3.787627026367187,2.7820623291015623,-7.862595419847328,-17.114503816793892,-4.229007633587786,-8.556876733398436,0.3495534423828125,2.3367408203125,8.396946564885496,-5.374045801526718,-15.297709923664122,0.0
10.570000648498535,-8.566453540039062,2.0733786376953125,0.8786720092773437,-8.442748091603054,-23.740458015267176,2.1068702290076335,-8.568847741699217,0.45010991210937495,2.3247698120117186,8.854961832061068,-4.061068702290076,-15.022900763358779,0.0
10.580000877380371,-8.374917407226562,1.467645617675781,-0.5410895751953124,-7.175572519083969,-21.87786259541985,5.9541984732824424,-8.470685473632813,0.40940848388671874,2.3127988037109373,10.625954198473282,-3.49618320610687,-14.625954198473282,0.0
10.590000629425049,-7.283161450195312,2.195482922363281,-1.8411410766601561,-8.992366412213741,-17.31297709923664,6.305343511450381,-8.2360537109375,0.29927520751953124,2.3415292236328122,9.053435114503817,-2.122137404580153,-13.267175572519085,0.0
10.600000619888306,-7.266402038574219,2.4971523315429685,-1.6998831787109374,-7.679389312977099,-9.877862595419847,6.5038167938931295,-8.779537487792968,-0.16998831787109375,2.3391350219726563,8.992366412213741,0.3511450381679389,-11.129770992366412,0.0
10.610000371932983,-8.544905725097657,2.6623522460937497,0.0718260498046875,-10.50381679389313,0.4580152671755725,5.847328244274809,-8.276755139160155,0.1005564697265625,2.214636535644531,9.099236641221374,0.5801526717557252,-10.732824427480915,0.0
10.62000060081482,-8.870517150878905,1.3120225097656248,0.3806780639648437,-9.32824427480916,6.412213740458015,5.648854961832061,-8.305485559082031,0.1005564697265625,2.104503259277344,8.122137404580153,2.2442748091603053,-10.67175572519084,0.0
10.630000591278076,-10.465055456542968,2.4875755249023435,2.128445275878906,-19.557251908396946,10.473282442748092,1.1145038167938932,-8.683769421386717,0.24660277099609373,2.272097375488281,7.114503816793893,3.4656488549618323,-10.50381679389313,0.0
10.640000581741333,-11.027692846679686,1.0606313354492187,2.844311572265625,-25.404580152671755,7.6183206106870225,-0.5954198473282443,-8.757989672851561,0.9169792358398436,2.437297290039062,2.198473282442748,3.572519083969466,-10.030534351145038,0.0
10.650001049041748,-10.034099157714843,-0.47644613037109373,3.5529952636718747,-20.53435114503817,4.870229007633588,-1.8931297709923665,-9.052476477050782,1.0845733520507812,2.8467057739257813,-3.816793893129771,3.9083969465648853,-8.610687022900763,0.0
10.660000324249268,-9.852139831542969,-0.3591302490234375,3.758896606445312,-15.603053435114504,1.6488549618320612,-6.702290076335878,-8.851363537597656,1.4317325927734375,3.0238766967773434,-13.17557251908397,4.3816793893129775,-8.80916030534351,0.0
10.670001029968262,-9.873687646484374,0.5578489868164063,3.6272155151367187,-10.580152671755725,-3.2061068702290076,-10.916030534351146,-9.176974963378905,1.0558429321289062,3.2321722412109373,-18.793893129770993,4.931297709923665,-7.526717557251908,0.0
10.68000054359436,-9.457096557617186,1.2952630981445312,3.8187516479492185,-6.656488549618321,-9.694656488549619,-13.312977099236642,-9.083601098632812,0.8403647827148437,3.2154128295898436,-25.19083969465649,3.877862595419847,-7.206106870229007,0.0
10.690000534057617,-9.387664709472656,1.9321207397460936,4.570530969238281,-3.2213740458015265,-16.564885496183205,-14.076335877862595,-8.36294639892578,0.6536170532226562,2.5163059448242184,-31.709923664122137,1.984732824427481,-7.480916030534351,0.0
10.700000524520874,-9.746794958496093,2.422932080078125,5.0948611328124995,-0.9770992366412213,-24.03053435114504,-14.442748091603054,-8.84178673095703,-0.5530605834960938,2.906560815429687,-32.229007633587784,2.3053435114503817,-6.198473282442748,0.0
10.71000075340271,-9.141061938476563,2.3391350219726563,5.063736511230468,2.9618320610687023,-32.717557251908396,-12.51908396946565,-8.461108666992187,-1.0199299072265624,2.540247961425781,-30.671755725190838,0.5038167938931297,-6.6106870229007635,0.0
10.720000743865967,-10.939107385253905,5.161898779296875,5.418078356933593,-7.282442748091603,-36.79389312977099,-10.732824427480915,-7.845798840332031,-1.2904746948242187,2.1835119140624997,-26.580152671755727,-0.48854961832061067,-7.7251908396946565,0.0
10.730000495910645,-9.56962403564453,4.8123453369140625,3.6655227416992187,-20.763358778625953,-48.99236641221374,-2.33587786259542,-7.802703210449218,-1.2689268798828124,2.142810485839844,-21.083969465648856,-0.6564885496183206,-8.213740458015268,0.0
10.740000486373901,-8.116343627929687,2.6695348510742187,2.806004345703125,-19.984732824427482,-55.11450381679389,5.32824427480916,-7.261613635253906,-0.6584054565429687,1.6831237670898436,-17.221374045801525,-1.8473282442748091,-9.450381679389313,0.0
10.750000238418579,-8.06367119140625,1.7357962036132812,3.555389465332031,-17.69465648854962,-58.16793893129771,6.427480916030534,-7.632714892578124,-1.0390835205078124,3.162740393066406,-16.778625954198475,5.969465648854962,-8.870229007633588,0.0
10.760001182556152,-8.726865051269531,0.3495534423828125,4.53940634765625,-12.51908396946565,-61.02290076335878,3.5877862595419847,-7.917624890136718,-1.4867992309570313,2.750937707519531,-6.519083969465649,0.9770992366412213,-9.053435114503817,0.0
10.770000696182251,-8.686163623046875,-0.814028564453125,5.386953735351562,-4.809160305343512,-68.09160305343511,-1.3740458015267176,-7.256825231933593,-0.7038952880859375,2.7150246826171873,-2.9770992366412212,-2.351145038167939,-10.763358778625955,0.0
10.780000925064087,-8.623914379882812,-1.5825672973632812,5.432443566894531,5.847328244274809,-70.74809160305344,-3.267175572519084,-6.888118176269531,0.2537853759765625,2.7916391357421872,-3.2977099236641223,-3.1755725190839694,-11.908396946564885,0.0
10.790000438690186,-9.133879333496093,-0.5961562133789062,6.289567761230469,13.404580152671755,-76.13740458015268,-4.5038167938931295,-5.425260961914062,1.2785036865234374,2.090138049316406,-11.83206106870229,-4.061068702290076,-13.465648854961833,0.0
10.8000009059906,-7.819462622070312,-0.2154781494140625,3.6152445068359373,26.99236641221374,-79.7557251908397,1.786259541984733,-5.1140147460937495,0.7206546997070312,2.1978771240234374,-19.450381679389313,-1.5267175572519085,-11.374045801526718,0.0
10.810000658035278,-6.301538769531249,-0.36631285400390623,-0.016759411621093748,31.374045801526716,-81.61832061068702,6.442748091603053,-5.705382556152343,0.14604630126953125,2.085349645996094,-17.450381679389313,-5.145038167938932,-9.84732824427481,0.0
10.820000648498535,-4.192247106933594,-0.01915361328125,-4.352658618164062,36.35114503816794,-73.48091603053435,4.656488549618321,-5.968744738769531,0.181959326171875,1.2713210815429687,-15.526717557251908,-7.66412213740458,-9.587786259541986,0.0
10.830000638961792,-3.0909143432617188,1.1659762084960936,-7.675810522460937,36.67175572519084,-56.778625954198475,-1.1755725190839694,-8.343792785644531,-0.928950244140625,3.6631285400390623,-19.328244274809162,-0.5190839694656488,-10.244274809160306,0.0
10.840000629425049,-5.159504577636718,1.0797849487304687,-7.043741284179687,29.938931297709924,-31.96946564885496,-6.213740458015267,-8.281543542480469,-0.8954314208984374,3.0430303100585934,-20.748091603053435,1.9083969465648856,-11.145038167938932,0.0
10.850000619888306,-7.4770917846679685,4.872200378417968,-4.091690637207031,21.49618320610687,-4.5038167938931295,-10.946564885496183,-8.463502868652343,-0.19393033447265623,0.2705447875976562,-14.15267175572519,3.282442748091603,-12.595419847328245,0.0
10.860000848770142,-12.222399475097655,7.745242370605468,-0.01915361328125,-2.4580152671755724,5.083969465648855,-11.34351145038168,-12.119448803710936,2.422932080078125,1.1156979736328125,-18.564885496183205,20.885496183206108,-15.34351145038168,0.0
10.87000036239624,-11.662156286621093,5.643133312988281,2.446874096679687,2.9160305343511452,11.251908396946565,0.2748091603053435,-17.362750439453123,2.0278888061523435,4.189852905273438,-30.091603053435115,35.37404580152672,-11.908396946564885,0.0
10.880000591278076,-11.9518546875,1.5394716674804687,4.477157104492187,10.580152671755725,12.305343511450381,3.3587786259541983,-21.70583225097656,1.1707646118164061,8.21690009765625,-29.786259541984734,31.14503816793893,-6.732824427480916,0.0
10.890000581741333,-12.11705460205078,-1.3215993164062498,4.84586416015625,25.374045801526716,8.51908396946565,4.244274809160306,-19.692308654785155,2.9951462768554684,6.868964562988281,-31.51145038167939,9.786259541984732,-1.9694656488549618,0.0
10.900000810623169,-14.563928698730468,0.6440402465820312,6.617573388671874,29.770992366412212,-0.6564885496183206,-0.42748091603053434,-17.343596826171876,2.24097275390625,6.174646081542968,-50.70229007633588,11.282442748091603,6.152671755725191,0.0
10.910000801086426,-16.711527587890625,4.374206433105469,5.501875415039062,26.748091603053435,-15.954198473282442,-3.7404580152671754,-16.852785485839842,-1.7429788085937499,6.957550024414062,-34.48854961832061,-1.5725190839694656,21.328244274809162,0.0
10.920000553131104,-14.846444494628905,1.1731588134765625,2.3774422485351563,33.969465648854964,-31.709923664122137,8.732824427480915,-13.421894506835937,-1.419761584472656,1.6232687255859375,-21.083969465648856,-20.977099236641223,23.786259541984734,0.0
10.93000078201294,-16.402675573730466,1.1180921752929687,3.6559459350585937,49.282442748091604,-26.68702290076336,11.007633587786259,-10.16338604736328,-0.6919242797851562,-0.2657563842773437,-24.82442748091603,-18.412213740458014,20.38167938931298,0.0
10.940000772476196,-20.657171923828123,5.365405920410156,6.938396411132812,30.65648854961832,-31.251908396946565,10.51908396946565,-7.37414111328125,-0.8499415893554687,-1.8698714965820311,-28.3206106870229,-11.007633587786259,18.15267175572519,0.0
10.950000524520874,-19.756952099609375,4.055777612304687,7.524975817871093,12.610687022900763,-48.70229007633588,20.702290076335878,-8.061276989746093,-4.774038110351563,-1.9919757812499999,-24.885496183206108,-0.1984732824427481,18.137404580152673,0.0
10.96000051498413,-17.405846069335936,1.8626888916015625,6.210559106445312,-1.3282442748091603,-62.595419847328245,23.83206106870229,-8.839392529296875,-7.161057165527343,-3.009511486816406,-8.183206106870228,9.755725190839694,10.412213740458014,0.0
10.970000743865967,-15.708357092285155,0.9217676391601562,4.211400720214844,-18.610687022900763,-73.20610687022901,22.519083969465647,-8.997409838867187,-7.333439685058593,-2.683900061035156,11.16030534351145,20.15267175572519,0.42748091603053434,0.0
10.980000495910645,-13.374010473632811,-1.369483349609375,3.414131567382812,-27.87786259541985,-79.37404580152672,21.83206106870229,-9.045293872070312,-5.533000036621093,-2.5809493896484375,29.206106870229007,28.793893129770993,-5.4961832061068705,0.0
10.990000486373901,-10.40041201171875,-4.568136767578125,2.4013842651367185,-26.091603053435115,-80.36641221374046,20.137404580152673,-8.889670764160156,-2.7198130859375,-2.221819140625,40.961832061068705,34.76335877862596,-8.641221374045802,0.0
11.000000238418579,-8.283937744140625,-5.5258174316406246,1.659181750488281,-14.977099236641221,-74.99236641221374,14.580152671755725,-8.913612780761719,-0.6512228515624999,-1.7908628417968748,36.778625954198475,41.69465648854962,-7.450381679389313,0.0
11.010000705718994,-6.528987927246093,-5.9591679321289055,1.7405846069335937,-1.7099236641221374,-65.6793893129771,13.206106870229007,-9.679757312011718,0.09576806640624999,-0.6560112548828124,33.00763358778626,48.67175572519084,-2.0916030534351147,0.0
11.020000457763672,-7.687781530761718,-4.2305543334960936,1.924938134765625,11.007633587786259,-62.396946564885496,4.732824427480916,-10.687716210937499,0.34715924072265625,0.7805097412109374,27.801526717557252,53.38931297709924,3.053435114503817,0.0
11.030000686645508,-7.37414111328125,-3.2632968627929686,1.6017209106445311,24.732824427480917,-55.282442748091604,3.053435114503817,-11.228805786132812,-0.679953271484375,1.944091748046875,33.20610687022901,50.0763358778626,7.312977099236641,0.0
11.040000915527344,-8.104372619628906,-2.693476867675781,1.656787548828125,28.198473282442748,-49.98473282442748,-0.5343511450381679,-10.615890161132812,-0.8068459594726562,2.1404162841796874,37.45038167938932,42.79389312977099,7.00763358778626,0.0
11.050000667572021,-8.748412866210938,-2.664746447753906,2.4564509033203126,27.51145038167939,-49.49618320610687,-4.137404580152672,-9.94072529296875,0.3854664672851562,2.243366955566406,28.99236641221374,38.80916030534351,5.435114503816794,0.0
11.060000896453857,-8.63109698486328,-1.9297265380859374,2.212242333984375,24.793893129770993,-48.85496183206107,-7.938931297709924,-9.105148913574219,0.9744400756835937,1.47482822265625,19.068702290076335,34.0763358778626,4.061068702290076,0.0
11.070000648498535,-8.66940421142578,0.08858546142578125,2.5234885498046875,23.72519083969466,-51.48091603053435,-14.213740458015268,-9.509768994140625,-0.1388636962890625,1.8076222534179687,11.816793893129772,31.587786259541986,5.1603053435114505,0.0
11.080000877380371,-7.438784558105469,-0.1771709228515625,0.6560112548828124,17.709923664122137,-52.87022900763359,-15.038167938931299,-9.718064538574218,-0.07900865478515624,1.7669208251953124,6.3816793893129775,28.946564885496183,4.015267175572519,0.0
11.090000629425049,-6.629544396972656,-0.3854664672851562,0.5889736083984375,14.442748091603054,-47.954198473282446,-17.16030534351145,-9.2320416015625,-0.1867477294921875,1.7214309936523438,1.4198473282442747,26.82442748091603,2.2595419847328246,0.0
11.100000619888306,-6.9527616210937495,0.26336218261718747,0.603338818359375,8.351145038167939,-42.961832061068705,-18.061068702290076,-9.504980590820312,-0.6177040283203125,2.068590234375,-0.07633587786259542,26.53435114503817,2.2442748091603053,0.0
11.110000610351562,-6.6702458251953125,-0.09576806640624999,0.411802685546875,7.847328244274809,-38.534351145038165,-17.84732824427481,-9.41639512939453,-0.6512228515624999,2.0542250244140625,-1.1450381679389312,23.64885496183206,2.366412213740458,0.0
11.12000036239624,-6.866570361328125,0.8690952026367187,0.4477157104492187,7.480916030534351,-30.65648854961832,-18.748091603053435,-9.651026892089844,-0.842758984375,2.0973206542968748,-1.3435114503816794,21.541984732824428,2.7938931297709924,0.0
11.130000591278076,-6.459556079101562,1.0654197387695312,-0.20350714111328125,4.656488549618321,-24.549618320610687,-17.740458015267176,-9.981426721191406,-1.2018892333984375,2.104503259277344,0.48854961832061067,20.625954198473284,3.9389312977099236,0.0
11.140000581741333,-5.705382556152343,2.032677209472656,-0.5722141967773438,3.633587786259542,-16.15267175572519,-17.206106870229007,-9.744400756835937,-1.5849614990234373,1.838746875,2.595419847328244,17.251908396946565,4.213740458015267,0.0
11.150001049041748,-6.375759020996093,2.7916391357421872,-0.7613561279296874,-3.633587786259542,-7.00763358778626,-15.32824427480916,-9.911994873046874,-2.2385785522460937,1.93451494140625,7.00763358778626,15.603053435114504,3.984732824427481,0.0
11.160000562667847,-6.457161877441406,2.8227637573242186,-1.0845733520507812,-10.732824427480915,1.5572519083969465,-11.145038167938932,-10.778695874023438,-3.0166940917968748,2.2266075439453124,13.312977099236642,15.038167938931299,4.656488549618321,0.0
11.170001029968262,-5.983109948730468,2.389413256835937,-1.66636435546875,-18.30534351145038,7.8320610687022905,-7.312977099236641,-9.967061511230469,-2.2649147705078123,1.714248388671875,19.0381679389313,12.610687022900763,2.33587786259542,0.0
11.18000078201294,-6.845022546386718,3.0885201416015624,-1.0414777221679687,-29.61832061068702,17.251908396946565,-6.534351145038168,-9.746794958496093,-1.8339584716796873,1.85790048828125,24.18320610687023,13.16030534351145,2.2290076335877864,0.0
11.190000772476196,-6.2201359130859375,2.0063409912109376,-1.697488977050781,-37.89312977099237,24.702290076335878,-2.6259541984732824,-9.557653027343749,-1.0223241088867188,1.6017209106445311,27.328244274809162,13.17557251908397,3.0839694656488548,0.0
11.200000286102295,-5.394136340332031,0.5506663818359374,-2.166752502441406,-33.63358778625954,37.6793893129771,1.7404580152671756,-9.504980590820312,-0.33518823242187495,1.4604630126953124,26.641221374045802,13.129770992366412,4.595419847328245,0.0
11.21000075340271,-7.252036828613281,3.7014357666015623,-0.8475473876953125,-47.61832061068702,44.152671755725194,2.030534351145038,-9.562441430664062,-0.0383072265625,1.6615759521484375,24.38167938931298,13.389312977099237,5.877862595419847,0.0
11.220000505447388,-4.778826513671874,0.4381389038085937,-1.7549498168945312,-41.099236641221374,54.33587786259542,9.786259541984732,-9.435548742675781,-0.033518823242187495,1.5394716674804687,18.47328244274809,14.061068702290076,6.961832061068702,0.0
11.230000495910645,-4.965574243164062,0.28490999755859375,-0.8762778076171874,-37.37404580152672,72.50381679389314,9.877862595419847,-9.830592016601562,-0.737414111328125,1.7788918334960937,16.366412213740457,15.145038167938932,6.33587786259542,0.0
11.240000247955322,-5.523423229980469,0.44053310546874996,0.05985504150390625,-36.25954198473283,86.29007633587786,7.083969465648855,-9.655815295410155,-0.9624690673828125,1.8818425048828125,15.435114503816793,17.61832061068702,5.083969465648855,0.0
11.250000715255737,-5.992686755371094,-0.41898529052734373,1.2928688964843749,-30.0,99.52671755725191,5.587786259541985,-9.41639512939453,-1.1348515869140625,1.7621324218749999,14.83969465648855,19.114503816793892,3.8473282442748094,0.0
11.260001182556152,-6.143521459960938,-1.7381904052734374,1.8219874633789062,-22.778625954198475,107.93893129770993,4.305343511450381,-9.938331091308592,-1.5466542724609373,1.7717092285156248,17.236641221374047,20.47328244274809,3.267175572519084,0.0
11.270000457763672,-7.503428002929687,-2.003946789550781,3.8666356811523435,-10.564885496183207,117.63358778625954,0.9618320610687023,-9.603142858886718,-1.2425906616210938,1.2401964599609374,16.99236641221374,21.84732824427481,2.5801526717557253,0.0
11.280000925064087,-9.004592443847656,-1.24498486328125,5.846640454101562,1.633587786259542,119.5114503816794,-1.3587786259541985,-8.29351455078125,0.29448680419921874,-0.1580173095703125,9.48091603053435,23.083969465648856,0.21374045801526717,0.0
11.290000438690186,-11.556811413574218,1.5897499023437498,9.325415466308593,9.526717557251908,116.42748091603053,-2.7022900763358777,-10.146626635742187,-0.584185205078125,0.9840168823242187,3.1908396946564888,30.625954198473284,4.961832061068702,0.0
11.3000009059906,-12.631807958984375,2.9544448486328125,11.786654772949218,16.15267175572519,103.09923664122137,-0.2748091603053435,-10.82179150390625,-1.9680337646484374,1.5873557006835937,7.083969465648855,32.51908396946565,10.458015267175572,0.0
11.310000658035278,-14.72912861328125,5.178658190917968,13.065158459472656,22.549618320610687,78.59541984732824,3.0839694656488548,-11.245565197753905,-2.032677209472656,1.62805712890625,18.015267175572518,26.33587786259542,12.213740458015268,0.0
11.320000886917114,-10.68053360595703,1.707065783691406,8.973467822265624,36.87022900763359,58.35114503816794,16.015267175572518,-11.635820068359374,-0.6943184814453125,2.0254946044921875,26.641221374045802,21.923664122137403,12.122137404580153,0.0
11.330000877380371,-14.551957690429687,3.574543078613281,7.46272657470703,34.0763358778626,50.717557251908396,19.862595419847327,-11.226411584472656,-1.0869675537109373,2.7820623291015623,33.80152671755725,15.099236641221374,12.396946564885496,0.0
11.340000867843628,-14.879963317871093,-0.08379705810546874,5.633556506347656,15.526717557251908,36.213740458015266,22.99236641221374,-10.053252770996092,0.20829554443359374,1.4053963745117186,27.954198473282442,10.091603053435115,10.946564885496183,0.0
11.350000381469727,-15.004461804199218,-5.837063647460937,7.481880187988281,19.480916030534353,29.328244274809162,16.793893129770993,-9.689334118652344,0.8714894042968749,1.3766659545898436,15.648854961832061,9.083969465648854,9.86259541984733,0.0
11.360000371932983,-12.734758630371093,-9.710881933593749,8.987833032226561,24.580152671755727,16.702290076335878,-3.5114503816793894,-9.598354455566406,0.06703764648437499,1.5083470458984374,4.809160305343512,12.702290076335878,11.83206106870229,0.0
11.37000060081482,-12.725181823730468,-5.068524914550781,8.722076647949219,36.6412213740458,1.6030534351145038,-23.84732824427481,-9.248801013183593,-0.4740519287109375,0.40222587890625,4.33587786259542,9.312977099236642,12.595419847328245,0.0
11.380000591278076,-12.083535778808592,2.798821740722656,5.197811804199218,51.31297709923664,-8.122137404580153,-25.61832061068702,-9.423577734375,-0.9816226806640624,0.5913678100585937,-0.2900763358778626,10.259541984732824,13.267175572519085,0.0
11.390000581741333,-9.931148486328125,7.850587243652344,1.3239935180664062,52.85496183206107,-9.404580152671755,-14.870229007633588,-9.447519750976562,-1.5131354492187499,0.3758896606445312,-3.8473282442748094,8.870229007633588,14.122137404580153,0.0
11.40000057220459,-6.093243225097656,5.336675500488281,-2.5641899780273434,50.30534351145038,-4.473282442748092,0.10687022900763359,-10.86009873046875,-2.319981408691406,1.2234370483398436,-1.2061068702290076,8.213740458015268,17.419847328244273,0.0
11.410000324249268,-6.059724401855468,3.4739866088867184,-2.2385785522460937,61.083969465648856,15.419847328244275,9.083969465648854,-10.05564697265625,-2.185906115722656,1.3048399047851562,2.595419847328244,2.8702290076335877,18.33587786259542,0.0
11.420000553131104,-6.110002636718749,2.798821740722656,-1.0749965454101562,52.030534351145036,27.435114503816795,12.580152671755725,-10.577582934570312,-1.8842367065429686,1.8315642700195311,5.862595419847328,-1.3435114503816794,18.931297709923665,0.0
11.43000078201294,-7.802703210449218,3.303998291015625,-0.2657563842773437,32.83969465648855,34.87022900763359,12.15267175572519,-10.534487304687499,-0.6560112548828124,1.7477672119140624,5.66412213740458,-7.0534351145038165,18.198473282442748,0.0
11.440000534057617,-8.24802471923828,3.1842882080078123,0.3280056274414062,3.068702290076336,36.717557251908396,11.083969465648854,-9.87608184814453,1.7429788085937499,2.5905261962890624,-9.145038167938932,-7.709923664122138,17.755725190839694,0.0
11.450000762939453,-8.657433203124999,2.4779987182617185,1.4245499877929686,-20.015267175572518,35.51145038167939,9.877862595419847,-9.873687646484374,1.9608511596679685,2.8898014038085935,-21.46564885496183,-10.16793893129771,20.610687022900763,0.0
11.46000051498413,-9.651026892089844,0.4572925170898437,2.051830822753906,-32.80916030534351,33.29770992366412,7.938931297709924,-11.650185278320311,1.2138602416992186,3.9264907226562498,-28.3206106870229,-10.961832061068701,25.083969465648856,0.0
11.470000505447388,-10.532093103027343,-1.1348515869140625,2.6767174560546874,-37.45038167938932,30.290076335877863,5.633587786259542,-12.763489050292968,0.1771709228515625,4.3454760131835934,-29.572519083969464,-18.977099236641223,25.64885496183206,0.0
11.480000257492065,-10.141838232421874,-1.6160861206054686,1.7956512451171873,-35.00763358778626,24.946564885496183,5.6183206106870225,-11.698069311523437,0.16759411621093748,4.541800549316406,-28.229007633587788,-32.50381679389313,24.213740458015266,0.0
11.490000247955322,-10.266336718749999,-1.8746598999023436,-0.23223756103515625,-27.374045801526716,21.6793893129771,5.3893129770992365,-9.363722692871093,2.7964275390625,3.019088293457031,-38.99236641221374,-44.16793893129771,20.900763358778626,0.0
11.500000715255737,-9.457096557617186,-2.0159177978515626,-0.7924807495117187,-25.923664122137403,28.076335877862597,0.6412213740458015,-10.551246716308594,2.0829554443359375,3.7110125732421873,-44.47328244274809,-47.61832061068702,24.564885496183205,0.0
11.510000705718994,-9.028534460449219,-0.8044517578125,-1.4053963745117186,-18.977099236641223,30.85496183206107,-5.3893129770992365,-9.804255798339844,1.5634136840820312,2.1906945190429687,-46.74809160305343,-56.06106870229008,24.519083969465647,0.0
11.520000696182251,-8.303091357421874,-0.8762778076171874,-1.4939818359375,-7.877862595419847,36.10687022900763,-6.076335877862595,-9.603142858886718,1.37906015625,1.1348515869140625,-54.595419847328245,-56.94656488549618,24.65648854961832,0.0
11.530000925064087,-9.911994873046874,0.679953271484375,-0.36631285400390623,-3.480916030534351,41.267175572519086,-5.893129770992366,-10.500968481445312,0.17477672119140625,1.3144167114257812,-52.06106870229008,-52.94656488549618,26.48854961832061,0.0
11.540001153945923,-9.926360083007811,0.15083470458984374,0.05746083984375,-4.320610687022901,41.87786259541985,-6.595419847328245,-10.429142431640624,-0.86191259765625,0.4333505004882812,-39.20610687022901,-55.603053435114504,26.091603053435115,0.0
11.5500009059906,-10.175357055664062,0.6248866333007812,0.852335791015625,-5.068702290076335,39.404580152671755,-8.076335877862595,-8.8872765625,0.5003881469726562,-1.5370774658203123,-34.534351145038165,-57.45038167938932,20.15267175572519,0.0
11.560000896453857,-9.042899670410156,-0.5578489868164063,2.2194249389648437,-4.442748091603053,32.25954198473283,-9.312977099236642,-9.030928662109375,0.23702596435546874,-1.7645266235351562,-34.717557251908396,-50.152671755725194,19.419847328244273,0.0
11.570000648498535,-10.022128149414062,2.214636535644531,0.6775590698242188,-8.244274809160306,31.236641221374047,-4.229007633587786,-9.272743029785156,0.040701428222656245,-2.85388837890625,-29.00763358778626,-42.33587786259542,18.229007633587788,0.0
11.580000877380371,-9.533711010742186,1.905784521484375,0.4908113403320312,-9.083969465648854,24.870229007633586,-2.3053435114503817,-9.871293444824218,-0.21068974609375,-1.8842367065429686,-21.893129770992367,-33.038167938931295,16.83969465648855,0.0
11.59000039100647,-11.142614526367186,2.0278888061523435,0.8092401611328125,-10.961832061068701,21.64885496183206,-2.4427480916030535,-9.720458740234374,-0.3399766357421875,-1.6639701538085936,-17.389312977099237,-25.984732824427482,14.0,0.0
11.600000619888306,-10.86009873046875,2.1691467041015624,0.7110778930664062,-9.84732824427481,16.0,-2.2900763358778624,-10.17056865234375,0.5889736083984375,-2.0661960327148434,-13.32824427480916,-19.46564885496183,10.67175572519084,0.0
11.610000610351562,-9.706093530273437,2.0302830078125,0.70868369140625,-6.793893129770993,15.16030534351145,-2.2442748091603053,-10.417171423339843,-0.35194764404296874,-0.6488286499023437,-11.648854961832061,-11.312977099236642,10.229007633587786,0.0
11.62000060081482,-9.574412438964844,1.886630908203125,0.5674257934570313,-8.427480916030534,10.366412213740459,-0.9618320610687023,-10.450690246582031,-0.852335791015625,0.36152445068359373,-6.442748091603053,-5.984732824427481,9.389312977099237,0.0
11.630000591278076,-10.268730920410155,1.936909143066406,0.6009446166992187,-2.717557251908397,10.473282442748092,-0.5954198473282443,-9.816226806640625,-0.9552864624023437,0.2753331909179687,2.8244274809160306,-6.625954198473282,5.679389312977099,0.0
11.640000581741333,-10.199299072265624,2.128445275878906,0.86191259765625,-2.381679389312977,8.961832061068701,-0.5343511450381679,-10.568006127929687,-1.8722656982421875,1.637633935546875,14.702290076335878,-3.877862595419847,4.0,0.0
11.65000033378601,-9.91438907470703,1.89620771484375,0.6823474731445313,-1.3129770992366412,7.4961832061068705,-0.3053435114503817,-9.490615380859374,-1.16837041015625,0.5243301635742187,32.396946564885496,-14.030534351145038,-2.900763358778626,0.0
11.660000562667847,-9.8449572265625,1.7788918334960937,0.055066638183593745,-0.6259541984732825,7.603053435114504,0.2748091603053435,-10.565611926269531,-0.009576806640625,1.9297265380859374,37.61832061068702,-13.267175572519085,-6.854961832061068,0.0
11.670000314712524,-9.694122521972655,1.3838485595703125,0.02633621826171875,-5.679389312977099,7.3893129770992365,0.6259541984732825,-9.414000927734374,-0.33758243408203126,1.956062756347656,45.19083969465649,-19.297709923664122,-8.763358778625955,0.0
11.68000078201294,-9.497797985839844,0.7733271362304687,-0.14604630126953125,-6.732824427480916,7.221374045801527,-0.7022900763358778,-9.76116016845703,0.5219359619140624,2.2936451904296873,53.57251908396947,-23.87786259541985,-9.938931297709924,0.0
11.690001010894775,-9.1554271484375,0.4525041137695312,-0.25139117431640623,-5.603053435114504,8.396946564885496,-0.9618320610687023,-9.782707983398437,1.0654197387695312,2.4660277099609376,52.961832061068705,-26.442748091603054,-12.564885496183207,0.0
11.700000524520874,-9.617508068847656,0.6823474731445313,-0.1197100830078125,-6.778625954198473,8.83969465648855,-2.183206106870229,-9.366116894531249,1.5586252807617187,2.2385785522460937,45.14503816793893,-25.419847328244273,-13.893129770992367,0.0
11.71000075340271,-9.550470422363281,1.369483349609375,0.03591302490234375,-8.091603053435115,10.473282442748092,-1.465648854961832,-7.943961108398437,2.109291662597656,1.3646949462890625,31.96946564885496,-25.16030534351145,-13.17557251908397,0.0
11.720000743865967,-9.852139831542969,1.2593500732421874,-0.1005564697265625,-12.15267175572519,10.366412213740459,0.061068702290076333,-9.95987890625,0.3232172241210937,3.5960908935546874,28.061068702290076,-16.564885496183205,-8.259541984732824,0.0
11.730000495910645,-9.181763366699219,1.1827356201171875,-0.5315127685546874,-9.129770992366412,10.83969465648855,1.3893129770992367,-9.114725720214842,-0.8355763793945312,2.243366955566406,30.641221374045802,-23.17557251908397,-9.893129770992367,0.0
11.740000486373901,-9.744400756835937,1.6017209106445311,-0.5051765502929687,-8.916030534351146,12.458015267175572,2.5801526717557253,-9.775525378417969,-0.13168109130859373,2.961627453613281,36.35114503816794,-27.00763358778626,-12.15267175572519,0.0
11.750000476837158,-8.951920007324219,2.2385785522460937,-0.9911994873046874,-10.091603053435115,14.641221374045802,3.984732824427481,-8.24802471923828,1.465251416015625,1.438915197753906,33.98473282442748,-33.14503816793893,-15.770992366412214,0.0
11.760000467300415,-9.495403784179686,3.1028853515624997,-0.5267243652343749,-16.53435114503817,16.763358778625953,5.358778625954199,-7.979874133300781,3.0933085449218747,2.085349645996094,24.38167938931298,-29.022900763358777,-14.473282442748092,0.0
11.770000696182251,-9.445125549316407,2.5953145996093747,-0.20350714111328125,-23.893129770992367,18.061068702290076,8.030534351145038,-9.313444458007812,2.9759926635742184,2.9376854370117185,12.564885496183207,-21.374045801526716,-9.312977099236642,0.0
11.780000448226929,-9.066841687011719,0.40222587890625,-0.11731588134765625,-23.938931297709924,18.076335877862597,10.381679389312977,-8.456320263671875,1.5418658691406248,2.4660277099609376,4.33587786259542,-23.435114503816795,-7.145038167938932,0.0
11.790000677108765,-11.0707884765625,0.6296750366210937,1.2880804931640624,-13.725190839694656,25.923664122137403,6.99236641221374,-8.726865051269531,0.7541735229492187,2.090138049316406,0.8396946564885496,-24.671755725190838,-8.045801526717558,0.0
11.800000667572021,-12.054805358886718,2.6144682128906247,2.142810485839844,-24.27480916030534,22.99236641221374,4.198473282442748,-9.220070593261719,2.0159177978515626,2.1212626708984375,-3.3282442748091605,-24.35114503816794,-10.641221374045802,0.0
11.810000658035278,-10.151415039062499,0.8978256225585937,1.0366893188476562,-27.236641221374047,18.16793893129771,5.4961832061068705,-8.348581188964843,2.1811177124023438,1.2593500732421874,-10.366412213740459,-24.625954198473284,-10.732824427480915,0.0
11.820001125335693,-11.228805786132812,2.683900061035156,1.7860744384765623,-38.030534351145036,16.946564885496183,3.114503816793893,-8.461108666992187,2.0278888061523435,1.4413093994140624,-18.213740458015266,-20.732824427480917,-9.419847328244275,0.0
11.830000400543213,-9.318232861328125,-0.3232172241210937,0.5386953735351562,-26.366412213740457,16.259541984732824,4.366412213740458,-9.282319836425781,0.9050082275390624,2.2002713256835937,-23.770992366412212,-14.51908396946565,-7.358778625954199,0.0
11.840000629425049,-9.476250170898437,0.7038952880859375,0.8882488159179687,-25.87786259541985,15.83206106870229,1.6946564885496183,-9.081206896972656,0.7015010864257812,1.8818425048828125,-24.793893129770993,-13.954198473282442,-8.229007633587786,0.0
11.850000381469727,-8.798691101074219,1.2234370483398436,1.2330138549804688,-24.732824427480917,11.816793893129772,0.24427480916030533,-9.37808790283203,0.5530605834960938,2.3319524169921872,-23.389312977099237,-12.717557251908397,-9.16030534351145,0.0
11.860000610351562,-10.04846436767578,1.5466542724609373,2.118868469238281,-20.99236641221374,9.435114503816793,-0.030534351145038167,-8.693346228027343,0.8020575561523438,1.7118541870117185,-23.587786259541986,-13.053435114503817,-9.557251908396946,0.0
11.87000060081482,-9.794678991699218,1.2042834350585936,2.051830822753906,-14.977099236641221,6.717557251908397,0.7175572519083969,-9.17458076171875,0.14125789794921875,2.0925322509765625,-19.984732824427482,-10.946564885496183,-9.053435114503817,0.0
11.880000591278076,-10.81460889892578,1.8171990600585937,2.5761609863281247,-12.106870229007633,3.8931297709923665,1.251908396946565,-8.623914379882812,-0.21068974609375,1.5729904907226562,-17.96946564885496,-10.427480916030534,-10.50381679389313,0.0
11.890000581741333,-10.982203015136719,1.1228805786132812,2.6862942626953124,-6.320610687022901,0.8702290076335878,2.351145038167939,-9.354145886230468,-1.180341418457031,2.269703173828125,-10.717557251908397,-8.412213740458014,-10.961832061068701,0.0
11.90000057220459,-10.297461340332031,0.26815058593749996,1.9704279663085937,-2.030534351145038,-2.6564885496183206,2.1374045801526718,-9.423577734375,-1.3862427612304686,2.403778466796875,-2.427480916030534,-7.129770992366412,-12.992366412213741,0.0
11.910000801086426,-9.945513696289062,0.28730419921875,1.0342951171875,-0.24427480916030533,-4.183206106870229,-1.251908396946565,-8.674192614746094,-0.8379705810546875,1.956062756347656,4.091603053435114,-7.648854961832061,-15.312977099236642,0.0
11.920000553131104,-9.497797985839844,0.46208092041015625,0.3687070556640625,3.5419847328244276,-3.8931297709923665,-4.259541984732825,-9.442731347656249,-0.5674257934570313,2.5522189697265625,12.01526717557252,-6.412213740458015,-16.045801526717558,0.0
11.93000078201294,-9.169792358398437,1.0199299072265624,-0.0526724365234375,7.648854961832061,-3.145038167938931,-4.870229007633588,-9.325415466308593,-0.06703764648437499,2.8275521606445313,16.16793893129771,-4.748091603053435,-16.47328244274809,0.0
11.940000295639038,-9.275137231445312,1.3742717529296875,0.0143652099609375,9.694656488549619,-2.4580152671755724,-5.129770992366412,-9.315838659667968,0.24899697265624998,3.086125939941406,17.572519083969464,-3.66412213740458,-15.801526717557252,0.0
11.950000762939453,-10.280701928710936,1.7525556152343749,0.5865794067382812,7.679389312977099,-3.3893129770992365,-5.66412213740458,-9.440337145996093,0.4333505004882812,3.2824504760742186,19.068702290076335,-4.320610687022901,-15.053435114503817,0.0
11.96000075340271,-10.000580334472655,1.3958195678710936,0.6057330200195312,10.992366412213741,-3.5572519083969465,-5.129770992366412,-8.508992700195313,0.5578489868164063,3.1387983764648437,18.198473282442748,-6.229007633587786,-14.488549618320612,0.0
11.970000505447388,-9.6151138671875,1.1085153686523437,0.8092401611328125,11.557251908396946,-4.091603053435114,-5.068702290076335,-9.066841687011719,0.1197100830078125,3.3446997192382812,17.34351145038168,-5.0534351145038165,-14.763358778625955,0.0
11.980000495910645,-9.473855969238281,1.216254443359375,1.024718310546875,13.465648854961833,-4.8396946564885495,-5.541984732824427,-8.683769421386717,0.39264907226562495,2.9759926635742184,14.412213740458014,-5.083969465648855,-16.061068702290076,0.0
11.990000247955322,-10.299855541992187,2.1691467041015624,1.0797849487304687,9.694656488549619,-6.305343511450381,-6.290076335877862,-8.458714465332031,0.5291185668945312,2.70065947265625,13.129770992366412,-3.7404580152671754,-16.03053435114504,0.0
12.000000476837158,-9.866505041503906,1.2856862915039062,0.9169792358398436,11.954198473282442,-7.3893129770992365,-5.603053435114504,-8.497021691894531,0.5530605834960938,2.741360900878906,12.335877862595419,-3.282442748091603,-15.587786259541986,0.0
12.010000467300415,-9.739612353515625,1.2330138549804688,0.8116343627929687,11.511450381679388,-7.66412213740458,-6.152671755725191,-8.566453540039062,0.8092401611328125,2.6719290527343746,10.916030534351146,-2.763358778625954,-14.992366412213741,0.0
12.020000696182251,-9.694122521972655,1.0821791503906248,0.6057330200195312,9.251908396946565,-8.610687022900763,-7.435114503816794,-8.497021691894531,0.7709329345703124,2.6431986328124997,8.366412213740459,-1.5419847328244274,-14.534351145038167,0.0
12.030000925064087,-10.527304699707031,2.4013842651367185,1.2665326782226562,4.3816793893129775,-8.16793893129771,-9.740458015267176,-8.52335791015625,0.9361328491210937,2.365471240234375,4.351145038167939,-0.4732824427480916,-14.366412213740459,0.0
12.040000438690186,-9.481038574218749,2.877830395507812,0.622492431640625,-10.65648854961832,-17.419847328244273,-7.6183206106870225,-8.518569506835936,1.005564697265625,1.9943699829101562,-0.13740458015267176,0.48854961832061067,-13.755725190839694,0.0
12.0500009059906,-10.340556970214843,1.3263877197265623,1.0773907470703123,-10.412213740458014,-16.53435114503817,-6.259541984732825,-8.379705810546875,0.8738836059570312,1.7405846069335937,-4.549618320610687,1.816793893129771,-12.65648854961832,0.0
12.060000896453857,-8.350975390624999,1.0893617553710937,1.1372457885742187,-6.687022900763359,-18.549618320610687,-5.251908396946565,-8.166621862792969,0.40222587890625,1.6998831787109374,-7.419847328244275,3.954198473282443,-12.625954198473282,0.0
12.070000648498535,-9.212887988281249,0.814028564453125,1.8315642700195311,-7.358778625954199,-21.221374045801525,-8.01526717557252,-8.410830432128906,-0.11013327636718749,1.8052280517578123,-5.709923664122138,5.145038167938932,-12.335877862595419,0.0
12.08000111579895,-7.687781530761718,0.229843359375,2.8610709838867185,0.48854961832061067,-22.48854961832061,-8.366412213740459,-8.386888415527343,-0.39264907226562495,1.9512743530273435,-2.2748091603053435,5.374045801526718,-11.49618320610687,0.0
12.090000629425049,-8.358157995605469,2.068590234375,3.268085266113281,3.5114503816793894,-21.221374045801525,-11.816793893129772,-7.706935144042968,-0.33518823242187495,1.7334020019531249,1.1450381679389312,4.549618320610687,-12.183206106870228,0.0
12.100000619888306,-9.56962403564453,2.4756045166015626,2.9664158569335934,-2.3969465648854964,-26.412213740458014,-10.595419847328245,-7.864952453613281,-0.38786066894531246,2.0254946044921875,6.0458015267175576,4.366412213740458,-11.816793893129772,0.0
12.110000610351562,-9.047688073730468,1.8339584716796873,3.399766357421875,0.6106870229007634,-27.893129770992367,-6.0458015267175576,-8.13310303955078,-0.32561142578124996,2.4061726684570313,9.099236641221374,3.4656488549618323,-11.679389312977099,0.0
12.12000060081482,-9.974244116210937,1.7669208251953124,2.7341782958984373,1.1603053435114503,-30.625954198473284,-5.038167938931298,-7.3549875,0.5865794067382812,1.8650830932617186,6.977099236641221,1.6946564885496183,-13.114503816793894,0.0
12.130000352859497,-10.769119067382812,1.0438719238281249,2.3511060302734372,-3.114503816793893,-30.82442748091603,-6.473282442748092,-8.238447912597655,0.4644751220703125,2.6408044311523438,5.068702290076335,4.1679389312977095,-12.213740458015268,0.0
12.140000820159912,-8.947131604003905,0.5626373901367188,1.9895815795898437,-0.7938931297709924,-29.770992366412212,-6.809160305343512,-7.606378674316406,1.005564697265625,2.2673089721679687,-2.9923664122137406,5.297709923664122,-12.381679389312977,0.0
12.15000057220459,-9.490615380859374,0.36631285400390623,1.13006318359375,1.3893129770992367,-25.801526717557252,-9.664122137404581,-9.009380847167968,-0.21308394775390624,3.028665100097656,0.6106870229007634,5.206106870229007,-9.923664122137405,0.0
12.160000562667847,-7.807491613769531,-0.9959878906249999,0.5051765502929687,10.702290076335878,-21.770992366412212,-13.419847328244275,-7.7979148071289055,0.6967126831054687,2.568978381347656,-5.709923664122138,3.1297709923664123,-11.374045801526718,0.0
12.170000791549683,-8.427589843749999,0.2705447875976562,1.2976572998046874,10.122137404580153,-17.96946564885496,-18.671755725190838,-8.118737829589843,0.7829039428710937,2.568978381347656,-8.65648854961832,4.3816793893129775,-11.007633587786259,0.0
12.18000054359436,-9.038111267089842,1.0989385620117187,2.114080065917969,10.625954198473282,-19.557251908396946,-21.206106870229007,-8.125920434570313,0.6464344482421874,2.4492682983398435,-15.236641221374045,4.763358778625954,-9.725190839694656,0.0
12.190000772476196,-8.856151940917968,1.3455413330078123,2.916137622070312,12.274809160305344,-22.68702290076336,-21.49618320610687,-7.295132458496093,1.47482822265625,1.8722656982421875,-24.595419847328245,4.427480916030534,-9.236641221374045,0.0
12.200000524520874,-9.418789331054686,3.0621839233398433,3.687070556640625,6.351145038167939,-29.129770992366414,-21.14503816793893,-7.884106066894531,1.6017209106445311,2.645592834472656,-40.656488549618324,14.030534351145038,-7.068702290076335,0.0
12.21000075340271,-8.695740429687499,3.845087866210937,3.23696064453125,5.374045801526718,-35.05343511450382,-18.625954198473284,-6.337451794433593,0.3136404174804687,1.927332336425781,-41.14503816793893,13.709923664122137,-3.1908396946564888,0.0
12.220000267028809,-6.069301208496094,3.5122938354492184,2.2864625854492187,2.122137404580153,-45.17557251908397,-14.641221374045802,-7.864952453613281,-0.4213794921875,2.5713725830078125,-37.9236641221374,16.412213740458014,-0.5801526717557252,0.0
12.230000495910645,-5.588066674804687,3.3877953491210935,2.4588451049804685,-1.4198473282442747,-50.61068702290076,-11.557251908396946,-5.109226342773437,-0.143652099609375,-0.3447650390625,-35.80152671755725,13.32824427480916,-1.465648854961832,0.0
12.240000486373901,-5.729324572753906,2.2481553588867187,2.4899697265625,-4.854961832061068,-52.61068702290076,-9.099236641221374,-7.319074475097656,-1.005564697265625,0.8020575561523438,-26.061068702290076,21.221374045801525,-1.0687022900763359,0.0
12.250000476837158,-6.339845996093749,2.128445275878906,2.5570073730468748,-5.847328244274809,-57.45038167938932,-7.877862595419847,-10.022128149414062,-1.0414777221679687,2.8898014038085935,-6.5038167938931295,25.633587786259543,-0.33587786259541985,0.0
12.260000705718994,-6.2584431396484375,0.6943184814453125,2.7940333374023436,-1.9236641221374047,-62.88549618320611,-7.3893129770992365,-9.112331518554686,1.9321207397460936,2.6815058593749996,5.00763358778626,15.206106870229007,-4.656488549618321,0.0
12.270000696182251,-7.273584643554687,-0.009576806640625,4.060566015625,0.33587786259541985,-64.99236641221374,-8.625954198473282,-11.738770739746093,2.8227637573242186,6.169857678222656,5.923664122137405,16.99236641221374,-5.755725190839694,0.0
12.280000925064087,-8.109161022949218,-1.4772224243164063,4.805162731933594,12.580152671755725,-71.95419847328245,-7.770992366412214,-14.858415502929686,3.0837317382812497,7.436390356445312,2.717557251908397,14.076335877862595,-5.541984732824427,0.0
12.290000677108765,-9.33978067626953,-2.5546131713867184,6.160280871582031,34.19847328244275,-78.50381679389314,-6.793893129770993,-17.915811022949217,2.5570073730468748,7.338228088378906,-2.2900763358778624,4.549618320610687,-4.778625954198473,0.0
12.3000009059906,-12.694057202148437,-2.2744915771484373,7.68059892578125,58.85496183206107,-85.61832061068702,-6.061068702290076,-18.30367169189453,1.0582371337890624,6.782773303222656,-10.0,-9.664122137404581,-3.8625954198473282,0.0
12.310000658035278,-18.41380496826172,0.5027823486328125,9.821015209960937,80.59541984732824,-95.43511450381679,-3.49618320610687,-19.405004455566406,-0.7829039428710937,5.846640454101562,-7.969465648854962,-19.16030534351145,2.717557251908397,0.0
12.320000886917114,-20.944476123046872,-0.8643067993164062,9.560047229003906,112.79389312977099,-112.21374045801527,10.488549618320612,-17.082628845214842,0.47644613037109373,3.114856359863281,-14.122137404580153,-26.366412213740457,10.946564885496183,0.0
12.330000638961792,-24.15749475097656,1.139639990234375,8.571241943359375,128.36641221374046,-119.1145038167939,19.129770992366414,-14.525621472167968,0.6727706665039062,1.3383587280273437,-22.229007633587788,-26.53435114503817,20.091603053435115,0.0
12.340000867843628,-24.72731474609375,2.722207287597656,5.628768103027343,119.8473282442748,-135.87786259541986,24.53435114503817,-9.325415466308593,0.37828386230468747,-2.932897033691406,-33.267175572519086,-26.137404580152673,22.396946564885496,0.0
12.350000619888306,-24.964340710449218,5.5449710449218745,2.8107927490234372,94.67175572519083,-147.16030534351145,28.732824427480917,-10.105925207519531,-4.817133740234374,-1.5562310791015623,-39.00763358778626,-10.13740458015267,22.702290076335878,0.0
12.360000371932983,-20.618864697265625,5.051765502929687,1.4939818359375,66.21374045801527,-155.34351145038167,35.11450381679389,-9.239224206542968,-7.280767248535156,-3.6942531616210936,-23.19083969465649,-9.038167938931299,15.618320610687023,0.0
12.37000060081482,-17.80088934326172,4.266467358398438,1.4963760375976562,51.87786259541985,-148.7175572519084,39.86259541984733,-9.83777462158203,-7.888894470214844,-3.421314172363281,-14.580152671755725,1.3435114503816794,6.076335877862595,0.0
12.380000591278076,-14.195221643066406,3.095702746582031,1.8004396484374998,33.86259541984733,-139.16030534351145,42.13740458015267,-10.527304699707031,-7.070077502441406,-2.8036101440429686,-1.2671755725190839,11.572519083969466,-0.3511450381679389,0.0
12.390000343322754,-9.809044201660155,-0.5315127685546874,0.7350199096679687,28.38167938931298,-124.54961832061069,44.29007633587786,-10.488997473144531,-6.349422802734375,-2.0278888061523435,10.50381679389313,17.83206106870229,-4.458015267175573,0.0
12.400000810623169,-7.436390356445312,-2.013523596191406,-0.258573779296875,30.702290076335878,-103.95419847328245,40.01526717557252,-9.18655177001953,-4.434061474609375,-1.85790048828125,16.229007633587788,26.763358778625953,-9.16030534351145,0.0
12.410000801086426,-6.0525417968749995,-1.687912170410156,-0.5865794067382812,32.62595419847328,-81.2824427480916,36.67175572519084,-10.714052429199219,-3.5194764404296874,0.19632453613281248,27.297709923664122,37.86259541984733,-7.694656488549619,0.0
12.420000553131104,-5.224148022460938,-1.599326708984375,-0.8116343627929687,25.81679389312977,-58.62595419847328,33.7557251908397,-8.396465222167969,-1.924938134765625,-1.4149731811523436,35.20610687022901,34.6412213740458,-6.320610687022901,0.0
12.43000078201294,-3.6200329101562496,-3.35188232421875,-1.0749965454101562,22.290076335877863,-38.50381679389313,31.740458015267176,-7.8721350585937495,0.16519991455078123,-0.718260498046875,34.97709923664122,38.67175572519084,-3.5877862595419847,0.0
12.440000534057617,-7.71890615234375,0.9169792358398436,1.1252747802734375,-0.48854961832061067,-19.709923664122137,24.33587786259542,-7.81467421875,1.5035586425781249,-0.15322890625,28.595419847328245,42.06106870229008,0.32061068702290074,0.0
12.450000762939453,-8.303091357421874,-1.2114660400390624,1.47482822265625,-21.603053435114504,-14.396946564885496,27.328244274809162,-8.257601525878906,1.6328455322265625,0.689530078125,11.633587786259541,48.82442748091603,5.404580152671755,0.0
12.46000051498413,-7.3932947265625,-3.239354846191406,1.0366893188476562,-32.68702290076336,-13.267175572519085,24.015267175572518,-10.946289990234375,-0.2825157958984375,2.3774422485351563,7.221374045801527,49.12977099236641,11.450381679389313,0.0
12.470000505447388,-6.0333881835937495,-4.223371728515625,0.8116343627929687,-22.946564885496183,-9.053435114503817,14.076335877862595,-10.594342346191405,-0.5961562133789062,1.898601916503906,9.16030534351145,39.32824427480916,9.312977099236642,0.0
12.480000495910645,-7.48906279296875,-1.1133037719726562,1.3311761230468748,-26.85496183206107,-8.213740458015268,5.770992366412214,-9.72285294189453,0.9959878906249999,2.89219560546875,1.3129770992366412,38.36641221374046,5.679389312977099,0.0
12.490000486373901,-6.009446166992187,-1.2952630981445312,0.4070142822265625,-29.541984732824428,-8.0,2.7480916030534353,-9.957484704589843,1.1420341918945311,3.4332851806640625,-13.664122137404581,39.20610687022901,6.763358778625954,0.0
12.500000476837158,-6.701370446777343,-0.06703764648437499,1.1659762084960936,-37.954198473282446,-3.0229007633587788,-2.8702290076335877,-9.004592443847656,0.8954314208984374,3.086125939941406,-23.450381679389313,34.56488549618321,7.7251908396946565,0.0
12.510000705718994,-6.574477758789062,-1.5179238525390624,0.32561142578124996,-39.099236641221374,-1.5877862595419847,-4.183206106870229,-9.514557397460937,0.3016694091796875,2.916137622070312,-23.236641221374047,27.297709923664122,8.885496183206106,0.0
12.520000696182251,-5.4707507934570305,-1.388636962890625,0.18914193115234373,-30.50381679389313,8.305343511450381,-6.122137404580153,-9.126696728515624,0.0909796630859375,2.9568390502929685,-28.16793893129771,24.80916030534351,6.824427480916031,0.0
12.530000686645508,-5.849034655761718,0.15562310791015624,0.6248866333007812,-35.6793893129771,12.427480916030534,-8.580152671755725,-9.334992272949219,-0.201112939453125,3.172317199707031,-27.282442748091604,23.480916030534353,5.923664122137405,0.0
12.540000915527344,-6.311115576171875,1.3263877197265623,1.0486603271484374,-42.94656488549618,15.083969465648854,-9.908396946564885,-9.258377819824219,-0.8571241943359375,2.5474305664062498,-27.328244274809162,19.81679389312977,5.4961832061068705,0.0
12.550000667572021,-4.460397692871093,-0.5003881469726562,-0.3854664672851562,-47.786259541984734,11.221374045801527,-8.458015267175572,-9.710881933593749,-1.3287819213867187,2.559401574707031,-22.091603053435115,18.641221374045802,6.183206106870229,0.0
12.560000896453857,-4.311957189941406,-0.2657563842773437,-0.18914193115234373,-39.16030534351145,23.755725190839694,-11.038167938931299,-10.314220751953124,-2.8131869506835936,3.1579519897460937,-11.17557251908397,18.641221374045802,6.625954198473282,0.0
12.570000886917114,-5.633556506347656,0.7015010864257812,-0.08858546142578125,-39.98473282442748,27.358778625954198,-12.916030534351146,-11.161768139648437,-3.2441432495117186,2.6815058593749996,10.610687022900763,14.961832061068701,6.458015267175573,0.0
12.580000877380371,-4.264073156738281,-0.5386953735351562,-0.9361328491210937,-21.862595419847327,37.38931297709924,-9.236641221374045,-8.66940421142578,-2.528276953125,1.4867992309570313,19.34351145038168,8.091603053435115,2.7480916030534353,0.0
12.590000629425049,-8.980650427246093,3.1483751831054687,1.8267758666992187,-24.442748091603054,51.17557251908397,-11.786259541984732,-8.846575134277343,-0.86191259765625,0.7422025146484375,27.84732824427481,7.557251908396947,0.22900763358778625,0.0
12.600000619888306,-3.7924154296875,0.7158662963867187,-0.44053310546874996,-15.374045801526718,46.152671755725194,-2.763358778625954,-9.052476477050782,-1.1085153686523437,2.128445275878906,27.389312977099237,13.603053435114504,1.9694656488549618,0.0
12.610000610351562,-2.70065947265625,0.8044517578125,-0.1388636962890625,-1.633587786259542,63.541984732824424,-2.4580152671755724,-8.896853369140624,-0.4165910888671875,1.9632453613281249,22.82442748091603,17.46564885496183,2.0,0.0
12.62000060081482,-3.294421484375,1.0366893188476562,0.181959326171875,4.717557251908397,72.76335877862596,-3.7709923664122136,-10.836156713867187,-2.7533319091796873,3.6080619018554687,36.01526717557252,20.366412213740457,7.083969465648855,0.0
12.630000591278076,-4.223371728515625,1.2234370483398436,0.7230489013671875,14.213740458015268,84.82442748091603,-3.984732824427481,-10.436325036621094,-2.128445275878906,2.6862942626953124,43.38931297709924,16.641221374045802,6.122137404580153,0.0
12.640000343322754,-6.4475850708007805,2.849099975585937,1.5251064575195312,12.229007633587786,91.83206106870229,-3.2061068702290076,-10.225635290527343,-0.9074024291992187,2.5665841796874997,47.23664122137404,12.763358778625955,3.435114503816794,0.0
12.65000033378601,-5.983109948730468,0.469263525390625,0.040701428222656245,-0.9007633587786259,92.54961832061069,2.717557251908397,-9.062053283691405,0.7517793212890624,1.5586252807617187,37.770992366412216,10.442748091603054,1.1145038167938932,0.0
12.660000801086426,-7.433996154785156,2.3247698120117186,0.6296750366210937,-14.381679389312977,106.90076335877863,-2.7786259541984735,-10.544064111328124,0.5578489868164063,2.959233251953125,29.66412213740458,15.34351145038168,3.2519083969465647,0.0
12.670001029968262,-8.626308581542968,0.5961562133789062,2.1930887207031247,-50.58015267175573,104.7175572519084,-8.274809160305344,-10.225635290527343,1.1827356201171875,2.118868469238281,21.51145038167939,12.900763358778626,3.8931297709923665,0.0
12.680000305175781,-11.3772462890625,-4.53940634765625,10.342951171874999,-54.3206106870229,98.82442748091603,-8.122137404580153,-10.117896215820313,1.1228805786132812,1.139639990234375,9.893129770992367,11.312977099236642,6.076335877862595,0.0
12.690001010894775,-15.404293481445311,-6.45476767578125,19.46485949707031,3.5877862595419847,87.46564885496183,-1.7099236641221374,-10.91037696533203,0.4908113403320312,2.205059729003906,2.946564885496183,10.961832061068701,10.366412213740459,0.0
12.700000524520874,-16.780959436035154,2.1643583007812497,12.145785021972655,59.9236641221374,74.1526717557252,7.358778625954199,-12.263100903320312,-0.028730419921875,1.9536685546875,-0.015267175572519083,3.5572519083969465,14.610687022900763,0.0
12.71000075340271,-19.539079748535155,9.751583361816406,6.042964990234375,41.083969465648856,58.35114503816794,11.511450381679388,-10.599130749511717,1.70467158203125,0.32561142578124996,-12.305343511450381,-3.0229007633587788,16.015267175572518,0.0
12.720000505447388,-20.930110913085937,6.730100866699218,6.382941625976562,-1.4809160305343512,44.88549618320611,18.045801526717558,-10.39322940673828,0.7924807495117187,1.0845733520507812,-30.427480916030536,-1.450381679389313,23.34351145038168,0.0
12.730000257492065,-17.293318591308594,-1.2282254516601563,6.710947253417968,-14.717557251908397,25.923664122137403,13.740458015267176,-10.412383020019531,-1.1731588134765625,1.2856862915039062,-34.48854961832061,-6.702290076335878,26.03053435114504,0.0
12.740000486373901,-13.378798876953125,-2.0446482177734375,4.493916516113281,2.7022900763358777,21.938931297709924,7.221374045801527,-10.510545288085936,-2.0566192260742184,2.0829554443359375,-37.908396946564885,-6.793893129770993,24.977099236641223,0.0
12.750000476837158,-6.756437084960937,-3.6583401367187496,-0.9337386474609375,11.603053435114504,23.251908396946565,0.33587786259541985,-10.271125122070313,-1.1156979736328125,2.2960393920898436,-38.48854961832061,-9.236641221374045,22.916030534351144,0.0
12.760000705718994,-6.83783994140625,-1.9728221679687499,-2.346317626953125,11.557251908396946,37.725190839694655,-8.198473282442748,-10.881646545410156,-0.8906430175781249,2.942473840332031,-34.94656488549618,-11.450381679389313,23.267175572519083,0.0
12.770000696182251,-6.816292126464844,-2.1739351074218747,-2.96881005859375,21.435114503816795,51.06870229007634,-10.625954198473282,-10.778695874023438,-0.0718260498046875,2.4875755249023435,-36.091603053435115,-14.381679389312977,22.015267175572518,0.0
12.780000925064087,-7.788338000488281,-2.808398547363281,-1.7788918334960937,27.984732824427482,66.50381679389314,-13.954198473282442,-10.778695874023438,0.44532150878906246,1.448492004394531,-37.16030534351145,-16.610687022900763,19.587786259541986,0.0
12.790000677108765,-9.457096557617186,-0.24660277099609373,-0.6847416748046875,28.610687022900763,78.54961832061069,-19.893129770992367,-11.259930407714844,-0.27293898925781246,1.4173673828125,-32.30534351145038,-17.282442748091604,19.84732824427481,0.0
12.800000667572021,-9.313444458007812,2.0374656127929685,-0.33758243408203126,19.16030534351145,81.05343511450381,-21.938931297709924,-9.411606726074218,0.19871873779296872,-0.6177040283203125,-31.206106870229007,-24.259541984732824,17.862595419847327,0.0
12.810000658035278,-10.534487304687499,4.314351391601562,1.7453730102539062,7.3893129770992365,83.12977099236642,-19.770992366412212,-9.718064538574218,0.01915361328125,-0.009576806640625,-30.595419847328245,-17.770992366412212,19.72519083969466,0.0
12.820000886917114,-9.694122521972655,5.013458276367187,2.0302830078125,-8.931297709923664,78.70229007633588,-14.366412213740459,-9.169792358398437,-0.5291185668945312,-0.41898529052734373,-29.893129770992367,-14.198473282442748,21.83206106870229,0.0
12.830000400543213,-9.868899243164062,4.678270043945313,2.4564509033203126,-25.083969465648856,74.8854961832061,-9.954198473282442,-8.722076647949219,-0.9552864624023437,-0.4429273071289062,-26.53435114503817,-8.80916030534351,23.572519083969464,0.0
12.840000629425049,-9.564835632324218,2.5426421630859375,2.518700146484375,-38.61068702290076,65.83206106870229,-6.549618320610687,-9.504980590820312,-1.8914193115234375,0.0526724365234375,-14.916030534351146,-5.282442748091603,24.48854961832061,0.0
12.850000619888306,-9.706093530273437,-0.5458779785156249,4.824316345214844,-39.00763358778626,54.01526717557252,-8.65648854961832,-9.629479077148437,-1.9656395629882812,0.24899697265624998,-0.9618320610687023,-4.99236641221374,23.19083969465649,0.0
12.860000848770142,-9.868899243164062,-0.09816226806640624,3.1771056030273437,-35.69465648854962,50.732824427480914,-6.015267175572519,-9.579200842285156,-1.0510545288085937,0.5746083984375,10.534351145038167,-5.114503816793893,20.870229007633586,0.0
12.87000060081482,-11.439495532226562,1.908178723144531,3.4955344238281247,-32.83969465648855,43.66412213740458,-8.351145038167939,-9.756371765136718,-0.09337386474609374,1.0678139404296874,16.99236641221374,-5.206106870229007,18.564885496183205,0.0
12.880000591278076,-10.026916552734374,2.3535002319335936,1.8602946899414061,-28.80916030534351,35.12977099236641,-5.679389312977099,-9.923965881347655,0.9169792358398436,1.4173673828125,17.129770992366414,-5.969465648854962,16.18320610687023,0.0
12.890000820159912,-11.279084020996093,1.2401964599609374,2.2074539306640624,-19.00763358778626,32.274809160305345,-2.9923664122137406,-10.072406384277343,1.120486376953125,1.7764976318359373,15.83206106870229,-5.816793893129771,14.381679389312977,0.0
12.90000033378601,-8.779537487792968,0.8212111694335937,1.1180921752929687,-12.793893129770993,27.603053435114504,-0.44274809160305345,-11.164162341308593,-0.06464344482421874,2.5378537597656248,22.38167938931298,-5.587786259541985,13.19083969465649,0.0
12.910000801086426,-9.7683427734375,1.0917559570312498,1.0726023437499999,-6.564885496183206,25.84732824427481,-0.6564885496183206,-10.101136804199218,1.216254443359375,1.177947216796875,25.893129770992367,-10.15267175572519,6.3816793893129775,0.0
12.920000314712524,-9.53131680908203,-0.1771709228515625,0.5865794067382812,-6.488549618320611,20.045801526717558,1.3435114503816794,-9.95987890625,1.3551181396484375,1.3934253662109375,30.091603053435115,-8.610687022900763,4.687022900763359,0.0
12.93000054359436,-7.905653881835937,-2.8467057739257813,-0.3280056274414062,11.83206106870229,21.87786259541985,2.595419847328244,-8.55448253173828,2.1068974609374997,0.28490999755859375,28.717557251908396,-9.816793893129772,1.7099236641221374,0.0
12.940000534057617,-8.882488159179687,-0.8499415893554687,0.44532150878906246,21.572519083969464,25.282442748091604,-2.1374045801526718,-8.863334545898438,0.8762778076171874,-0.32561142578124996,30.0,-11.114503816793894,2.3053435114503817,0.0
12.950001001358032,-9.18655177001953,0.0143652099609375,0.6177040283203125,29.358778625954198,24.763358778625953,-5.267175572519084,-7.912836486816405,2.578555187988281,-0.42377369384765623,19.114503816793892,-4.5038167938931295,1.7709923664122138,0.0
12.96000075340271,-9.0788126953125,0.4525041137695312,1.3910311645507811,39.083969465648856,30.106870229007633,-5.343511450381679,-8.89924757080078,1.446097802734375,0.9050082275390624,10.427480916030534,7.4961832061068705,6.99236641221374,0.0
12.970000505447388,-9.6917283203125,1.1444283935546875,1.707065783691406,40.76335877862596,28.549618320610687,-6.977099236641221,-9.425971936035156,0.229843359375,0.967257470703125,13.267175572519085,8.65648854961832,5.908396946564886,0.0
12.980000734329224,-10.376469995117187,2.4899697265625,1.848323681640625,40.29007633587786,22.80916030534351,-7.755725190839694,-10.168174450683592,-0.3902548706054687,1.6711527587890624,17.51145038167939,9.068702290076336,4.900763358778626,0.0
12.990000486373901,-11.61906065673828,2.7198130859375,2.0661960327148434,34.51908396946565,18.595419847328245,-6.213740458015267,-9.641450085449218,0.40462008056640625,1.8028338500976562,17.709923664122137,6.931297709923665,2.4732824427480917,0.0
13.000000238418579,-10.426748229980468,2.3918074584960936,0.86191259765625,18.625954198473284,5.908396946564886,-10.793893129770993,-10.04846436767578,0.9337386474609375,1.9225439331054686,17.938931297709924,4.412213740458015,1.465648854961832,0.0
13.010000705718994,-10.73799444580078,3.8139632446289062,2.0302830078125,6.1679389312977095,3.6946564885496183,-4.702290076335878,-10.060435375976562,1.3766659545898436,2.4947581298828125,12.473282442748092,2.8702290076335877,0.9465648854961832,0.0
13.020000696182251,-10.149020837402343,3.1507693847656246,1.3072341064453123,3.7099236641221376,-0.5038167938931297,-0.5190839694656488,-10.256759912109374,1.189918225097656,2.9927520751953125,8.213740458015268,1.3740458015267176,1.6793893129770991,0.0
13.030000448226929,-9.212887988281249,1.6352397338867186,0.277727392578125,-0.015267175572519083,-3.099236641221374,3.3893129770992365,-9.935936889648437,1.1563994018554686,2.540247961425781,3.2061068702290076,-1.099236641221374,0.24427480916030533,0.0
13.040000915527344,-9.634267480468749,1.915361328125,0.44053310546874996,-2.7786259541984735,-2.6106870229007635,3.450381679389313,-10.20887587890625,0.4644751220703125,2.7054478759765623,2.564885496183206,-2.50381679389313,-0.15267175572519084,0.0
13.050000667572021,-8.985438830566405,1.1133037719726562,-0.17956512451171874,-2.7480916030534353,-0.8854961832061069,3.099236641221374,-9.739612353515625,0.6081272216796875,2.454056701660156,1.7709923664122138,-5.0534351145038165,-1.6030534351145038,0.0
13.060000896453857,-9.02135185546875,1.1156979736328125,-0.8259995727539062,-5.4961832061068705,1.2671755725190839,2.931297709923664,-10.256759912109374,-0.28012159423828126,3.105279553222656,3.801526717557252,-5.862595419847328,-1.297709923664122,0.0
13.070000648498535,-8.604760766601562,1.2880804931640624,-1.4125789794921875,-6.030534351145038,4.687022900763359,2.1068702290076335,-9.200916979980468,-0.04548983154296875,1.7860744384765623,11.49618320610687,-15.954198473282442,-4.305343511450381,0.0
13.080000877380371,-9.258377819824219,1.407790576171875,-1.599326708984375,-7.358778625954199,8.610687022900763,1.1755725190839694,-11.317391247558593,-0.09816226806640624,3.689464758300781,16.68702290076336,-16.0,-3.954198473282443,0.0
13.090000629425049,-9.586383447265625,0.9864110839843749,-1.13006318359375,-9.938931297709924,12.885496183206106,0.7786259541984732,-10.47702646484375,0.3711012573242187,2.4660277099609376,20.16793893129771,-23.419847328244273,-5.877862595419847,0.0
13.100000381469727,-10.266336718749999,0.8571241943359375,-0.2657563842773437,-12.595419847328245,13.816793893129772,-0.6564885496183206,-9.165003955078124,1.0582371337890624,1.6998831787109374,16.885496183206108,-28.610687022900763,-8.320610687022901,0.0
13.110000848770142,-10.089165795898436,0.9337386474609375,0.16998831787109375,-12.51908396946565,14.549618320610687,-1.3740458015267176,-8.779537487792968,2.2864625854492187,1.3958195678710936,7.938931297709924,-27.709923664122137,-9.32824427480916,0.0
13.12000060081482,-10.127473022460936,1.426944189453125,0.5291185668945312,-15.083969465648854,14.885496183206106,-1.9083969465648856,-9.82580361328125,1.6735469604492186,2.674323254394531,-1.5572519083969465,-20.091603053435115,-6.213740458015267,0.0
13.130000829696655,-9.72285294189453,1.1875240234375,0.6105214233398437,-14.01526717557252,12.931297709923664,-2.122137404580153,-10.000580334472655,0.1867477294921875,1.697488977050781,-3.8931297709923665,-20.35114503816794,-3.49618320610687,0.0
13.140000581741333,-9.734823950195311,1.4963760375976562,0.40940848388671874,-12.122137404580153,9.007633587786259,-1.251908396946565,-9.794678991699218,-1.3862427612304686,1.8555062866210936,3.8473282442748094,-23.19083969465649,-4.106870229007634,0.0
13.15000057220459,-9.830592016601562,1.5370774658203123,0.6560112548828124,-7.404580152671755,9.053435114503817,-0.6717557251908397,-10.694898815917968,-1.0630255371093749,1.6017209106445311,18.30534351145038,-27.801526717557252,-7.679389312977099,0.0
13.160000562667847,-10.098742602539062,1.8171990600585937,1.1875240234375,-5.541984732824427,6.99236641221374,-0.6412213740458015,-10.378864196777343,0.239420166015625,2.6096798095703124,26.610687022900763,-28.732824427480917,-10.198473282442748,0.0
13.170000791549683,-9.835380419921874,1.8195932617187498,1.5849614990234373,-3.877862595419847,5.465648854961832,0.10687022900763359,-9.184157568359375,2.1595698974609374,1.7357962036132812,23.297709923664122,-31.435114503816795,-12.82442748091603,0.0
13.180000305175781,-10.235212097167969,2.31758720703125,1.924938134765625,-8.442748091603054,3.633587786259542,0.44274809160305345,-9.076418493652342,2.6599580444335937,1.5251064575195312,9.099236641221374,-24.85496183206107,-11.34351145038168,0.0
13.190000772476196,-9.677363110351562,1.3407529296874998,1.7717092285156248,-9.114503816793894,1.0687022900763359,1.4961832061068703,-8.724470849609375,1.5251064575195312,2.166752502441406,2.198473282442748,-23.099236641221374,-9.083969465648854,0.0
13.200000524520874,-10.905588562011719,3.0597897216796874,2.310404602050781,-11.129770992366412,1.2061068702290076,-0.04580152671755725,-9.074024291992187,0.5602431884765625,2.8275521606445313,1.9236641221374047,-22.519083969465647,-7.908396946564886,0.0
13.21000075340271,-10.299855541992187,2.166752502441406,1.2018892333984375,-19.480916030534353,-4.305343511450381,1.9541984732824427,-9.739612353515625,0.28969840087890625,3.414131567382812,7.190839694656488,-24.16793893129771,-8.610687022900763,0.0
13.220000743865967,-10.93671318359375,1.7741034301757812,0.5626373901367188,-20.213740458015266,-3.435114503816794,3.1755725190839694,-8.626308581542968,0.43574470214843747,2.118868469238281,9.48091603053435,-30.610687022900763,-10.732824427480915,0.0
13.230000734329224,-10.232817895507813,1.1156979736328125,-0.5003881469726562,-20.595419847328245,-3.6946564885496183,3.0839694656488548,-9.931148486328125,1.2210428466796874,2.3582886352539063,6.076335877862595,-30.15267175572519,-10.564885496183207,0.0
13.240000486373901,-9.356540087890625,0.6871358764648438,-0.7900865478515624,-15.404580152671755,1.0534351145038168,1.7709923664122138,-9.047688073730468,1.5442600708007812,3.1316157714843746,-2.045801526717557,-25.251908396946565,-9.908396946564885,0.0
13.250000476837158,-9.5384994140625,0.9935936889648437,-0.26815058593749996,-10.061068702290076,9.389312977099237,-1.0076335877862594,-8.623914379882812,1.4413093994140624,2.607285607910156,-10.290076335877863,-22.48854961832061,-8.946564885496183,0.0
13.260000705718994,-9.533711010742186,1.70467158203125,0.5434837768554687,-9.17557251908397,14.045801526717558,-2.16793893129771,-8.750807067871094,1.2234370483398436,1.7980454467773437,-12.15267175572519,-23.297709923664122,-9.145038167938932,0.0
13.27000093460083,-10.108319409179687,1.9823989746093749,0.6967126831054687,-19.72519083969466,11.419847328244275,-2.2290076335877864,-9.141061938476563,0.603338818359375,2.039859814453125,-15.17557251908397,-17.87786259541985,-8.305343511450381,0.0
13.280000925064087,-9.76116016845703,0.5482721801757812,0.5698199951171875,-18.213740458015266,9.709923664122137,-0.3969465648854962,-8.762778076171875,0.9313444458007812,1.5586252807617187,-15.725190839694656,-16.396946564885496,-8.702290076335878,0.0
13.290000915527344,-8.913612780761719,-0.1388636962890625,1.149216796875,-5.541984732824427,13.206106870229007,-1.9083969465648856,-8.920795385742187,0.34237083740234375,2.2194249389648437,-13.587786259541986,-13.816793893129772,-8.488549618320612,0.0
13.3000009059906,-9.404424121093749,0.5267243652343749,1.9728221679687499,-4.8396946564885495,10.106870229007633,-5.572519083969466,-8.79150849609375,1.0797849487304687,1.6424223388671875,-13.969465648854962,-13.053435114503817,-9.603053435114504,0.0
13.310000658035278,-10.635043774414061,2.2936451904296873,2.7150246826171873,-9.251908396946565,3.0381679389312977,-7.7251908396946565,-9.215282189941405,0.26815058593749996,2.3870190551757813,-12.946564885496183,-11.404580152671755,-9.099236641221374,0.0
13.320000886917114,-11.142614526367186,2.3918074584960936,3.191470812988281,-9.648854961832061,-3.5877862595419847,-7.755725190839694,-8.549694128417968,0.6296750366210937,2.2074539306640624,-14.916030534351146,-10.442748091603054,-9.511450381679388,0.0
13.330000638961792,-9.054870678710937,0.12449848632812499,2.5139117431640625,2.8396946564885495,-9.618320610687023,-5.648854961832061,-8.927977990722656,0.105344873046875,2.626439221191406,-11.969465648854962,-9.389312977099237,-8.732824427480915,0.0
13.34000039100647,-9.823409411621093,1.4317325927734375,3.1579519897460937,4.396946564885496,-12.67175572519084,-7.236641221374046,-8.343792785644531,0.09337386474609374,2.6767174560546874,-9.34351145038168,-9.954198473282442,-9.816793893129772,0.0
13.350000619888306,-10.172962854003906,2.0925322509765625,2.597708801269531,3.114503816793893,-16.763358778625953,-7.099236641221374,-8.798691101074219,-0.4740519287109375,2.9281086303710935,-3.877862595419847,-10.030534351145038,-9.679389312977099,0.0
13.360000610351562,-9.828197814941406,3.0238766967773434,1.668758557128906,-9.755725190839694,-22.3206106870229,-4.9465648854961835,-8.662221606445312,-0.14125789794921875,2.8706477905273435,-0.3969465648854962,-11.557251908396946,-10.80916030534351,0.0
13.37000060081482,-8.762778076171875,1.7094599853515624,-0.040701428222656245,-11.954198473282442,-27.236641221374047,-1.1450381679389312,-8.94473740234375,-0.03591302490234375,2.6431986328124997,3.068702290076336,-12.335877862595419,-11.389312977099237,0.0
13.380000352859497,-8.44674345703125,1.1563994018554686,-0.6512228515624999,-8.534351145038167,-22.15267175572519,-1.7709923664122138,-7.754819177246094,0.55545478515625,1.3383587280273437,4.458015267175573,-15.053435114503817,-12.748091603053435,0.0
13.390000343322754,-8.506598498535157,0.7757213378906249,-0.9217676391601562,-6.030534351145038,-15.16030534351145,-3.099236641221374,-8.923189587402343,0.16041151123046873,2.1787235107421874,8.198473282442748,-14.106870229007633,-12.335877862595419,0.0
13.40000057220459,-10.022128149414062,1.6424223388671875,-0.8092401611328125,-1.3893129770992367,-6.99236641221374,-5.648854961832061,-8.135497241210937,0.469263525390625,2.2649147705078123,2.6564885496183206,-9.007633587786259,-12.213740458015268,0.0
13.410001039505005,-8.793902697753905,0.7422025146484375,-0.3327940307617187,4.427480916030534,0.183206106870229,-6.763358778625954,-8.204929089355469,0.5003881469726562,2.1116858642578125,3.9389312977099236,-7.511450381679389,-12.0,0.0
13.420000314712524,-10.517727893066406,2.319981408691406,1.43652099609375,-5.984732824427481,1.7251908396946565,-9.435114503816793,-8.458714465332031,0.49320554199218747,2.0925322509765625,2.717557251908397,-5.893129770992366,-12.534351145038167,0.0
13.430001020431519,-10.218452685546874,1.695094775390625,2.109291662597656,-8.610687022900763,-2.50381679389313,-8.900763358778626,-8.755595471191405,0.5961562133789062,2.109291662597656,0.5038167938931297,-3.618320610687023,-12.687022900763358,0.0
13.440000534057617,-9.255983618164063,0.9121908325195311,2.4851813232421875,-6.961832061068702,-6.488549618320611,-7.816793893129771,-8.71489404296875,0.6631938598632812,1.9416975463867185,-1.0076335877862594,-2.1374045801526718,-13.19083969465649,0.0
13.450001001358032,-8.559270935058594,1.0319009155273438,2.710236279296875,-2.3206106870229006,-9.526717557251908,-8.885496183206106,-8.702923034667968,0.584185205078125,2.1356278808593747,-2.7938931297709924,0.2595419847328244,-13.083969465648854,0.0
13.46000051498413,-8.518569506835936,1.3000515014648437,2.978386865234375,3.1603053435114505,-13.007633587786259,-11.19083969465649,-8.549694128417968,0.49799394531249996,2.0781670410156248,-3.6793893129770994,1.5725190839694656,-13.526717557251908,0.0
13.470000267028809,-8.836998327636719,1.2234370483398436,2.863465185546875,10.045801526717558,-17.053435114503817,-11.801526717557252,-8.655039001464843,0.296881005859375,1.9847931762695312,-3.1908396946564888,2.8244274809160306,-13.633587786259541,0.0
13.480000734329224,-9.090783703613281,1.7381904052734374,2.999934680175781,14.183206106870228,-21.297709923664122,-12.793893129770993,-8.233659509277343,0.02154781494140625,2.0757728393554684,-2.1068702290076335,3.801526717557252,-13.541984732824428,0.0
13.490000486373901,-10.098742602539062,3.5338416503906247,3.5601778686523438,11.755725190839694,-25.603053435114504,-13.969465648854962,-8.365340600585936,-0.2609679809570312,2.379836450195312,0.6870229007633588,3.267175572519084,-13.603053435114504,0.0
13.500000476837158,-10.819397302246093,4.11802685546875,4.204218115234375,-5.358778625954199,-33.89312977099237,-12.259541984732824,-8.097190014648437,0.1292868896484375,2.454056701660156,1.4961832061068703,2.2290076335877864,-14.0,0.0
13.510000705718994,-10.141838232421874,2.29843359375,3.5194764404296874,-11.969465648854962,-42.6412213740458,-7.282442748091603,-8.214505895996094,-0.06703764648437499,2.6431986328124997,1.4961832061068703,2.0763358778625953,-14.305343511450381,0.0
13.520000696182251,-9.5001921875,1.197100830078125,2.770091320800781,-14.564885496183207,-47.099236641221374,-5.541984732824427,-7.671022119140624,0.2609679809570312,2.3535002319335936,0.5954198473282443,1.3587786259541985,-15.511450381679388,0.0
13.530000925064087,-8.52335791015625,-0.24899697265624998,2.2840683837890623,-10.641221374045802,-49.587786259541986,-6.778625954198473,-7.819462622070312,0.086191259765625,2.4444798950195312,1.1755725190839694,1.984732824427481,-15.603053435114504,0.0
13.540000915527344,-7.6279264892578125,-0.28490999755859375,2.1787235107421874,-0.4122137404580153,-49.43511450381679,-9.557251908396946,-7.524975817871093,0.22505495605468748,2.365471240234375,1.0687022900763359,2.381679389312977,-16.68702290076336,0.0
13.550000667572021,-7.134720947265625,-0.32082302246093747,2.454056701660156,6.305343511450381,-51.05343511450382,-12.793893129770993,-7.3478048950195305,0.5386953735351562,2.023100402832031,0.7786259541984732,2.4580152671755724,-16.564885496183205,0.0
13.560000896453857,-6.940790612792968,0.23702596435546874,2.70065947265625,16.198473282442748,-50.97709923664122,-12.625954198473282,-6.737283471679687,0.59376201171875,1.8507178833007811,0.12213740458015267,1.9541984732824427,-15.572519083969466,0.0
13.570000648498535,-6.744466076660156,2.408566870117187,2.272097375488281,20.30534351145038,-54.213740458015266,-11.587786259541986,-6.461950280761719,0.239420166015625,1.9488801513671874,-0.6717557251908397,2.16793893129771,-13.969465648854962,0.0
13.580000877380371,-7.024587670898437,2.578555187988281,3.1842882080078123,19.87786259541985,-55.43511450381679,-6.442748091603053,-4.860229370117187,0.5267243652343749,1.407790576171875,-4.717557251908397,2.8396946564885495,-13.022900763358779,0.0
13.590000629425049,-7.886500268554687,2.061407629394531,2.877830395507812,22.80916030534351,-52.18320610687023,2.549618320610687,-4.639962817382812,-0.15322890625,1.2928688964843749,-2.351145038167939,2.6564885496183206,-10.916030534351146,0.0
13.600000381469727,-8.166621862792969,1.9512743530273435,0.9528922607421875,21.0381679389313,-49.86259541984733,6.702290076335878,-5.097255334472656,-0.6296750366210937,1.678335363769531,1.5572519083969465,2.0,-11.083969465648854,0.0
13.610000610351562,-8.98304462890625,0.8643067993164062,0.469263525390625,16.458015267175572,-41.343511450381676,3.1297709923664123,-6.189011291503906,-0.08858546142578125,2.0302830078125,4.625954198473282,2.366412213740458,-12.625954198473282,0.0
13.620000839233398,-7.8721350585937495,-0.009576806640625,0.00718260498046875,14.534351145038167,-35.80152671755725,-2.7938931297709924,-7.352593298339843,0.7350199096679687,2.3032219970703123,1.6030534351145038,5.267175572519084,-13.19083969465649,0.0
13.630000591278076,-8.932766394042968,1.697488977050781,1.637633935546875,5.038167938931298,-30.18320610687023,-10.717557251908397,-10.12507882080078,1.254561669921875,4.316745593261719,-5.190839694656488,9.725190839694656,-13.938931297709924,0.0
13.640000581741333,-9.327809667968749,1.3718775512695311,4.046200805664062,-0.44274809160305345,-31.801526717557252,-12.625954198473282,-10.199299072265624,3.2513258544921873,1.6448165405273436,-15.969465648854962,12.122137404580153,-14.549618320610687,0.0
13.65000057220459,-8.403647827148436,-0.4572925170898437,6.019022973632812,12.320610687022901,-36.030534351145036,-11.572519083969466,-12.74912384033203,4.915296008300781,2.2553379638671873,-32.51908396946565,25.19083969465649,-14.320610687022901,0.0
13.660000562667847,-11.367669482421874,1.5777788940429687,9.464279162597656,16.732824427480917,-46.44274809160305,-15.954198473282442,-16.512808850097656,5.288791467285156,3.0597897216796874,-55.51145038167939,37.770992366412216,-14.51908396946565,0.0
13.670000791549683,-12.485761657714843,-0.5770026000976562,10.735600244140624,39.57251908396947,-65.81679389312977,-11.48091603053435,-21.595698974609373,3.3016040893554686,7.685387329101562,-64.03053435114504,41.74045801526717,-8.366412213740459,0.0
13.68000054359436,-13.283030810546874,-2.123656872558594,11.851298217773437,67.38931297709924,-82.9618320610687,-9.86259541984733,-21.887791577148437,1.4006079711914061,8.825027319335938,-52.25954198473283,23.328244274809162,2.763358778625954,0.0
13.690000534057617,-18.531120849609373,4.225765930175781,11.496956372070311,68.54961832061069,-99.98473282442748,-15.022900763358779,-16.840814477539062,-1.4173673828125,6.8402341430664055,-41.847328244274806,3.435114503816794,15.725190839694656,0.0
13.700000524520874,-20.975600744628906,6.811503723144531,8.604760766601562,56.01526717557252,-127.83206106870229,-0.6564885496183206,-14.353238952636717,-4.422090466308593,4.611232397460937,-19.404580152671755,-11.007633587786259,24.53435114503817,0.0
13.71000051498413,-22.622811486816406,7.089231115722656,4.975151049804687,48.99236641221374,-142.06106870229007,18.12213740458015,-11.240776794433593,-5.465962390136719,1.8219874633789062,-1.5114503816793894,-19.435114503816795,21.236641221374047,0.0
13.720000267028809,-21.538238134765624,4.932055419921875,2.3295582153320313,43.083969465648856,-151.81679389312978,35.02290076335878,-8.564059338378906,-3.1747114013671873,-2.269703173828125,9.83206106870229,-23.46564885496183,13.053435114503817,0.0
13.730000495910645,-19.316418994140623,2.1619640991210938,-0.04548983154296875,43.86259541984733,-148.04580152671755,47.12977099236641,-8.729259252929687,-5.360617517089843,-2.3822306518554686,9.572519083969466,-11.297709923664122,8.900763358778626,0.0
13.740000486373901,-13.589488623046874,-1.4724340209960938,-2.5570073730468748,47.70992366412214,-139.70992366412213,55.20610687022901,-8.678981018066406,-8.520963708496094,-3.4931402221679684,21.221374045801525,-0.7480916030534351,1.7099236641221374,0.0
13.750000476837158,-11.707646118164062,-1.6831237670898436,-2.3247698120117186,52.38167938931298,-119.26717557251908,52.47328244274809,-9.631873278808593,-9.023746057128905,-3.258508459472656,39.587786259541986,9.19083969465649,-7.557251908396947,0.0
13.760000705718994,-10.59194814453125,-0.51714755859375,-2.530671154785156,48.62595419847328,-104.94656488549619,49.267175572519086,-9.557653027343749,-4.541800549316406,-2.750937707519531,43.41984732824427,24.50381679389313,-17.19083969465649,0.0
13.770000696182251,-11.396399902343749,3.2417490478515623,-1.1372457885742187,32.94656488549618,-90.90076335877863,50.152671755725194,-10.096348400878906,-0.9864110839843749,-2.3343466186523436,38.091603053435115,39.43511450381679,-18.03053435114504,0.0
13.780000925064087,-10.73799444580078,1.3192051147460937,0.6871358764648438,15.709923664122137,-83.05343511450381,51.954198473282446,-11.3006318359375,0.1005564697265625,-1.3263877197265623,30.65648854961832,48.33587786259542,-11.954198473282442,0.0
13.790000438690186,-9.332598071289063,-2.085349645996094,2.741360900878906,7.404580152671755,-69.1145038167939,51.66412213740458,-12.23197628173828,-0.06703764648437499,-0.13168109130859373,36.62595419847328,46.67175572519084,-3.6793893129770994,0.0
13.80000114440918,-9.323021264648437,-2.8658593872070313,3.191470812988281,4.99236641221374,-58.94656488549618,42.67175572519084,-10.596736547851561,1.4820108276367188,-0.3327940307617187,35.45038167938932,42.93129770992366,-1.633587786259542,0.0
13.8100004196167,-6.564900952148437,-2.7916391357421872,0.36152445068359373,3.2213740458015265,-59.16030534351145,39.80152671755725,-9.854534033203125,2.521094348144531,0.5267243652343749,25.297709923664122,44.534351145038165,3.0229007633587788,0.0
13.820000886917114,-6.248866333007812,-3.5338416503906247,-0.51714755859375,-3.5114503816793894,-50.44274809160305,34.06106870229008,-10.259154113769531,0.9576806640625,0.8475473876953125,20.564885496183205,42.56488549618321,10.687022900763358,0.0
13.830000400543213,-6.402095239257812,-4.060566015625,0.02154781494140625,-5.755725190839694,-39.9236641221374,25.480916030534353,-11.099518896484375,0.7924807495117187,0.4381389038085937,18.3206106870229,37.38931297709924,13.282442748091603,0.0
13.840000629425049,-5.892130285644531,-3.3973721557617185,0.19632453613281248,-5.679389312977099,-30.793893129770993,18.916030534351144,-10.153809240722655,0.9217676391601562,1.0941501586914062,9.740458015267176,34.274809160305345,12.335877862595419,0.0
13.850000619888306,-5.291185668945312,-2.4253262817382812,-0.44532150878906246,-10.778625954198473,-23.938931297709924,12.793893129770993,-8.734047656249999,1.3431471313476562,0.5219359619140624,-2.2290076335877864,31.404580152671755,8.992366412213741,0.0
13.860000610351562,-4.697423657226563,-2.1906945190429687,-1.0606313354492187,-16.53435114503817,-13.725190839694656,6.183206106870229,-9.873687646484374,-0.49320554199218747,1.8148048583984373,-8.992366412213741,34.6412213740458,10.564885496183207,0.0
13.87000060081482,-3.900154504394531,-2.9759926635742184,-1.407790576171875,-23.17557251908397,0.366412213740458,4.702290076335878,-8.930372192382812,-0.028730419921875,1.350329736328125,-15.358778625954198,31.022900763358777,6.229007633587786,0.0
13.880000591278076,-3.239354846191406,-2.042254016113281,-2.252943762207031,-23.053435114503817,6.351145038167939,-3.7557251908396947,-8.123526232910155,-0.3016694091796875,1.3455413330078123,-19.954198473282442,29.786259541984734,3.7099236641221376,0.0
13.890000581741333,-2.4396914916992185,-1.4628572143554686,-2.379836450195312,-29.0381679389313,19.0381679389313,-7.221374045801527,-9.009380847167968,-1.1540052001953125,1.908178723144531,-21.022900763358777,31.786259541984734,3.0076335877862594,0.0
13.90000057220459,-3.1004911499023438,-0.27293898925781246,-1.714248388671875,-43.66412213740458,31.587786259541986,-15.450381679389313,-9.334992272949219,-1.659181750488281,2.231395947265625,-17.236641221374047,30.366412213740457,2.5801526717557253,0.0
13.910000801086426,-2.3367408203125,-0.8738836059570312,-2.920926025390625,-51.465648854961835,41.6793893129771,-18.427480916030536,-9.327809667968749,-1.915361328125,2.602497204589844,-11.801526717557252,27.709923664122137,2.030534351145038,0.0
13.920000553131104,-1.3742717529296875,1.5849614990234373,-3.5793314819335937,-66.22900763358778,44.33587786259542,-19.0381679389313,-10.165780249023436,-1.6735469604492186,2.7844565307617186,-4.900763358778626,26.076335877862597,1.8473282442748091,0.0
13.93000054359436,-0.9648632690429687,-0.5746083984375,-3.5529952636718747,-50.030534351145036,68.13740458015268,-12.198473282442748,-9.658209497070311,-1.7094599853515624,2.6288334228515624,-2.1068702290076335,24.3206106870229,2.1068702290076335,0.0
13.940000534057617,-1.9393033447265624,0.277727392578125,-2.521094348144531,-41.16030534351145,85.37404580152672,-12.717557251908397,-9.682151513671874,-2.123656872558594,3.0645781249999997,5.755725190839694,24.519083969465647,2.9618320610687023,0.0
13.950000762939453,-3.0047230834960934,0.39264907226562495,-1.6065093139648436,-25.022900763358777,100.91603053435115,-13.725190839694656,-9.409212524414063,-2.0063409912109376,3.0047230834960934,12.351145038167939,23.49618320610687,4.076335877862595,0.0
13.96000051498413,-4.436455676269531,1.2785036865234374,-0.16519991455078123,-12.01526717557252,116.35114503816794,-13.84732824427481,-9.526528405761718,-1.5586252807617187,3.0813375366210938,17.480916030534353,21.297709923664122,4.33587786259542,0.0
13.970000505447388,-6.421248852539062,2.418143676757812,1.3958195678710936,-4.763358778625954,126.06106870229007,-12.290076335877863,-9.581595043945311,-1.0319009155273438,3.3303345092773435,17.0381679389313,18.900763358778626,4.687022900763359,0.0
13.980000495910645,-8.865728747558594,3.4332851806640625,3.066972326660156,-6.015267175572519,130.70229007633588,-9.236641221374045,-10.232817895507813,-0.6512228515624999,3.574543078613281,16.045801526717558,17.206106870229007,4.396946564885496,0.0
13.99000072479248,-10.570400329589843,4.242525341796875,5.719747766113281,-15.740458015267176,129.3587786259542,-5.801526717557252,-10.453084448242187,-0.5698199951171875,3.5673604736328124,12.13740458015267,15.068702290076336,4.595419847328245,0.0
14.000000476837158,-12.188880651855468,3.246537451171875,8.602366564941406,-31.282442748091604,117.02290076335878,1.4045801526717556,-10.955866796875,-0.74699091796875,3.67749375,13.236641221374045,11.038167938931299,6.213740458015267,0.0
14.010000705718994,-13.031639636230468,0.9241618408203125,10.728417639160156,-12.0,114.82442748091603,7.1603053435114505,-10.47702646484375,-0.2920926025390625,3.0813375366210938,11.34351145038168,6.061068702290076,6.8396946564885495,0.0
14.020000457763672,-11.978190905761718,1.8435352783203125,11.235988391113281,-17.419847328244273,89.40458015267176,6.67175572519084,-9.909600671386718,0.7398083129882812,2.214636535644531,8.885496183206106,3.2519083969465647,6.763358778625954,0.0
14.030000686645508,-12.48097325439453,3.0214824951171875,12.409147204589843,-10.335877862595419,67.87786259541984,7.236641221374046,-9.9981861328125,0.9744400756835937,1.4245499877929686,-0.2748091603053435,2.931297709923664,11.068702290076336,0.0
14.040000915527344,-10.989385620117186,1.0702081420898437,11.812990991210937,11.267175572519085,48.61068702290076,15.98473282442748,-10.220846887207031,0.7613561279296874,1.3766659545898436,-3.7557251908396947,8.610687022900763,17.87786259541985,0.0
14.050000667572021,-10.54645831298828,1.4891934326171874,7.864952453613281,34.13740458015267,43.38931297709924,23.52671755725191,-9.775525378417969,-0.7781155395507812,1.3168109130859373,-3.0381679389312977,8.50381679389313,24.35114503816794,0.0
14.060000658035278,-9.909600671386718,0.43574470214843747,0.5674257934570313,27.16030534351145,43.587786259541986,23.0381679389313,-10.589553942871094,-3.564966271972656,2.3295582153320313,10.580152671755725,9.312977099236642,29.84732824427481,0.0
14.070000648498535,-12.344503759765624,-1.180341418457031,0.07422025146484375,29.709923664122137,52.68702290076336,19.862595419847327,-11.870451831054687,-4.206612316894531,2.2290017456054687,24.35114503816794,0.3053435114503817,28.977099236641223,0.0
14.080000877380371,-14.657302563476561,-3.7014357666015623,5.250484240722656,41.98473282442748,54.76335877862596,16.717557251908396,-11.123460913085937,-1.2210428466796874,1.7190367919921874,23.6793893129771,-8.061068702290076,22.870229007633586,0.0
14.090000629425049,-16.773776831054686,-4.50109912109375,10.907982763671875,61.81679389312977,49.05343511450382,6.961832061068702,-12.418724011230468,-1.0103531005859374,3.438073583984375,20.137404580152673,-10.50381679389313,24.427480916030536,0.0
14.100000619888306,-16.76659422607422,-1.8531120849609375,10.958260998535156,68.41221374045801,30.061068702290076,-4.931297709923665,-11.88721124267578,0.16759411621093748,3.754108203125,11.786259541984732,-19.46564885496183,21.51145038167939,0.0
14.110000610351562,-15.524003564453125,3.864241479492187,7.352593298339843,60.595419847328245,14.67175572519084,-11.587786259541986,-11.250353601074218,1.2785036865234374,4.553771557617187,-4.473282442748092,-26.68702290076336,18.83969465648855,0.0
14.12000060081482,-12.665326782226561,4.242525341796875,2.176329309082031,32.274809160305345,-0.4122137404580153,-12.091603053435115,-11.48498536376953,1.8291700683593748,4.7022120605468745,-22.732824427480917,-35.45038167938932,16.80916030534351,0.0
14.130000591278076,-11.25514200439453,2.73896669921875,-0.9816226806640624,11.694656488549619,-3.969465648854962,-8.198473282442748,-10.91037696533203,2.616862414550781,3.9145197143554684,-46.030534351145036,-43.6793893129771,16.259541984732824,0.0
14.140000343322754,-8.288726147460936,-1.7357962036132812,-3.0238766967773434,9.068702290076336,4.0458015267175576,-4.061068702290076,-10.922347973632812,0.8786720092773437,4.522646936035156,-61.52671755725191,-49.00763358778626,20.763358778625953,0.0
14.150001049041748,-5.269637854003906,-2.8467057739257813,-3.5625720703124997,4.259541984732825,12.549618320610687,-4.854961832061068,-9.830592016601562,0.7350199096679687,1.429338391113281,-60.30534351145038,-60.50381679389313,18.977099236641223,0.0
14.160000562667847,-6.801926916503906,1.7525556152343749,-2.5953145996093747,-4.351145038167939,26.198473282442748,-10.259541984732824,-8.252813122558594,0.5267243652343749,-1.180341418457031,-65.02290076335878,-58.6412213740458,15.86259541984733,0.0
14.170000791549683,-7.3932947265625,4.632780212402343,-1.1324573852539062,-15.068702290076336,36.30534351145038,-8.916030534351146,-9.409212524414063,-0.3711012573242187,-2.5067291381835934,-50.82442748091603,-56.01526717557252,15.877862595419847,0.0
14.18000054359436,-7.81467421875,4.094084838867187,-0.718260498046875,-24.80916030534351,42.79389312977099,-3.5267175572519083,-8.508992700195313,0.6751648681640625,-4.04141240234375,-43.221374045801525,-54.656488549618324,13.374045801526718,0.0
14.190000772476196,-7.577648254394531,3.9145197143554684,-0.8547299926757812,-37.64885496183206,48.93129770992366,1.786259541984733,-7.632714892578124,1.9704279663085937,-4.73094248046875,-45.29770992366412,-43.63358778625954,13.32824427480916,0.0
14.200000524520874,-8.291120349121094,1.848323681640625,-0.9145850341796874,-51.66412213740458,52.396946564885496,5.1603053435114505,-9.437942944335937,0.833182177734375,-3.9169139160156248,-40.6412213740458,-27.358778625954198,17.72519083969466,0.0
14.21000075340271,-9.10993731689453,0.34715924072265625,-0.5770026000976562,-58.70229007633588,55.93893129770992,6.33587786259542,-10.321403356933594,0.11731588134765625,-2.5905261962890624,-34.18320610687023,-18.229007633587788,19.328244274809162,0.0
14.220000505447388,-9.042899670410156,-0.46686932373046874,-0.7278373046875,-55.603053435114504,56.900763358778626,4.6106870229007635,-11.743559143066406,-0.7589619262695312,-1.1037269653320312,-22.061068702290076,-12.305343511450381,18.68702290076336,0.0
14.230000495910645,-9.351751684570312,-1.3455413330078123,-0.3806780639648437,-46.88549618320611,59.343511450381676,0.5343511450381679,-9.789890588378906,1.0773907470703123,-1.1228805786132812,-13.374045801526718,-13.34351145038168,13.083969465648854,0.0
14.240000486373901,-10.326191760253906,0.29927520751953124,0.612915625,-42.13740458015267,60.48854961832061,-4.458015267175573,-10.034099157714843,1.8507178833007811,-0.2442085693359375,-10.01526717557252,-10.213740458015268,12.641221374045802,0.0
14.250000476837158,-11.106701501464842,1.7094599853515624,1.20667763671875,-35.45038167938932,58.62595419847328,-7.435114503816794,-9.476250170898437,2.375048046875,0.5291185668945312,-13.679389312977099,-8.366412213740459,12.625954198473282,0.0
14.260000705718994,-12.349292163085936,2.7461493041992187,1.209071838378906,-35.786259541984734,48.961832061068705,-12.641221374045802,-9.598354455566406,2.262520568847656,0.9361328491210937,-17.099236641221374,-6.320610687022901,13.541984732824428,0.0
14.270000696182251,-11.853692419433592,2.250549560546875,1.9488801513671874,-30.65648854961832,46.68702290076336,-4.6106870229007635,-9.9215716796875,1.0582371337890624,1.707065783691406,-18.671755725190838,-3.6946564885496183,14.229007633587786,0.0
14.280001163482666,-10.450690246582031,1.2904746948242187,1.3335703247070312,-29.740458015267176,32.80916030534351,-1.7709923664122138,-10.900800158691405,-0.5889736083984375,2.288856787109375,-6.290076335877862,-7.908396946564886,12.274809160305344,0.0
14.290000677108765,-11.401188305664062,2.308010400390625,2.559401574707031,-26.549618320610687,30.244274809160306,-1.83206106870229,-9.179369165039063,0.0383072265625,0.9409212524414062,-3.2977099236641223,-14.732824427480915,7.251908396946565,0.0
14.300000667572021,-10.419565624999999,0.948103857421875,2.023100402832031,-28.717557251908396,18.702290076335878,2.732824427480916,-10.654197387695312,-0.4285620971679687,2.952050646972656,1.2671755725190839,-10.717557251908397,7.7251908396946565,0.0
14.3100004196167,-8.410830432128906,-1.0558429321289062,1.2761094848632812,-11.526717557251908,17.068702290076335,5.770992366412214,-8.724470849609375,0.9074024291992187,1.8938135131835936,-3.2977099236641223,-14.51908396946565,4.8396946564885495,0.0
14.320000886917114,-8.789114294433594,-0.82360537109375,2.001552587890625,-4.320610687022901,16.885496183206108,3.7099236641221376,-9.076418493652342,0.4070142822265625,2.645592834472656,-3.816793893129771,-12.244274809160306,4.564885496183206,0.0
14.330000638961792,-9.718064538574218,-0.4165910888671875,2.1930887207031247,1.1297709923664123,12.290076335877863,0.061068702290076333,-9.97184991455078,-0.8571241943359375,3.584119885253906,1.297709923664122,-11.038167938931299,4.106870229007634,0.0
14.340000629425049,-9.8449572265625,-0.6009446166992187,1.687912170410156,11.770992366412214,7.282442748091603,0.15267175572519084,-9.945513696289062,-1.235408056640625,3.6487633300781246,8.320610687022901,-14.213740458015268,1.786259541984733,0.0
14.350000619888306,-9.605537060546874,0.13168109130859373,0.833182177734375,12.65648854961832,3.8931297709923665,-1.9694656488549618,-9.421183532714844,0.04548983154296875,2.8107927490234372,11.923664122137405,-16.885496183206108,-2.8244274809160306,0.0
14.360000610351562,-9.725247143554688,2.518700146484375,0.39983167724609375,15.022900763358779,4.8396946564885495,0.3969465648854962,-9.516951599121093,-0.10773907470703124,3.754108203125,9.664122137404581,-12.977099236641221,-2.0,0.0
14.37000060081482,-9.421183532714844,3.967192150878906,-0.26336218261718747,6.687022900763359,3.435114503816794,2.4427480916030535,-9.634267480468749,0.1867477294921875,3.277662072753906,8.412213740458014,-13.740458015267176,-1.3282442748091603,0.0
14.380000591278076,-9.832986218261718,4.6447512207031245,-0.5746083984375,-3.4656488549618323,3.572519083969466,5.9541984732824424,-9.53131680908203,-0.39983167724609375,3.7421371948242186,5.068702290076335,-12.229007633587786,0.3511450381679389,0.0
14.390000343322754,-9.93354268798828,3.708618371582031,-0.507570751953125,-13.603053435114504,3.404580152671756,10.213740458015268,-10.460267053222656,-1.3287819213867187,4.220977526855468,10.50381679389313,-15.938931297709924,-0.9007633587786259,0.0
14.40000057220459,-10.0748005859375,2.1356278808593747,-0.28490999755859375,-20.85496183206107,2.8244274809160306,11.801526717557252,-10.065223779296874,-1.3670891479492187,2.913743420410156,15.17557251908397,-22.16793893129771,-3.8625954198473282,0.0
14.410000801086426,-10.196904870605469,0.09576806640624999,0.49799394531249996,-23.114503816793892,3.8931297709923665,11.145038167938932,-10.558429321289061,-0.5363011718749999,3.430890979003906,26.27480916030534,-28.16793893129771,-6.641221374045801,0.0
14.420000553131104,-10.27830772705078,-0.842758984375,0.8738836059570312,-20.396946564885496,4.396946564885496,7.419847328244275,-9.832986218261718,1.2210428466796874,2.0063409912109376,24.091603053435115,-32.50381679389313,-9.587786259541986,0.0
14.43000078201294,-10.486603271484375,-0.6607996582031249,0.9241618408203125,-19.984732824427482,4.824427480916031,3.267175572519084,-9.579200842285156,2.29843359375,3.1675287963867187,16.15267175572519,-27.16030534351145,-8.076335877862595,0.0
14.440000534057617,-9.830592016601562,-0.6416460449218749,0.7805097412109374,-13.801526717557252,5.145038167938932,-0.7938931297709924,-8.312668164062499,2.1978771240234374,2.5713725830078125,2.595419847328244,-26.12213740458015,-6.824427480916031,0.0
14.450001001358032,-9.672574707031249,0.2561795776367187,0.6512228515624999,-7.969465648854962,5.374045801526718,-2.9770992366412212,-9.081206896972656,1.8459294799804686,2.5522189697265625,-5.770992366412214,-21.603053435114504,-4.366412213740458,0.0
14.46000051498413,-10.20887587890625,1.6328455322265625,0.2346317626953125,-7.099236641221374,3.099236641221374,-3.5572519083969465,-9.459490759277344,0.1388636962890625,3.0430303100585934,-5.404580152671755,-19.34351145038168,-3.4198473282442747,0.0
14.470000267028809,-9.957484704589843,1.5131354492187499,-0.09576806640624999,-2.2748091603053435,4.396946564885496,-2.854961832061069,-10.105925207519531,-0.9241618408203125,2.01112939453125,0.5954198473282443,-24.12213740458015,-5.251908396946565,0.0
14.480000495910645,-9.579200842285156,1.4101847778320311,-0.181959326171875,-1.3893129770992367,4.366412213740458,-2.519083969465649,-10.000580334472655,-0.679953271484375,1.5298948608398437,6.564885496183206,-28.916030534351144,-8.748091603053435,0.0
14.490000486373901,-10.330980163574218,2.4109610717773435,0.28969840087890625,-5.541984732824427,4.458015267175573,-3.9083969465648853,-8.214505895996094,0.6703764648437499,1.350329736328125,5.480916030534351,-29.251908396946565,-12.076335877862595,0.0
14.500000238418579,-9.811438403320311,1.8100164550781248,0.38307226562499996,-7.877862595419847,4.473282442748092,-3.3435114503816794,-9.279925634765624,1.8722656982421875,1.68551796875,-0.8091603053435115,-22.213740458015266,-11.053435114503817,0.0
14.510000705718994,-9.744400756835937,1.908178723144531,0.5315127685546874,-9.587786259541986,5.374045801526718,-2.9160305343511452,-9.006986645507812,1.2138602416992186,2.5546131713867184,-9.664122137404581,-16.213740458015266,-7.038167938931298,0.0
14.520000696182251,-9.730035546875,1.2976572998046874,0.354341845703125,-8.51908396946565,4.580152671755725,-1.633587786259542,-10.608707556152343,-0.3687070556640625,2.597708801269531,-4.488549618320611,-15.725190839694656,-5.038167938931298,0.0
14.530000686645508,-9.82580361328125,1.2378022583007813,0.3232172241210937,-5.114503816793893,3.969465648854962,-1.0229007633587786,-8.604760766601562,0.74699091796875,1.8411410766601561,-5.603053435114504,-18.47328244274809,-10.473282442748092,0.0
14.540000915527344,-9.89523546142578,1.62805712890625,0.6847416748046875,-3.984732824427481,6.106870229007634,-0.5038167938931297,-8.80347950439453,0.21068974609375,1.9656395629882812,-1.8931297709923665,-14.259541984732824,-10.595419847328245,0.0
14.550000429153442,-9.399635717773437,1.5777788940429687,0.5410895751953124,-3.3435114503816794,5.9541984732824424,-0.6106870229007634,-9.0788126953125,0.2059013427734375,1.89620771484375,2.564885496183206,-12.610687022900763,-11.48091603053435,0.0
14.560000896453857,-9.70369932861328,1.407790576171875,0.5578489868164063,-2.1068702290076335,5.374045801526718,-0.2748091603053435,-8.43956085205078,0.6440402465820312,1.4341267944335936,4.427480916030534,-12.717557251908397,-12.366412213740459,0.0
14.570000648498535,-9.627084875488281,0.8690952026367187,0.4860229370117187,4.473282442748092,7.694656488549619,-0.183206106870229,-8.79150849609375,0.5051765502929687,2.0183119995117185,5.190839694656488,-8.702290076335878,-11.770992366412214,0.0
14.580000877380371,-8.95670841064453,0.8906430175781249,0.40462008056640625,0.8702290076335878,4.656488549618321,-0.8091603053435115,-9.133879333496093,0.354341845703125,2.3127988037109373,7.190839694656488,-7.282442748091603,-11.893129770992367,0.0
14.590000867843628,-10.244788903808594,1.668758557128906,0.7206546997070312,-0.24427480916030533,2.50381679389313,-3.8625954198473282,-9.011775048828124,0.5123591552734374,2.176329309082031,9.435114503816793,-8.763358778625955,-11.908396946564885,0.0
14.600000619888306,-10.486603271484375,1.2832920898437499,1.1563994018554686,1.297709923664122,1.7404580152671756,-5.145038167938932,-9.090783703613281,0.5961562133789062,2.492363928222656,6.885496183206107,-5.526717557251908,-11.648854961832061,0.0
14.610000371932983,-9.957484704589843,0.7733271362304687,1.0678139404296874,3.8931297709923665,1.0076335877862594,-5.6183206106870225,-9.093177905273437,0.373495458984375,2.360682836914062,8.80916030534351,-4.809160305343512,-11.16030534351145,0.0
14.620000839233398,-9.694122521972655,0.9337386474609375,0.9816226806640624,7.740458015267175,-0.9465648854961832,-7.480916030534351,-9.203311181640624,0.3112462158203125,2.3870190551757813,10.381679389312977,-5.511450381679389,-11.725190839694656,0.0
14.630000829696655,-10.244788903808594,1.7669208251953124,1.2282254516601563,7.66412213740458,-3.435114503816794,-8.885496183206106,-8.487444885253906,0.7709329345703124,2.3367408203125,8.549618320610687,-4.458015267175573,-13.465648854961833,0.0
14.640000581741333,-10.187328063964843,1.8507178833007811,1.407790576171875,11.312977099236642,-4.488549618320611,-9.648854961832061,-9.246406811523437,0.6081272216796875,2.5617957763671875,12.15267175572519,-3.450381679389313,-13.572519083969466,0.0
14.650001049041748,-9.526528405761718,1.8171990600585937,1.39821376953125,13.694656488549619,-6.641221374045801,-9.419847328244275,-9.275137231445312,0.7062894897460937,2.5378537597656248,12.412213740458014,-2.1374045801526718,-13.86259541984733,0.0
14.660000562667847,-10.500968481445312,3.3159692993164063,2.0829554443359375,9.664122137404581,-8.16793893129771,-10.229007633587786,-8.91840118408203,0.8714894042968749,2.2601263671875,12.183206106870228,-1.0687022900763359,-14.259541984732824,0.0
14.670000791549683,-10.455478649902343,3.4763808105468748,1.649604943847656,-4.091603053435114,-17.17557251908397,-7.221374045801527,-9.313444458007812,0.7781155395507812,2.104503259277344,13.816793893129772,-0.061068702290076333,-13.129770992366412,0.0
14.68000054359436,-10.666168395996094,1.5131354492187499,1.47482822265625,-3.801526717557252,-19.083969465648856,-3.404580152671756,-8.990227233886719,0.5626373901367188,2.133233679199219,12.564885496183207,1.0687022900763359,-12.82442748091603,0.0
14.690000772476196,-9.555258825683593,1.1755530151367186,1.3742717529296875,2.4122137404580153,-17.740458015267176,-1.5114503816793894,-8.494627490234375,0.42377369384765623,2.1883003173828124,12.51908396946565,1.4045801526717556,-12.625954198473282,0.0
14.700000524520874,-9.179369165039063,1.659181750488281,0.9313444458007812,2.8396946564885495,-19.801526717557252,-2.9770992366412212,-8.774749084472656,0.28969840087890625,2.408566870117187,14.305343511450381,2.6412213740458017,-12.15267175572519,0.0
14.71000075340271,-9.504980590820312,0.4572925170898437,0.7493851196289062,5.450381679389313,-20.198473282442748,-3.786259541984733,-8.566453540039062,0.7038952880859375,2.1906945190429687,13.419847328244275,3.0839694656488548,-12.259541984732824,0.0
14.720000743865967,-8.652644799804687,0.41419688720703124,1.3838485595703125,13.236641221374045,-15.816793893129772,-5.9541984732824424,-8.145074047851562,0.7110778930664062,2.2002713256835937,7.9541984732824424,6.3816793893129775,-12.396946564885496,0.0
14.730000495910645,-8.997409838867187,0.6200982299804687,1.5634136840820312,15.17557251908397,-14.931297709923664,-9.068702290076336,-8.710105639648438,0.24899697265624998,3.0885201416015624,7.984732824427481,8.16793893129771,-12.091603053435115,0.0
14.74000072479248,-10.635043774414061,2.6719290527343746,2.418143676757812,9.755725190839694,-15.740458015267176,-12.045801526717558,-9.53131680908203,0.32082302246093747,2.990357873535156,10.229007633587786,8.366412213740459,-12.687022900763358,0.0
14.750000476837158,-9.9981861328125,1.5801730957031248,2.319981408691406,10.381679389312977,-19.251908396946565,-11.129770992366412,-9.70369932861328,0.6057330200195312,2.499546533203125,14.916030534351146,4.9465648854961835,-13.145038167938932,0.0
14.760000705718994,-9.409212524414063,1.7669208251953124,2.104503259277344,8.381679389312977,-20.33587786259542,-10.763358778625955,-9.241618408203124,1.0342951171875,2.6527754394531247,13.282442748091603,4.931297709923665,-13.679389312977099,0.0
14.770000696182251,-9.97184991455078,1.7621324218749999,1.3623007446289062,3.267175572519084,-24.290076335877863,-9.84732824427481,-9.373299499511718,1.3551181396484375,2.4875755249023435,10.412213740458014,4.67175572519084,-12.885496183206106,0.0
