timestamp,Thigh_L_Acc_X,Thigh_L_Acc_Y,Thigh_L_Acc_Z,Thigh_L_Gyr_X,Thigh_L_Gyr_Y,Thigh_L_Gyr_Z,Thigh_R_Acc_X,Thigh_R_Acc_Y,Thigh_R_Acc_Z,Thigh_R_Gyr_X,Thigh_R_Gyr_Y,Thigh_R_Gyr_Z,gpio_output
10.000000715255737,-6.811503723144531,0.9074024291992187,-0.7493851196289062,1.5114503816793894,12.717557251908397,14.061068702290076,-11.719617126464843,-1.0726023437499999,1.2401964599609374,1.6793893129770991,-41.51145038167939,25.282442748091604,0.0
10.010000705718994,-6.737283471679687,0.9864110839843749,0.16041151123046873,2.946564885496183,17.129770992366414,13.709923664122137,-10.307038146972655,1.3766659545898436,0.08379705810546874,7.4961832061068705,-50.79389312977099,22.015267175572518,1.0
10.020000457763672,-6.976703637695312,1.01514150390625,-0.3950432739257812,12.030534351145038,20.885496183206108,16.427480916030536,-9.840168823242188,1.618480322265625,-1.6424223388671875,-1.1145038167938932,-51.099236641221374,21.740458015267176,1.0
10.030029058456421,-9.402029919433593,2.7653029174804686,0.8188169677734375,20.610687022900763,31.099236641221374,14.595419847328245,-9.849745629882811,1.4604630126953124,-2.221819140625,-7.297709923664122,-46.58015267175573,22.16793893129771,1.0
10.040000915527344,-10.330980163574218,1.9488801513671874,0.584185205078125,15.038167938931299,31.0381679389313,14.80916030534351,-10.635043774414061,-0.2657563842773437,-2.971204260253906,4.0458015267175576,-39.267175572519086,23.633587786259543,1.0
10.05000114440918,-9.94072529296875,1.659181750488281,0.2609679809570312,14.870229007633588,32.62595419847328,13.801526717557252,-9.440337145996093,0.9265560424804687,-3.095702746582031,5.206106870229007,-41.86259541984733,20.427480916030536,1.0
10.060000896453857,-9.641450085449218,0.6679822631835937,-0.4908113403320312,12.030534351145038,32.2442748091603,14.992366412213741,-9.066841687011719,1.5251064575195312,-3.871424084472656,4.580152671755725,-31.49618320610687,19.267175572519083,1.0
10.070001125335693,-9.641450085449218,0.9217676391601562,0.6847416748046875,15.16030534351145,34.88549618320611,12.13740458015267,-8.966285217285156,1.7860744384765623,-3.6942531616210936,-1.1603053435114503,-28.12213740458015,18.15267175572519,1.0
10.080138206481934,-9.986215124511718,1.0702081420898437,1.5873557006835937,12.732824427480915,31.755725190839694,9.770992366412214,-9.715670336914062,-0.11013327636718749,-2.7557261108398436,-8.229007633587786,-17.862595419847327,19.633587786259543,1.0
10.090171575546265,-8.741230261230468,1.6927005737304686,1.0414777221679687,18.259541984732824,29.083969465648856,8.366412213740459,-9.9981861328125,-0.6057330200195312,-2.5570073730468748,-2.7938931297709924,-17.34351145038168,15.526717557251908,1.0
10.100000619888306,-9.880870251464843,2.5570073730468748,1.3623007446289062,16.80916030534351,27.328244274809162,7.343511450381679,-10.333374365234375,-1.2713210815429687,-2.0542250244140625,6.137404580152672,-17.297709923664122,12.229007633587786,1.0
10.110063552856445,-10.225635290527343,2.4109610717773435,1.0223241088867188,13.282442748091603,24.427480916030536,9.099236641221374,-9.93354268798828,-0.6368576416015624,-1.6256629272460936,13.114503816793894,-18.65648854961832,9.541984732824428,1.0
10.12000060081482,-8.815450512695312,2.4684219116210935,0.6177040283203125,5.694656488549619,21.099236641221374,10.65648854961832,-9.641450085449218,0.21068974609375,-0.7781155395507812,19.49618320610687,-20.427480916030536,8.641221374045802,1.0
10.130000829696655,-9.287108239746093,2.0829554443359375,0.3280056274414062,-4.580152671755725,18.015267175572518,10.870229007633588,-9.81862100830078,-0.430956298828125,0.3112462158203125,25.66412213740458,-22.091603053435115,8.961832061068701,1.0
10.140123844146729,-9.81862100830078,2.1715409057617188,0.5027823486328125,-11.923664122137405,17.16030534351145,9.374045801526718,-8.987833032226561,1.5586252807617187,-0.1197100830078125,30.076335877862597,-26.16793893129771,5.603053435114504,1.0
10.150000810623169,-7.941566906738281,0.062249243164062495,-0.239420166015625,-5.435114503816794,19.129770992366414,13.17557251908397,-8.894459167480468,2.2361843505859373,-1.0103531005859374,19.251908396946565,-25.49618320610687,4.748091603053435,1.0
10.160001039505005,-9.02135185546875,1.2856862915039062,0.7924807495117187,-1.7251908396946565,25.31297709923664,10.0,-9.375693701171874,0.5865794067382812,0.105344873046875,13.129770992366412,-22.610687022900763,5.236641221374046,1.0
10.170000553131104,-9.469067565917967,0.47165772705078124,0.41898529052734373,-3.9236641221374047,25.282442748091604,8.229007633587786,-9.210493786621093,0.4285620971679687,0.22026655273437498,13.954198473282442,-26.015267175572518,3.3893129770992365,1.0
10.180001258850098,-10.445901843261717,0.9145850341796874,1.3335703247070312,-6.732824427480916,25.984732824427482,4.809160305343512,-9.145850341796875,1.197100830078125,-0.45489831542968745,17.00763358778626,-26.259541984732824,2.351145038167939,1.0
10.190001010894775,-10.256759912109374,0.5698199951171875,0.5817910034179687,-13.34351145038168,20.748091603053435,3.801526717557252,-9.121908325195312,1.2785036865234374,0.06943184814453125,15.755725190839694,-33.099236641221374,0.9923664122137404,1.0
10.200001001358032,-9.682151513671874,0.7733271362304687,0.21787235107421873,-11.679389312977099,21.51145038167939,2.6106870229007635,-8.451531860351562,1.7381904052734374,0.24181436767578124,11.267175572519085,-33.32824427480916,-0.9618320610687023,1.0
10.210000991821289,-9.794678991699218,1.5610194824218748,0.4477157104492187,-16.977099236641223,20.229007633587788,1.7557251908396947,-8.403647827148436,3.6822821533203123,-0.8020575561523438,0.22900763358778625,-34.42748091603053,-1.9389312977099236,0.0
10.220001220703125,-10.153809240722655,2.061407629394531,0.8164227661132812,-12.595419847328245,24.549618320610687,2.0,-8.901641772460938,2.5617957763671875,0.011971008300781249,-16.076335877862597,-33.61832061068702,0.4580152671755725,0.0
10.230001449584961,-10.314220751953124,2.583343591308594,0.5195417602539062,-18.916030534351144,23.49618320610687,1.816793893129771,-9.126696728515624,2.8562825805664063,-0.258573779296875,-25.236641221374047,-31.221374045801525,-0.12213740458015267,0.0
10.240004062652588,-10.611101757812499,3.306392492675781,1.1875240234375,-22.595419847328245,25.64885496183206,0.916030534351145,-9.749189160156249,1.1731588134765625,0.023942016601562498,-30.35114503816794,-26.9618320610687,1.1145038167938932,0.0
10.250000476837158,-10.01015714111328,2.4564509033203126,0.4860229370117187,-27.49618320610687,22.82442748091603,2.6106870229007635,-10.735600244140624,-1.2521674682617188,0.8355763793945312,-23.541984732824428,-27.435114503816795,0.6717557251908397,0.0
10.260001182556152,-9.119514123535156,1.0797849487304687,-0.2705447875976562,-25.267175572519083,20.50381679389313,4.488549618320611,-10.299855541992187,-1.1037269653320312,-0.1771709228515625,-9.618320610687023,-33.69465648854962,-3.6030534351145036,0.0
10.27000117301941,-8.90643017578125,1.4125789794921875,0.031124621582031248,-21.557251908396946,22.595419847328245,3.3282442748091605,-10.129867224121092,-1.2737152832031249,0.8786720092773437,0.5343511450381679,-39.9236641221374,-7.022900763358779,0.0
10.280000925064087,-9.258377819824219,1.9991583862304687,0.9169792358398436,-21.389312977099237,24.68702290076336,1.297709923664122,-9.97184991455078,-0.4955997436523437,0.3902548706054687,9.404580152671755,-45.66412213740458,-10.473282442748092,0.0
10.290001153945923,-10.158597644042969,2.6336218261718747,1.2401964599609374,-25.0381679389313,23.893129770992367,-0.42748091603053434,-9.847351428222655,1.8746598999023436,-0.3447650390625,4.931297709923665,-46.33587786259542,-13.49618320610687,0.0
10.300035953521729,-9.854534033203125,2.5809493896484375,1.7453730102539062,-27.633587786259543,22.671755725190838,0.3511450381679389,-9.739612353515625,1.2401964599609374,0.105344873046875,-7.511450381679389,-43.52671755725191,-12.045801526717558,0.0
10.310001373291016,-9.358934289550781,1.4987702392578124,0.6967126831054687,-28.442748091603054,17.206106870229007,3.0381679389312977,-10.752359655761719,-0.277727392578125,0.09816226806640624,1.083969465648855,-37.267175572519086,-10.992366412213741,0.0
10.320001125335693,-10.551246716308594,2.090138049316406,0.9121908325195311,-29.984732824427482,14.641221374045802,1.633587786259542,-10.20169327392578,-1.4149731811523436,0.5099649536132812,11.587786259541986,-43.19083969465649,-14.335877862595419,0.0
10.33007264137268,-10.577582934570312,2.501940734863281,1.01514150390625,-28.229007633587788,13.84732824427481,1.7557251908396947,-9.804255798339844,-0.34715924072265625,0.0,24.549618320610687,-47.25190839694657,-18.12213740458015,0.0
10.340000867843628,-9.813832604980469,1.8195932617187498,0.6009446166992187,-32.61068702290076,10.274809160305344,4.213740458015267,-9.141061938476563,2.463633508300781,-0.430956298828125,21.938931297709924,-46.33587786259542,-19.541984732824428,0.0
10.350000858306885,-9.751583361816406,1.37906015625,0.8906430175781249,-31.938931297709924,11.603053435114504,4.748091603053435,-8.894459167480468,3.299209887695312,-0.28969840087890625,7.633587786259542,-40.0763358778626,-17.17557251908397,0.0
10.360000848770142,-9.986215124511718,0.8882488159179687,0.7781155395507812,-30.793893129770993,11.48091603053435,2.9923664122137406,-10.448296044921875,0.9528922607421875,0.33039982910156246,1.984732824427481,-36.18320610687023,-13.969465648854962,0.0
10.370000839233398,-9.382876306152344,-0.10295067138671875,0.29448680419921874,-19.374045801526716,11.770992366412214,2.0,-10.429142431640624,0.5626373901367188,0.7350199096679687,9.465648854961833,-35.86259541984733,-14.198473282442748,0.0
10.380001306533813,-9.89523546142578,0.16998831787109375,0.8475473876953125,-17.923664122137403,13.083969465648854,-1.083969465648855,-9.605537060546874,1.149216796875,0.7757213378906249,10.122137404580153,-38.56488549618321,-16.68702290076336,0.0
10.390000820159912,-9.694122521972655,1.6448165405273436,1.0702081420898437,-10.16793893129771,14.702290076335878,-2.6106870229007635,-8.779537487792968,2.683900061035156,0.5817910034179687,5.099236641221374,-34.56488549618321,-15.755725190839694,0.0
10.400001049041748,-10.014945544433592,2.094926452636719,1.3407529296874998,-20.244274809160306,10.229007633587786,-2.9923664122137406,-8.844180932617187,2.971204260253906,0.5003881469726562,-9.908396946564885,-31.603053435114504,-14.900763358778626,0.0
10.410000801086426,-9.797073193359374,1.0079588989257813,0.7158662963867187,-17.34351145038168,7.175572519083969,-0.5801526717557252,-9.6917283203125,1.886630908203125,0.8188169677734375,-13.419847328244275,-27.16030534351145,-11.679389312977099,0.0
10.420001029968262,-8.90643017578125,0.5793968017578125,0.5291185668945312,-2.2748091603053435,10.961832061068701,1.099236641221374,-9.272743029785156,1.0797849487304687,0.8571241943359375,-20.9618320610687,-23.770992366412212,-12.244274809160306,0.0
10.430001020431519,-10.658985791015624,1.8219874633789062,0.8978256225585937,-1.7099236641221374,13.267175572519085,-1.8473282442748091,-9.718064538574218,-0.45010991210937495,0.7493851196289062,-16.671755725190838,-21.541984732824428,-13.068702290076336,0.0
10.440001010894775,-9.9215716796875,2.461239306640625,0.4333505004882812,-4.442748091603053,9.893129770992367,-1.4351145038167938,-9.706093530273437,-0.055066638183593745,0.737414111328125,-5.175572519083969,-25.572519083969464,-15.450381679389313,0.0
10.450000762939453,-9.603142858886718,1.5705962890624998,0.5147533569335937,-11.358778625954198,7.022900763358779,-0.366412213740458,-9.777919580078125,-0.0526724365234375,1.915361328125,2.4885496183206106,-28.68702290076336,-16.03053435114504,0.0
10.46000075340271,-9.892841259765625,1.68551796875,0.8020575561523438,-6.1679389312977095,10.290076335877863,-1.099236641221374,-9.710881933593749,1.0749965454101562,1.467645617675781,7.66412213740458,-28.061068702290076,-14.076335877862595,0.0
10.470000505447388,-9.277531433105468,0.948103857421875,0.21308394775390624,-8.290076335877863,9.221374045801527,-0.7480916030534351,-8.444349255371094,2.5641899780273434,0.8667010009765624,4.366412213740458,-28.396946564885496,-13.786259541984732,0.0
10.480000734329224,-9.916783276367187,2.0350714111328125,0.469263525390625,-7.923664122137405,11.557251908396946,-3.8473282442748094,-8.690952026367187,1.5849614990234373,1.7310078002929687,-7.435114503816794,-27.068702290076335,-12.01526717557252,0.0
10.49000072479248,-9.397241516113281,1.2042834350585936,0.06943184814453125,-10.610687022900763,10.045801526717558,-2.381679389312977,-8.33182177734375,2.2601263671875,0.9744400756835937,-16.48854961832061,-19.96946564885496,-10.16793893129771,0.0
10.500000715255737,-10.070012182617187,1.4413093994140624,0.4955997436523437,-8.427480916030534,12.045801526717558,-2.2442748091603053,-9.536105212402344,0.24899697265624998,1.6639701538085936,-17.572519083969464,-15.206106870229007,-7.404580152671755,0.0
10.510001182556152,-10.302249743652343,1.9871873779296874,0.9002198242187499,-9.099236641221374,13.435114503816793,-3.7099236641221376,-9.299079248046874,0.07422025146484375,1.7310078002929687,-12.50381679389313,-16.366412213740457,-7.526717557251908,0.0
10.52000093460083,-9.641450085449218,1.6903063720703124,0.6488286499023437,-10.106870229007633,13.083969465648854,-2.2595419847328246,-9.045293872070312,0.6153098266601562,1.0989385620117187,-9.282442748091603,-15.954198473282442,-8.67175572519084,0.0
10.530001163482666,-9.861716638183593,1.8004396484374998,0.4477157104492187,-19.51145038167939,10.01526717557252,-3.2519083969465647,-9.390058911132812,0.32082302246093747,1.3287819213867187,-7.435114503816794,-13.17557251908397,-7.984732824427481,0.0
10.540001153945923,-9.562441430664062,0.9600748657226562,-0.009576806640625,-17.389312977099237,9.679389312977099,-3.0229007633587788,-9.97903251953125,-0.7541735229492187,1.9800047729492187,-1.0687022900763359,-12.381679389312977,-6.870229007633588,0.0
10.550001382827759,-8.975862023925782,0.076614453125,-0.603338818359375,-11.022900763358779,12.13740458015267,-2.7938931297709924,-9.210493786621093,0.0909796630859375,1.5418658691406248,0.22900763358778625,-13.908396946564885,-8.076335877862595,0.0
10.560000658035278,-9.995791931152343,1.838746875,0.08140285644531249,-9.114503816793894,17.34351145038168,-7.114503816793893,-8.353369592285155,1.5658078857421873,1.1827356201171875,-5.374045801526718,-13.053435114503817,-8.412213740458014,0.0
10.570000886917114,-9.076418493652342,0.6296750366210937,-0.5698199951171875,-9.679389312977099,15.572519083969466,-5.022900763358779,-9.258377819824219,0.8762778076171874,1.5682020874023437,-8.213740458015268,-7.694656488549619,-6.229007633587786,0.0
10.580000877380371,-8.834604125976561,0.3591302490234375,-0.6368576416015624,-5.175572519083969,16.977099236641223,-4.977099236641221,-9.528922607421874,0.44053310546874996,1.927332336425781,-7.893129770992366,-5.862595419847328,-5.541984732824427,0.0
10.590000867843628,-9.18655177001953,0.814028564453125,-0.2609679809570312,-2.6717557251908395,18.80916030534351,-6.977099236641221,-9.80665,-0.25139117431640623,2.104503259277344,-2.7786259541984735,-5.923664122137405,-4.916030534351145,0.0
10.600001096725464,-9.380482104492186,1.618480322265625,0.3711012573242187,-3.5572519083969465,18.213740458015266,-8.106870229007633,-8.578424548339843,1.4796166259765624,1.6807295654296874,-2.9923664122137406,-8.15267175572519,-7.145038167938932,0.0
10.610067129135132,-10.223241088867187,2.437297290039062,0.8020575561523438,-12.351145038167939,15.541984732824428,-9.17557251908397,-9.878476049804688,0.32082302246093747,2.0829554443359375,-7.083969465648855,-3.9236641221374047,-3.49618320610687,0.0
10.620000839233398,-9.670180505371093,1.0654197387695312,0.354341845703125,-7.694656488549619,12.870229007633588,-6.732824427480916,-9.445125549316407,0.16280571289062498,2.128445275878906,-5.587786259541985,-4.549618320610687,-4.0458015267175576,0.0
10.630000352859497,-9.931148486328125,1.0175357055664063,0.6057330200195312,-6.366412213740458,13.19083969465649,-8.198473282442748,-9.65342109375,-0.00718260498046875,1.5634136840820312,-6.259541984732825,-3.8625954198473282,-4.061068702290076,0.0
10.640001058578491,-10.005368737792969,1.350329736328125,0.7733271362304687,-3.450381679389313,12.320610687022901,-9.374045801526718,-9.160215551757812,0.201112939453125,1.7717092285156248,-8.030534351145038,-2.8091603053435112,-4.412213740458015,0.0
10.650001049041748,-9.9215716796875,0.9911994873046874,1.0749965454101562,-1.4198473282442747,10.427480916030534,-9.572519083969466,-9.129090930175781,-0.13168109130859373,1.5801730957031248,-5.068702290076335,-0.2748091603053435,-5.129770992366412,0.0
10.660001277923584,-9.861716638183593,0.9409212524414062,1.4341267944335936,0.7938931297709924,8.335877862595419,-10.473282442748092,-8.894459167480468,0.15083470458984374,1.3383587280273437,-0.8396946564885496,1.6488549618320612,-5.8320610687022905,0.0
10.670000791549683,-10.242394702148436,0.7038952880859375,1.2473790649414063,4.305343511450381,6.1679389312977095,-11.450381679389313,-9.246406811523437,-0.603338818359375,1.4006079711914061,3.2977099236641223,4.458015267175573,-5.587786259541985,0.0
10.680001974105835,-10.177751257324218,0.8020575561523438,1.419761584472656,9.618320610687023,4.061068702290076,-12.13740458015267,-8.810662109374999,-0.4860229370117187,1.3575123413085937,6.67175572519084,6.061068702290076,-6.122137404580153,0.0
10.690000772476196,-10.079588989257813,0.63206923828125,1.8124106567382812,15.17557251908397,0.9465648854961832,-13.068702290076336,-8.9255837890625,-0.40462008056640625,1.0726023437499999,10.80916030534351,8.106870229007633,-6.977099236641221,0.0
10.700000762939453,-10.000580334472655,0.2561795776367187,1.695094775390625,24.442748091603054,-1.1145038167938932,-13.877862595419847,-8.916006982421875,-0.49320554199218747,1.2785036865234374,13.786259541984732,9.49618320610687,-7.480916030534351,0.0
10.71000051498413,-10.934318981933593,1.9321207397460936,2.5426421630859375,22.595419847328245,-4.580152671755725,-17.221374045801525,-8.973467822265624,-0.6631938598632812,1.1827356201171875,18.061068702290076,11.236641221374045,-8.13740458015267,0.0
10.720000743865967,-10.194510668945313,1.0845733520507812,2.43250888671875,25.755725190839694,-11.908396946564885,-15.83206106870229,-8.853757739257812,-0.5315127685546874,1.2018892333984375,22.38167938931298,12.0,-9.541984732824428,0.0
10.730000972747803,-9.95987890625,1.3718775512695311,3.0645781249999997,28.65648854961832,-15.297709923664122,-16.580152671755727,-8.616731774902343,-0.3280056274414062,1.3742717529296875,24.977099236641223,12.778625954198473,-9.923664122137405,0.0
10.74000072479248,-9.981426721191406,1.4149731811523436,2.7653029174804686,33.45038167938932,-20.717557251908396,-16.458015267175572,-8.576030346679687,-0.33758243408203126,1.2521674682617188,26.885496183206108,14.274809160305344,-10.778625954198473,0.0
10.750001192092896,-9.957484704589843,2.003946789550781,3.2513258544921873,34.36641221374046,-26.83969465648855,-17.053435114503817,-8.269572534179687,-0.15562310791015624,1.1324573852539062,25.6793893129771,15.98473282442748,-11.83206106870229,0.0
10.760000705718994,-11.121066711425781,4.285620971679688,5.068524914550781,22.244274809160306,-34.51908396946565,-19.954198473282442,-7.6997525390625,-0.0909796630859375,0.8068459594726562,25.755725190839694,18.412213740458014,-13.068702290076336,0.0
10.77000093460083,-9.900023864746093,3.153163586425781,4.520252734375,11.603053435114504,-50.67175572519084,-15.49618320610687,-8.0828248046875,0.5698199951171875,0.5434837768554687,29.6793893129771,18.061068702290076,-14.427480916030534,0.0
10.780000686645508,-10.24000050048828,2.7461493041992187,5.45877978515625,8.488549618320612,-60.396946564885496,-13.206106870229007,-7.4603323730468745,0.8212111694335937,0.10295067138671875,22.931297709923665,26.244274809160306,-14.381679389312977,0.0
10.790000915527344,-10.625466967773438,2.051830822753906,5.6024318847656245,6.2748091603053435,-71.95419847328245,-11.053435114503817,-8.010998754882811,-0.7805097412109374,1.35990654296875,19.786259541984734,26.259541984732824,-14.335877862595419,0.0
10.800000667572021,-10.94868419189453,1.9895815795898437,6.5385647338867185,6.961832061068702,-82.83969465648855,-10.0,-7.726088757324218,-0.34237083740234375,-0.16041151123046873,29.16030534351145,28.53435114503817,-16.0,0.0
10.810001373291016,-11.058817468261719,1.649604943847656,6.679822631835937,5.404580152671755,-96.36641221374046,-10.091603053435115,-7.510610607910156,-0.8355763793945312,-0.11252747802734374,29.31297709923664,28.198473282442748,-20.458015267175572,0.0
10.820000648498535,-11.396399902343749,1.2856862915039062,7.141903552246093,4.9465648854961835,-108.22900763358778,-11.206106870229007,-7.972691528320312,-0.28969840087890625,-0.16998831787109375,31.114503816793892,36.48854961832061,-24.65648854961832,0.0
10.830000877380371,-11.104307299804686,0.4740519287109375,6.825868933105468,3.282442748091603,-120.82442748091603,-10.992366412213741,-8.729259252929687,1.6424223388671875,-0.201112939453125,23.541984732824428,39.37404580152672,-26.458015267175572,0.0
10.840001106262207,-11.111489904785156,-1.1228805786132812,6.816292126464844,2.2442748091603053,-134.74809160305344,-13.221374045801527,-10.692504614257812,2.602497204589844,1.2808978881835937,12.274809160305344,48.091603053435115,-24.3206106870229,0.0
10.850000858306885,-12.061987963867187,-1.5442600708007812,7.682993127441406,2.7938931297709924,-147.09923664122138,-18.12213740458015,-13.48414375,1.7357962036132812,3.399766357421875,13.358778625954198,46.916030534351144,-18.259541984732824,0.0
10.86000108718872,-13.237540979003905,-1.695094775390625,8.441955053710936,9.572519083969466,-163.40458015267177,-21.251908396946565,-13.77144794921875,2.9735984619140625,3.2417490478515623,23.923664122137403,35.86259541984733,-12.458015267175572,0.0
10.870000839233398,-14.257470886230468,-1.707065783691406,8.966285217285156,21.557251908396946,-180.9770992366412,-21.786259541984734,-12.339715356445312,3.23696064453125,3.028665100097656,16.9618320610687,27.34351145038168,-8.763358778625955,0.0
10.880001068115234,-17.49203732910156,-1.7573440185546874,8.576030346679687,28.931297709923665,-194.59541984732823,-20.671755725190838,-12.981361401367186,1.139639990234375,1.9752163696289062,17.770992366412212,24.793893129770993,-4.030534351145038,0.0
10.890001058578491,-18.332402111816407,-1.5969325073242187,8.765172277832031,38.595419847328245,-208.06106870229007,-18.50381679389313,-11.999738720703125,1.7477672119140624,-0.3399766357421875,19.374045801526716,27.17557251908397,0.5343511450381679,0.0
10.900001049041748,-19.78568251953125,-1.8171990600585937,7.733271362304687,53.02290076335878,-219.58778625954199,-13.816793893129772,-10.87206973876953,1.6424223388671875,-1.2282254516601563,9.312977099236642,21.96946564885496,3.450381679389313,0.0
10.910000801086426,-19.055451013183593,-1.1947066284179686,5.600037683105469,63.221374045801525,-228.04580152671755,-10.946564885496183,-9.708487731933593,1.235408056640625,-2.916137622070312,1.6946564885496183,28.748091603053435,5.236641221374046,0.0
10.920001029968262,-17.46570111083984,-1.5873557006835937,1.37906015625,72.38167938931298,-229.61832061068702,-8.183206106870228,-10.091559997558592,-1.1061211669921875,-4.050989208984375,-3.801526717557252,33.63358778625954,5.908396946564886,0.0
10.93000078201294,-15.021221215820312,-1.7477672119140624,-1.8746598999023436,86.35114503816794,-216.06106870229007,-5.541984732824427,-10.402806213378906,-4.991910461425781,-2.8945898071289062,1.0381679389312977,38.74809160305343,5.190839694656488,0.0
10.940001249313354,-11.480196960449218,-0.948103857421875,-4.355052819824219,94.77862595419847,-193.31297709923663,-3.2977099236641223,-9.72285294189453,-6.315903979492187,-2.920926025390625,11.679389312977099,39.74045801526717,-0.7175572519083969,0.0
10.950000762939453,-8.429984045410155,-0.7733271362304687,-5.947196923828125,97.34351145038168,-166.54961832061068,-2.519083969465649,-8.951920007324219,-4.352658618164062,-3.8570588745117185,16.396946564885496,45.57251908396947,-7.679389312977099,0.0
10.96000051498413,-6.4092778442382805,1.1133037719726562,-5.386953735351562,95.31297709923665,-133.45038167938932,-1.4351145038167938,-7.781155395507812,-1.9895815795898437,-3.5817256835937497,-2.8244274809160306,52.48854961832061,-9.938931297709924,0.0
10.970000267028809,-6.567295153808593,3.347093920898437,-4.6639048339843745,81.63358778625954,-99.74045801526718,2.2595419847328246,-10.053252770996092,-3.902548706054687,-1.956062756347656,-17.49618320610687,65.45038167938931,-6.320610687022901,0.0
10.980000972747803,-7.644685900878906,4.029441394042968,-3.787627026367187,68.85496183206106,-78.36641221374046,12.351145038167939,-10.589553942871094,-3.399766357421875,-0.15562310791015624,-12.030534351145038,59.23664122137404,-7.557251908396947,0.0
10.99000072479248,-8.262389929199218,5.307945080566406,-2.0877438476562498,44.36641221374046,-61.343511450381676,21.6793893129771,-10.512939489746094,-1.448492004394531,1.2737152832031249,-20.732824427480917,57.725190839694655,-9.86259541984733,0.0
11.000000715255737,-10.479420666503906,5.7149593627929685,0.8044517578125,2.2290076335877864,-52.458015267175576,26.061068702290076,-11.563994018554688,-1.8267758666992187,4.082113830566406,-20.885496183206108,51.29770992366412,-7.190839694656488,0.0
11.010000467300415,-8.695740429687499,4.261678955078125,0.373495458984375,-29.83206106870229,-53.221374045801525,29.46564885496183,-12.559981909179687,-0.7829039428710937,5.566518859863281,-16.9618320610687,35.48091603053435,-5.236641221374046,0.0
11.02000093460083,-7.467514978027343,3.746925598144531,1.5586252807617187,-53.61832061068702,-49.86259541984733,29.435114503816795,-12.72997022705078,0.17956512451171874,5.475539196777343,-23.34351145038168,20.33587786259542,-3.2061068702290076,0.0
11.030001163482666,-5.896918688964844,2.767697119140625,1.8004396484374998,-67.81679389312977,-46.94656488549618,29.984732824427482,-11.796231579589843,1.2737152832031249,4.7931917236328125,-35.69465648854962,8.702290076335878,-2.2290076335877864,0.0
11.040000677108765,-4.034229797363281,1.6256629272460936,0.086191259765625,-75.02290076335878,-43.32824427480916,32.06106870229008,-11.317391247558593,0.612915625,4.276044165039062,-43.64885496183206,0.6564885496183206,1.9083969465648856,0.0
11.0500009059906,-3.67749375,0.3016694091796875,-0.9792284790039062,-72.7175572519084,-31.129770992366414,32.213740458015266,-10.378864196777343,-0.2657563842773437,2.8754361938476563,-43.87786259541985,-5.251908396946565,4.564885496183206,0.0
11.06000566482544,-3.840299462890625,-0.2609679809570312,-1.0749965454101562,-72.6412213740458,-17.267175572519083,29.64885496183206,-9.524134204101562,-0.5961562133789062,1.0989385620117187,-41.25190839694657,-8.16793893129771,4.8396946564885495,0.0
11.070001125335693,-4.367023828124999,-0.9169792358398436,-0.7972691528320313,-71.23664122137404,-5.00763358778626,26.916030534351144,-8.796296899414061,-0.7422025146484375,0.5099649536132812,-38.3206106870229,-7.557251908396947,4.580152671755725,0.0
11.080000877380371,-3.6655227416992187,-1.8698714965820311,-1.0606313354492187,-68.8854961832061,8.13740458015267,23.435114503816795,-8.372523205566406,-0.8212111694335937,-0.24660277099609373,-35.17557251908397,-4.244274809160306,4.33587786259542,0.0
11.090000867843628,-5.72693037109375,-0.7972691528320313,0.18435352783203124,-85.74045801526718,14.564885496183207,14.854961832061068,-8.588001354980468,-1.24498486328125,-1.35990654296875,-30.580152671755727,-0.32061068702290074,5.129770992366412,0.0
11.100000858306885,-5.121197351074218,-2.123656872558594,0.3447650390625,-98.13740458015268,19.709923664122137,10.534351145038167,-8.662221606445312,-1.5658078857421873,-1.6735469604492186,-26.0,4.6106870229007635,4.854961832061068,0.0
11.110000848770142,-3.73495458984375,-4.455609289550781,-0.46686932373046874,-102.65648854961832,25.984732824427482,5.129770992366412,-8.279149340820313,-1.369483349609375,-1.2856862915039062,-18.259541984732824,9.98473282442748,4.961832061068702,0.0
11.120000839233398,-2.042254016113281,-7.264007836914062,-0.565031591796875,-84.45801526717557,41.57251908396947,-2.9160305343511452,-9.138667736816405,-1.5658078857421873,-1.1180921752929687,-11.48091603053435,14.458015267175572,5.114503816793893,0.0
11.130000829696655,-2.7629087158203123,-7.829039428710937,0.21787235107421873,-59.603053435114504,58.56488549618321,-15.755725190839694,-9.093177905273437,-1.3646949462890625,-0.737414111328125,-5.541984732824427,17.786259541984734,4.473282442748092,0.0
11.140030145645142,-3.754108203125,-6.41646044921875,0.8762778076171874,-38.06106870229008,72.01526717557252,-26.732824427480917,-9.655815295410155,-1.4173673828125,-0.5602431884765625,-0.6412213740458015,20.244274809160306,4.854961832061068,0.0
11.150001049041748,-4.058171813964844,-5.547365246582031,0.699106884765625,-14.229007633587786,83.0381679389313,-32.2442748091603,-9.629479077148437,-1.2234370483398436,0.06703764648437499,4.366412213740458,22.458015267175572,6.427480916030534,0.0
11.160001039505005,-4.874594580078124,-4.062960217285156,1.2689268798828124,11.908396946564885,96.07633587786259,-33.83206106870229,-9.938331091308592,-1.2138602416992186,0.17956512451171874,6.3816793893129775,25.14503816793893,7.374045801526718,0.0
11.170000553131104,-6.641515405273437,-2.0087351928710935,2.616862414550781,28.68702290076336,104.90076335877863,-34.396946564885496,-9.909600671386718,-1.3910311645507811,-0.062249243164062495,7.435114503816794,25.267175572519083,8.229007633587786,0.0
11.180001020431519,-7.8529814453124995,-0.6296750366210937,3.303998291015625,39.23664122137404,110.1526717557252,-31.755725190839694,-9.770736975097655,-1.5945383056640625,0.0047884033203125,9.511450381679388,26.47328244274809,9.297709923664122,0.0
11.190000772476196,-9.576806640625,0.7038952880859375,4.132392065429687,45.74045801526717,112.74809160305344,-28.015267175572518,-10.13226142578125,-2.3678654418945313,0.6679822631835937,14.030534351145038,27.709923664122137,9.938931297709924,0.0
11.200001001358032,-10.053252770996092,1.3239935180664062,4.630386010742187,44.732824427480914,110.6412213740458,-23.00763358778626,-9.89523546142578,-1.4508862060546874,0.6464344482421874,14.290076335877863,26.793893129770993,9.282442748091603,0.0
11.21000075340271,-10.596736547851561,1.9608511596679685,5.6024318847656245,37.86259541984733,106.09160305343511,-18.244274809160306,-9.595960253906249,-0.4333505004882812,0.6847416748046875,13.32824427480916,26.366412213740457,9.16030534351145,0.0
11.220000982284546,-10.165780249023436,2.2936451904296873,6.110002636718749,28.12213740458015,99.77099236641222,-12.595419847328245,-9.521740002441407,1.0079588989257813,0.8690952026367187,1.6488549618320612,31.480916030534353,11.267175572519085,0.0
11.230000257492065,-10.292672937011718,2.4660277099609376,6.868964562988281,18.076335877862597,92.91603053435115,-5.526717557251908,-9.497797985839844,-0.16519991455078123,1.0438719238281249,-11.19083969465649,34.51908396946565,14.442748091603054,0.0
11.240000247955322,-10.20887587890625,1.8555062866210936,7.074865905761718,15.648854961832061,88.06106870229007,-0.7938931297709924,-10.836156713867187,-2.9951462768554684,2.398990063476562,-4.717557251908397,36.62595419847328,17.755725190839694,0.0
11.250000476837158,-9.631873278808593,1.5251064575195312,6.828263134765624,22.83969465648855,85.0381679389313,2.381679389312977,-10.62307276611328,-2.8514941772460936,1.4532804077148436,12.534351145038167,29.801526717557252,17.099236641221374,0.0
11.260000705718994,-8.99501563720703,1.6735469604492186,6.4643444824218745,32.62595419847328,83.05343511450381,5.435114503816794,-9.854534033203125,-1.4772224243164063,1.3000515014648437,14.732824427480915,25.87786259541985,15.49618320610687,0.0
11.270000457763672,-9.3852705078125,2.5737667846679684,7.022193469238281,33.74045801526717,79.54198473282443,7.587786259541985,-10.108319409179687,-0.6775590698242188,0.9911994873046874,11.17557251908397,23.099236641221374,17.16030534351145,0.0
11.280000448226929,-7.42441934814453,1.139639990234375,4.486733911132812,47.847328244274806,81.49618320610686,15.938931297709924,-10.539275708007812,-0.9911994873046874,1.2617442749023438,6.916030534351145,22.015267175572518,20.30534351145038,0.0
11.290001153945923,-11.0707884765625,4.206612316894531,4.383783239746093,42.274809160305345,85.96946564885496,19.328244274809162,-10.587159741210938,-1.1013327636718748,0.7900865478515624,4.1679389312977095,21.083969465648856,21.6793893129771,0.0
11.300000667572021,-13.828908789062499,4.503493322753906,3.584119885253906,23.572519083969464,87.0381679389313,26.18320610687023,-10.862492932128905,-2.2673089721679687,0.6847416748046875,11.068702290076336,15.755725190839694,22.442748091603054,0.0
11.310000896453857,-15.121777685546874,1.5562310791015623,5.547365246582031,-2.4122137404580153,83.81679389312977,31.022900763358777,-10.551246716308594,-2.157175695800781,1.024718310546875,9.49618320610687,15.541984732824428,20.870229007633586,0.0
11.320000410079956,-14.204798449707031,-3.0980969482421874,8.712499841308594,-11.923664122137405,74.91603053435115,29.755725190839694,-10.211270080566406,-1.3144167114257812,1.2665326782226562,3.5877862595419847,13.541984732824428,18.38167938931298,0.0
11.330000638961792,-14.429853405761717,-3.7134067749023436,12.598289135742187,-0.6259541984732825,63.05343511450382,21.72519083969466,-10.850521923828124,-0.5626373901367188,1.1420341918945311,5.038167938931298,13.038167938931299,18.38167938931298,0.0
11.340000867843628,-14.051569543457031,-2.935291235351562,13.225569970703123,14.50381679389313,41.05343511450382,17.31297709923664,-10.958260998535156,0.1005564697265625,1.448492004394531,0.6870229007633588,9.282442748091603,18.076335877862597,0.0
11.350000619888306,-12.935871569824219,-0.469263525390625,11.279084020996093,26.65648854961832,22.076335877862597,14.793893129770993,-11.264718811035156,-0.7876923461914062,2.039859814453125,2.198473282442748,3.114503816793893,18.229007633587788,0.0
11.360000610351562,-11.044452258300781,1.024718310546875,6.8785413696289055,18.091603053435115,3.053435114503817,10.183206106870228,-11.456254943847656,0.2561795776367187,2.3415292236328122,3.3893129770992365,-7.786259541984733,18.198473282442748,0.0
11.37000060081482,-6.5385647338867185,-3.1842882080078123,0.9696516723632812,31.31297709923664,-2.946564885496183,12.748091603053435,-11.520898388671874,0.5578489868164063,2.4875755249023435,-2.0,-17.435114503816795,20.03053435114504,0.0
11.380000591278076,-6.100425830078125,-2.767697119140625,-1.7693150268554687,47.11450381679389,7.480916030534351,11.083969465648854,-11.037269653320312,1.3958195678710936,2.291250988769531,-11.32824427480916,-26.80916030534351,22.244274809160306,0.0
11.390000820159912,-7.630320690917968,0.5219359619140624,-2.3511060302734372,48.213740458015266,19.87786259541985,8.900763358778626,-11.688492504882811,0.2537853759765625,3.0166940917968748,-10.977099236641221,-35.66412213740458,24.763358778625953,0.0
11.40000033378601,-6.665457421875,1.6927005737304686,-1.9584569580078124,42.595419847328245,25.84732824427481,13.49618320610687,-11.578359228515625,0.49320554199218747,2.6815058593749996,-22.931297709923665,-37.55725190839695,26.53435114503817,0.0
11.410000562667847,-7.951143713378905,2.4971523315429685,0.5817910034179687,43.55725190839695,34.2442748091603,15.17557251908397,-11.398794104003905,-1.6448165405273436,1.1420341918945311,-9.282442748091603,-45.93893129770992,25.419847328244273,0.0
11.420000791549683,-9.880870251464843,3.4907460205078125,1.429338391113281,39.725190839694655,39.12977099236641,12.595419847328245,-11.209652172851563,-0.7996633544921875,0.023942016601562498,-0.6564885496183206,-54.900763358778626,21.435114503816795,0.0
11.43000054359436,-10.034099157714843,4.7381250854492185,1.5466542724609373,26.213740458015266,40.25954198473283,12.259541984732824,-10.01015714111328,1.3311761230468748,-1.5466542724609373,-3.9083969465648853,-56.35114503816794,18.33587786259542,0.0
11.440001010894775,-10.666168395996094,3.2034418212890623,0.24660277099609373,4.580152671755725,38.30534351145038,11.923664122137405,-10.481814868164061,0.5363011718749999,-1.4149731811523436,-9.221374045801527,-50.25954198473283,20.244274809160306,0.0
11.450000524520874,-10.874463940429687,1.9009961181640624,0.07422025146484375,-9.923664122137405,39.00763358778626,9.664122137404581,-10.94868419189453,0.38307226562499996,-1.9321207397460936,-0.9312977099236641,-47.74045801526717,19.068702290076335,0.0
11.460000276565552,-9.643844287109374,0.6488286499023437,-0.5722141967773438,-17.740458015267176,37.00763358778626,8.65648854961832,-11.17852755126953,-0.9121908325195311,-1.6136919189453125,-5.770992366412214,-48.732824427480914,15.84732824427481,0.0
11.470000267028809,-9.636661682128906,0.3591302490234375,0.3758896606445312,-12.732824427480915,41.93893129770992,7.099236641221374,-10.228029492187499,1.350329736328125,-1.7310078002929687,-2.0,-52.045801526717554,11.84732824427481,0.0
11.480000257492065,-8.552088330078124,1.199495031738281,0.5602431884765625,-12.351145038167939,44.06106870229008,5.297709923664122,-10.199299072265624,1.6208745239257811,-1.7310078002929687,-14.625954198473282,-45.80152671755725,12.320610687022901,0.0
11.490000486373901,-9.79946739501953,2.1452046874999997,0.9217676391601562,-10.534351145038167,45.969465648854964,4.2748091603053435,-10.922347973632812,0.3902548706054687,-2.1308394775390624,-12.412213740458014,-38.916030534351144,13.007633587786259,0.0
11.500000476837158,-9.200916979980468,1.9895815795898437,-0.009576806640625,-12.045801526717558,44.61068702290076,5.480916030534351,-10.874463940429687,-0.5793968017578125,-2.2026655273437497,-12.473282442748092,-36.97709923664122,10.946564885496183,0.0
11.510000705718994,-9.916783276367187,1.8507178833007811,0.19153613281249998,-11.068702290076336,46.0763358778626,6.290076335877862,-9.95987890625,-0.2825157958984375,-2.664746447753906,-7.862595419847328,-34.76335877862596,7.297709923664122,0.0
11.520000696182251,-9.816226806640625,0.9121908325195311,-0.3711012573242187,-7.511450381679389,45.770992366412216,8.061068702290076,-14.276624499511717,-5.691017346191406,1.9009961181640624,-1.9541984732824427,-31.358778625954198,5.083969465648855,0.0
11.530000925064087,-9.334992272949219,0.40222587890625,-0.373495458984375,-1.3740458015267176,46.94656488549618,8.0,-10.424354028320312,0.07422025146484375,-2.0183119995117185,22.885496183206108,-39.7557251908397,-0.6106870229007634,0.0
11.540000677108765,-9.873687646484374,0.6536170532226562,0.354341845703125,0.44274809160305345,49.908396946564885,5.465648854961832,-9.200916979980468,2.703053674316406,-1.9728221679687499,13.32824427480916,-37.63358778625954,-1.450381679389313,0.0
11.550000667572021,-9.586383447265625,0.19153613281249998,0.4213794921875,5.00763358778626,49.41984732824427,4.900763358778626,-8.961496813964843,3.689464758300781,-2.703053674316406,2.9160305343511452,-29.51145038167939,-1.0076335877862594,0.0
11.560000896453857,-9.830592016601562,0.6440402465820312,0.9169792358398436,6.6106870229007635,50.10687022900763,1.4809160305343512,-9.514557397460937,1.3359645263671873,-1.3239935180664062,-6.5038167938931295,-21.00763358778626,2.9923664122137406,0.0
11.570000886917114,-9.651026892089844,0.39983167724609375,0.7661445312499999,8.702290076335878,48.16793893129771,-0.5648854961832062,-9.284714038085937,0.6057330200195312,-1.0869675537109373,-0.5648854961832062,-20.625954198473284,-0.24427480916030533,0.0
11.580000877380371,-9.821015209960937,1.0582371337890624,0.6751648681640625,9.98473282442748,47.404580152671755,-2.2595419847328246,-9.081206896972656,0.38786066894531246,-0.7110778930664062,3.633587786259542,-18.442748091603054,-2.0610687022900764,0.0
11.590000629425049,-9.354145886230468,1.0534487304687499,0.7900865478515624,10.351145038167939,43.57251908396947,-2.4580152671755724,-9.33978067626953,-0.6392518432617187,0.08379705810546874,11.740458015267176,-16.83969465648855,-3.114503816793893,0.0
11.600000381469727,-9.991003527832031,1.6519991455078125,1.3048399047851562,7.969465648854962,41.43511450381679,-3.66412213740458,-9.337386474609374,0.4644751220703125,0.34237083740234375,21.480916030534353,-19.557251908396946,-4.99236641221374,0.0
11.610000610351562,-10.302249743652343,1.618480322265625,1.2378022583007813,3.4656488549618323,38.595419847328245,-3.816793893129771,-9.655815295410155,0.8978256225585937,0.09337386474609374,22.442748091603054,-23.282442748091604,-5.557251908396947,0.0
11.62000060081482,-9.593566052246093,2.825157958984375,1.0558429321289062,-3.0076335877862594,34.93129770992366,-3.7557251908396947,-9.540893615722656,0.8571241943359375,0.3950432739257812,22.83969465648855,-24.916030534351144,-4.977099236641221,0.0
11.630000352859497,-10.20887587890625,2.549824768066406,1.2665326782226562,-18.885496183206108,27.114503816793892,-2.2595419847328246,-9.605537060546874,1.180341418457031,0.3902548706054687,21.129770992366414,-30.229007633587788,-5.4961832061068705,0.0
11.640000581741333,-9.718064538574218,1.4413093994140624,0.5219359619140624,-17.099236641221374,24.68702290076336,0.8396946564885496,-9.009380847167968,2.1356278808593747,0.6464344482421874,11.206106870229007,-29.389312977099237,-3.3893129770992365,0.0
11.65000057220459,-9.045293872070312,0.6775590698242188,0.3687070556640625,-13.86259541984733,24.53435114503817,1.9541984732824427,-9.023746057128905,3.0693665283203124,-0.35673604736328124,1.282442748091603,-24.80916030534351,-2.717557251908397,0.0
11.660000801086426,-10.17056865234375,1.9823989746093749,1.2306196533203124,-10.045801526717558,28.045801526717558,-1.4045801526717556,-9.593566052246093,0.9217676391601562,0.9337386474609375,-8.80916030534351,-20.793893129770993,0.6106870229007634,0.0
11.670000314712524,-8.86812294921875,-0.02633621826171875,0.36631285400390623,-7.022900763358779,23.84732824427481,-0.0,-10.292672937011718,0.201112939453125,1.1947066284179686,2.900763358778626,-26.931297709923665,-1.1755725190839694,0.0
11.68000078201294,-10.75714805908203,1.1133037719726562,1.0749965454101562,-2.6412213740458017,26.18320610687023,-4.244274809160306,-10.043675964355469,-0.28012159423828126,1.6831237670898436,13.465648854961833,-28.641221374045802,-2.381679389312977,0.0
11.690001010894775,-10.254365710449218,0.9552864624023437,0.354341845703125,-0.6717557251908397,23.893129770992367,-4.106870229007634,-10.711658227539061,0.1292868896484375,1.5322890624999999,21.770992366412212,-35.17557251908397,-4.442748091603053,0.0
11.700001001358032,-9.91438907470703,1.2114660400390624,0.2561795776367187,-1.633587786259542,20.68702290076336,-3.49618320610687,-10.026916552734374,1.8555062866210936,0.9074024291992187,24.82442748091603,-41.14503816793893,-5.633587786259542,0.0
11.71000075340271,-10.36210478515625,2.1499930908203124,0.6703764648437499,-4.076335877862595,20.259541984732824,-4.488549618320611,-8.808267907714843,3.0741549316406247,0.7541735229492187,8.778625954198473,-43.16030534351145,-6.564885496183206,0.0
11.720000982284546,-10.378864196777343,2.2266075439453124,0.8283937744140625,-8.900763358778626,17.908396946564885,-3.49618320610687,-9.088389501953124,2.7150246826171873,0.4525041137695312,-4.549618320610687,-36.3206106870229,-2.2290076335877864,0.0
11.730000972747803,-9.801861596679688,0.9409212524414062,0.488417138671875,-4.595419847328245,15.282442748091603,-1.251908396946565,-10.474632263183594,0.42377369384765623,1.16837041015625,-3.877862595419847,-37.603053435114504,-0.6259541984732825,0.0
11.74000096321106,-10.235212097167969,1.5921441040039062,0.6440402465820312,-1.618320610687023,14.793893129770993,-3.282442748091603,-10.467449658203124,-0.2561795776367187,1.467645617675781,5.6183206106870225,-43.89312977099237,-1.9389312977099236,0.0
11.750000476837158,-9.655815295410155,1.5035586425781249,0.3591302490234375,0.732824427480916,12.51908396946565,-3.145038167938931,-9.612719665527344,1.3766659545898436,0.7398083129882812,9.038167938931299,-47.02290076335878,-4.961832061068702,0.0
11.760000705718994,-9.756371765136718,1.8411410766601561,0.6440402465820312,3.3587786259541983,13.419847328244275,-3.099236641221374,-8.717288244628906,2.7198130859375,0.14604630126953125,4.885496183206107,-40.94656488549618,-4.458015267175573,0.0
11.77000093460083,-10.182539660644531,2.5234885498046875,1.1228805786132812,-1.618320610687023,12.290076335877863,-4.198473282442748,-10.172962854003906,1.4149731811523436,0.8571241943359375,0.0,-38.06106870229008,-1.5419847328244274,0.0
11.780000448226929,-10.129867224121092,1.6400281372070311,0.5027823486328125,-5.8320610687022905,6.99236641221374,-3.5877862595419847,-9.734823950195311,0.7733271362304687,0.9983820922851562,3.786259541984733,-41.23664122137404,-1.6641221374045803,0.0
11.790000915527344,-9.840168823242188,1.7238251953125,0.181959326171875,-0.16793893129770993,7.526717557251908,-2.4732824427480917,-9.586383447265625,0.8906430175781249,1.2018892333984375,7.32824427480916,-43.98473282442748,-4.290076335877862,0.0
11.800000429153442,-9.591171850585937,1.946485949707031,-0.11731588134765625,2.4427480916030535,8.564885496183207,-1.1297709923664123,-8.63109698486328,2.233790148925781,0.948103857421875,3.114503816793893,-40.51908396946565,-4.244274809160306,0.0
11.810000896453857,-9.945513696289062,2.7365724975585937,0.39743747558593745,-3.7099236641221376,8.106870229007633,-0.015267175572519083,-8.55448253173828,1.867477294921875,0.9217676391601562,-9.755725190839694,-36.2442748091603,-1.5267175572519085,0.0
11.820000410079956,-10.01733974609375,2.1739351074218747,0.49799394531249996,-5.435114503816794,9.48091603053435,0.7175572519083969,-9.880870251464843,0.0718260498046875,1.7717092285156248,-7.541984732824427,-29.374045801526716,1.0381679389312977,0.0
11.830000638961792,-9.483432775878907,1.5155296508789062,0.23223756103515625,-9.770992366412214,8.183206106870228,-0.6717557251908397,-9.708487731933593,0.24899697265624998,0.9648632690429687,-4.763358778625954,-33.267175572519086,-0.3053435114503817,0.0
11.840000867843628,-8.966285217285156,0.833182177734375,-0.07422025146484375,-7.4961832061068705,8.580152671755725,-1.4961832061068703,-10.204087475585936,-0.38307226562499996,1.8291700683593748,2.9923664122137406,-33.61832061068702,-2.9618320610687023,0.0
11.850000619888306,-8.997409838867187,0.9145850341796874,-0.2825157958984375,-5.557251908396947,10.50381679389313,-3.404580152671756,-8.729259252929687,1.2976572998046874,1.1180921752929687,6.122137404580153,-32.85496183206107,-3.0839694656488548,0.0
11.860000371932983,-9.208099584960937,1.369483349609375,-0.13168109130859373,-5.145038167938932,12.51908396946565,-5.114503816793893,-8.164227661132813,3.3207577026367185,0.373495458984375,-1.1603053435114503,-29.404580152671755,-3.9083969465648853,0.0
11.87000060081482,-9.311050256347656,0.17956512451171874,-0.3854664672851562,-3.5572519083969465,13.374045801526718,-4.183206106870229,-7.9295958984374995,3.356670727539062,0.5195417602539062,-16.80916030534351,-25.740458015267176,-1.9694656488549618,0.0
11.880000591278076,-9.282319836425781,0.6560112548828124,-0.469263525390625,6.702290076335878,17.938931297709924,-5.541984732824427,-9.047688073730468,1.3048399047851562,1.5586252807617187,-23.358778625954198,-15.312977099236642,1.4351145038167938,0.0
11.890000581741333,-9.916783276367187,1.5251064575195312,0.5770026000976562,5.297709923664122,20.595419847328245,-8.717557251908397,-9.303867651367186,0.08379705810546874,1.5634136840820312,-19.099236641221374,-15.938931297709924,-0.8244274809160306,0.0
11.900001049041748,-9.375693701171874,2.4660277099609376,0.1005564697265625,1.5725190839694656,17.0381679389313,-8.83969465648855,-8.777143286132812,0.229843359375,1.2641384765625,-15.007633587786259,-14.946564885496183,-3.2213740458015265,0.0
11.910000562667847,-9.457096557617186,2.5522189697265625,0.612915625,-6.351145038167939,16.213740458015266,-7.648854961832061,-9.165003955078124,0.023942016601562498,1.5059528442382812,-10.870229007633588,-13.557251908396946,-3.8625954198473282,0.0
11.920000791549683,-10.275913525390624,3.1962592163085937,0.5267243652343749,-16.290076335877863,12.916030534351146,-7.679389312977099,-9.162609753417968,0.258573779296875,1.4006079711914061,-10.061068702290076,-13.17557251908397,-4.473282442748092,0.0
11.93000054359436,-9.521740002441407,1.4891934326171874,0.02154781494140625,-15.297709923664122,11.526717557251908,-5.175572519083969,-9.871293444824218,-0.6344634399414062,2.3439234252929686,-4.900763358778626,-12.916030534351146,-3.9236641221374047,0.0
11.940000772476196,-9.888052856445311,1.7812860351562498,0.12689268798828124,-15.114503816793894,13.17557251908397,-7.022900763358779,-9.445125549316407,0.5578489868164063,1.9321207397460936,-1.4961832061068703,-14.992366412213741,-6.213740458015267,0.0
11.950000524520874,-9.854534033203125,1.649604943847656,-0.19393033447265623,-16.213740458015266,12.82442748091603,-6.931297709923665,-9.643844287109374,0.41419688720703124,2.1619640991210938,-0.8091603053435115,-12.122137404580153,-6.259541984732825,0.0
11.96000051498413,-8.836998327636719,0.29448680419921874,-0.6775590698242188,-8.198473282442748,15.435114503816793,-5.114503816793893,-9.399635717773437,1.0797849487304687,1.4820108276367188,0.7786259541984732,-14.106870229007633,-7.480916030534351,0.0
11.970000267028809,-8.863334545898438,0.7900865478515624,-0.45968671875,-10.564885496183207,17.84732824427481,-7.557251908396947,-8.66940421142578,0.7038952880859375,2.142810485839844,-0.5190839694656488,-17.129770992366414,-11.312977099236642,0.0
11.980000257492065,-9.488221179199218,1.0702081420898437,-0.40222587890625,-15.587786259541986,17.267175572519083,-9.419847328244275,-8.501810095214843,1.458068811035156,1.2832920898437499,-2.381679389312977,-16.33587786259542,-13.267175572519085,0.0
11.990000486373901,-9.667786303710937,1.0917559570312498,-0.08140285644531249,-14.381679389312977,20.0,-10.977099236641221,-7.750030773925781,1.4867992309570313,1.8219874633789062,-12.778625954198473,-8.992366412213741,-13.389312977099237,0.0
12.000000476837158,-10.441113439941406,1.697488977050781,0.28969840087890625,-15.938931297709924,22.061068702290076,-13.129770992366412,-8.975862023925782,0.4572925170898437,1.6448165405273436,-14.900763358778626,-3.2977099236641223,-11.541984732824428,0.0
12.010001182556152,-9.868899243164062,1.0390835205078124,0.143652099609375,-13.786259541984732,21.16030534351145,-12.793893129770993,-9.1554271484375,-0.4908113403320312,1.5466542724609373,-10.427480916030534,-2.4580152671755724,-10.763358778625955,0.0
12.020000696182251,-9.145850341796875,0.8499415893554687,0.06464344482421874,-10.290076335877863,19.69465648854962,-12.290076335877863,-7.6997525390625,0.9576806640625,0.6368576416015624,-10.229007633587786,-2.183206106870229,-13.725190839694656,0.0
12.030000925064087,-9.624690673828125,0.5865794067382812,-0.08379705810546874,-11.938931297709924,16.748091603053435,-11.954198473282442,-8.678981018066406,0.13646949462890623,0.833182177734375,-8.366412213740459,6.137404580152672,-11.740458015267176,0.0
12.040000915527344,-10.426748229980468,1.3862427612304686,0.411802685546875,-7.694656488549619,17.17557251908397,-13.86259541984733,-8.425195642089843,0.2825157958984375,1.1540052001953125,-6.67175572519084,7.114503816793893,-11.84732824427481,0.0
12.050000667572021,-10.01733974609375,1.2832920898437499,0.8858546142578124,-5.236641221374046,17.114503816793892,-14.67175572519084,-8.389282617187499,0.0718260498046875,1.0917559570312498,-4.549618320610687,9.679389312977099,-13.954198473282442,0.0
12.060000658035278,-10.299855541992187,1.5897499023437498,0.7589619262695312,-11.98473282442748,12.13740458015267,-14.458015267175572,-8.590395556640624,-0.0143652099609375,1.0079588989257813,-3.0839694656488548,13.648854961832061,-14.549618320610687,0.0
12.070000648498535,-9.79946739501953,0.5099649536132812,0.6009446166992187,-6.732824427480916,10.106870229007633,-14.244274809160306,-8.619125976562499,-0.19393033447265623,0.9409212524414062,-0.2900763358778626,16.83969465648855,-15.374045801526718,0.0
12.080000638961792,-9.698910925292969,0.45010991210937495,0.6177040283203125,-3.0076335877862594,9.358778625954198,-16.061068702290076,-8.614337573242187,-0.19632453613281248,0.9002198242187499,1.7557251908396947,19.14503816793893,-16.061068702290076,0.0
12.090001344680786,-9.868899243164062,0.7709329345703124,0.6967126831054687,-0.1984732824427481,7.541984732824427,-18.47328244274809,-8.66940421142578,-0.2442085693359375,1.0773907470703123,5.7251908396946565,22.3206106870229,-16.778625954198475,0.0
12.100000619888306,-9.909600671386718,0.6368576416015624,0.7422025146484375,2.7786259541984735,5.114503816793893,-19.083969465648856,-8.698134631347656,0.09576806640624999,1.1444283935546875,8.488549618320612,23.87786259541985,-17.52671755725191,0.0
12.110000610351562,-9.816226806640625,0.842758984375,1.0007762939453124,5.358778625954199,2.7786259541984735,-20.65648854961832,-7.9463553100585935,1.9919757812499999,0.6631938598632812,6.0,25.96946564885496,-18.763358778625953,0.0
12.12000060081482,-10.192116467285155,1.1109095703125,1.254561669921875,6.290076335877862,0.4580152671755725,-20.50381679389313,-8.212111694335936,0.7326257080078125,1.0965443603515623,-4.641221374045801,31.938931297709924,-16.671755725190838,0.0
12.130000591278076,-9.981426721191406,1.0606313354492187,1.448492004394531,7.908396946564886,-3.3282442748091605,-20.763358778625953,-8.628702783203124,0.296881005859375,1.9967641845703124,-2.5343511450381677,34.25954198473283,-16.68702290076336,0.0
12.140000581741333,-10.134655627441406,1.465251416015625,1.7286135986328124,8.625954198473282,-7.00763358778626,-21.34351145038168,-8.975862023925782,1.1875240234375,1.0726023437499999,1.1908396946564885,34.900763358778626,-16.641221374045802,0.0
12.15000057220459,-9.880870251464843,1.6017209106445311,1.7860744384765623,11.16030534351145,-10.351145038167939,-20.610687022900763,-8.437166650390624,0.6967126831054687,2.1595698974609374,-6.366412213740458,35.32824427480916,-18.259541984732824,0.0
12.160001277923584,-10.251971508789062,2.1715409057617188,2.3726538452148436,10.427480916030534,-13.557251908396946,-20.16793893129771,-8.283937744140625,0.8690952026367187,0.8667010009765624,-9.450381679389313,42.42748091603053,-18.946564885496183,0.0
12.170001029968262,-10.326191760253906,2.0566192260742184,2.8514941772460936,9.618320610687023,-20.137404580152673,-19.14503816793893,-9.86411083984375,-1.0582371337890624,1.608903515625,-8.854961832061068,43.86259541984733,-19.236641221374047,0.0
12.18000078201294,-10.651803186035156,2.729389892578125,3.8187516479492185,5.740458015267175,-27.541984732824428,-19.709923664122137,-10.836156713867187,-1.6807295654296874,1.2306196533203124,10.473282442748092,49.465648854961835,-18.38167938931298,0.0
12.190001010894775,-10.46984385986328,3.5984850952148437,4.908113403320312,-7.480916030534351,-41.603053435114504,-19.72519083969466,-11.391611499023437,0.5793968017578125,1.37906015625,14.549618320610687,41.19083969465649,-22.15267175572519,0.0
12.200000762939453,-11.360486877441405,2.942473840332031,6.263231542968749,-15.19083969465649,-56.67175572519084,-17.52671755725191,-11.006145031738281,1.5370774658203123,2.5378537597656248,11.679389312977099,37.57251908396947,-23.099236641221374,0.0
12.21000051498413,-11.463437548828125,2.3032219970703123,8.2743609375,-17.221374045801525,-72.87022900763358,-15.603053435114504,-10.599130749511717,3.5960908935546874,1.9536685546875,9.007633587786259,41.17557251908397,-18.229007633587788,0.0
12.220000505447388,-11.540052001953125,2.1619640991210938,10.168174450683592,-14.0,-92.79389312977099,-14.259541984732824,-10.429142431640624,3.3590649291992185,2.2649147705078123,-2.045801526717557,44.595419847328245,-13.358778625954198,0.0
12.230000257492065,-11.942277880859374,2.1308394775390624,11.360486877441405,-8.030534351145038,-114.91603053435115,-11.755725190839694,-11.757924353027343,0.03591302490234375,3.3686417358398435,1.2366412213740459,47.25190839694657,-8.15267175572519,0.0
12.240000486373901,-12.856862915039061,1.7549498168945312,11.578359228515625,1.2366412213740459,-140.94656488549617,-8.244274809160306,-11.228805786132812,-1.3072341064453123,2.849099975585937,21.61832061068702,39.74045801526717,-7.801526717557252,0.0
12.250000476837158,-12.835315100097656,1.2282254516601563,11.590330236816406,13.297709923664122,-164.13740458015266,-1.7709923664122138,-9.064447485351561,-0.031124621582031248,1.7310078002929687,27.786259541984734,37.3587786259542,-8.702290076335878,0.0
12.260000705718994,-12.521674682617187,-1.5011644409179687,9.753977563476562,32.900763358778626,-185.40458015267177,2.717557251908397,-8.796296899414061,0.32082302246093747,0.47165772705078124,32.33587786259542,42.656488549618324,-4.427480916030534,0.0
12.27000093460083,-11.61906065673828,-6.227318518066406,4.592078784179687,35.267175572519086,-199.72519083969465,-3.984732824427481,-8.78432589111328,0.9504980590820312,-0.5722141967773438,36.778625954198475,41.083969465648856,-4.198473282442748,0.0
12.280000686645508,-12.088324182128906,-8.36294639892578,3.4644098022460934,49.786259541984734,-205.75572519083968,-15.664122137404581,-7.977479931640625,1.714248388671875,-1.85790048828125,24.778625954198475,44.961832061068705,-7.038167938931298,0.0
12.290000915527344,-15.16247911376953,-7.551312036132812,1.7357962036132812,72.1526717557252,-205.34351145038167,-22.290076335877863,-9.162609753417968,0.8259995727539062,-2.6862942626953124,25.557251908396946,51.725190839694655,-5.083969465648855,0.0
12.300000667572021,-16.232687255859375,-6.296750366210937,0.5722141967773438,94.42748091603053,-201.86259541984734,-25.114503816793892,-7.331045483398437,2.6408044311523438,-5.276820458984375,19.374045801526716,53.25190839694657,-6.732824427480916,0.0
12.310000896453857,-18.04749211425781,-3.670311145019531,0.44532150878906246,100.85496183206106,-192.19847328244273,-27.053435114503817,-9.78031378173828,-1.465251416015625,-4.0222587890625,9.664122137404581,63.587786259541986,-4.244274809160306,0.0
12.320000648498535,-17.5830169921875,-1.0534487304687499,-0.5434837768554687,107.22137404580153,-181.6793893129771,-22.12213740458015,-9.459490759277344,-1.0917559570312498,-6.543353137207031,14.305343511450381,70.21374045801527,-7.221374045801527,0.0
12.330000638961792,-16.60378851318359,2.214636535644531,-1.9584569580078124,103.5114503816794,-165.4198473282443,-13.770992366412214,-10.225635290527343,-2.7820623291015623,-5.6383449096679685,1.465648854961832,83.02290076335878,-5.572519083969466,0.0
12.340000629425049,-13.479355346679686,2.8658593872070313,-1.7166425903320313,89.32824427480917,-155.29770992366412,-3.1908396946564888,-11.389217297363281,-4.407725256347656,-3.9528269409179684,11.083969465648854,85.92366412213741,-5.00763358778626,0.0
12.350000381469727,-11.590330236816406,4.010287780761718,-1.22583125,76.10687022900764,-140.83969465648855,3.404580152671756,-12.440271826171875,-4.436455676269531,-0.6847416748046875,8.061068702290076,82.29007633587786,-6.396946564885496,0.0
12.360000610351562,-10.299855541992187,3.5051112304687497,-1.886630908203125,55.603053435114504,-128.25954198473283,10.473282442748092,-12.966996191406249,-4.244919543457031,2.77727392578125,11.221374045801527,69.96946564885496,-8.687022900763358,0.0
12.37000060081482,-9.581595043945311,4.491522314453125,-0.9409212524414062,38.29007633587786,-114.04580152671755,14.916030534351146,-13.891158032226562,-3.5434184570312497,6.011840368652344,7.816793893129771,53.587786259541986,-9.32824427480916,0.0
12.380000591278076,-9.306261853027344,5.1140147460937495,-0.7972691528320313,18.137404580152673,-102.41221374045801,22.977099236641223,-13.201627954101562,-1.5418658691406248,6.1818286865234375,-7.083969465648855,33.38931297709924,-11.038167938931299,0.0
12.390000820159912,-9.694122521972655,6.177040283203125,-0.5195417602539062,-7.648854961832061,-89.06870229007633,34.50381679389313,-13.620613244628906,-1.7190367919921874,7.194575988769531,-19.83206106870229,19.587786259541986,-9.068702290076336,0.0
12.400001049041748,-9.184157568359375,4.687846850585937,-1.5155296508789062,-30.763358778625953,-79.6030534351145,46.94656488549618,-12.399570397949217,0.12449848632812499,5.801150622558594,-34.44274809160305,-2.6564885496183206,-7.541984732824427,0.0
12.410000562667847,-8.815450512695312,4.240131140136718,-1.8195932617187498,-57.954198473282446,-67.05343511450381,53.908396946564885,-11.142614526367186,0.4572925170898437,4.513070129394531,-55.770992366412216,-10.83969465648855,-5.755725190839694,0.0
12.420000791549683,-7.958326318359375,2.2457611572265623,-0.9983820922851562,-89.86259541984732,-57.41984732824427,56.717557251908396,-9.816226806640625,0.35194764404296874,2.7940333374023436,-72.10687022900764,-14.748091603053435,-3.2519083969465647,0.0
12.43000054359436,-7.64229169921875,0.6823474731445313,0.5889736083984375,-104.56488549618321,-46.732824427480914,57.02290076335878,-9.425971936035156,-0.9145850341796874,1.199495031738281,-76.12213740458016,-14.916030534351146,-0.0,0.0
12.440001010894775,-6.37815322265625,-1.1037269653320312,0.7948749511718749,-103.86259541984732,-38.61068702290076,58.13740458015267,-8.760383874511719,-1.0103531005859374,-0.7781155395507812,-73.58778625954199,-13.908396946564885,0.9465648854961832,0.0
12.450000762939453,-6.505045910644531,-1.3215993164062498,1.3168109130859373,-99.34351145038168,-28.85496183206107,54.25954198473283,-8.652644799804687,-1.5777788940429687,-1.8555062866210936,-65.43511450381679,-10.076335877862595,2.595419847328244,0.0
12.46000051498413,-4.92247861328125,-3.1459809814453124,0.22026655273437498,-90.6412213740458,-24.458015267175572,49.87786259541985,-8.652644799804687,-1.9321207397460936,-2.499546533203125,-55.29770992366412,-6.442748091603053,3.5572519083969465,0.0
12.470000505447388,-4.187458703613281,-4.201823913574218,0.05985504150390625,-73.46564885496183,-12.65648854961832,41.541984732824424,-8.86812294921875,-2.3391350219726563,-2.480392919921875,-42.2442748091603,-1.4351145038167938,4.183206106870229,0.0
12.480000495910645,-4.8650177734375,-3.928884924316406,0.34715924072265625,-69.38931297709924,-8.045801526717558,29.72519083969466,-8.91840118408203,-2.0087351928710935,-2.6431986328124997,-28.564885496183205,1.984732824427481,3.969465648854962,0.0
12.490000486373901,-4.747701892089843,-4.321533996582031,0.201112939453125,-59.02290076335878,-3.0076335877862594,21.64885496183206,-8.449137658691406,-1.13006318359375,-2.2074539306640624,-19.282442748091604,6.030534351145038,4.763358778625954,0.0
12.500000476837158,-3.9552211425781247,-4.7931917236328125,0.016759411621093748,-44.44274809160305,4.076335877862595,15.648854961832061,-8.29351455078125,-1.4604630126953124,-1.889025109863281,-16.38167938931298,12.488549618320612,6.519083969465649,0.0
12.510000705718994,-4.414907861328125,-4.11802685546875,0.13407529296874998,-35.98473282442748,10.091603053435115,6.763358778625954,-8.870517150878905,-1.5753846923828123,-1.7573440185546874,-0.7480916030534351,14.076335877862595,4.99236641221374,0.0
12.520000696182251,-4.149151477050781,-4.048595007324218,-0.2753331909179687,-25.099236641221374,16.18320610687023,-0.8854961832061069,-8.89924757080078,-0.4429273071289062,-2.1811177124023438,6.412213740458015,16.625954198473284,4.442748091603053,0.0
12.530001640319824,-4.11802685546875,-3.768473413085937,-0.6177040283203125,-17.81679389312977,22.564885496183205,-7.129770992366412,-8.927977990722656,-0.8930372192382812,-1.5011644409179687,9.114503816793894,23.206106870229007,5.450381679389313,0.0
12.540000915527344,-3.0550013183593747,-3.995922570800781,-1.3575123413085937,0.48854961832061067,34.732824427480914,-11.755725190839694,-9.009380847167968,-0.8978256225585937,-1.0726023437499999,15.694656488549619,24.519083969465647,4.030534351145038,0.0
12.5500009059906,-4.146757275390625,-2.4971523315429685,-0.6607996582031249,10.946564885496183,48.48854961832061,-19.083969465648856,-9.145850341796875,-0.38307226562499996,-1.0079588989257813,18.076335877862597,25.419847328244273,4.061068702290076,0.0
12.560000658035278,-4.855440966796874,-1.2689268798828124,-0.0430956298828125,16.30534351145038,58.534351145038165,-21.358778625954198,-8.94473740234375,0.32561142578124996,-0.8667010009765624,15.129770992366412,29.358778625954198,4.198473282442748,0.0
12.570000648498535,-6.100425830078125,0.14125789794921875,0.9050082275390624,15.664122137404581,68.04580152671755,-20.53435114503817,-9.957484704589843,-1.0414777221679687,-0.28012159423828126,16.580152671755727,33.43511450381679,6.061068702290076,0.0
12.580000877380371,-7.036558679199218,0.9600748657226562,2.0278888061523435,12.351145038167939,75.20610687022901,-17.450381679389313,-9.95987890625,-1.7357962036132812,0.8116343627929687,17.206106870229007,35.725190839694655,5.66412213740458,0.0
12.590000629425049,-7.888894470214844,1.7908628417968748,3.4835634155273434,8.13740458015267,79.58778625954199,-12.412213740458014,-9.744400756835937,0.040701428222656245,-0.031124621582031248,15.053435114503817,30.091603053435115,2.7022900763358777,0.0
12.600000619888306,-8.954314208984375,2.059013427734375,5.418078356933593,-0.9465648854961832,79.57251908396947,-7.4961832061068705,-10.038887561035155,-0.9864110839843749,1.1923124267578125,9.389312977099237,31.72519083969466,5.190839694656488,0.0
12.610000610351562,-9.753977563476562,1.369483349609375,7.268796240234375,-10.290076335877863,74.53435114503817,-1.83206106870229,-10.493785876464843,-0.9337386474609375,1.7812860351562498,14.717557251908397,28.38167938931298,5.267175572519084,0.0
12.62000060081482,-9.574412438964844,0.718260498046875,8.487444885253906,-16.045801526717558,70.82442748091603,0.732824427480916,-10.27830772705078,-0.42377369384765623,2.059013427734375,4.1679389312977095,26.763358778625953,7.00763358778626,0.0
12.630000591278076,-9.756371765136718,-0.04548983154296875,8.82263311767578,-23.69465648854962,64.82442748091603,2.4885496183206106,-10.58476553955078,0.05746083984375,1.254561669921875,-0.5801526717557252,29.297709923664122,9.84732824427481,0.0
12.640000581741333,-9.469067565917967,-0.0143652099609375,8.157045056152343,-19.984732824427482,59.9236641221374,5.038167938931298,-10.328585961914062,-0.5913678100585937,1.915361328125,-9.068702290076336,27.46564885496183,12.961832061068701,0.0
12.65000033378601,-9.794678991699218,0.05985504150390625,7.398083129882812,-12.274809160305344,57.083969465648856,7.358778625954199,-10.417171423339843,-2.3367408203125,1.6927005737304686,-7.938931297709924,22.793893129770993,15.114503816793894,0.0
12.660000801086426,-9.179369165039063,-0.031124621582031248,6.603208178710937,-0.4122137404580153,56.0763358778626,11.16030534351145,-11.183315954589844,-3.39018955078125,0.9576806640625,2.8091603053435112,21.083969465648856,16.641221374045802,0.0
12.670000553131104,-9.617508068847656,0.12210428466796874,6.655880615234374,11.709923664122137,58.12213740458015,13.145038167938932,-10.103531005859374,-1.7717092285156248,0.05027823486328125,5.190839694656488,11.969465648854962,14.931297709923664,0.0
12.68000078201294,-10.050858569335936,0.8283937744140625,6.363788012695312,18.793893129770993,56.94656488549618,16.83969465648855,-10.077194787597655,-1.3000515014648437,-0.3064578125,1.0229007633587786,11.603053435114504,16.50381679389313,0.0
12.690000295639038,-10.771513269042968,1.0390835205078124,5.7843912109375,23.587786259541986,57.74045801526717,22.38167938931298,-10.213664282226562,-1.4939818359375,-0.39983167724609375,-3.053435114503817,10.65648854961832,18.564885496183205,0.0
12.700000762939453,-12.27028350830078,1.3958195678710936,4.649539624023437,25.66412213740458,59.98473282442748,28.137404580152673,-10.357316381835936,-1.3431471313476562,-0.5770026000976562,-4.778625954198473,9.404580152671755,19.450381679389313,0.0
12.71000075340271,-13.618219042968748,0.9193734375,4.048595007324218,25.0381679389313,62.61068702290076,33.083969465648856,-10.137049829101562,-1.3359645263671873,-0.8690952026367187,-8.473282442748092,7.145038167938932,19.34351145038168,0.0
12.720000505447388,-14.173673828124999,-0.5626373901367188,5.1140147460937495,19.16030534351145,61.66412213740458,34.19847328244275,-10.685322009277343,-2.099714855957031,0.258573779296875,-2.549618320610687,7.66412213740458,18.38167938931298,0.0
12.730000495910645,-12.859257116699219,-3.7038299682617186,8.279149340820313,13.938931297709924,52.152671755725194,33.221374045801525,-10.220846887207031,0.3950432739257812,-0.21068974609375,-3.648854961832061,2.2748091603053435,15.206106870229007,0.0
12.740000486373901,-11.276689819335937,-5.367800122070312,9.246406811523437,21.31297709923664,48.30534351145038,20.885496183206108,-10.110713610839843,0.4213794921875,0.296881005859375,-16.671755725190838,5.862595419847328,17.236641221374047,0.0
12.750000238418579,-11.200075366210937,-2.133233679199219,8.113949426269532,16.549618320610687,34.534351145038165,9.17557251908397,-10.544064111328124,0.9911994873046874,0.3184288208007812,-18.0,-0.0916030534351145,16.18320610687023,0.0
12.760000467300415,-8.999804040527343,0.97683427734375,3.699041564941406,18.442748091603054,24.870229007633586,6.916030534351145,-11.068394274902342,0.8571241943359375,0.8978256225585937,-27.404580152671755,-4.488549618320611,18.763358778625953,0.0
12.770000457763672,-7.539341027832031,1.43652099609375,0.076614453125,15.34351145038168,24.03053435114504,6.290076335877862,-11.765106958007811,0.6775590698242188,1.1444283935546875,-27.862595419847327,-11.84732824427481,20.244274809160306,0.0
12.780000925064087,-6.823474731445312,1.1731588134765625,-2.099714855957031,6.122137404580153,24.946564885496183,6.183206106870229,-11.966219897460936,0.9026140258789062,1.5634136840820312,-33.14503816793893,-18.106870229007633,22.549618320610687,0.0
12.790000915527344,-6.794744311523437,-0.0047884033203125,-3.3494881225585935,6.030534351145038,35.3587786259542,8.320610687022901,-12.588712329101561,0.26336218261718747,1.7860744384765623,-32.67175572519084,-26.412213740458014,25.083969465648856,0.0
12.8000009059906,-6.083666418457031,-0.033518823242187495,-3.9169139160156248,12.900763358778626,49.7557251908397,9.83206106870229,-11.707646118164062,0.12689268798828124,4.201823913574218,-44.045801526717554,-33.69465648854962,24.870229007633586,0.0
12.810000896453857,-8.365340600585936,1.7932570434570312,-1.7884686401367187,13.603053435114504,63.98473282442748,9.419847328244275,-11.81777939453125,-1.1252747802734375,1.9991583862304687,-30.30534351145038,-43.69465648854962,25.083969465648856,0.0
12.820000648498535,-10.24718310546875,2.9855694702148434,0.4381389038085937,9.633587786259541,70.13740458015268,9.48091603053435,-11.81059678955078,-0.15322890625,1.637633935546875,-27.31297709923664,-56.534351145038165,21.541984732824428,0.0
12.830000638961792,-11.058817468261719,3.5817256835937497,1.8124106567382812,1.6793893129770991,70.1526717557252,9.374045801526718,-10.800243688964843,0.5051765502929687,1.7214309936523438,-33.16030534351145,-62.38167938931298,20.85496183206107,0.0
12.840000629425049,-10.778695874023438,1.9393033447265624,2.013523596191406,-8.366412213740459,63.69465648854962,9.541984732824428,-11.494562170410155,-0.7852981445312499,1.209071838378906,-22.549618320610687,-67.16030534351145,21.84732824427481,0.0
12.850001096725464,-11.587936035156249,0.5817910034179687,1.898601916503906,-12.13740458015267,59.43511450381679,7.068702290076335,-10.843339318847656,0.6919242797851562,-1.0510545288085937,-12.045801526717558,-73.5114503816794,18.0,0.0
12.860000371932983,-10.065223779296874,-0.8379705810546875,0.8164227661132812,-12.610687022900763,53.32824427480916,7.022900763358779,-9.97184991455078,1.7669208251953124,-1.946485949707031,-20.702290076335878,-69.52671755725191,16.229007633587788,0.0
12.87000060081482,-9.37808790283203,-0.40222587890625,1.0773907470703123,-1.450381679389313,55.55725190839695,5.816793893129771,-9.68454571533203,2.252943762207031,-2.923320227050781,-19.374045801526716,-60.01526717557252,16.931297709923665,0.0
12.880000352859497,-9.37808790283203,-0.6607996582031249,0.6751648681640625,4.534351145038168,55.19083969465649,4.305343511450381,-11.314997045898437,-1.4221557861328125,-0.7062894897460937,-9.694656488549619,-52.152671755725194,22.18320610687023,0.0
12.890000343322754,-9.794678991699218,1.4628572143554686,0.8283937744140625,11.664122137404581,57.19083969465649,1.5572519083969465,-9.229647399902344,2.2553379638671873,-3.3590649291992185,-13.49618320610687,-55.603053435114504,16.916030534351144,0.0
12.90000033378601,-9.284714038085937,2.568978381347656,0.9576806640625,9.83206106870229,55.9236641221374,2.122137404580153,-9.222464794921875,1.9632453613281249,-3.284844677734375,-27.83206106870229,-42.87022900763359,16.732824427480917,0.0
12.910000562667847,-9.76116016845703,2.47081611328125,0.4740519287109375,9.389312977099237,53.404580152671755,3.49618320610687,-10.206481677246094,-0.6703764648437499,-3.172317199707031,-25.450381679389313,-34.396946564885496,16.778625954198475,0.0
12.920000553131104,-9.782707983398437,2.3774422485351563,0.03591302490234375,5.984732824427481,51.74045801526717,3.3282442748091605,-10.596736547851561,-1.944091748046875,-2.511517541503906,-12.50381679389313,-32.25954198473283,13.694656488549619,0.0
12.93000054359436,-9.70369932861328,2.0542250244140625,-0.13407529296874998,6.396946564885496,50.213740458015266,3.969465648854962,-10.40041201171875,-2.6982652709960937,-1.4891934326171874,1.6946564885496183,-37.083969465648856,7.190839694656488,0.0
12.940000772476196,-9.737218151855469,1.649604943847656,0.7805097412109374,6.320610687022901,50.44274809160305,3.2519083969465647,-10.182539660644531,-1.8267758666992187,-1.9608511596679685,19.786259541984734,-33.38931297709924,2.6717557251908395,0.0
12.950000524520874,-10.153809240722655,1.139639990234375,0.9576806640625,7.022900763358779,48.10687022900763,3.0381679389312977,-9.354145886230468,0.15322890625,-2.4205378784179685,26.793893129770993,-34.10687022900763,0.5343511450381679,0.0
12.96000051498413,-9.751583361816406,1.22583125,1.458068811035156,5.8320610687022905,46.458015267175576,1.5419847328244274,-9.318232861328125,1.3263877197265623,-1.9895815795898437,25.72519083969466,-26.12213740458015,1.9083969465648856,0.0
12.970000505447388,-9.696516723632811,0.32561142578124996,0.8595183959960937,7.755725190839694,44.091603053435115,1.1908396946564885,-9.145850341796875,1.3215993164062498,-0.9600748657226562,20.16793893129771,-25.404580152671755,2.8244274809160306,0.0
12.980000495910645,-9.414000927734374,0.7493851196289062,1.1037269653320312,10.732824427480915,41.19083969465649,0.04580152671755725,-8.59997236328125,2.109291662597656,-0.8738836059570312,17.236641221374047,-25.786259541984734,1.3435114503816794,0.0
12.990001440048218,-9.545682019042967,0.8044517578125,1.2282254516601563,12.458015267175572,40.19847328244275,0.15267175572519084,-8.820238916015624,1.4173673828125,-0.6631938598632812,14.80916030534351,-20.641221374045802,1.6641221374045803,0.0
13.000000476837158,-10.690110412597656,2.3918074584960936,1.7453730102539062,8.458015267175572,38.0,-1.1908396946564885,-9.121908325195312,-0.028730419921875,-0.21068974609375,18.213740458015266,-18.748091603053435,1.618320610687023,0.0
13.010001182556152,-9.986215124511718,1.3048399047851562,1.1372457885742187,0.8091603053435115,29.541984732824428,0.9618320610687023,-9.720458740234374,-0.5051765502929687,0.565031591796875,30.50381679389313,-25.572519083969464,-1.297709923664122,0.0
13.020000696182251,-10.160991845703125,1.7573440185546874,1.5442600708007812,0.3053435114503817,28.748091603053435,-0.0,-9.64623848876953,0.5099649536132812,0.24899697265624998,36.82442748091603,-24.47328244274809,-2.519083969465649,0.0
13.030000925064087,-9.488221179199218,0.3591302490234375,0.41898529052734373,-1.4961832061068703,23.541984732824428,2.3206106870229006,-9.34696328125,1.177947216796875,-0.4070142822265625,38.412213740458014,-27.84732824427481,-3.984732824427481,0.0
13.040000915527344,-9.986215124511718,1.2952630981445312,0.32082302246093747,2.0763358778625953,25.236641221374047,0.061068702290076333,-9.677363110351562,2.0302830078125,0.3591302490234375,35.00763358778626,-31.053435114503817,-5.022900763358779,0.0
13.0500009059906,-10.180145458984374,2.844311572265625,1.1611878051757811,-5.694656488549619,25.297709923664122,-2.122137404580153,-8.556876733398436,4.146757275390625,0.603338818359375,18.458015267175572,-33.725190839694655,-4.259541984732825,0.0
13.060000658035278,-9.81862100830078,1.649604943847656,0.40462008056640625,-11.435114503816793,21.16030534351145,0.3511450381679389,-9.526528405761718,2.300827795410156,1.1037269653320312,2.717557251908397,-23.66412213740458,1.1755725190839694,0.0
13.070000648498535,-10.35492218017578,1.5179238525390624,0.2561795776367187,-6.106870229007634,23.480916030534353,-0.15267175572519084,-9.840168823242188,0.8786720092773437,1.6639701538085936,-1.633587786259542,-25.099236641221374,2.2442748091603053,0.0
13.080000638961792,-10.970232006835937,2.7461493041992187,0.6344634399414062,-9.389312977099237,24.015267175572518,-2.6106870229007635,-9.952696301269532,-0.3854664672851562,2.138022082519531,0.8091603053435115,-29.908396946564885,-0.061068702290076333,0.0
13.090000867843628,-10.206481677246094,1.6112977172851561,0.5267243652343749,-6.961832061068702,22.366412213740457,-1.0229007633587786,-10.496180078124999,-0.08858546142578125,2.023100402832031,11.98473282442748,-36.19847328244275,-1.1145038167938932,0.0
13.100000619888306,-10.651803186035156,1.8746598999023436,0.9552864624023437,-6.015267175572519,23.129770992366414,-1.9541984732824427,-10.491391674804687,0.5410895751953124,0.8930372192382812,18.580152671755727,-41.23664122137404,-3.801526717557252,0.0
13.110000610351562,-10.357316381835936,1.6711527587890624,0.7206546997070312,-4.564885496183206,23.068702290076335,-2.0763358778625953,-9.090783703613281,3.0238766967773434,0.430956298828125,13.572519083969466,-44.56488549618321,-6.183206106870229,0.0
13.12000060081482,-11.176133349609374,3.5146880371093747,1.7118541870117185,-12.564885496183207,23.0381679389313,-4.366412213740458,-9.502586389160156,2.96881005859375,0.8571241943359375,-6.8396946564885495,-40.80916030534351,-3.5572519083969465,0.0
13.130000352859497,-9.746794958496093,1.1228805786132812,0.5506663818359374,-17.801526717557252,15.312977099236642,-0.33587786259541985,-10.666168395996094,1.35990654296875,0.7350199096679687,-9.725190839694656,-35.587786259541986,-1.9083969465648856,0.0
13.140000581741333,-10.065223779296874,1.2210428466796874,0.3687070556640625,-14.427480916030534,14.213740458015268,-1.297709923664122,-11.360486877441405,-0.0909796630859375,2.1164742675781247,-5.038167938931298,-39.725190839694655,-2.122137404580153,0.0
13.15000057220459,-10.01015714111328,1.2042834350585936,0.18914193115234373,-8.534351145038167,13.664122137404581,-2.6106870229007635,-9.698910925292969,0.928950244140625,1.2378022583007813,2.2290076335877864,-46.82442748091603,-6.67175572519084,0.0
13.160000324249268,-10.189722265624999,2.4013842651367185,0.7134720947265625,-10.992366412213741,12.580152671755725,-3.969465648854962,-8.722076647949219,2.3391350219726563,0.5339069702148437,-1.1755725190839694,-44.36641221374046,-7.862595419847328,0.0
13.170000553131104,-9.885658654785155,1.6232687255859375,0.5434837768554687,-10.442748091603054,11.236641221374045,-2.045801526717557,-8.98304462890625,1.7405846069335937,0.5315127685546874,-9.679389312977099,-37.51145038167939,-6.351145038167939,0.0
13.18000078201294,-10.218452685546874,1.675941162109375,0.42377369384765623,-10.900763358778626,9.770992366412214,-2.198473282442748,-9.955090502929687,0.1580173095703125,1.0941501586914062,-9.038167938931299,-38.44274809160305,-6.015267175572519,0.0
13.190000534057617,-9.730035546875,1.0438719238281249,0.08140285644531249,-5.236641221374046,9.221374045801527,-2.427480916030534,-9.911994873046874,-0.3327940307617187,1.0821791503906248,0.6412213740458015,-41.3587786259542,-7.541984732824427,0.0
13.200000762939453,-10.09395419921875,2.214636535644531,0.5458779785156249,-4.961832061068702,10.641221374045802,-4.396946564885496,-8.74601866455078,1.438915197753906,0.16998831787109375,6.290076335877862,-41.74045801526717,-10.702290076335878,0.0
13.21000051498413,-8.901641772460938,1.2378022583007813,-0.11013327636718749,-1.1450381679389312,10.442748091603054,-1.9236641221374047,-8.473079675292968,1.9584569580078124,0.7110778930664062,-2.381679389312977,-35.98473282442748,-10.183206106870228,0.0
13.220000505447388,-9.76116016845703,1.944091748046875,0.07422025146484375,-6.595419847328245,9.938931297709924,-2.8244274809160306,-9.287108239746093,1.2138602416992186,1.2617442749023438,-7.648854961832061,-26.53435114503817,-7.083969465648855,0.0
13.230000495910645,-9.730035546875,1.1252747802734375,-0.11252747802734374,-6.870229007633588,8.80916030534351,-3.0229007633587788,-9.849745629882811,1.0917559570312498,0.5267243652343749,-3.66412213740458,-26.53435114503817,-4.564885496183206,0.0
13.240000247955322,-9.521740002441407,0.6248866333007812,-0.2346317626953125,-2.946564885496183,8.916030534351146,-3.49618320610687,-9.193734375,0.201112939453125,1.43652099609375,2.381679389312977,-27.954198473282442,-6.977099236641221,0.0
13.250000476837158,-8.595183959960938,0.08858546142578125,-0.34237083740234375,9.068702290076336,12.51908396946565,-3.816793893129771,-8.93755479736328,0.4165910888671875,0.7302315063476562,8.549618320610687,-27.557251908396946,-8.534351145038167,0.0
13.260000944137573,-9.694122521972655,1.8626888916015625,0.4860229370117187,10.335877862595419,14.885496183206106,-6.106870229007634,-9.294290844726563,1.1947066284179686,1.2617442749023438,8.83969465648855,-27.51145038167939,-9.145038167938932,0.0
13.27000093460083,-9.172186560058593,1.5442600708007812,0.11252747802734374,6.6106870229007635,12.732824427480915,-4.717557251908397,-8.441955053710936,2.152387292480469,0.82360537109375,2.1526717557251906,-20.793893129770993,-8.687022900763358,0.0
13.280000448226929,-9.658209497070311,1.5298948608398437,0.28730419921875,1.6793893129770991,11.038167938931299,-3.8625954198473282,-8.722076647949219,1.22583125,1.2042834350585936,-10.67175572519084,-17.14503816793893,-7.557251908396947,0.0
13.290000677108765,-10.376469995117187,2.5043349365234375,0.8906430175781249,-4.458015267175573,10.061068702290076,-5.7251908396946565,-9.368511096191405,0.09816226806640624,1.7118541870117185,-6.885496183206107,-14.992366412213741,-7.4961832061068705,0.0
13.300000429153442,-9.694122521972655,1.2018892333984375,0.39264907226562495,-7.145038167938932,5.816793893129771,-4.717557251908397,-8.595183959960938,0.9696516723632812,1.0869675537109373,-7.022900763358779,-15.893129770992367,-9.358778625954198,0.0
13.310000896453857,-9.543287817382812,1.235408056640625,0.3327940307617187,-3.3893129770992365,5.572519083969466,-5.038167938931298,-8.93755479736328,0.3854664672851562,1.5370774658203123,-2.7022900763358777,-11.923664122137405,-8.870229007633588,0.0
13.320000886917114,-9.773131176757811,1.5322890624999999,0.22026655273437498,-3.3587786259541983,5.3893129770992365,-6.519083969465649,-8.999804040527343,0.41898529052734373,1.5155296508789062,-0.4580152671755725,-10.717557251908397,-9.007633587786259,0.0
13.330000638961792,-9.708487731933593,1.5729904907226562,0.0909796630859375,-3.5572519083969465,4.656488549618321,-6.8396946564885495,-9.105148913574219,0.507570751953125,1.8650830932617186,1.2366412213740459,-9.236641221374045,-9.83206106870229,0.0
13.340000629425049,-9.885658654785155,1.6136919189453125,0.21068974609375,-4.854961832061068,4.427480916030534,-7.175572519083969,-8.844180932617187,0.9911994873046874,1.5275006591796874,0.3053435114503817,-9.145038167938932,-10.931297709923664,0.0
13.350000858306885,-9.698910925292969,1.5011644409179687,0.17956512451171874,-3.5419847328244276,5.236641221374046,-6.824427480916031,-9.131485131835937,0.49799394531249996,1.7788918334960937,0.8244274809160306,-6.702290076335878,-10.961832061068701,0.0
13.360000610351562,-9.636661682128906,1.4221557861328125,0.086191259765625,-3.6946564885496183,5.267175572519084,-7.190839694656488,-9.105148913574219,0.3902548706054687,1.697488977050781,1.816793893129771,-5.786259541984733,-11.053435114503817,0.0
13.37000060081482,-9.579200842285156,1.37906015625,0.143652099609375,-2.717557251908397,5.343511450381679,-7.587786259541985,-8.571241943359375,1.120486376953125,1.0917559570312498,3.7557251908396947,-4.625954198473282,-12.412213740458014,0.0
13.380000591278076,-9.83777462158203,1.22583125,0.33758243408203126,-3.0381679389312977,5.190839694656488,-8.305343511450381,-8.748412866210938,0.7062894897460937,1.0678139404296874,1.3129770992366412,-2.6717557251908395,-13.251908396946565,0.0
13.390000581741333,-9.737218151855469,1.0486603271484374,0.39983167724609375,-1.7557251908396947,4.870229007633588,-8.534351145038167,-8.8872765625,0.3758896606445312,1.2210428466796874,2.50381679389313,0.9923664122137404,-13.511450381679388,0.0
13.400000810623169,-9.861716638183593,0.9409212524414062,0.5099649536132812,-1.2061068702290076,4.5038167938931295,-10.106870229007633,-8.724470849609375,0.3758896606445312,1.0989385620117187,2.564885496183206,2.7480916030534353,-14.076335877862595,0.0
13.410000562667847,-9.89523546142578,0.86191259765625,0.737414111328125,0.07633587786259542,3.0076335877862594,-10.793893129770993,-8.947131604003905,0.17477672119140625,1.2330138549804688,5.236641221374046,6.1679389312977095,-14.50381679389313,0.0
13.420000791549683,-9.87608184814453,0.9744400756835937,0.852335791015625,2.9618320610687023,1.297709923664122,-11.297709923664122,-8.640673791503906,0.17477672119140625,1.2880804931640624,5.679389312977099,7.603053435114504,-14.67175572519084,0.0
13.43000054359436,-9.849745629882811,1.39821376953125,0.8451531860351562,5.374045801526718,-0.48854961832061067,-11.007633587786259,-8.482656481933594,0.49799394531249996,1.1348515869140625,7.0534351145038165,10.0,-15.206106870229007,0.0
13.440000772476196,-9.904812268066406,1.4532804077148436,1.0414777221679687,6.442748091603053,-1.786259541984733,-10.259541984732824,-8.767566479492187,0.3758896606445312,1.1851298217773436,6.458015267175573,12.870229007633588,-15.114503816793894,0.0
13.450000762939453,-9.943119494628906,1.4508862060546874,1.216254443359375,7.450381679389313,-3.5419847328244276,-10.335877862595419,-8.896853369140624,0.04548983154296875,1.5418658691406248,9.16030534351145,15.694656488549619,-15.083969465648854,0.0
13.46000051498413,-9.931148486328125,1.6998831787109374,1.3742717529296875,6.580152671755725,-5.8320610687022905,-11.419847328244275,-8.765172277832031,0.40462008056640625,1.2880804931640624,11.251908396946565,15.251908396946565,-15.969465648854962,0.0
13.470000505447388,-9.504980590820312,0.9193734375,1.1324573852539062,8.473282442748092,-7.465648854961832,-10.778625954198473,-8.832209924316405,0.201112939453125,1.4532804077148436,11.435114503816793,16.564885496183205,-16.12213740458015,0.0
13.480000257492065,-9.809044201660155,1.3263877197265623,1.3958195678710936,8.290076335877863,-7.862595419847328,-11.694656488549619,-8.671798413085938,0.6368576416015624,1.3335703247070312,12.076335877862595,17.480916030534353,-17.267175572519083,0.0
13.49000072479248,-9.655815295410155,1.0941501586914062,1.5442600708007812,8.793893129770993,-9.618320610687023,-12.0,-8.200140686035155,0.7326257080078125,1.5442600708007812,1.450381679389313,20.53435114503817,-16.946564885496183,0.0
13.500000476837158,-9.854534033203125,1.4149731811523436,1.936909143066406,8.534351145038167,-12.274809160305344,-13.419847328244275,-8.939948999023438,-0.2753331909179687,2.1930887207031247,1.0076335877862594,24.442748091603054,-16.549618320610687,0.0
13.510000705718994,-9.931148486328125,2.205059729003906,2.7844565307617186,6.091603053435114,-16.30534351145038,-15.114503816793894,-8.963891015625,-0.7757213378906249,2.0733786376953125,6.625954198473282,23.755725190839694,-17.114503816793892,0.0
13.52000093460083,-8.980650427246093,1.8770541015625,2.96881005859375,0.4122137404580153,-24.106870229007633,-15.022900763358779,-8.710105639648438,0.6967126831054687,1.2138602416992186,13.587786259541986,22.015267175572518,-18.83969465648855,0.0
13.530000925064087,-10.220846887207031,1.8507178833007811,3.5051112304687497,-0.6412213740458015,-28.3206106870229,-15.969465648854962,-8.856151940917968,0.7661445312499999,1.3479355346679687,8.50381679389313,29.251908396946565,-16.427480916030536,0.0
13.540000677108765,-9.37808790283203,1.5203180541992187,3.0693665283203124,1.5877862595419847,-36.25954198473283,-14.885496183206106,-8.858546142578124,1.1659762084960936,0.7733271362304687,9.908396946564885,30.50381679389313,-16.732824427480917,0.0
13.5500009059906,-10.32379755859375,1.5418658691406248,3.7421371948242186,0.42748091603053434,-41.02290076335878,-17.114503816793892,-8.549694128417968,0.0718260498046875,2.1643583007812497,-1.2366412213740459,28.396946564885496,-16.83969465648855,0.0
13.560000896453857,-10.752359655761719,1.9943699829101562,5.0948611328124995,-2.519083969465649,-49.57251908396947,-19.022900763358777,-8.137891442871092,0.3184288208007812,0.6081272216796875,-2.351145038167939,34.97709923664122,-18.50381679389313,0.0
13.570000648498535,-10.137049829101562,2.061407629394531,5.032611889648437,-6.5038167938931295,-62.93129770992366,-17.908396946564885,-8.51617530517578,0.24660277099609373,0.47884033203125,-5.404580152671755,40.534351145038165,-19.587786259541986,0.0
13.580000638961792,-10.369287390136718,2.0302830078125,5.815515832519531,-8.229007633587786,-73.90839694656489,-18.061068702290076,-10.35492218017578,-1.3958195678710936,1.37906015625,-0.8549618320610687,45.89312977099237,-20.946564885496183,0.0
13.59000039100647,-11.195286962890624,1.407790576171875,6.191405493164062,-11.099236641221374,-88.83969465648855,-17.72519083969466,-12.157756030273436,-2.109291662597656,2.6958710693359373,17.450381679389313,43.404580152671755,-23.450381679389313,0.0
13.600000858306885,-11.312602844238281,0.6584054565429687,6.222530114746093,-5.374045801526718,-100.73282442748092,-17.923664122137403,-12.093112585449218,0.44053310546874996,3.076549133300781,31.908396946564885,37.541984732824424,-25.389312977099237,0.0
13.610000371932983,-11.6070896484375,0.4261678955078125,6.564900952148437,-1.6946564885496183,-111.78625954198473,-18.793893129770993,-11.9135474609375,2.839523168945312,3.277662072753906,27.770992366412212,29.740458015267176,-23.068702290076335,0.0
13.62000060081482,-11.980585107421874,-0.05027823486328125,6.476315490722656,0.6564885496183206,-125.46564885496183,-19.480916030534353,-12.143390820312499,2.9376854370117185,2.806004345703125,19.282442748091604,32.030534351145036,-16.595419847328245,0.0
13.630000591278076,-12.51928048095703,-1.0845733520507812,6.351817004394531,5.251908396946565,-139.1908396946565,-20.3206106870229,-13.034033837890624,0.6967126831054687,2.7557261108398436,19.14503816793893,33.74045801526717,-8.595419847328245,0.0
13.640000581741333,-13.211204760742186,-2.6408044311523438,6.421248852539062,15.954198473282442,-151.58778625954199,-20.870229007633586,-12.727576025390624,-0.296881005859375,2.360682836914062,27.374045801526716,27.49618320610687,-4.732824427480916,0.0
13.65000033378601,-13.517662573242188,-3.289633081054687,6.962338427734375,33.32824427480916,-163.7709923664122,-21.022900763358777,-10.395623608398436,2.616862414550781,0.9313444458007812,29.480916030534353,23.984732824427482,-4.473282442748092,0.0
13.660000801086426,-15.607800622558592,-3.641580725097656,7.343016491699219,49.25190839694657,-172.36641221374046,-19.00763358778626,-9.0021982421875,2.8754361938476563,0.5674257934570313,10.351145038167939,27.404580152671755,-1.282442748091603,0.0
13.670180082321167,-18.03552110595703,-3.0406361083984375,7.3837179199218745,60.97709923664122,-183.9083969465649,-15.48091603053435,-7.503428002929687,3.526659045410156,-1.6472107421875,-3.6030534351145036,26.106870229007633,-0.7938931297709924,0.0
13.680001020431519,-19.852720166015622,-0.9552864624023437,7.8912886718749995,72.1526717557252,-194.5648854961832,-10.625954198473282,-7.465120776367187,1.0079588989257813,-2.1212626708984375,-15.969465648854962,25.251908396946565,-0.061068702290076333,0.0
13.690000772476196,-19.852720166015622,0.8188169677734375,6.177040283203125,77.40458015267176,-202.3206106870229,-5.022900763358779,-8.870517150878905,-2.252943762207031,-1.484405029296875,-20.137404580152673,34.0,1.1297709923664123,0.0
13.700001001358032,-17.99721387939453,0.02633621826171875,2.1835119140624997,76.4885496183206,-208.51908396946564,1.6488549618320612,-10.433930834960936,-4.680664245605469,-1.944091748046875,-6.702290076335878,30.80916030534351,-2.0763358778625953,0.0
13.710000991821289,-15.006856005859374,0.19393033447265623,-0.6512228515624999,77.5114503816794,-202.04580152671755,5.251908396946565,-10.635043774414061,-5.674257934570313,-1.8459294799804686,-0.916030534351145,29.34351145038168,-7.343511450381679,0.0
13.720000743865967,-11.559205615234374,-0.34715924072265625,-3.919308117675781,77.09923664122137,-188.51908396946564,9.251908396946565,-10.141838232421874,-3.641580725097656,-3.4931402221679684,3.312977099236641,31.236641221374047,-12.748091603053435,0.0
13.730000257492065,-7.75721337890625,0.699106884765625,-4.735730883789063,69.61832061068702,-164.3053435114504,9.419847328244275,-10.635043774414061,-2.844311572265625,-3.1555577880859373,-4.641221374045801,40.74809160305343,-10.13740458015267,0.0
13.740000486373901,-6.53138212890625,0.6488286499023437,-5.044582897949218,52.2442748091603,-135.78625954198472,8.900763358778626,-10.081983190917969,-2.578555187988281,-3.0550013183593747,-13.877862595419847,45.52671755725191,-7.9541984732824424,0.0
13.750000715255737,-5.9208607055664055,1.8626888916015625,-4.192247106933594,32.88549618320611,-108.93129770992367,9.648854961832061,-9.306261853027344,-3.5769372802734374,-1.3383587280273437,-12.732824427480915,54.61068702290076,-6.061068702290076,0.0
13.760000705718994,-6.121973645019531,2.3056161987304686,-3.1100679565429687,20.580152671755727,-86.1526717557252,13.068702290076336,-8.853757739257812,-1.9943699829101562,-1.6065093139648436,-2.549618320610687,52.62595419847328,-8.748091603053435,0.0
13.77000117301941,-8.329427575683594,3.995922570800781,-0.296881005859375,11.83206106870229,-62.152671755725194,16.47328244274809,-9.181763366699219,-1.47482822265625,-0.4740519287109375,-11.374045801526718,57.05343511450382,-8.717557251908397,0.0
13.780000925064087,-8.2743609375,3.5482068603515624,0.19632453613281248,0.9465648854961832,-51.17557251908397,25.00763358778626,-10.733206042480468,-2.3582886352539063,0.3806780639648437,-11.312977099236642,52.97709923664122,-6.351145038167939,0.0
13.790000915527344,-8.030152368164062,2.93050283203125,0.7158662963867187,-16.717557251908396,-43.16030534351145,31.053435114503817,-10.702081420898438,-1.369483349609375,1.5059528442382812,-9.511450381679388,45.770992366412216,-4.809160305343512,0.0
13.8000009059906,-7.053318090820312,1.8531120849609375,0.5291185668945312,-38.2442748091603,-37.267175572519086,36.396946564885496,-10.740388647460938,0.7733271362304687,2.003946789550781,-19.14503816793893,35.66412213740458,-4.900763358778626,0.0
13.810001134872437,-6.811503723144531,1.2378022583007813,0.7996633544921875,-57.465648854961835,-32.47328244274809,37.038167938931295,-10.790666882324219,1.5610194824218748,2.925714428710937,-44.67175572519084,35.17557251908397,-1.816793893129771,0.0
13.820001125335693,-5.147533569335937,0.37828386230468747,-0.47165772705078124,-68.58015267175573,-31.374045801526716,37.847328244274806,-12.107477795410155,-1.2473790649414063,4.364629626464843,-50.76335877862596,29.6793893129771,2.6717557251908395,0.0
13.83000111579895,-4.836287353515624,-0.11731588134765625,-0.6392518432617187,-70.87022900763358,-23.450381679389313,36.54961832061068,-12.179303845214843,-2.1835119140624997,4.618415002441406,-37.954198473282446,17.893129770992367,4.625954198473282,0.0
13.840000867843628,-5.260061047363281,0.5626373901367188,0.46686932373046874,-71.2824427480916,-13.877862595419847,33.23664122137404,-10.857704528808593,-1.0726023437499999,2.817975354003906,-36.42748091603053,6.549618320610687,3.0076335877862594,0.0
13.850000619888306,-5.092466931152344,-0.258573779296875,0.21068974609375,-72.3206106870229,-9.648854961832061,33.954198473282446,-9.885658654785155,0.42377369384765623,1.8770541015625,-40.99236641221374,1.6488549618320612,1.2366412213740459,0.0
13.86000108718872,-5.566518859863281,0.033518823242187495,1.0366893188476562,-70.25954198473282,1.0687022900763359,31.129770992366414,-9.892841259765625,-0.28730419921875,0.9696516723632812,-43.49618320610687,0.061068702290076333,4.0458015267175576,0.0
13.870000839233398,-5.121197351074218,-1.2976572998046874,0.4333505004882812,-71.74045801526718,6.793893129770993,28.85496183206107,-9.682151513671874,-0.39743747558593745,0.18914193115234373,-40.94656488549618,-1.3129770992366412,4.748091603053435,0.0
13.880000591278076,-5.968744738769531,-1.2952630981445312,0.7709329345703124,-74.42748091603053,13.297709923664122,24.595419847328245,-9.303867651367186,-0.9002198242187499,-0.9217676391601562,-36.732824427480914,0.9007633587786259,5.770992366412214,0.0
13.890000581741333,-5.999869360351562,-1.9800047729492187,0.6655880615234374,-76.53435114503817,17.908396946564885,20.595419847328245,-8.884882360839843,-0.7422025146484375,-1.1923124267578125,-32.900763358778626,3.648854961832061,6.122137404580153,0.0
13.900000810623169,-5.4013189453125,-3.4332851806640625,-0.055066638183593745,-70.21374045801527,24.610687022900763,18.045801526717558,-8.968679418945312,-0.9002198242187499,-1.2617442749023438,-28.290076335877863,7.374045801526718,6.67175572519084,0.0
13.910000801086426,-4.580107775878906,-4.939238024902344,-0.5099649536132812,-48.83969465648855,39.16030534351145,14.610687022900763,-8.789114294433594,-1.467645617675781,-2.3367408203125,-22.977099236641223,11.114503816793894,7.175572519083969,0.0
13.920000791549683,-4.2497079467773435,-4.876988781738281,-0.612915625,-34.12213740458015,50.48854961832061,7.8320610687022905,-9.375693701171874,-1.2617442749023438,-1.9728221679687499,-15.053435114503817,16.091603053435115,6.5038167938931295,0.0
13.93000078201294,-5.202600207519531,-3.9624037475585934,-0.062249243164062495,-24.717557251908396,60.2442748091603,-1.450381679389313,-9.399635717773437,-1.6017209106445311,-1.924938134765625,-10.641221374045802,18.916030534351144,6.427480916030534,0.0
13.940001249313354,-5.9783215454101555,-3.4548329956054684,0.8164227661132812,-20.061068702290076,68.3206106870229,-7.145038167938932,-9.363722692871093,-1.707065783691406,-1.5849614990234373,-4.122137404580153,22.061068702290076,6.595419847328245,0.0
13.950000762939453,-6.318298181152343,-3.162740393066406,1.6160861206054686,-15.022900763358779,73.66412213740458,-11.34351145038168,-9.744400756835937,-1.5729904907226562,-1.1563994018554686,-0.030534351145038167,23.572519083969464,6.977099236641221,0.0
13.96000075340271,-6.770802294921874,-2.583343591308594,2.511517541503906,-8.82442748091603,79.31297709923665,-14.458015267175572,-9.935936889648437,-1.6831237670898436,-1.199495031738281,4.641221374045801,25.16030534351145,7.435114503816794,0.0
13.970000743865967,-7.273584643554687,-1.886630908203125,3.3638533325195312,1.4961832061068703,83.86259541984732,-14.549618320610687,-9.545682019042967,-1.4628572143554686,-0.2537853759765625,7.603053435114504,25.480916030534353,7.3893129770992365,0.0
13.980000734329224,-8.456320263671875,-1.1252747802734375,4.604049792480469,10.65648854961832,85.72519083969466,-13.083969465648854,-10.005368737792969,-1.9919757812499999,0.7685387329101562,13.358778625954198,27.022900763358777,8.610687022900763,0.0
13.99000072479248,-9.337386474609374,-0.3806780639648437,5.2816088623046875,16.80916030534351,86.47328244274809,-11.053435114503817,-9.770736975097655,-1.5083470458984374,0.15562310791015624,14.748091603053435,26.519083969465647,8.0,0.0
14.000000715255737,-9.576806640625,-0.2609679809570312,5.829881042480468,20.549618320610687,85.96946564885496,-7.145038167938932,-9.746794958496093,-1.350329736328125,0.5530605834960938,16.641221374045802,25.206106870229007,8.748091603053435,0.0
14.010000705718994,-9.904812268066406,0.6847416748046875,6.0716954101562495,16.458015267175572,82.53435114503817,-4.229007633587786,-10.036493359375,-1.668758557128906,0.7757213378906249,19.61832061068702,26.85496183206107,10.442748091603054,0.0
14.02000093460083,-10.254365710449218,1.5562310791015623,6.979097839355468,12.229007633587786,79.25190839694656,-0.8549618320610687,-9.739612353515625,-0.93852705078125,0.8571241943359375,17.14503816793893,25.068702290076335,10.67175572519084,0.0
14.030001163482666,-9.80665,1.4939818359375,6.636727001953124,7.908396946564886,74.77862595419847,2.9923664122137406,-10.014945544433592,-0.9074024291992187,0.8044517578125,17.31297709923664,24.977099236641223,11.893129770992367,0.0
14.040000915527344,-9.593566052246093,1.9608511596679685,6.751648681640624,8.763358778625955,73.23664122137404,5.679389312977099,-10.089165795898436,-0.7661445312499999,0.8571241943359375,13.022900763358779,24.27480916030534,13.32824427480916,0.0
14.05000114440918,-9.885658654785155,2.327164013671875,6.579266162109374,9.679389312977099,71.14503816793894,9.679389312977099,-10.000580334472655,-0.6631938598632812,0.7757213378906249,8.778625954198473,22.33587786259542,15.32824427480916,0.0
14.060000896453857,-9.49300958251953,1.5442600708007812,6.0716954101562495,11.236641221374045,68.09160305343511,15.511450381679388,-10.01015714111328,-0.16998831787109375,0.6440402465820312,3.435114503816794,20.702290076335878,16.916030534351144,0.0
14.070000886917114,-10.613495959472656,1.7908628417968748,6.775590698242187,16.564885496183205,68.04580152671755,20.412213740458014,-10.40041201171875,-0.44053310546874996,0.6416460449218749,-3.0229007633587788,20.900763358778626,19.786259541984734,0.0
14.080000877380371,-12.648567370605468,1.9584569580078124,7.278373046874999,13.038167938931299,63.38931297709924,24.564885496183205,-10.398017810058594,-0.833182177734375,0.8307879760742187,-7.022900763358779,14.366412213740459,20.213740458015266,0.0
14.090000629425049,-12.51928048095703,0.22266075439453123,6.030993981933594,20.85496183206107,61.11450381679389,30.671755725190838,-10.405200415039062,-1.2713210815429687,0.3806780639648437,-7.541984732824427,13.770992366412214,21.358778625954198,0.0
14.100000858306885,-15.303737011718749,-0.0383072265625,7.170633972167968,15.358778625954198,61.31297709923664,27.541984732824428,-10.726023437499999,-1.3287819213867187,0.4165910888671875,-8.412213740458014,11.221374045801527,21.389312977099237,0.0
14.110000610351562,-14.142549206542968,-2.9472622436523435,7.694964135742187,4.427480916030534,51.221374045801525,21.938931297709924,-10.512939489746094,-0.1149216796875,0.565031591796875,-11.206106870229007,5.236641221374046,18.641221374045802,0.0
14.120000839233398,-11.283872424316405,-4.477157104492187,7.948749511718749,6.137404580152672,36.56488549618321,14.580152671755725,-10.958260998535156,-0.26815058593749996,1.5035586425781249,-18.137404580152673,4.8396946564885495,20.18320610687023,0.0
14.130000591278076,-9.816226806640625,-3.4859576171874997,7.295132458496093,17.068702290076335,26.15267175572519,8.900763358778626,-11.212046374511718,-0.2561795776367187,1.2521674682617188,-16.610687022900763,3.404580152671756,21.81679389312977,0.0
14.140001058578491,-7.632714892578124,-1.197100830078125,4.946420629882812,28.717557251908396,17.51145038167939,9.389312977099237,-11.997344519042969,-0.354341845703125,1.5969325073242187,-18.53435114503817,-1.5572519083969465,22.244274809160306,0.0
14.15000057220459,-6.8593877563476555,0.201112939453125,2.6312276245117188,39.587786259541986,17.389312977099237,13.221374045801527,-12.042834350585936,-0.30885201416015623,0.7422025146484375,-15.83206106870229,-5.66412213740458,23.69465648854962,0.0
14.160170078277588,-7.582436657714843,0.7900865478515624,0.7015010864257812,45.98473282442748,26.427480916030536,11.465648854961833,-12.136208215332031,0.05027823486328125,0.9959878906249999,-11.98473282442748,-15.786259541984732,23.0381679389313,0.0
14.170038938522339,-8.420407238769531,1.5873557006835937,-0.6344634399414062,40.61068702290076,34.412213740458014,6.122137404580153,-11.341333264160156,1.68551796875,0.47884033203125,-16.18320610687023,-23.557251908396946,21.557251908396946,0.0
14.18002724647522,-9.380482104492186,2.5809493896484375,-1.3359645263671873,30.900763358778626,37.725190839694655,6.244274809160306,-11.56159981689453,0.948103857421875,1.005564697265625,-21.984732824427482,-28.564885496183205,24.290076335877863,0.0
14.190000534057617,-10.115502014160155,3.2345664428710936,-0.33518823242187495,23.709923664122137,43.98473282442748,8.396946564885496,-11.326968054199218,-0.6368576416015624,2.013523596191406,-23.61832061068702,-34.274809160305345,26.091603053435115,0.0
14.200001239776611,-10.524910498046875,3.801992236328125,0.852335791015625,17.053435114503817,47.81679389312977,11.450381679389313,-11.362881079101562,-2.602497204589844,2.9472622436523435,-11.86259541984733,-44.47328244274809,25.00763358778626,0.0
14.21000051498413,-9.976638317871092,3.0909143432617188,0.9744400756835937,10.229007633587786,47.6793893129771,14.106870229007633,-11.010933435058593,-1.908178723144531,1.218648645019531,0.7938931297709924,-52.74809160305343,22.946564885496183,0.0
14.220000743865967,-10.43871923828125,2.9041666137695312,1.917755529785156,5.694656488549619,51.099236641221374,12.885496183206106,-10.299855541992187,0.8499415893554687,-0.15083470458984374,8.335877862595419,-59.267175572519086,19.068702290076335,0.0
14.230000734329224,-9.5384994140625,1.2306196533203124,1.8004396484374998,-5.801526717557252,47.267175572519086,11.267175572519085,-9.964667309570311,2.3319524169921872,-1.0606313354492187,-3.2519083969465647,-58.6412213740458,18.045801526717558,0.0
14.24000072479248,-10.266336718749999,0.5698199951171875,1.3766659545898436,-8.091603053435115,49.05343511450382,9.099236641221374,-10.855310327148437,1.6424223388671875,-1.4604630126953124,-14.488549618320612,-56.0,18.213740458015266,0.0
14.250001192092896,-10.211270080566406,1.5298948608398437,1.0486603271484374,-16.045801526717558,48.213740458015266,5.770992366412214,-10.204087475585936,1.695094775390625,-1.9512743530273435,-18.198473282442748,-52.42748091603053,17.64885496183206,0.0
14.260000944137573,-9.507374792480467,-0.39743747558593745,-0.32082302246093747,-14.870229007633588,44.48854961832061,8.916030534351146,-11.487379565429686,-1.426944189453125,0.1149216796875,-15.129770992366412,-47.49618320610687,20.229007633587788,0.0
14.270001411437988,-9.320627062988281,-0.05027823486328125,-0.040701428222656245,-1.8015267175572518,50.82442748091603,9.083969465648854,-9.509768994140625,2.1164742675781247,-2.7533319091796873,-10.977099236641221,-45.74045801526717,15.938931297709924,0.0
14.280000925064087,-9.066841687011719,1.0319009155273438,-0.06943184814453125,4.427480916030534,54.19847328244275,8.030534351145038,-8.410830432128906,2.0350714111328125,-2.4061726684570313,-28.290076335877863,-40.97709923664122,14.687022900763358,0.0
14.290000915527344,-9.660603698730467,1.37906015625,-0.36631285400390623,5.129770992366412,55.11450381679389,8.458015267175572,-9.380482104492186,0.7158662963867187,-2.7437551025390623,-30.610687022900763,-31.557251908396946,14.625954198473282,0.0
14.300000429153442,-9.739612353515625,1.9919757812499999,-0.6655880615234374,4.213740458015267,55.64885496183206,6.595419847328245,-9.418789331054686,-0.13646949462890623,-2.923320227050781,-29.34351145038168,-25.61832061068702,11.633587786259541,0.0
14.310001134872437,-10.05564697265625,1.5682020874023437,-0.8882488159179687,2.717557251908397,56.70229007633588,5.969465648854962,-9.923965881347655,-1.024718310546875,-2.3056161987304686,-26.717557251908396,-24.48854961832061,7.129770992366412,0.0
14.320000410079956,-10.259154113769531,1.6352397338867186,-0.36631285400390623,0.1984732824427481,57.267175572519086,4.8396946564885495,-9.847351428222655,-0.9409212524414062,-1.8291700683593748,-19.34351145038168,-21.954198473282442,4.854961832061068,0.0
14.330000638961792,-9.995791931152343,1.467645617675781,0.5578489868164063,0.8244274809160306,56.61068702290076,4.488549618320611,-9.797073193359374,-0.7781155395507812,-1.369483349609375,-8.763358778625955,-21.557251908396946,3.3893129770992365,0.0
14.340000629425049,-9.911994873046874,1.2880804931640624,0.5602431884765625,0.6870229007633588,55.343511450381676,3.236641221374046,-10.089165795898436,-1.6352397338867186,-0.08858546142578125,2.030534351145038,-22.85496183206107,2.6106870229007635,0.0
14.350000619888306,-10.714052429199219,1.0007762939453124,1.0869675537109373,-0.366412213740458,52.79389312977099,1.9389312977099236,-9.45470235595703,0.062249243164062495,-0.4070142822265625,14.564885496183207,-26.091603053435115,-1.633587786259542,0.0
14.36000108718872,-10.16338604736328,0.507570751953125,0.70868369140625,2.045801526717557,49.19083969465649,2.549618320610687,-10.967837805175781,-1.3239935180664062,-0.3184288208007812,34.67175572519084,-25.81679389312977,-1.0687022900763359,0.0
14.370000839233398,-11.030087048339842,1.93451494140625,1.7573440185546874,2.3969465648854964,48.25954198473283,-0.4580152671755725,-9.710881933593749,0.21787235107421873,0.7972691528320313,35.05343511450382,-39.00763358778626,-6.931297709923665,0.0
14.380001068115234,-10.488997473144531,2.1787235107421874,1.6304513305664061,-5.236641221374046,43.17557251908397,-0.061068702290076333,-8.832209924316405,2.3367408203125,-0.40222587890625,28.885496183206108,-36.99236641221374,-10.213740458015268,0.0
14.390000820159912,-10.105925207519531,1.9943699829101562,1.2234370483398436,-8.870229007633588,39.404580152671755,1.9083969465648856,-9.387664709472656,2.3391350219726563,0.39983167724609375,17.709923664122137,-32.152671755725194,-6.396946564885496,0.0
14.40000033378601,-11.257536206054686,2.6001030029296874,1.43652099609375,-17.84732824427481,34.48854961832061,-0.1984732824427481,-9.667786303710937,1.0678139404296874,0.13407529296874998,15.923664122137405,-32.19847328244275,-4.702290076335878,0.0
14.410001516342163,-10.793061083984375,1.5370774658203123,1.0606313354492187,-27.099236641221374,25.81679389312977,1.282442748091603,-10.058041174316406,-0.3495534423828125,1.2737152832031249,20.33587786259542,-37.70992366412214,-4.793893129770993,0.0
14.420001029968262,-9.94072529296875,-0.6200982299804687,0.6943184814453125,-11.664122137404581,27.251908396946565,3.5114503816793894,-9.145850341796875,-0.1484405029296875,0.7661445312499999,31.083969465648856,-39.23664122137404,-7.099236641221374,0.0
14.43000078201294,-10.067617980957031,0.26336218261718747,0.5482721801757812,-4.656488549618321,28.427480916030536,0.061068702290076333,-9.287108239746093,1.4700398193359374,0.06464344482421874,36.595419847328245,-42.56488549618321,-9.129770992366412,0.0
14.440001010894775,-9.595960253906249,1.5921441040039062,0.6248866333007812,-3.5419847328244276,25.358778625954198,-1.450381679389313,-8.700528833007812,2.5163059448242184,0.20350714111328125,23.404580152671755,-45.19083969465649,-9.587786259541986,0.0
14.450001001358032,-10.175357055664062,1.2737152832031249,0.4836287353515625,-12.01526717557252,20.48854961832061,-0.2595419847328244,-9.267954626464844,2.128445275878906,1.0917559570312498,13.755725190839694,-39.770992366412216,-5.3893129770992365,0.0
14.46000051498413,-10.28549033203125,0.9959878906249999,0.46686932373046874,-2.0763358778625953,22.793893129770993,0.6259541984732825,-9.919177478027343,0.5339069702148437,1.2521674682617188,14.946564885496183,-39.89312977099237,-4.0,0.0
14.470000743865967,-9.342174877929686,0.3687070556640625,0.21787235107421873,-1.5114503816793894,18.99236641221374,1.1755725190839694,-10.105925207519531,0.7924807495117187,0.7757213378906249,20.076335877862597,-46.0763358778626,-6.244274809160306,0.0
14.480000734329224,-10.797849487304687,3.239354846191406,1.3048399047851562,-3.816793893129771,20.671755725190838,-2.366412213740458,-8.932766394042968,2.7940333374023436,0.5458779785156249,14.748091603053435,-45.29770992366412,-7.801526717557252,0.0
14.49000072479248,-8.913612780761719,1.0702081420898437,0.16998831787109375,-6.885496183206107,15.893129770992367,2.3969465648854964,-8.427589843749999,2.7844565307617186,0.38307226562499996,2.564885496183206,-42.36641221374046,-6.244274809160306,0.0
14.500005960464478,-9.727641345214844,1.0271125122070313,0.047884033203124995,-3.801526717557252,16.82442748091603,1.1603053435114503,-10.81460889892578,0.055066638183593745,1.9776105712890624,0.6564885496183206,-42.18320610687023,-3.3740458015267176,0.0
14.510000705718994,-10.058041174316406,1.5227122558593749,0.201112939453125,-3.282442748091603,16.931297709923665,-2.2595419847328246,-10.31661495361328,0.4955997436523437,2.1164742675781247,7.755725190839694,-46.58015267175573,-5.221374045801527,0.0
14.52000093460083,-9.732429748535155,1.6017209106445311,0.28012159423828126,-3.2213740458015265,15.740458015267176,-3.450381679389313,-9.533711010742186,1.7549498168945312,1.0726023437499999,7.175572519083969,-48.534351145038165,-7.938931297709924,0.0
14.530000925064087,-9.406818322753905,0.7134720947265625,-0.14125789794921875,0.549618320610687,15.083969465648854,-2.885496183206107,-9.117119921875,2.492363928222656,0.17477672119140625,-0.6717557251908397,-43.19083969465649,-7.32824427480916,0.0
14.540000438690186,-9.974244116210937,0.82360537109375,-0.08140285644531249,11.389312977099237,18.259541984732824,-3.435114503816794,-10.053252770996092,1.0702081420898437,1.1563994018554686,-3.7709923664122136,-41.541984732824424,-3.786259541984733,0.0
14.5500009059906,-10.196904870605469,2.655169641113281,1.0965443603515623,7.862595419847328,20.198473282442748,-7.526717557251908,-11.058817468261719,-0.8092401611328125,1.419761584472656,2.6259541984732824,-44.47328244274809,-5.374045801526718,0.0
14.560000658035278,-10.321403356933594,3.2225954345703123,1.3934253662109375,-0.8549618320610687,14.763358778625955,-7.908396946564886,-10.184933862304687,0.5674257934570313,1.0031704956054688,11.786259541984732,-46.091603053435115,-8.488549618320612,0.0
14.570000886917114,-9.327809667968749,1.7022773803710936,0.4644751220703125,-5.3893129770992365,9.114503816793894,-4.0458015267175576,-8.86812294921875,2.051830822753906,0.5985504150390625,7.343511450381679,-43.20610687022901,-8.381679389312977,0.0
14.580000638961792,-10.184933862304687,2.176329309082031,0.718260498046875,-3.6793893129770994,10.458015267175572,-4.488549618320611,-9.636661682128906,0.8092401611328125,1.0845733520507812,6.458015267175573,-36.916030534351144,-5.114503816793893,0.0
14.590000867843628,-9.94072529296875,1.7788918334960937,0.42377369384765623,-1.5725190839694656,8.763358778625955,-3.6946564885496183,-10.206481677246094,-0.181959326171875,0.8954314208984374,14.488549618320612,-42.01526717557252,-5.541984732824427,0.0
14.600001096725464,-9.72285294189453,1.6807295654296874,0.36391865234375,-1.8931297709923665,7.206106870229007,-4.33587786259542,-9.694122521972655,0.3806780639648437,1.3239935180664062,21.236641221374047,-44.50381679389313,-8.396946564885496,0.0
14.610000610351562,-9.485826977539062,1.5275006591796874,0.5003881469726562,1.6030534351145038,7.526717557251908,-3.9236641221374047,-8.729259252929687,2.0829554443359375,0.3591302490234375,17.740458015267176,-40.58015267175573,-9.48091603053435,0.0
14.62000060081482,-9.560047229003906,1.5107412475585937,0.7781155395507812,4.366412213740458,8.687022900763358,-3.480916030534351,-9.057264880371093,1.1276689819335937,1.4867992309570313,9.022900763358779,-32.595419847328245,-5.358778625954199,0.0
14.630000591278076,-10.575188732910156,1.9871873779296874,1.2904746948242187,2.564885496183206,7.9541984732824424,-5.32824427480916,-9.586383447265625,0.45968671875,1.1540052001953125,13.053435114503817,-28.900763358778626,-4.6106870229007635,0.0
14.640000581741333,-9.543287817382812,1.1013327636718748,0.6967126831054687,6.1679389312977095,3.4198473282442747,-4.33587786259542,-9.72285294189453,-0.4333505004882812,2.195482922363281,17.19083969465649,-33.61832061068702,-6.259541984732825,0.0
14.65000057220459,-9.76116016845703,1.5442600708007812,0.9864110839843749,11.755725190839694,4.6106870229007635,-4.702290076335878,-8.429984045410155,1.484405029296875,1.24498486328125,22.946564885496183,-30.015267175572518,-7.267175572519084,0.0
14.660000801086426,-9.777919580078125,2.001552587890625,0.679953271484375,11.419847328244275,3.5877862595419847,-3.969465648854962,-8.128314636230469,2.5617957763671875,0.7398083129882812,17.83206106870229,-24.091603053435115,-6.595419847328245,0.0
14.670000314712524,-10.034099157714843,1.9656395629882812,0.7062894897460937,8.778625954198473,2.4885496183206106,-3.3282442748091605,-7.316680273437499,2.70065947265625,0.8954314208984374,-0.7480916030534351,-24.244274809160306,-8.13740458015267,0.0
14.68000078201294,-9.991003527832031,1.7549498168945312,0.9145850341796874,7.969465648854962,2.381679389312977,-3.2061068702290076,-9.244012609863281,0.411802685546875,1.9847931762695312,-3.1755725190839694,-10.610687022900763,-1.618320610687023,0.0
14.690000534057617,-9.792284790039062,1.2593500732421874,0.8834604125976562,8.15267175572519,0.3816793893129771,-4.2748091603053435,-9.176974963378905,0.5003881469726562,1.5251064575195312,0.9007633587786259,-12.687022900763358,-3.801526717557252,0.0
14.700000762939453,-9.634267480468749,1.6328455322265625,0.7685387329101562,9.633587786259541,-0.8549618320610687,-5.1603053435114505,-8.731653454589843,0.7350199096679687,1.5801730957031248,4.870229007633588,-9.206106870229007,-5.969465648854962,0.0
14.710000276565552,-9.643844287109374,1.8004396484374998,0.7110778930664062,11.206106870229007,-0.15267175572519084,-5.312977099236641,-8.604760766601562,0.6703764648437499,1.714248388671875,6.351145038167939,-7.129770992366412,-5.923664122137405,0.0
14.720000505447388,-9.727641345214844,1.936909143066406,0.4333505004882812,10.961832061068701,-0.015267175572519083,-5.770992366412214,-8.736441857910156,0.565031591796875,1.8602946899414061,7.862595419847328,-5.190839694656488,-5.709923664122138,0.0
14.730000495910645,-10.031704956054687,2.1068974609374997,0.3711012573242187,7.709923664122138,-0.2595419847328244,-6.8396946564885495,-8.29351455078125,0.9002198242187499,1.8411410766601561,4.778625954198473,-5.0534351145038165,-6.595419847328245,0.0
14.740000486373901,-9.885658654785155,1.7357962036132812,0.30406361083984373,8.16793893129771,0.030534351145038167,-7.435114503816794,-8.966285217285156,0.3758896606445312,1.886630908203125,7.190839694656488,-1.6793893129770991,-6.0458015267175576,0.0
14.750000476837158,-9.674968908691406,1.7717092285156248,0.18914193115234373,6.5038167938931295,-0.030534351145038167,-7.022900763358779,-8.901641772460938,0.258573779296875,1.7812860351562498,7.679389312977099,-1.8931297709923665,-6.900763358778626,0.0
14.760000467300415,-9.698910925292969,1.6735469604492186,0.2346317626953125,6.122137404580153,0.5190839694656488,-6.778625954198473,-8.693346228027343,0.4213794921875,1.70467158203125,9.557251908396946,-0.42748091603053434,-8.106870229007633,0.0
14.77000093460083,-9.466673364257812,1.6352397338867186,0.06703764648437499,5.206106870229007,1.0076335877862594,-6.534351145038168,-8.604760766601562,0.5985504150390625,1.6472107421875,10.0,0.7786259541984732,-8.992366412213741,0.0
14.780052185058594,-9.442731347656249,1.3934253662109375,-0.07422025146484375,4.2748091603053435,1.6488549618320612,-7.694656488549619,-8.939948999023438,0.6631938598632812,1.70467158203125,11.251908396946565,3.7709923664122136,-10.030534351145038,0.0
