timestamp,Thigh_L_Acc_X,Thigh_L_Acc_Y,Thigh_L_Acc_Z,Thigh_L_Gyr_X,Thigh_L_Gyr_Y,Thigh_L_Gyr_Z,Thigh_R_Acc_X,Thigh_R_Acc_Y,Thigh_R_Acc_Z,Thigh_R_Gyr_X,Thigh_R_Gyr_Y,Thigh_R_Gyr_Z,gpio_output
10.000000476837158,-18.971653955078125,-4.841075756835937,17.36514464111328,-25.49618320610687,35.6793893129771,51.74045801526717,-14.784195251464842,-2.492363928222656,1.7788918334960937,-49.19083969465649,18.045801526717558,26.763358778625953,0.0
10.010000705718994,-22.58689846191406,-3.622427111816406,19.95567083740234,8.992366412213741,24.50381679389313,36.33587786259542,-16.577452294921873,-2.7365724975585937,1.8100164550781248,-52.56488549618321,3.1908396946564888,21.770992366412212,1.0
10.020000457763672,-22.182278381347654,0.6272808349609375,11.89439384765625,27.0381679389313,1.4351145038167938,18.27480916030534,-17.599776403808594,-2.863465185546875,2.5953145996093747,-48.74809160305343,-12.931297709923664,22.198473282442748,1.0
10.030001163482666,-10.89122335205078,-0.7733271362304687,0.8403647827148437,69.05343511450381,1.5267175572519085,14.580152671755725,-15.203180541992186,0.9361328491210937,1.5131354492187499,-51.16030534351145,-37.847328244274806,20.38167938931298,1.0
10.040000915527344,-2.9448680419921875,-3.009511486816406,-5.410895751953125,62.0,1.9541984732824427,4.122137404580153,-15.145719702148437,2.3439234252929686,0.17956512451171874,-40.99236641221374,-54.94656488549618,23.34351145038168,1.0
10.05000114440918,-1.9321207397460936,-4.3430818115234375,-6.9168485961914055,36.97709923664122,28.870229007633586,-8.458015267175572,-15.887922216796873,0.9313444458007812,-1.7190367919921874,-34.916030534351144,-63.20610687022901,27.83206106870229,1.0
10.060000658035278,-4.113238452148437,-2.205059729003906,-8.022969763183593,30.778625954198475,50.35114503816794,-9.297709923664122,-15.35401524658203,0.6847416748046875,-2.5354595581054684,-23.221374045801525,-67.83206106870229,27.61832061068702,1.0
10.070000886917114,-8.987833032226561,-0.09337386474609374,-5.499481213378906,37.69465648854962,78.79389312977099,-13.404580152671755,-14.350844750976561,-2.6623522460937497,-0.4860229370117187,-12.396946564885496,-67.26717557251908,29.0381679389313,1.0
10.080000638961792,-11.051634863281249,1.7525556152343749,-3.3399113159179685,27.52671755725191,85.87786259541984,-19.6793893129771,-11.712434521484374,0.8882488159179687,-3.440467785644531,2.2442748091603053,-77.7557251908397,18.65648854961832,1.0
10.090000629425049,-12.717999218749998,5.66946953125,-1.6160861206054686,14.931297709923664,94.74809160305344,-23.221374045801525,-12.229582080078124,1.3239935180664062,-3.651157531738281,-2.427480916030534,-75.40458015267176,17.236641221374047,1.0
10.100000381469727,-8.300697155761718,2.7748797241210936,-3.6727053466796873,-2.213740458015267,96.83969465648855,-18.99236641221374,-11.48498536376953,1.4628572143554686,-3.469198205566406,-9.465648854961833,-71.14503816793894,15.740458015267176,1.0
10.110000610351562,-9.770736975097655,1.37906015625,-2.9640216552734375,-1.3893129770992367,111.29770992366412,-23.282442748091604,-10.467449658203124,1.458068811035156,-5.923254907226562,-23.068702290076335,-63.63358778625954,14.01526717557252,1.0
10.12000036239624,-8.327033374023436,-2.1356278808593747,-4.034229797363281,0.8396946564885496,111.92366412213741,-24.396946564885496,-10.888829150390624,0.2059013427734375,-6.169857678222656,-21.083969465648856,-52.01526717557252,12.65648854961832,1.0
10.130000591278076,-9.701305126953125,-0.4740519287109375,-1.0007762939453124,19.61832061068702,132.8091603053435,-31.221374045801525,-9.466673364257812,-0.1388636962890625,-5.5641246582031245,-13.267175572519085,-52.12213740458015,3.9236641221374047,1.0
10.140000343322754,-9.320627062988281,0.9720458740234375,0.03591302490234375,10.51908396946565,132.19847328244273,-36.42748091603053,-10.711658227539061,0.05746083984375,-2.6096798095703124,-8.702290076335878,-41.61832061068702,0.8702290076335878,1.0
10.15000057220459,-9.5384994140625,0.8379705810546875,0.8690952026367187,6.213740458015267,134.42748091603053,-38.68702290076336,-9.763554370117188,-0.3327940307617187,-1.7764976318359373,-3.3740458015267176,-40.79389312977099,0.42748091603053434,1.0
10.160000324249268,-11.908759057617187,1.675941162109375,2.4253262817382812,-9.755725190839694,127.8473282442748,-43.9236641221374,-8.853757739257812,-0.3711012573242187,-0.9145850341796874,1.6030534351145038,-42.961832061068705,-3.66412213740458,1.0
10.170000314712524,-9.172186560058593,1.8124106567382812,1.3766659545898436,-17.984732824427482,120.54961832061069,-40.16793893129771,-7.570465649414062,0.00239420166015625,-0.34715924072265625,7.8320610687022905,-46.961832061068705,-7.572519083969466,1.0
10.18000078201294,-9.270348828125,-1.7788918334960937,2.6719290527343746,-17.114503816793892,119.16030534351145,-38.93129770992366,-7.924807495117187,-0.3950432739257812,0.0909796630859375,14.580152671755725,-49.282442748091604,-10.83969465648855,1.0
10.190000534057617,-10.139444030761718,5.719747766113281,2.3870190551757813,-25.633587786259543,110.1526717557252,-36.091603053435115,-6.979097839355468,1.5682020874023437,0.00239420166015625,18.748091603053435,-60.13740458015267,-16.061068702290076,1.0
10.200000762939453,-9.05965908203125,3.0933085449218747,2.863465185546875,-37.05343511450382,106.13740458015268,-31.81679389312977,-7.252036828613281,0.8259995727539062,0.8906430175781249,9.49618320610687,-58.94656488549618,-13.86259541984733,1.0
10.21000051498413,-8.489839086914062,0.181959326171875,2.674323254394531,-42.99236641221374,99.52671755725191,-27.954198473282442,-8.17141026611328,-0.20350714111328125,1.1252747802734375,20.778625954198475,-66.42748091603053,-12.290076335877863,0.0
10.220000505447388,-8.89924757080078,0.93852705078125,2.8371289672851563,-34.01526717557252,97.29770992366412,-28.061068702290076,-7.584830859375,1.16837041015625,0.6416460449218749,21.0381679389313,-73.06870229007633,-15.923664122137405,0.0
10.230000257492065,-8.805873706054687,1.448492004394531,2.6527754394531247,-33.55725190839695,94.45801526717557,-26.610687022900763,-8.104372619628906,0.7876923461914062,1.005564697265625,13.526717557251908,-72.94656488549619,-14.763358778625955,0.0
10.240000486373901,-9.595960253906249,1.5442600708007812,3.0693665283203124,-32.68702290076336,93.86259541984732,-26.458015267175572,-8.712499841308594,0.26815058593749996,1.3910311645507811,19.84732824427481,-77.89312977099236,-13.877862595419847,0.0
10.250000953674316,-9.555258825683593,-0.5219359619140624,2.8012159423828122,-29.16030534351145,86.77862595419847,-24.366412213740457,-7.1203557373046875,1.158793603515625,1.0869675537109373,14.274809160305344,-84.04580152671755,-17.328244274809162,0.0
10.260000705718994,-12.220005273437499,3.414131567382812,4.853046765136718,-31.541984732824428,80.9618320610687,-24.061068702290076,-9.287108239746093,0.1580173095703125,1.3168109130859373,13.053435114503817,-84.03053435114504,-13.679389312977099,0.0
10.270000696182251,-10.64222637939453,1.0295067138671874,3.423708374023437,-41.267175572519086,66.04580152671755,-19.96946564885496,-8.176198669433592,1.4532804077148436,0.40940848388671874,12.122137404580153,-92.59541984732824,-17.51145038167939,0.0
10.280000925064087,-10.599130749511717,-1.0989385620117187,2.829946362304687,-23.480916030534353,63.267175572519086,-15.236641221374045,-9.45470235595703,0.7326257080078125,0.7254431030273437,1.4961832061068703,-88.13740458015268,-16.15267175572519,0.0
10.290000915527344,-11.465831750488281,1.3096283081054687,3.1316157714843746,-13.297709923664122,62.274809160305345,-17.87786259541985,-10.539275708007812,0.09816226806640624,0.8690952026367187,7.603053435114504,-91.29770992366412,-16.061068702290076,0.0
10.300000667572021,-13.654132067871092,4.659116430664063,3.687070556640625,-24.564885496183205,53.954198473282446,-23.328244274809162,-9.624690673828125,0.9433154541015625,-0.23223756103515625,5.450381679389313,-91.89312977099236,-19.251908396946565,0.0
10.310000896453857,-11.21683477783203,3.143586779785156,1.5203180541992187,-35.66412213740458,39.02290076335878,-18.3206106870229,-10.551246716308594,0.03591302490234375,-0.16759411621093748,9.877862595419847,-91.63358778625954,-18.396946564885496,0.0
10.320000648498535,-13.5224509765625,4.860229370117187,3.469198205566406,-34.44274809160305,40.36641221374046,-16.702290076335878,-9.0021982421875,0.8475473876953125,-0.6679822631835937,7.877862595419847,-91.80152671755725,-22.30534351145038,0.0
10.330000877380371,-9.969455712890625,2.6479870361328124,0.7134720947265625,-45.343511450381676,27.114503816793892,-8.51908396946565,-11.087547888183593,0.1388636962890625,0.13407529296874998,10.076335877862595,-86.68702290076335,-19.908396946564885,0.0
10.340000629425049,-11.312602844238281,4.371812231445312,1.2473790649414063,-43.05343511450382,26.83969465648855,-2.854961832061069,-9.255983618164063,1.024718310546875,-0.5243301635742187,9.083969465648854,-88.06106870229007,-25.053435114503817,0.0
10.350000619888306,-8.990227233886719,1.649604943847656,-0.4261678955078125,-34.35114503816794,30.18320610687023,5.068702290076335,-9.890447058105469,0.4333505004882812,0.05985504150390625,5.755725190839694,-79.43511450381679,-23.389312977099237,0.0
10.360000371932983,-8.86094034423828,2.2266075439453124,-0.39743747558593745,-40.12213740458015,32.656488549618324,5.038167938931298,-10.611101757812499,0.5985504150390625,-0.29448680419921874,13.755725190839694,-79.0381679389313,-24.50381679389313,0.0
10.37000060081482,-8.556876733398436,0.8667010009765624,-0.6919242797851562,-43.00763358778626,35.64885496183206,2.732824427480916,-8.975862023925782,2.1595698974609374,-0.5530605834960938,7.099236641221374,-73.2824427480916,-29.16030534351145,0.0
10.380000591278076,-8.300697155761718,-1.889025109863281,-1.0702081420898437,-30.045801526717558,47.282442748091604,0.7022900763358778,-10.292672937011718,0.507570751953125,0.4908113403320312,7.862595419847328,-67.46564885496183,-26.458015267175572,0.0
10.390000581741333,-7.41244833984375,-1.9608511596679685,-1.2378022583007813,-10.320610687022901,59.63358778625954,-5.755725190839694,-9.459490759277344,1.1348515869140625,-0.3399766357421875,13.267175572519085,-66.35114503816794,-30.061068702290076,0.0
10.40000057220459,-8.609549169921875,-0.6751648681640625,-0.8259995727539062,-2.4122137404580153,66.79389312977099,-14.15267175572519,-8.489839086914062,2.6695348510742187,-0.08379705810546874,8.687022900763358,-58.99236641221374,-32.58015267175573,0.0
10.410000562667847,-9.05965908203125,0.28730419921875,-0.7709329345703124,-3.49618320610687,70.59541984732824,-19.068702290076335,-8.767566479492187,1.369483349609375,0.8355763793945312,2.0610687022900764,-46.85496183206107,-28.198473282442748,0.0
10.420000314712524,-9.411606726074218,0.4836287353515625,-0.411802685546875,-6.885496183206107,72.54961832061069,-22.12213740458015,-9.114725720214842,0.34715924072265625,1.2114660400390624,8.83969465648855,-43.541984732824424,-26.748091603053435,0.0
10.43000054359436,-10.235212097167969,0.8738836059570312,0.040701428222656245,-6.870229007633588,72.27480916030534,-23.984732824427482,-8.01818135986328,0.6009446166992187,0.8283937744140625,14.458015267175572,-45.23664122137404,-28.946564885496183,0.0
10.440000772476196,-10.168174450683592,1.927332336425781,0.8930372192382812,-10.595419847328245,68.76335877862596,-24.15267175572519,-6.387730029296875,2.090138049316406,0.09337386474609374,8.732824427480915,-39.282442748091604,-28.9618320610687,0.0
10.450000524520874,-10.225635290527343,1.7812860351562498,1.7693150268554687,-17.770992366412212,63.51145038167939,-22.946564885496183,-7.5345526245117185,2.5139117431640625,0.5315127685546874,0.2748091603053435,-31.31297709923664,-24.198473282442748,0.0
10.46000075340271,-9.504980590820312,1.0678139404296874,1.9943699829101562,-17.358778625954198,57.343511450381676,-21.099236641221374,-6.610390783691406,1.8818425048828125,0.411802685546875,-6.213740458015267,-28.83969465648855,-21.206106870229007,0.0
10.470000505447388,-10.259154113769531,1.1372457885742187,2.4396914916992185,-12.748091603053435,52.85496183206107,-18.442748091603054,-7.196970190429687,0.8044517578125,1.6256629272460936,-18.68702290076336,-16.793893129770993,-18.65648854961832,0.0
10.480000257492065,-9.888052856445311,0.8020575561523438,2.6982652709960937,-6.900763358778626,47.954198473282446,-15.374045801526718,-7.173028173828125,0.6368576416015624,1.189918225097656,-14.51908396946565,-15.374045801526718,-16.625954198473284,0.0
10.490000486373901,-12.07874737548828,3.7995980346679685,4.007893579101562,-11.557251908396946,42.229007633587784,-16.50381679389313,-7.357381701660156,0.6464344482421874,1.2593500732421874,-12.229007633587786,-12.534351145038167,-17.19083969465649,0.0
10.500000476837158,-13.048399047851563,4.862623571777344,5.248090039062499,-29.954198473282442,31.633587786259543,-16.748091603053435,-8.228871105957031,0.36391865234375,1.9704279663085937,-11.664122137404581,-8.549618320610687,-16.30534351145038,0.0
10.510000705718994,-10.151415039062499,-0.6488286499023437,3.3446997192382812,-33.83206106870229,14.259541984732824,-10.045801526717558,-8.94473740234375,-0.2609679809570312,1.9297265380859374,-2.5343511450381677,-9.557251908396946,-14.931297709923664,0.0
10.520000696182251,-10.896011755371093,-0.01915361328125,4.086902233886718,-12.122137404580153,12.061068702290076,-9.801526717557252,-6.68461103515625,0.08379705810546874,1.8028338500976562,2.3206106870229006,-12.534351145038167,-18.427480916030536,0.0
10.530001163482666,-9.974244116210937,-0.0718260498046875,4.860229370117187,-4.091603053435114,7.801526717557252,-13.251908396946565,-6.0333881835937495,1.2521674682617188,1.7118541870117185,-8.290076335877863,-0.12213740458015267,-17.923664122137403,0.0
10.540000677108765,-10.759542260742187,1.5514426757812498,5.623979699707031,-7.4961832061068705,-0.9770992366412213,-16.916030534351144,-7.407659936523437,-0.3280056274414062,1.9991583862304687,-7.816793893129771,3.435114503816794,-13.206106870229007,0.0
10.5500009059906,-10.740388647460938,1.7190367919921874,5.858611462402344,3.099236641221374,-9.099236641221374,-16.870229007633586,-7.8721350585937495,-1.1540052001953125,1.89620771484375,-4.198473282442748,6.9465648854961835,-12.885496183206106,0.0
10.560000658035278,-10.647014782714843,2.1547814941406247,6.517016918945312,11.694656488549619,-17.0381679389313,-15.419847328244275,-6.236895324707031,0.3902548706054687,0.7038952880859375,0.030534351145038167,7.740458015267175,-15.465648854961833,0.0
10.570000886917114,-10.20887587890625,2.9041666137695312,6.792350109863281,19.96946564885496,-27.251908396946565,-12.076335877862595,-3.5434184570312497,3.900154504394531,-1.0031704956054688,-12.396946564885496,15.251908396946565,-19.19083969465649,0.0
10.580000638961792,-11.168950744628905,6.083666418457031,8.307879760742187,15.709923664122137,-36.045801526717554,-11.511450381679388,-4.790797521972656,2.825157958984375,0.48123453369140623,-46.70229007633588,46.85496183206107,-11.206106870229007,0.0
10.590000629425049,-11.79144317626953,5.741295581054687,9.579200842285156,-6.687022900763359,-55.969465648854964,-9.251908396946565,-7.874529260253905,-1.120486376953125,1.3479355346679687,-42.48854961832061,55.41984732824427,-0.15267175572519084,0.0
10.600000619888306,-11.384428894042967,3.6631285400390623,8.82981572265625,8.885496183206106,-76.79389312977099,-2.0610687022900764,-9.564835632324218,-2.499546533203125,-0.011971008300781249,-25.435114503816795,61.847328244274806,-0.16793893129770993,0.0
10.610000371932983,-11.511321582031249,2.583343591308594,9.686939916992188,33.64885496183206,-93.45038167938931,6.5038167938931295,-10.809820495605468,-0.46686932373046874,-1.9919757812499999,-5.587786259541985,66.50381679389314,-5.770992366412214,0.0
10.62000060081482,-13.263877197265625,3.5218706420898434,11.200075366210937,48.229007633587784,-112.76335877862596,11.32824427480916,-14.305354919433594,0.9528922607421875,-0.6296750366210937,15.740458015267176,70.59541984732824,-2.2595419847328246,0.0
10.630000591278076,-14.288595507812499,3.3494881225585935,11.726799731445311,64.53435114503817,-136.4732824427481,16.870229007633586,-17.305289599609374,1.4508862060546874,1.2689268798828124,26.580152671755727,68.7175572519084,0.8396946564885496,0.0
10.640000581741333,-14.66448516845703,1.1468225952148436,10.357316381835936,74.12213740458016,-164.33587786259542,20.48854961832061,-14.846444494628905,3.873818286132812,2.480392919921875,23.587786259541986,64.54961832061069,-0.6564885496183206,0.0
10.65000057220459,-15.157690710449218,-1.5634136840820312,8.973467822265624,58.732824427480914,-189.25190839694656,16.82442748091603,-15.567099194335936,1.3000515014648437,2.7629087158203123,28.68702290076336,63.02290076335878,8.274809160305344,0.0
10.660000801086426,-17.099388256835937,-3.418919970703125,7.331045483398437,51.55725190839695,-207.86259541984734,10.076335877862595,-12.198457458496094,2.446874096679687,-0.5051765502929687,29.099236641221374,59.63358778625954,10.442748091603054,0.0
10.670000314712524,-19.747375292968748,-3.3327287109375,4.601655590820312,62.83969465648855,-221.09923664122138,10.335877862595419,-10.232817895507813,3.754108203125,-3.6583401367187496,14.259541984732824,67.64885496183206,14.091603053435115,0.0
10.68000078201294,-20.997148559570313,-1.6208745239257811,1.678335363769531,72.51908396946565,-223.72519083969465,16.748091603053435,-7.996633544921875,3.488351818847656,-5.480327600097656,-8.82442748091603,74.56488549618321,17.587786259541986,0.0
10.690000534057617,-19.218256726074216,-0.7158662963867187,-0.8690952026367187,100.36641221374046,-211.6030534351145,27.740458015267176,-8.82981572265625,-0.32561142578124996,-4.80755693359375,-26.12213740458015,86.93129770992367,19.389312977099237,0.0
10.700000762939453,-17.592593798828123,1.618480322265625,-4.273649963378906,82.7175572519084,-206.36641221374046,36.50381679389313,-9.34696328125,-4.108450048828125,-3.6727053466796873,-25.66412213740458,91.37404580152672,15.068702290076336,0.0
10.71000051498413,-12.97896719970703,-1.158793603515625,-5.884947680664062,80.44274809160305,-182.29007633587787,51.52671755725191,-8.508992700195313,-6.572083557128906,-2.31758720703125,-27.450381679389313,95.55725190839695,7.923664122137405,0.0
10.720000505447388,-12.835315100097656,-1.120486376953125,-4.893748193359374,54.0,-159.54198473282443,52.0,-7.275978845214843,-4.671087438964843,-3.114856359863281,-20.045801526717558,88.87022900763358,-0.3511450381679389,0.0
10.730000495910645,-12.921506359863281,-0.9217676391601562,-2.8323405639648436,23.389312977099237,-147.58778625954199,53.770992366412216,-9.198522778320312,-4.235342736816406,-1.139639990234375,-32.0,99.83206106870229,-1.1297709923664123,0.0
10.740000247955322,-13.692439294433592,2.319981408691406,0.24899697265624998,14.427480916030534,-137.93893129770993,58.94656488549618,-9.466673364257812,-2.913743420410156,-1.2521674682617188,-34.2442748091603,93.22137404580153,0.183206106870229,0.0
10.750000476837158,-12.677297790527343,4.376600634765625,2.839523168945312,14.122137404580153,-138.0916030534351,65.6793893129771,-12.713210815429687,-3.0334535034179684,2.080561242675781,-30.870229007633586,85.37404580152672,5.190839694656488,0.0
10.760000705718994,-10.809820495605468,1.16837041015625,5.930437512207031,1.9541984732824427,-136.24427480916032,64.7175572519084,-12.701239807128905,-1.5849614990234373,3.593696691894531,-24.564885496183205,70.44274809160305,7.7251908396946565,0.0
10.770000696182251,-8.259995727539062,-1.8339584716796873,3.921702319335937,-17.17557251908397,-138.7175572519084,56.42748091603053,-13.163320727539062,-2.3056161987304686,4.910507604980468,-12.412213740458014,53.083969465648856,13.603053435114504,0.0
10.780000686645508,-10.09395419921875,-0.5482721801757812,1.5921441040039062,-26.106870229007633,-136.5801526717557,46.51908396946565,-11.303026037597656,0.16280571289062498,3.7900212280273435,-10.396946564885496,35.786259541984734,14.15267175572519,0.0
10.790000915527344,-8.695740429687499,-2.6144682128906247,-1.9393033447265624,-31.87786259541985,-139.1908396946565,43.45038167938932,-10.960655200195312,-1.2473790649414063,3.289633081054687,-16.580152671755727,29.267175572519083,17.786259541984734,0.0
10.800000429153442,-11.097124694824219,0.9433154541015625,0.411802685546875,-48.74809160305343,-130.67175572519085,30.9618320610687,-9.583989245605467,-1.3072341064453123,1.429338391113281,-10.564885496183207,18.763358778625953,16.18320610687023,0.0
10.810000658035278,-8.506598498535157,-1.5610194824218748,-0.51714755859375,-53.3587786259542,-136.65648854961833,29.755725190839694,-9.239224206542968,-1.8219874633789062,0.4644751220703125,-11.282442748091603,19.00763358778626,15.740458015267176,0.0
10.820000648498535,-8.499415893554687,-0.06464344482421874,0.82360537109375,-54.412213740458014,-124.7175572519084,25.022900763358777,-7.783549597167968,-0.45489831542968745,-1.484405029296875,-11.603053435114504,18.427480916030536,13.221374045801527,0.0
10.830000638961792,-4.886565588378906,-1.5466542724609373,-1.3072341064453123,-56.61068702290076,-123.37404580152672,22.427480916030536,-7.955932116699218,-1.3168109130859373,-1.2976572998046874,-18.137404580152673,29.251908396946565,14.534351145038167,0.0
10.840000629425049,7.208941198730468,-14.34605634765625,-8.315062365722655,-2.7480916030534353,-105.12977099236642,30.870229007633586,-7.3286512817382805,-1.2617442749023438,-2.0374656127929685,-15.099236641221374,35.38931297709924,14.763358778625955,0.0
10.850000619888306,1.407790576171875,-6.110002636718749,-3.612850305175781,53.770992366412216,-34.54961832061068,9.633587786259541,-6.227318518066406,-2.597708801269531,-2.375048046875,-6.656488549618321,44.961832061068705,14.916030534351146,0.0
10.860000610351562,-1.6400281372070311,-3.162740393066406,-3.737348791503906,57.61832061068702,-20.0,0.7022900763358778,-6.301538769531249,1.254561669921875,-3.5625720703124997,-3.3893129770992365,53.19083969465649,9.435114503816793,0.0
10.87000060081482,-4.189852905273438,1.189918225097656,-1.446097802734375,50.70229007633588,1.6793893129770991,-5.282442748091603,-8.12113203125,-0.37828386230468747,-3.0214824951171875,-20.48854961832061,72.7175572519084,13.740458015267176,0.0
10.880000591278076,-4.637568615722656,2.971204260253906,-1.1133037719726562,20.076335877862597,1.9389312977099236,-5.648854961832061,-7.575254052734374,0.35194764404296874,-2.6144682128906247,-16.12213740458015,74.83969465648855,12.290076335877863,0.0
10.890000581741333,-4.185064501953125,2.511517541503906,-0.5027823486328125,-16.061068702290076,2.183206106870229,-3.404580152671756,-8.992621435546875,-1.3383587280273437,-0.8451531860351562,-21.480916030534353,85.25190839694656,16.412213740458014,0.0
10.90000057220459,-5.0014872680664055,3.6559459350585937,0.7326257080078125,-34.0,9.969465648854962,-6.122137404580153,-8.659827404785156,-0.8954314208984374,-1.3215993164062498,-10.305343511450381,80.74809160305344,15.938931297709924,0.0
10.910000562667847,-1.2713210815429687,-0.27293898925781246,-1.458068811035156,-44.778625954198475,4.0,-1.9694656488549618,-9.449913952636718,-2.568978381347656,0.5291185668945312,3.068702290076336,79.22137404580153,18.65648854961832,0.0
10.920000314712524,-0.8499415893554687,-1.2665326782226562,-0.45489831542968745,-24.396946564885496,23.52671755725191,-4.732824427480916,-10.16338604736328,-3.6631285400390623,0.6464344482421874,22.549618320610687,71.6793893129771,18.9618320610687,0.0
10.93000054359436,-1.9201497314453124,-0.24660277099609373,1.209071838378906,-17.51145038167939,33.587786259541986,-10.427480916030534,-11.259930407714844,-1.429338391113281,0.814028564453125,33.6793893129771,64.2442748091603,15.786259541984732,0.0
10.940000772476196,-2.4492682983398435,0.6823474731445313,2.5234885498046875,-14.702290076335878,41.70992366412214,-11.84732824427481,-10.084377392578125,-0.6296750366210937,-0.06943184814453125,27.64885496183206,60.44274809160305,15.893129770992367,0.0
10.950000524520874,-1.89620771484375,0.16041151123046873,3.825934252929687,-11.053435114503817,48.79389312977099,-8.916030534351146,-8.719682446289061,-1.1827356201171875,0.3902548706054687,25.435114503816795,57.404580152671755,15.267175572519085,0.0
10.96000075340271,-3.5506010620117183,0.16041151123046873,6.785167504882812,0.366412213740458,58.01526717557252,-8.259541984732824,-9.957484704589843,-2.360682836914062,1.180341418457031,32.717557251908396,61.221374045801525,18.045801526717558,0.0
10.970000505447388,-5.779602807617187,1.0989385620117187,11.259930407714844,1.618320610687023,52.656488549618324,-4.351145038167939,-8.765172277832031,0.17238251953125,-0.22266075439453123,38.62595419847328,55.770992366412216,12.992366412213741,0.0
10.980000495910645,-5.951985327148437,-0.4644751220703125,13.589488623046874,29.6793893129771,55.81679389312977,4.259541984732825,-10.098742602539062,-1.2856862915039062,0.7709329345703124,39.7557251908397,61.6793893129771,14.0,0.0
10.990000486373901,-7.912836486816405,0.9504980590820312,15.107412475585937,40.717557251908396,50.274809160305345,2.015267175572519,-10.603919152832031,-1.6472107421875,1.697488977050781,39.80152671755725,65.61832061068702,10.030534351145038,0.0
11.000000238418579,-11.595118640136718,1.6998831787109374,15.416264489746093,20.702290076335878,32.213740458015266,-8.717557251908397,-10.654197387695312,-1.7238251953125,3.825934252929687,33.25190839694657,68.10687022900764,8.15267175572519,0.0
11.010001182556152,-8.623914379882812,-0.04548983154296875,12.686874597167968,56.33587786259542,35.55725190839695,-13.908396946564885,-11.532869396972655,-0.27293898925781246,3.3782185424804685,26.427480916030536,62.56488549618321,8.625954198473282,0.0
11.020000696182251,-8.501810095214843,1.4245499877929686,11.262324609375,64.9618320610687,22.595419847328245,-12.687022900763358,-9.8449572265625,0.47644613037109373,3.6727053466796873,12.900763358778626,57.06870229007634,11.893129770992367,0.0
11.030000448226929,-8.451531860351562,5.786785412597656,11.379640490722656,86.67175572519083,21.709923664122137,-5.083969465648855,-10.548852514648438,1.6927005737304686,2.5474305664062498,-9.893129770992367,53.83206106870229,16.458015267175572,0.0
11.040000677108765,-7.864952453613281,9.37808790283203,10.896011755371093,87.5114503816794,12.977099236641221,10.67175572519084,-11.394005700683593,-0.3495534423828125,3.2441432495117186,-29.129770992366414,56.717557251908396,24.53435114503817,0.0
11.0500009059906,-9.253589416503905,10.223241088867187,4.955997436523437,68.13740458015268,8.82442748091603,25.51145038167939,-11.827356201171874,-3.220201232910156,2.6336218261718747,-25.81679389312977,46.213740458015266,27.770992366412212,0.0
11.060000658035278,-12.401964599609375,4.091690637207031,3.6535517333984373,25.52671755725191,9.465648854961833,35.25190839694657,-12.907141149902342,-3.4907460205078125,0.1580173095703125,-22.702290076335878,32.33587786259542,27.251908396946565,0.0
11.070000886917114,-19.91257520751953,-0.9648632690429687,16.335637927246093,23.129770992366414,17.17557251908397,43.11450381679389,-13.168109130859374,-2.408566870117187,-0.948103857421875,-22.061068702290076,13.358778625954198,17.17557251908397,0.0
11.080000638961792,-22.55577384033203,-3.296815686035156,21.13840645751953,43.93893129770992,-2.0916030534351147,42.16793893129771,-16.41464658203125,-3.8043864379882812,0.5267243652343749,-26.68702290076336,5.8320610687022905,16.732824427480917,0.0
11.090000629425049,-23.197419885253904,-0.5985504150390625,16.053122131347656,49.02290076335878,-29.49618320610687,20.076335877862597,-14.738705419921875,-1.668758557128906,0.9169792358398436,-25.389312977099237,-19.297709923664122,14.793893129770993,0.0
11.100000619888306,-14.080299963378906,0.5027823486328125,3.6918589599609373,63.099236641221374,-49.25190839694657,16.977099236641223,-17.087417248535154,-2.2194249389648437,2.389413256835937,-26.16793893129771,-37.12977099236641,14.0,0.0
11.110000610351562,-3.907337109375,3.220201232910156,-7.113173132324218,77.32824427480917,-31.480916030534353,12.320610687022901,-16.967707165527344,0.469263525390625,1.944091748046875,-24.106870229007633,-62.6412213740458,7.129770992366412,0.0
11.12000060081482,1.0941501586914062,0.25139117431640623,-11.501744775390625,11.206106870229007,-4.488549618320611,-6.351145038167939,-18.085799340820312,0.7733271362304687,3.0166940917968748,-23.404580152671755,-84.97709923664122,13.297709923664122,0.0
11.130000352859497,-4.094084838867187,3.758896606445312,-9.411606726074218,-34.61068702290076,28.442748091603054,-8.687022900763358,-15.667655664062499,5.269637854003906,-0.7493851196289062,-11.206106870229007,-110.45801526717557,15.541984732824428,0.0
11.140000581741333,-2.6096798095703124,-1.6831237670898436,-8.858546142578124,-26.045801526717558,51.57251908396947,9.893129770992367,-14.030021728515624,4.369418029785156,-2.473210314941406,-21.0381679389313,-104.19847328244275,21.87786259541985,0.0
11.15000057220459,-7.838616235351562,-1.6448165405273436,-4.438849877929687,0.9465648854961832,89.90839694656489,0.44274809160305345,-12.732364428710937,2.5641899780273434,-4.896142395019531,-8.244274809160306,-111.12977099236642,23.236641221374047,0.0
11.160000801086426,-12.181698046874999,2.906560815429687,-2.454056701660156,-0.6106870229007634,103.31297709923665,-9.022900763358779,-14.204798449707031,0.7278373046875,-3.9624037475585934,-6.519083969465649,-101.98473282442748,25.00763358778626,0.0
11.170000553131104,-13.462595935058593,3.687070556640625,-0.6823474731445313,-14.229007633587786,110.8854961832061,-12.335877862595419,-11.77228956298828,2.626439221191406,-5.623979699707031,-22.702290076335878,-100.09160305343511,15.786259541984732,0.0
11.18000078201294,-12.641384765624998,0.5458779785156249,-1.0678139404296874,-32.25954198473283,107.23664122137404,-17.129770992366414,-14.015656518554687,1.2138602416992186,-5.042188696289062,-39.43511450381679,-84.35114503816794,14.870229007633588,0.0
11.190000534057617,-12.397176196289061,-0.1388636962890625,0.0383072265625,-34.396946564885496,106.1526717557252,-23.633587786259543,-10.421959826660157,2.3151930053710936,-8.51617530517578,-56.79389312977099,-77.49618320610686,9.49618320610687,0.0
11.200000524520874,-9.387664709472656,-2.059013427734375,-0.011971008300781249,-31.17557251908397,99.29770992366412,-25.984732824427482,-10.788272680664061,1.120486376953125,-8.576030346679687,-55.969465648854964,-56.778625954198475,8.717557251908397,0.0
11.210000276565552,-9.447519750976562,-3.2632968627929686,1.3527239379882812,-13.083969465648854,101.05343511450381,-32.76335877862596,-11.152191333007812,0.3806780639648437,-6.41646044921875,-35.7557251908397,-48.42748091603053,7.145038167938932,0.0
11.220000505447388,-9.931148486328125,-2.068590234375,1.6136919189453125,-4.702290076335878,99.57251908396947,-40.58015267175573,-9.433154541015625,-0.373495458984375,-4.108450048828125,-18.015267175572518,-43.38931297709924,3.816793893129771,0.0
11.230000495910645,-9.30147344970703,-0.38786066894531246,0.7876923461914062,1.6030534351145038,99.06870229007633,-43.908396946564885,-9.0788126953125,0.5219359619140624,-3.5386300537109374,-6.793893129770993,-38.97709923664122,-2.2290076335877864,0.0
11.240000486373901,-9.888052856445311,0.7829039428710937,0.6392518432617187,6.656488549618321,101.93893129770993,-45.267175572519086,-8.743624462890624,-1.2904746948242187,-1.0893617553710937,-1.4198473282442747,-31.083969465648856,-3.6793893129770994,0.0
11.250000476837158,-9.244012609863281,0.9337386474609375,0.1005564697265625,5.572519083969466,103.63358778625954,-45.603053435114504,-7.999027746582031,-2.003946789550781,-0.8451531860351562,17.52671755725191,-41.19083969465649,-8.65648854961832,0.0
11.260000705718994,-9.574412438964844,1.5011644409179687,0.3064578125,10.595419847328245,107.06870229007633,-45.19083969465649,-9.112331518554686,-2.6048914062499997,0.24899697265624998,39.32824427480916,-47.3587786259542,-11.435114503816793,0.0
11.270000696182251,-9.229647399902344,2.8850130004882812,0.7493851196289062,3.877862595419847,107.58778625954199,-44.06106870229008,-7.038952880859375,0.239420166015625,-0.5267243652343749,42.29007633587786,-57.05343511450382,-19.587786259541986,0.0
11.280000686645508,-9.299079248046874,3.8666356811523435,1.7621324218749999,-8.83969465648855,108.30534351145039,-42.94656488549618,-8.087613208007811,-1.4724340209960938,1.1156979736328125,43.282442748091604,-56.458015267175576,-17.282442748091604,0.0
11.290000915527344,-8.82981572265625,1.2114660400390624,1.465251416015625,-19.6793893129771,105.26717557251908,-41.11450381679389,-7.654262707519531,0.6871358764648438,0.354341845703125,43.61832061068702,-68.27480916030534,-21.068702290076335,0.0
11.300000667572021,-9.962273107910155,3.31357509765625,1.5753846923828123,-15.603053435114504,104.06106870229007,-38.030534351145036,-10.101136804199218,-1.5107412475585937,2.916137622070312,43.69465648854962,-67.86259541984732,-16.244274809160306,0.0
11.310000896453857,-8.825027319335938,0.9409212524414062,2.288856787109375,-24.18320610687023,97.80152671755725,-34.0763358778626,-8.839392529296875,0.7900865478515624,1.4341267944335936,47.908396946564885,-81.52671755725191,-20.977099236641223,0.0
11.320000648498535,-11.77228956298828,2.6216508178710938,3.5625720703124997,-29.954198473282442,93.7557251908397,-33.11450381679389,-9.648632690429688,0.4740519287109375,2.4444798950195312,47.770992366412216,-83.6793893129771,-19.557251908396946,0.0
11.330000638961792,-10.35492218017578,0.8762778076171874,3.9935283691406247,-34.900763358778626,85.61832061068702,-29.984732824427482,-7.520187414550781,1.7022773803710936,1.7932570434570312,42.58015267175573,-91.08396946564885,-21.099236641221374,0.0
11.340000629425049,-10.9941740234375,1.3742717529296875,3.5673604736328124,-32.79389312977099,77.3587786259542,-27.31297709923664,-8.157045056152343,2.8898014038085935,1.0103531005859374,35.3587786259542,-94.59541984732824,-18.65648854961832,0.0
11.350000381469727,-10.156203442382813,1.0821791503906248,2.3918074584960936,-33.06870229007634,71.38931297709924,-24.213740458015266,-8.350975390624999,2.7150246826171873,1.4724340209960938,20.549618320610687,-90.3206106870229,-15.022900763358779,0.0
11.360000610351562,-9.686939916992188,1.8339584716796873,1.89620771484375,-28.83969465648855,70.19847328244275,-21.908396946564885,-8.137891442871092,2.408566870117187,0.48123453369140623,11.893129770992367,-93.06870229007633,-15.068702290076336,0.0
11.37000060081482,-9.191340173339842,1.35990654296875,0.6105214233398437,-31.72519083969466,62.458015267175576,-19.740458015267176,-8.427589843749999,2.2601263671875,0.047884033203124995,-3.7251908396946565,-83.66412213740458,-13.664122137404581,0.0
11.380000829696655,-10.065223779296874,1.8148048583984373,1.3479355346679687,-29.49618320610687,65.26717557251908,-18.885496183206108,-9.464279162597656,1.1037269653320312,-0.21308394775390624,-1.786259541984733,-83.14503816793894,-12.396946564885496,0.0
11.390000581741333,-9.588777648925781,0.9026140258789062,0.29448680419921874,-23.755725190839694,64.97709923664122,-17.61832061068702,-9.112331518554686,1.2689268798828124,-0.36631285400390623,-6.0458015267175576,-79.26717557251908,-15.053435114503817,0.0
11.40000057220459,-9.74200655517578,3.5601778686523438,1.199495031738281,-20.68702290076336,66.27480916030534,-19.358778625954198,-9.291896643066405,1.1061211669921875,-0.32561142578124996,-11.282442748091603,-74.83969465648855,-15.145038167938932,0.0
11.410000562667847,-9.79946739501953,1.7764976318359373,0.488417138671875,-27.64885496183206,62.732824427480914,-19.19083969465649,-10.75714805908203,-0.11013327636718749,-0.229843359375,-6.290076335877862,-71.98473282442748,-14.01526717557252,0.0
11.420000314712524,-12.334926953124999,2.5330653564453125,1.889025109863281,-24.366412213740457,65.77099236641222,-21.450381679389313,-10.27830772705078,0.679953271484375,-0.1388636962890625,3.267175572519084,-76.51908396946565,-18.3206106870229,0.0
11.43000054359436,-10.103531005859374,1.3192051147460937,0.7924807495117187,-28.870229007633586,61.12977099236641,-20.412213740458014,-8.305485559082031,2.109291662597656,-0.41898529052734373,-5.633587786259542,-74.83969465648855,-21.51145038167939,0.0
11.440001010894775,-9.842563024902343,0.5243301635742187,0.5746083984375,-26.80916030534351,62.045801526717554,-19.740458015267176,-8.79150849609375,2.042254016113281,-0.5003881469726562,-12.412213740458014,-69.37404580152672,-19.801526717557252,0.0
11.450000524520874,-9.871293444824218,-0.4477157104492187,0.062249243164062495,-16.80916030534351,68.04580152671755,-20.763358778625953,-9.442731347656249,0.6943184814453125,0.24899697265624998,-16.870229007633586,-62.35114503816794,-17.923664122137403,0.0
11.460000991821289,-10.539275708007812,1.9105729248046874,0.6703764648437499,-15.007633587786259,68.73282442748092,-24.793893129770993,-9.07163009033203,0.8188169677734375,-0.0143652099609375,-13.038167938931299,-64.54961832061069,-20.0,0.0
11.470000267028809,-10.038887561035155,1.6208745239257811,0.39264907226562495,-20.106870229007633,66.4885496183206,-25.14503816793893,-7.8721350585937495,2.0470424194335934,-0.14604630126953125,-19.419847328244273,-57.12977099236641,-21.938931297709924,0.0
11.480000734329224,-10.819397302246093,2.492363928222656,1.5514426757812498,-24.671755725190838,67.52671755725191,-25.572519083969464,-8.073247998046874,1.7118541870117185,-0.040701428222656245,-23.557251908396946,-49.908396946564885,-20.03053435114504,0.0
11.490000486373901,-9.991003527832031,0.9935936889648437,1.3048399047851562,-33.05343511450382,62.99236641221374,-24.916030534351144,-9.521740002441407,-0.29448680419921874,0.3399766357421875,-20.641221374045802,-40.80916030534351,-17.61832061068702,0.0
11.500000715255737,-10.295067138671874,1.6136919189453125,1.8435352783203125,-27.603053435114504,60.97709923664122,-24.80916030534351,-8.801085302734375,-0.5291185668945312,-0.2753331909179687,-9.679389312977099,-38.916030534351144,-21.72519083969466,0.0
11.510000705718994,-10.398017810058594,0.5458779785156249,1.668758557128906,-26.83969465648855,56.42748091603053,-22.717557251908396,-7.953537915039062,-0.6296750366210937,-0.031124621582031248,-1.8778625954198473,-35.41984732824427,-23.358778625954198,0.0
11.520000457763672,-11.834538806152343,2.166752502441406,3.0621839233398433,-22.061068702290076,50.97709923664122,-22.137404580152673,-6.9719152343749995,0.8212111694335937,-0.3280056274414062,3.984732824427481,-31.19083969465649,-23.69465648854962,0.0
11.530000925064087,-10.472238061523436,2.748543505859375,2.607285607910156,-28.427480916030536,44.091603053435115,-20.580152671755727,-5.968744738769531,1.419761584472656,-0.033518823242187495,-0.8091603053435115,-23.099236641221374,-22.946564885496183,0.0
11.540000677108765,-11.71482872314453,3.7900212280273435,4.352658618164062,-36.16793893129771,37.93893129770992,-18.885496183206108,-5.894524487304687,1.254561669921875,0.23223756103515625,-5.847328244274809,-16.53435114503817,-20.702290076335878,0.0
11.5500009059906,-10.848127722167968,2.176329309082031,3.1866824096679687,-44.54961832061068,23.709923664122137,-13.801526717557252,-8.046911779785155,-0.4429273071289062,1.7286135986328124,-1.6641221374045803,-9.816793893129772,-17.053435114503817,0.0
11.560000658035278,-12.208034265136718,2.398990063476562,3.440467785644531,-35.51145038167939,17.862595419847327,-11.923664122137405,-6.849810949707031,0.011971008300781249,1.5849614990234373,-0.9770992366412213,-7.694656488549619,-19.541984732824428,0.0
11.570000886917114,-11.087547888183593,1.5131354492187499,3.0502129150390624,-25.51145038167939,17.114503816793892,-8.564885496183207,-7.498639599609374,0.1005564697265625,2.0087351928710935,4.702290076335878,-5.1603053435114505,-17.72519083969466,0.0
11.580000638961792,-10.960655200195312,1.8770541015625,2.808398547363281,-24.03053435114504,12.885496183206106,-7.66412213740458,-7.4411787597656245,0.5315127685546874,2.0278888061523435,3.5572519083969465,-2.2595419847328246,-17.297709923664122,0.0
11.590000629425049,-10.647014782714843,0.9217676391601562,2.4516625,-21.404580152671755,8.122137404580153,-5.633587786259542,-7.721300354003906,0.7038952880859375,1.8626888916015625,2.2442748091603053,-0.6412213740458015,-15.954198473282442,0.0
11.600000619888306,-9.414000927734374,-0.507570751953125,2.703053674316406,-4.687022900763359,9.145038167938932,-4.717557251908397,-7.213729602050781,0.9074024291992187,1.4125789794921875,-2.0610687022900764,3.0839694656488548,-16.106870229007633,0.0
11.610000610351562,-9.260772021484375,-0.32561142578124996,2.96881005859375,-8.534351145038167,4.870229007633588,-6.091603053435114,-8.099584216308592,0.03591302490234375,1.4987702392578124,-2.6564885496183206,8.198473282442748,-14.946564885496183,0.0
11.62000036239624,-11.104307299804686,2.3774422485351563,4.666299035644531,-18.47328244274809,-2.1068702290076335,-11.587786259541986,-7.4220251464843745,0.6584054565429687,0.8283937744140625,-4.213740458015267,11.526717557251908,-16.931297709923665,0.0
11.630000591278076,-10.175357055664062,-0.11731588134765625,4.185064501953125,-15.84732824427481,-12.687022900763358,-8.702290076335878,-7.934384301757812,0.16041151123046873,1.1348515869140625,-11.48091603053435,21.984732824427482,-14.244274809160306,0.0
11.640000343322754,-11.10191309814453,0.26815058593749996,5.185840795898438,3.053435114503817,-15.816793893129772,-10.320610687022901,-6.866570361328125,0.26336218261718747,0.411802685546875,-15.49618320610687,24.53435114503817,-15.007633587786259,0.0
11.65000057220459,-10.295067138671874,-0.3016694091796875,6.110002636718749,14.65648854961832,-24.870229007633586,-10.122137404580153,-6.562506750488281,0.16280571289062498,0.8810662109374999,-18.977099236641223,31.72519083969466,-14.244274809160306,0.0
11.660001039505005,-10.979808813476561,1.0797849487304687,7.261613635253906,24.748091603053435,-34.67175572519084,-12.183206106870228,-6.591237170410156,0.201112939453125,0.7637503295898437,-22.061068702290076,37.86259541984733,-12.320610687022901,0.0
11.670000553131104,-12.873622326660156,4.029441394042968,9.277531433105468,15.022900763358779,-51.725190839694655,-15.755725190839694,-6.351817004394531,0.15322890625,-0.13407529296874998,-25.557251908396946,44.717557251908396,-12.305343511450381,0.0
11.68000078201294,-12.164938635253906,4.285620971679688,10.251971508789062,2.946564885496183,-77.98473282442748,-13.374045801526718,-6.955155822753905,0.2657563842773437,-1.22583125,-29.099236641221374,55.57251908396947,-11.267175572519085,0.0
11.690000534057617,-12.301408129882812,3.651157531738281,10.704475622558594,6.183206106870229,-97.98473282442748,-6.977099236641221,-10.931924780273437,-0.6967126831054687,-0.21787235107421873,-18.244274809160306,64.50381679389314,-4.977099236641221,0.0
11.700000762939453,-12.54561669921875,3.6200329101562496,10.83376251220703,13.786259541984732,-119.89312977099236,1.6488549618320612,-13.929465258789062,0.0430956298828125,0.8212111694335937,3.3893129770992365,67.09923664122137,-6.015267175572519,0.0
11.710000276565552,-13.084312072753905,3.73495458984375,10.297461340332031,32.0,-141.17557251908397,12.442748091603054,-17.58780539550781,0.7852981445312499,3.7924154296875,21.16030534351145,71.12977099236642,-6.519083969465649,0.0
11.720000267028809,-14.420276599121093,4.144363073730468,10.213664282226562,44.33587786259542,-159.6946564885496,21.862595419847327,-19.507955126953124,1.3000515014648437,4.666299035644531,43.847328244274806,64.36641221374046,-0.15267175572519084,0.0
11.730000257492065,-14.355633154296875,1.608903515625,7.917624890136718,60.3206106870229,-179.38931297709922,30.076335877862597,-16.117765576171873,3.6200329101562496,2.602497204589844,46.25954198473283,60.30534351145038,8.83969465648855,0.0
11.740000486373901,-15.62216583251953,-2.501940734863281,5.446808776855469,49.14503816793893,-194.06106870229007,25.69465648854962,-11.549628808593749,5.980715747070312,-1.6639701538085936,30.870229007633586,55.603053435114504,19.801526717557252,0.0
11.750000476837158,-17.590199597167967,-4.3454760131835934,4.070142822265625,41.786259541984734,-208.15267175572518,13.511450381679388,-9.090783703613281,3.0645781249999997,-2.712630480957031,1.5877862595419847,67.19083969465649,27.17557251908397,0.0
11.760000705718994,-17.578228588867187,-4.7022120605468745,2.2553379638671873,49.465648854961835,-211.23664122137404,11.83206106870229,-6.548141540527343,1.8267758666992187,-5.705382556152343,-17.69465648854962,66.25954198473282,23.786259541984734,0.0
11.770000696182251,-21.121647045898435,0.9121908325195311,1.5251064575195312,43.66412213740458,-212.93129770992365,13.206106870229007,-8.463502868652343,-1.8411410766601561,-3.220201232910156,-32.091603053435115,80.19847328244275,16.80916030534351,0.0
11.780000448226929,-18.114529760742187,1.1516109985351561,-0.9576806640625,59.48091603053435,-201.98473282442748,29.603053435114504,-6.8210805297851556,-2.592920397949219,-3.5721488769531247,-36.47328244274809,78.85496183206106,5.923664122137405,0.0
11.790000915527344,-14.705186596679686,1.37906015625,-3.402160559082031,64.25954198473282,-190.65648854961833,43.969465648854964,-7.376535314941406,-4.829104748535156,-1.8171990600585937,-41.11450381679389,82.68702290076335,0.7480916030534351,0.0
11.800000429153442,-13.883975427246092,1.5873557006835937,-3.0358477050781247,47.17557251908397,-175.17557251908397,47.20610687022901,-7.651868505859374,-4.900930798339844,-2.5546131713867184,-29.938931297709924,82.53435114503817,1.5725190839694656,0.0
11.810000896453857,-11.145008728027342,-1.2497732666015624,-2.7940333374023436,15.969465648854962,-166.5801526717557,51.12977099236641,-7.970297326660156,-2.8993782104492185,-3.227383837890625,-28.671755725190838,87.87786259541984,0.04580152671755725,0.0
11.820000648498535,-13.529633581542967,1.8171990600585937,0.12689268798828124,-5.847328244274809,-153.29770992366412,50.656488549618324,-10.172962854003906,-1.879448303222656,-2.473210314941406,-22.99236641221374,86.8854961832061,3.4198473282442747,0.0
11.830000638961792,-11.982979309082031,0.86191259765625,0.4381389038085937,-17.633587786259543,-153.72519083969465,56.68702290076336,-11.291055029296874,-0.5147533569335937,-0.70868369140625,-28.65648854961832,89.55725190839695,5.374045801526718,0.0
11.840000629425049,-11.882422839355469,3.4668040039062498,2.607285607910156,-26.53435114503817,-144.29007633587787,59.541984732824424,-11.437101330566406,0.24660277099609373,-0.11252747802734374,-30.870229007633586,78.30534351145039,9.770992366412214,0.0
11.850000619888306,-8.346186987304687,-1.6352397338867186,2.4444798950195312,-40.74809160305343,-147.00763358778627,59.12977099236641,-12.378022583007812,-1.2473790649414063,2.578555187988281,-43.86259541984733,81.37404580152672,15.648854961832061,0.0
11.860000610351562,-8.939948999023438,-4.611232397460937,2.664746447753906,-40.82442748091603,-137.48091603053436,49.80152671755725,-12.667720983886719,-2.4588451049804685,2.9568390502929685,-27.755725190839694,64.16793893129771,21.022900763358777,0.0
11.87000060081482,-8.374917407226562,-6.215347509765625,0.17956512451171874,-22.48854961832061,-135.80152671755727,39.02290076335878,-11.674127294921874,-3.574543078613281,3.526659045410156,-22.50381679389313,56.3206106870229,20.091603053435115,0.0
11.880000591278076,-4.115632653808594,-9.782707983398437,-2.8419173706054686,15.34351145038168,-127.23664122137404,33.02290076335878,-11.085153686523437,-2.262520568847656,2.2074539306640624,-3.312977099236641,42.091603053435115,19.297709923664122,0.0
11.890000820159912,-5.947196923828125,-5.779602807617187,-1.2904746948242187,42.85496183206107,-99.58778625954199,14.305343511450381,-9.986215124511718,-2.1595698974609374,1.6065093139648436,6.137404580152672,34.33587786259542,15.236641221374045,0.0
11.90000057220459,-2.3367408203125,-8.420407238769531,-2.942473840332031,70.38167938931298,-82.58015267175573,12.290076335877863,-8.556876733398436,-1.2473790649414063,0.8571241943359375,8.702290076335878,29.557251908396946,11.969465648854962,0.0
11.910000324249268,-7.505822204589843,1.024718310546875,0.48123453369140623,79.52671755725191,-48.80916030534351,-0.732824427480916,-9.399635717773437,-1.5107412475585937,0.74699091796875,2.0916030534351147,33.81679389312977,13.206106870229007,0.0
11.920000314712524,-4.6064439941406246,-0.2059013427734375,-1.0271125122070313,66.41221374045801,-53.29770992366412,2.2442748091603053,-7.146691955566406,-0.26336218261718747,-1.4915876342773438,-3.450381679389313,33.70992366412214,11.557251908396946,0.0
11.93000054359436,-6.818686328125,2.6815058593749996,0.15562310791015624,42.0763358778626,-45.89312977099237,-1.2366412213740459,-7.742848168945312,-0.143652099609375,-2.6671406494140624,-16.30534351145038,42.88549618320611,13.801526717557252,0.0
11.940000772476196,-6.983886242675781,3.0214824951171875,0.3184288208007812,22.83969465648855,-40.3206106870229,-0.366412213740458,-8.173804467773436,-1.8028338500976562,-2.0829554443359375,-13.419847328244275,50.29007633587786,15.587786259541986,0.0
11.950000524520874,-3.6391865234374996,-1.85790048828125,-1.4820108276367188,25.435114503816795,-26.946564885496183,4.916030534351145,-8.243236315917969,-2.5641899780273434,-2.114080065917969,2.5343511450381677,56.74809160305343,15.541984732824428,0.0
11.96000075340271,-6.8976949829101555,2.482787121582031,0.16759411621093748,0.15267175572519084,-28.30534351145038,-2.4122137404580153,-8.463502868652343,0.06703764648437499,-2.8203695556640622,8.870229007633588,57.55725190839695,12.610687022900763,0.0
11.970000743865967,-5.547365246582031,2.4492682983398435,-0.22744915771484372,-17.83206106870229,-27.740458015267176,-0.3511450381679389,-7.951143713378905,-0.06943184814453125,-2.0661960327148434,0.15267175572519084,66.67175572519083,13.282442748091603,0.0
11.980000495910645,-4.446032482910156,1.5658078857421873,-0.33518823242187495,-33.57251908396947,-24.061068702290076,0.6564885496183206,-9.239224206542968,-1.180341418457031,-0.584185205078125,5.648854961832061,70.54961832061069,16.47328244274809,0.0
11.99000072479248,-3.1962592163085937,-0.16998831787109375,-0.6177040283203125,-38.88549618320611,-16.732824427480917,-0.061068702290076333,-10.216058483886718,-1.1755530151367186,0.373495458984375,18.732824427480917,68.56488549618321,17.435114503816795,0.0
12.000000476837158,-1.7525556152343749,-0.7781155395507812,-0.45489831542968745,-30.259541984732824,-1.816793893129771,-0.6412213740458015,-8.559270935058594,-0.3327940307617187,-0.2825157958984375,19.96946564885496,63.41984732824427,15.86259541984733,0.0
12.010000705718994,-0.9935936889648437,-0.6943184814453125,0.28490999755859375,-20.519083969465647,12.946564885496183,-0.9465648854961832,-9.299079248046874,1.4006079711914061,-0.8810662109374999,12.67175572519084,61.19083969465649,16.18320610687023,0.0
12.020000696182251,-0.70868369140625,-1.4030021728515625,1.7405846069335937,-10.229007633587786,28.732824427480917,-2.946564885496183,-9.399635717773437,-2.327164013671875,0.49320554199218747,12.305343511450381,62.88549618320611,19.755725190839694,0.0
12.030001163482666,-2.4899697265625,-0.45968671875,3.9408559326171875,-6.778625954198473,36.732824427480914,-8.213740458015268,-8.377311608886718,-3.1292215698242187,0.40940848388671874,29.96946564885496,56.62595419847328,19.053435114503817,0.0
12.040000677108765,-3.5051112304687497,0.4644751220703125,5.408501550292969,-1.1755725190839694,41.05343511450382,-9.770992366412214,-10.024522351074218,-3.394977954101562,0.239420166015625,43.05343511450382,58.61068702290076,18.641221374045802,0.0
12.0500009059906,-4.134786267089844,1.1707646118164061,7.884106066894531,4.595419847328245,37.9236641221374,-7.00763358778626,-9.533711010742186,-1.6927005737304686,-0.6392518432617187,45.31297709923664,57.81679389312977,14.748091603053435,0.0
12.060000658035278,-3.143586779785156,-1.1324573852539062,10.062829577636718,34.61068702290076,43.267175572519086,-0.6106870229007634,-10.563217724609375,-2.4205378784179685,0.181959326171875,51.267175572519086,61.55725190839695,13.17557251908397,0.0
12.070000886917114,-5.444414575195312,2.0470424194335934,12.435483422851561,49.221374045801525,43.69465648854962,-2.0763358778625953,-9.74200655517578,-0.8092401611328125,0.8786720092773437,49.02290076335878,61.847328244274806,7.190839694656488,0.0
12.080000638961792,-1.6328455322265625,-3.0526071166992184,10.771513269042968,76.36641221374046,46.35114503816794,3.49618320610687,-9.483432775878907,-0.04548983154296875,1.4245499877929686,38.0763358778626,62.213740458015266,4.244274809160306,0.0
12.090000629425049,-6.773196496582031,3.7612908081054686,11.698069311523437,76.21374045801527,45.83206106870229,-7.923664122137405,-10.414777221679687,0.5482721801757812,2.3965958618164063,25.114503816793892,64.35114503816794,4.67175572519084,0.0
12.100000381469727,-7.034164477539062,3.5434184570312497,10.04846436767578,63.41984732824427,31.480916030534353,-9.022900763358779,-12.136208215332031,-0.8714894042968749,4.781220715332031,22.38167938931298,65.17557251908397,10.458015267175572,0.0
12.110000371932983,-9.157821350097656,5.2624552490234375,10.967837805175781,60.656488549618324,27.51145038167939,-7.32824427480916,-12.394781994628906,0.612915625,3.821145849609375,18.610687022900763,54.16793893129771,11.86259541984733,0.0
12.12000060081482,-8.418013037109375,5.363011718749999,10.824185705566405,69.20610687022901,16.412213740458014,7.3893129770992365,-10.08677159423828,1.7621324218749999,3.1962592163085937,0.7480916030534351,41.74045801526717,13.17557251908397,0.0
12.130000591278076,-10.589553942871094,11.17852755126953,10.134655627441406,81.66412213740458,17.64885496183206,22.0,-11.520898388671874,2.3151930053710936,2.070984436035156,-17.053435114503817,31.450381679389313,17.954198473282442,0.0
12.140001058578491,-12.90235274658203,7.879317663574218,7.52737001953125,45.48091603053435,9.419847328244275,39.02290076335878,-13.47696114501953,-2.3151930053710936,2.868253588867187,-36.916030534351144,28.65648854961832,28.946564885496183,0.0
12.15000057220459,-22.024261071777342,2.913743420410156,17.95411824951172,23.862595419847327,12.229007633587786,50.2442748091603,-13.41950030517578,-3.366247534179687,1.7118541870117185,-37.725190839694655,13.038167938931299,27.81679389312977,0.0
12.160000801086426,-22.88138526611328,0.06703764648437499,21.83272493896484,40.88549618320611,0.04580152671755725,52.18320610687023,-15.626954235839843,-4.192247106933594,2.212242333984375,-35.89312977099237,-2.931297709923664,22.519083969465647,0.0
12.170000553131104,-18.564639672851563,-0.07900865478515624,12.555193505859375,41.83206106870229,-27.557251908396946,32.213740458015266,-16.493655236816405,-2.288856787109375,2.597708801269531,-43.98473282442748,-21.72519083969466,17.923664122137403,0.0
12.180001020431519,-8.312668164062499,-1.7669208251953124,1.446097802734375,36.36641221374046,-43.19083969465649,25.954198473282442,-18.365920935058593,-3.8474820678710935,4.939238024902344,-42.62595419847328,-40.458015267175576,18.885496183206108,0.0
12.190000534057617,0.06464344482421874,-0.565031591796875,-4.173093493652344,34.900763358778626,-19.770992366412212,12.931297709923664,-18.43056437988281,-1.8291700683593748,5.236119030761718,-20.27480916030534,-79.09923664122137,17.31297709923664,0.0
12.200001001358032,1.659181750488281,-4.987122058105468,-7.884106066894531,0.7938931297709924,4.793893129770993,5.358778625954199,-15.452177514648437,3.4715924072265625,1.446097802734375,-10.244274809160306,-108.21374045801527,20.137404580152673,0.0
12.21000051498413,-3.5218706420898434,-3.8379052612304685,-7.058106494140625,7.755725190839694,43.61832061068702,-1.0381679389312977,-14.046781140136718,4.659116430664063,-1.924938134765625,-7.694656488549619,-113.48091603053435,24.82442748091603,0.0
12.220000505447388,-9.332598071289063,-1.0390835205078124,-5.099649536132812,18.748091603053435,70.85496183206106,-6.625954198473282,-13.99410870361328,3.3638533325195312,-4.007893579101562,-13.84732824427481,-114.68702290076335,24.442748091603054,0.0
12.230000495910645,-12.504915270996094,0.9888052856445312,-3.191470812988281,19.022900763358777,90.36641221374046,-12.870229007633588,-13.244723583984374,1.637633935546875,-5.442020373535156,-6.519083969465649,-115.64885496183206,23.053435114503817,0.0
12.24000072479248,-14.221557861328124,4.031835595703125,-1.9871873779296874,3.8625954198473282,96.94656488549619,-18.061068702290076,-13.364433666992186,-0.5506663818359374,-5.870582470703124,-18.625954198473284,-97.34351145038168,24.290076335877863,0.0
12.250000476837158,-13.318943835449218,3.5098996337890624,-1.1516109985351561,-7.022900763358779,98.56488549618321,-21.557251908396946,-12.069170568847655,0.047884033203124995,-7.819462622070312,-20.15267175572519,-93.69465648854961,20.35114503816794,0.0
12.260000705718994,-10.488997473144531,1.2832920898437499,-2.1691467041015624,-14.244274809160306,96.2442748091603,-20.946564885496183,-12.643778967285156,-0.1484405029296875,-7.429207751464843,-21.740458015267176,-84.29007633587786,18.778625954198475,0.0
12.270000696182251,-10.079588989257813,1.68551796875,-1.0007762939453124,-16.625954198473284,100.91603053435115,-23.541984732824428,-10.761936462402343,0.239420166015625,-8.779537487792968,-19.52671755725191,-73.74045801526718,15.679389312977099,0.0
12.280000686645508,-10.524910498046875,0.8307879760742187,-0.612915625,-22.549618320610687,98.56488549618321,-27.17557251908397,-10.900800158691405,-0.2346317626953125,-8.374917407226562,-12.244274809160306,-55.61832061068702,12.641221374045802,0.0
12.290000915527344,-10.390835205078124,0.7254431030273437,0.74699091796875,-20.442748091603054,97.7557251908397,-28.793893129770993,-11.33175645751953,-1.5753846923828123,-6.387730029296875,3.282442748091603,-47.541984732824424,8.335877862595419,0.0
12.300000667572021,-10.498574279785156,0.06464344482421874,1.467645617675781,-16.702290076335878,97.74045801526718,-32.458015267175576,-10.472238061523436,0.6057330200195312,-5.374982727050781,15.419847328244275,-44.29007633587786,-0.7938931297709924,0.0
12.310000658035278,-9.931148486328125,0.2346317626953125,1.5466542724609373,-14.473282442748092,95.55725190839695,-35.343511450381676,-10.158597644042969,0.29927520751953124,-3.39018955078125,18.30534351145038,-35.12977099236641,-3.0839694656488548,0.0
12.320000648498535,-8.180987072753906,-0.8882488159179687,0.469263525390625,-5.847328244274809,94.4885496183206,-35.87786259541985,-8.243236315917969,-0.5482721801757812,-2.0829554443359375,30.671755725190838,-34.12213740458015,-8.320610687022901,0.0
12.330000638961792,-8.664615808105468,0.6560112548828124,0.4525041137695312,2.7786259541984735,98.54961832061069,-37.954198473282446,-7.625532287597656,1.8195932617187498,-1.7501614135742187,33.31297709923664,-39.465648854961835,-16.47328244274809,0.0
12.340000629425049,-9.057264880371093,2.2577321655273437,0.7302315063476562,-0.9618320610687023,103.14503816793894,-39.69465648854962,-9.04050546875,0.031124621582031248,0.38786066894531246,34.152671755725194,-31.099236641221374,-13.969465648854962,0.0
12.350000619888306,-8.748412866210938,1.7501614135742187,0.49320554199218747,-4.244274809160306,104.7175572519084,-39.49618320610687,-9.758765966796874,-0.7613561279296874,1.2904746948242187,65.0381679389313,-51.69465648854962,-15.709923664122137,0.0
12.360000610351562,-8.566453540039062,2.8945898071289062,0.3950432739257812,-3.66412213740458,108.12213740458016,-40.030534351145036,-7.706935144042968,3.447650390625,-0.0909796630859375,53.099236641221374,-62.87022900763359,-23.49618320610687,0.0
12.37000060081482,-9.756371765136718,4.201823913574218,1.8722656982421875,-21.755725190839694,109.7557251908397,-38.47328244274809,-8.968679418945312,2.7341782958984373,1.3096283081054687,37.14503816793893,-61.16030534351145,-19.083969465648856,0.0
12.380000591278076,-9.440337145996093,1.8219874633789062,2.2673089721679687,-36.76335877862596,104.9618320610687,-37.37404580152672,-8.537723120117187,2.511517541503906,1.4915876342773438,26.717557251908396,-69.98473282442748,-18.748091603053435,0.0
12.390000581741333,-9.433154541015625,0.9241618408203125,2.8658593872070313,-32.47328244274809,106.45801526717557,-34.42748091603053,-8.66940421142578,2.319981408691406,1.618480322265625,18.33587786259542,-76.59541984732824,-15.648854961832061,0.0
12.40000057220459,-11.616666455078125,0.7062894897460937,5.068524914550781,-32.47328244274809,104.99236641221374,-36.152671755725194,-9.117119921875,2.003946789550781,2.4061726684570313,8.030534351145038,-76.7175572519084,-13.49618320610687,0.0
12.410000324249268,-11.262324609375,2.408566870117187,4.240131140136718,-43.12977099236641,93.87786259541984,-32.56488549618321,-9.392453112792968,0.8547299926757812,2.0087351928710935,12.0,-88.36641221374046,-13.297709923664122,0.0
12.420000791549683,-9.184157568359375,-0.5458779785156249,2.8706477905273435,-34.916030534351144,87.19083969465649,-28.778625954198475,-7.273584643554687,1.915361328125,1.0342951171875,2.015267175572519,-95.90839694656489,-18.641221374045802,0.0
12.43000054359436,-10.46984385986328,1.659181750488281,3.603273498535156,-37.9236641221374,85.05343511450381,-30.0,-8.525752111816406,0.7206546997070312,1.5179238525390624,-5.068702290076335,-94.68702290076335,-15.236641221374045,0.0
12.440000534057617,-9.64623848876953,1.4867992309570313,2.7916391357421872,-43.81679389312977,76.87022900763358,-30.0,-7.254431030273437,1.2569558715820313,0.7206546997070312,-13.17557251908397,-97.08396946564885,-17.17557251908397,0.0
12.450000524520874,-9.502586389160156,0.6153098266601562,1.659181750488281,-37.25190839694657,73.74045801526718,-26.03053435114504,-8.662221606445312,0.5506663818359374,0.6057330200195312,-15.17557251908397,-93.31297709923665,-14.366412213740459,0.0
12.46000075340271,-10.390835205078124,1.618480322265625,2.2577321655273437,-28.625954198473284,75.6030534351145,-25.419847328244273,-7.268796240234375,2.3511060302734372,-1.1061211669921875,-21.801526717557252,-94.62595419847328,-19.251908396946565,0.0
12.470000505447388,-10.134655627441406,1.8339584716796873,1.43652099609375,-35.12977099236641,69.0381679389313,-23.893129770992367,-9.332598071289063,0.59376201171875,-0.13646949462890623,-27.14503816793893,-81.08396946564885,-15.038167938931299,0.0
12.480000495910645,-9.406818322753905,0.1388636962890625,0.689530078125,-25.61832061068702,68.4885496183206,-21.00763358778626,-9.294290844726563,-0.08140285644531249,-0.17956512451171874,-19.0381679389313,-80.9618320610687,-15.19083969465649,0.0
12.490000247955322,-10.407594616699217,2.877830395507812,1.8363526733398436,-16.641221374045802,70.09160305343511,-22.870229007633586,-7.599196069335937,1.0821791503906248,-1.2785036865234374,-18.99236641221374,-80.2442748091603,-19.51145038167939,0.0
12.500000238418579,-11.604695446777344,5.269637854003906,2.7174188842773437,-40.42748091603053,58.18320610687023,-23.893129770992367,-8.769960681152343,0.6703764648437499,-0.8212111694335937,-19.587786259541986,-72.9618320610687,-17.6793893129771,0.0
12.510000705718994,-10.347739575195313,1.8100164550781248,1.4437036010742186,-46.229007633587784,51.51145038167939,-20.045801526717558,-10.369287390136718,-0.5698199951171875,-0.047884033203124995,-10.045801526717558,-68.90076335877863,-15.297709923664122,0.0
12.520000696182251,-10.694898815917968,2.0566192260742184,2.0374656127929685,-36.274809160305345,50.44274809160305,-17.52671755725191,-6.979097839355468,1.6998831787109374,-1.7932570434570312,-6.656488549618321,-76.45801526717557,-23.19083969465649,0.0
12.530000448226929,-10.12507882080078,1.5203180541992187,1.2042834350585936,-33.00763358778626,48.900763358778626,-15.801526717557252,-7.134720947265625,2.2744915771484373,-1.0510545288085937,-21.786259541984734,-59.66412213740458,-22.65648854961832,0.0
12.540000677108765,-9.069235888671875,0.076614453125,0.8595183959960937,-24.137404580152673,50.50381679389313,-12.595419847328245,-9.591171850585937,-0.40462008056640625,1.0534487304687499,-14.793893129770993,-51.89312977099237,-15.221374045801527,0.0
12.5500009059906,-11.525686791992188,2.099714855957031,1.8507178833007811,-14.534351145038167,55.038167938931295,-14.870229007633588,-9.176974963378905,-1.3814543579101561,0.6560112548828124,-2.6106870229007635,-54.732824427480914,-18.717557251908396,0.0
12.560000658035278,-11.587936035156249,4.455609289550781,2.461239306640625,-29.435114503816795,46.82442748091603,-17.83206106870229,-9.548076220703125,-0.5386953735351562,0.833182177734375,10.106870229007633,-53.02290076335878,-22.30534351145038,0.0
12.570000648498535,-11.317391247558593,1.7860744384765623,1.3551181396484375,-46.3206106870229,36.732824427480914,-16.519083969465647,-9.744400756835937,0.7445967163085937,0.062249243164062495,21.251908396946565,-53.770992366412216,-23.66412213740458,0.0
12.580000638961792,-11.149797131347656,2.080561242675781,1.6017209106445311,-40.152671755725194,38.12213740458015,-15.435114503816793,-6.7803791015625,3.248931652832031,-0.6512228515624999,11.877862595419847,-49.38931297709924,-27.541984732824428,0.0
12.590000867843628,-10.376469995117187,2.7748797241210936,1.659181750488281,-46.29007633587786,36.412213740458014,-15.572519083969466,-8.710105639648438,1.8698714965820311,1.1707646118164061,-6.442748091603053,-29.81679389312977,-20.793893129770993,0.0
12.600000619888306,-7.68059892578125,-1.4245499877929686,-0.38786066894531246,-33.38931297709924,36.13740458015267,-10.870229007633588,-9.0021982421875,0.9624690673828125,0.7972691528320313,-2.6717557251908395,-30.213740458015266,-17.64885496183206,0.0
12.610000848770142,-9.947907897949218,1.4987702392578124,0.9816226806640624,-11.923664122137405,42.25954198473283,-12.854961832061068,-8.566453540039062,-0.10295067138671875,1.3623007446289062,2.2290076335877864,-27.480916030534353,-19.221374045801525,0.0
12.62000036239624,-10.266336718749999,1.5969325073242187,1.218648645019531,-19.64885496183206,35.786259541984734,-15.908396946564885,-6.806715319824218,1.4604630126953124,0.7422025146484375,6.061068702290076,-28.412213740458014,-22.885496183206108,0.0
12.630000591278076,-10.730811840820312,1.024718310546875,1.484405029296875,-13.587786259541986,36.62595419847328,-15.083969465648854,-8.43956085205078,1.687912170410156,1.85790048828125,-1.6641221374045803,-16.549618320610687,-19.022900763358777,0.0
12.640000581741333,-11.77947216796875,3.2728736694335936,3.114856359863281,-15.740458015267176,37.41984732824427,-17.374045801526716,-7.146691955566406,2.2026655273437497,1.3910311645507811,-13.374045801526718,-13.648854961832061,-18.625954198473284,0.0
12.65000033378601,-10.407594616699217,2.9855694702148434,2.1787235107421874,-32.44274809160305,24.580152671755727,-17.099236641221374,-7.615955480957031,1.2952630981445312,1.7597382202148437,-21.801526717557252,-7.938931297709924,-16.198473282442748,0.0
12.660000801086426,-11.403582507324218,3.488351818847656,3.3016040893554686,-38.412213740458014,18.595419847328245,-15.954198473282442,-6.804321118164062,1.1013327636718748,1.1276689819335937,-25.770992366412212,-6.656488549618321,-16.35114503816794,0.0
12.670000553131104,-9.643844287109374,0.3064578125,2.4660277099609376,-32.99236641221374,11.129770992366412,-11.419847328244275,-6.663063220214843,0.7398083129882812,0.7493851196289062,-29.52671755725191,0.10687022900763359,-16.061068702290076,0.0
12.68000054359436,-9.916783276367187,0.7422025146484375,3.718195178222656,-20.015267175572518,8.80916030534351,-11.86259541984733,-7.8170684204101555,-0.9983820922851562,0.9026140258789062,-25.46564885496183,6.366412213740458,-13.374045801526718,0.0
12.690000772476196,-10.005368737792969,0.8188169677734375,4.357447021484375,-15.740458015267176,1.297709923664122,-13.099236641221374,-7.012616662597656,-0.852335791015625,0.32561142578124996,-17.84732824427481,7.770992366412214,-17.16030534351145,0.0
12.700000762939453,-10.867281335449219,1.9009961181640624,5.571307263183593,-11.465648854961833,-5.404580152671755,-14.259541984732824,-6.636727001953124,-0.7254431030273437,-0.16759411621093748,-13.648854961832061,12.961832061068701,-18.9618320610687,0.0
12.71000051498413,-9.911994873046874,0.63206923828125,5.779602807617187,-3.0839694656488548,-15.267175572519085,-12.961832061068701,-5.655104321289063,-0.22505495605468748,-0.16280571289062498,-16.16793893129771,22.27480916030534,-20.793893129770993,0.0
12.720000505447388,-10.632649572753905,2.2649147705078123,7.48906279296875,-0.1984732824427481,-24.38167938931298,-11.908396946564885,-5.798756420898437,-0.5410895751953124,-0.18435352783203124,-16.595419847328245,32.47328244274809,-19.099236641221374,0.0
12.730000495910645,-10.510545288085936,1.9967641845703124,7.963114721679687,7.312977099236641,-35.20610687022901,-10.0,-5.774814404296874,0.05027823486328125,-0.4285620971679687,-17.83206106870229,43.02290076335878,-19.19083969465649,0.0
12.740000486373901,-11.841721411132811,3.1962592163085937,8.90643017578125,0.7938931297709924,-52.458015267175576,-9.954198473282442,-6.871358764648437,-0.8044517578125,-0.06464344482421874,-18.045801526717558,55.083969465648856,-16.290076335877863,0.0
12.750000476837158,-12.210428466796873,3.7995980346679685,10.101136804199218,1.5267175572519085,-70.27480916030534,-8.51908396946565,-8.47786807861328,-2.422932080078125,-0.03591302490234375,-5.908396946564886,59.45038167938932,-15.32824427480916,0.0
12.760000705718994,-12.04044014892578,4.618415002441406,10.529698901367187,6.412213740458015,-90.56488549618321,-4.1679389312977095,-9.018957653808593,-0.33758243408203126,-0.8978256225585937,6.412213740458015,63.06870229007634,-18.916030534351144,0.0
12.770000696182251,-12.351686364746094,5.046977099609375,10.690110412597656,8.412213740458014,-112.83969465648855,2.946564885496183,-12.167332836914062,1.2737152832031249,0.16041151123046873,15.709923664122137,71.05343511450381,-12.65648854961832,0.0
12.780000686645508,-12.030863342285155,3.2417490478515623,10.189722265624999,24.702290076335878,-135.1908396946565,12.687022900763358,-15.524003564453125,3.6152445068359373,1.2880804931640624,28.671755725190838,69.12977099236642,-7.3893129770992365,0.0
12.790000915527344,-11.168950744628905,1.4221557861328125,7.924807495117187,42.68702290076336,-150.19847328244273,19.31297709923664,-17.599776403808594,4.764461303710937,3.3973721557617185,28.137404580152673,73.66412213740458,-3.6793893129770994,0.0
12.800000667572021,-11.422736120605467,-1.2473790649414063,6.58884296875,38.74809160305343,-163.89312977099237,16.916030534351144,-17.662025646972655,4.7189714721679685,2.9041666137695312,34.67175572519084,67.55725190839695,5.312977099236641,0.0
12.810000896453857,-13.254300390625,-2.858676782226562,5.7149593627929685,40.48854961832061,-175.55725190839695,12.091603053435115,-14.451401220703124,4.65432802734375,1.2378022583007813,26.900763358778626,66.47328244274809,16.564885496183205,0.0
12.820000410079956,-17.391480859374997,-2.272097375488281,5.9376201171875,51.45038167938932,-184.35114503816794,10.51908396946565,-9.464279162597656,5.702988354492187,-2.0183119995117185,9.419847328244275,58.42748091603053,21.69465648854962,0.0
12.830000638961792,-20.216638818359375,-0.18914193115234373,5.6383449096679685,60.595419847328245,-189.40458015267177,13.679389312977099,-8.434772448730468,2.7724855224609373,-2.748543505859375,-27.61832061068702,74.61068702290076,26.213740458015266,0.0
12.840000629425049,-20.094534533691405,-2.061407629394531,4.498704919433593,57.7557251908397,-192.19847328244273,17.81679389312977,-6.392518432617187,0.7637503295898437,-5.090072729492187,-45.465648854961835,74.6412213740458,22.290076335877863,0.0
12.850000619888306,-19.64442462158203,-1.2330138549804688,3.0406361083984375,73.86259541984732,-186.50381679389312,18.732824427480917,-7.922413293457031,-2.2481553588867187,-4.3454760131835934,-57.63358778625954,86.56488549618321,14.992366412213741,0.0
12.860000848770142,-19.54865655517578,1.5753846923828123,1.177947216796875,58.030534351145036,-188.29007633587787,22.80916030534351,-9.131485131835937,-4.965574243164062,-3.835511059570312,-54.82442748091603,90.93129770992367,7.694656488549619,0.0
12.87000060081482,-26.37213128662109,11.616666455078125,4.431667272949219,17.786259541984734,-176.4732824427481,25.603053435114504,-9.193734375,-6.105214233398437,-2.940079638671875,-52.13740458015267,92.3206106870229,1.6641221374045803,0.0
12.880000591278076,-18.612523706054688,5.990292553710937,-3.2537200561523436,-41.70992366412214,-212.85496183206106,53.221374045801525,-11.097124694824219,-6.100425830078125,-1.8698714965820311,-42.045801526717554,88.6412213740458,2.4427480916030535,0.0
12.890000581741333,-12.339715356445312,-0.7230489013671875,-6.318298181152343,-51.3587786259542,-206.51908396946564,71.19083969465649,-10.529698901367187,-3.4261025756835934,-2.530671154785156,-37.099236641221374,79.23664122137404,1.5877862595419847,0.0
12.90000057220459,-8.779537487792968,-6.050147595214844,-3.81156904296875,-49.9236641221374,-193.61832061068702,64.82442748091603,-9.65342109375,-2.6096798095703124,-0.9265560424804687,-42.091603053435115,79.00763358778626,3.312977099236641,0.0
12.910000562667847,-5.061342309570312,-5.305550878906249,-0.34715924072265625,-8.305343511450381,-167.55725190839695,57.57251908396947,-12.00213292236328,-3.6056677001953124,2.2601263671875,-34.44274809160305,79.20610687022901,12.076335877862595,0.0
12.920000791549683,-4.570530969238281,-2.1021090576171875,3.2417490478515623,17.923664122137403,-138.42748091603053,51.908396946564885,-10.486603271484375,-0.1580173095703125,1.4939818359375,-26.53435114503817,59.267175572519086,10.961832061068701,0.0
12.93000054359436,-5.568913061523437,-2.3127988037109373,3.852270471191406,20.18320610687023,-118.97709923664122,45.221374045801525,-11.880028637695311,-2.5426421630859375,4.1946413085937495,-35.38931297709924,61.05343511450382,17.51145038167939,0.0
12.940000534057617,-8.520963708496094,-2.990357873535156,1.6424223388671875,18.946564885496183,-107.26717557251908,37.74045801526717,-11.590330236816406,-3.057395520019531,3.768473413085937,-18.610687022900763,46.6412213740458,18.519083969465647,0.0
12.950000286102295,-9.734823950195311,-2.0661960327148434,0.258573779296875,15.648854961832061,-99.16030534351145,30.564885496183205,-10.582371337890624,-2.528276953125,2.8107927490234372,-19.083969465648856,39.969465648854964,16.213740458015266,0.0
12.960000991821289,-11.006145031738281,-0.9050082275390624,0.49799394531249996,0.183206106870229,-96.44274809160305,23.31297709923664,-10.283096130371094,-4.072537023925781,2.4133552734375,-6.687022900763359,30.47328244274809,17.358778625954198,0.0
12.970000505447388,-9.813832604980469,-0.17238251953125,0.7230489013671875,-6.748091603053435,-94.50381679389314,21.221374045801525,-9.967061511230469,-3.0550013183593747,0.7302315063476562,7.9541984732824424,23.206106870229007,14.244274809160306,0.0
12.980000495910645,-8.339004382324218,0.39264907226562495,1.3072341064453123,-12.946564885496183,-93.54198473282443,21.419847328244273,-8.78432589111328,-1.1947066284179686,-0.4333505004882812,3.450381679389313,20.68702290076336,11.740458015267176,0.0
12.990000486373901,-6.2201359130859375,-1.3168109130859373,0.6631938598632812,-18.244274809160306,-93.19083969465649,23.236641221374047,-7.594407666015624,-0.9193734375,-0.9983820922851562,-2.4427480916030535,23.31297709923664,13.526717557251908,0.0
13.000000476837158,-5.195417602539062,-1.5658078857421873,-0.00239420166015625,-16.015267175572518,-83.06870229007633,18.900763358778626,-8.113949426269532,-0.5458779785156249,-1.0606313354492187,-2.7480916030534353,27.709923664122137,14.076335877862595,0.0
13.010000705718994,-4.704606262207031,-1.2497732666015624,-0.7493851196289062,-15.282442748091603,-75.20610687022901,14.82442748091603,-8.463502868652343,0.4333505004882812,-1.7262193969726563,-3.0229007633587788,33.02290076335878,13.725190839694656,0.0
13.020000696182251,-4.039018200683594,-0.8667010009765624,-0.9816226806640624,-14.80916030534351,-63.969465648854964,11.908396946564885,-7.589619262695312,-0.47165772705078124,-1.608903515625,-9.145038167938932,40.99236641221374,14.412213740458014,0.0
13.030000448226929,-1.2808978881835937,-3.019088293457031,-2.3726538452148436,-11.664122137404581,-53.11450381679389,12.763358778625955,-7.790732202148437,1.2617442749023438,-2.6431986328124997,-11.557251908396946,43.52671755725191,11.877862595419847,0.0
13.040000677108765,-1.5442600708007812,-0.6847416748046875,-0.9409212524414062,-8.396946564885496,-26.259541984732824,7.923664122137405,-7.170633972167968,0.9552864624023437,-2.4205378784179685,-31.389312977099237,57.70992366412214,11.938931297709924,0.0
13.0500009059906,-2.272097375488281,0.33518823242187495,-0.41419688720703124,-12.473282442748092,-11.099236641221374,3.8473282442748094,-9.375693701171874,-2.221819140625,0.16280571289062498,-26.641221374045802,68.18320610687023,15.312977099236642,0.0
13.060000896453857,-2.935291235351562,0.1867477294921875,-0.2537853759765625,-24.396946564885496,-7.923664122137405,0.04580152671755725,-9.49300958251953,-1.879448303222656,-0.0143652099609375,-5.66412213740458,63.23664122137404,16.366412213740457,0.0
13.070000886917114,-0.8451531860351562,-1.6903063720703124,-1.1133037719726562,-14.259541984732824,4.763358778625954,0.4580152671755725,-9.093177905273437,-2.7054478759765623,0.08379705810546874,3.633587786259542,62.61068702290076,17.404580152671755,0.0
13.080000638961792,-2.0973206542968748,0.14604630126953125,0.105344873046875,-17.633587786259543,13.16030534351145,-3.480916030534351,-10.04846436767578,-3.2920272827148436,0.21308394775390624,19.49618320610687,58.045801526717554,16.931297709923665,0.0
13.090000629425049,-0.5410895751953124,-1.2952630981445312,0.29927520751953124,-8.641221374045802,23.14503816793893,-3.282442748091603,-8.923189587402343,-2.003946789550781,-0.12689268798828124,33.770992366412216,48.62595419847328,14.229007633587786,0.0
13.100000858306885,0.11252747802734374,-2.001552587890625,0.9361328491210937,0.8244274809160306,33.11450381679389,-5.221374045801527,-9.162609753417968,-1.438915197753906,0.22026655273437498,37.16030534351145,49.954198473282446,15.541984732824428,0.0
13.110000848770142,-2.0087351928710935,-0.5027823486328125,4.185064501953125,19.206106870229007,50.76335877862596,-9.725190839694656,-9.574412438964844,-0.44053310546874996,-0.20350714111328125,36.732824427480914,51.404580152671755,15.541984732824428,0.0
13.12000060081482,-0.74699091796875,-0.8595183959960937,5.1690813842773435,35.06870229007634,54.61068702290076,-7.022900763358779,-8.645462194824217,-1.1252747802734375,0.5051765502929687,35.87786259541985,55.41984732824427,16.68702290076336,0.0
13.130000591278076,-2.789244934082031,0.0909796630859375,7.618349682617187,62.0763358778626,68.18320610687023,-4.473282442748092,-9.952696301269532,-1.898601916503906,1.139639990234375,46.97709923664122,60.38167938931298,16.9618320610687,0.0
13.140000581741333,-3.584119885253906,0.9265560424804687,9.631873278808593,78.51908396946565,68.70229007633588,-2.33587786259542,-8.82981572265625,-1.3934253662109375,0.8930372192382812,55.587786259541986,57.282442748091604,12.549618320610687,0.0
13.15000057220459,-5.681440539550781,3.27526787109375,11.669338891601562,84.4885496183206,64.3969465648855,-3.648854961832061,-10.414777221679687,0.1292868896484375,1.13006318359375,57.05343511450382,60.091603053435115,9.297709923664122,0.0
13.160001039505005,-8.56166513671875,6.323086584472656,13.000515014648437,61.11450381679389,49.05343511450382,-6.458015267175573,-10.108319409179687,1.956062756347656,1.668758557128906,43.55725190839695,58.35114503816794,7.511450381679389,0.0
13.170000553131104,-8.022969763183593,5.008669873046875,11.777077966308592,35.083969465648856,32.93129770992366,-5.557251908396947,-11.585541833496093,3.0238766967773434,2.059013427734375,25.801526717557252,60.595419847328245,9.816793893129772,0.0
13.18000078201294,-8.303091357421874,5.023035083007812,11.365275280761718,23.893129770992367,25.358778625954198,-5.740458015267175,-10.817003100585938,1.9009961181640624,2.1499930908203124,4.198473282442748,56.35114503816794,13.725190839694656,0.0
13.190000534057617,-7.1395093505859375,3.948038537597656,9.464279162597656,29.893129770992367,18.16793893129771,1.4198473282442747,-10.769119067382812,0.12210428466796874,2.2361843505859373,-4.916030534351145,53.954198473282446,19.358778625954198,0.0
13.200000762939453,-5.928043310546875,3.897760302734375,7.335833886718749,43.221374045801525,17.251908396946565,9.86259541984733,-12.07874737548828,-0.7733271362304687,2.152387292480469,-6.122137404580153,51.908396946564885,21.480916030534353,0.0
13.21000051498413,-6.6893994384765625,6.481103894042969,6.3901242309570305,51.908396946564885,22.213740458015266,16.580152671755727,-10.98699141845703,-0.7134720947265625,1.3072341064453123,-6.595419847328245,39.969465648854964,20.50381679389313,0.0
13.220000505447388,-9.153032946777342,7.493851196289062,6.210559106445312,32.80916030534351,26.625954198473284,26.564885496183205,-11.63821427001953,-1.0845733520507812,1.2713210815429687,-22.9618320610687,34.47328244274809,21.786259541984734,0.0
13.230000495910645,-15.710751293945311,2.1619640991210938,13.02445703125,-6.366412213740458,26.885496183206108,33.00763358778626,-11.865663427734374,-1.3096283081054687,0.15322890625,-36.97709923664122,25.81679389312977,25.31297709923664,0.0
13.24000072479248,-21.054609399414062,-1.5466542724609373,23.554155932617185,16.0,28.916030534351144,44.10687022900763,-13.943830468749999,-5.504269616699219,1.3910311645507811,-35.17557251908397,18.27480916030534,27.267175572519083,0.0
13.250000476837158,-24.0952455078125,3.153163586425781,25.591621545410156,45.267175572519086,10.534351145038167,39.603053435114504,-13.78341895751953,-3.0980969482421874,0.3112462158203125,-41.00763358778626,3.282442748091603,20.0,0.0
13.260000467300415,-22.86702005615234,5.5641246582031245,13.919888452148436,39.61832061068702,-29.053435114503817,32.717557251908396,-16.314090112304687,-4.42448466796875,2.099714855957031,-35.57251908396947,-7.129770992366412,19.49618320610687,0.0
13.270000696182251,-6.581660363769531,-6.579266162109374,-1.139639990234375,64.7175572519084,-30.47328244274809,28.259541984732824,-17.911022619628906,-2.0063409912109376,1.6136919189453125,-17.954198473282442,-30.47328244274809,12.473282442748092,0.0
13.280000925064087,4.074931225585937,-9.035717065429687,-8.377311608886718,54.06106870229008,-24.213740458015266,-3.068702290076336,-18.509573034667966,0.9576806640625,1.5322890624999999,-19.66412213740458,-55.57251908396947,6.412213740458015,0.0
13.290000915527344,1.0917559570312498,-5.116408947753906,-7.055712292480468,34.030534351145036,18.53435114503817,-20.12213740458015,-17.592593798828123,3.299209887695312,1.1324573852539062,-16.82442748091603,-80.44274809160305,14.793893129770993,0.0
13.300000429153442,-7.062894897460937,2.6886884643554687,-3.31357509765625,36.54961832061068,47.954198473282446,-18.564885496183205,-14.717157604980468,6.215347509765625,-1.2497732666015624,-4.9465648854961835,-97.78625954198473,21.51145038167939,0.0
13.310000896453857,-9.057264880371093,1.180341418457031,-3.9432501342773434,26.99236641221374,57.98473282442748,-10.076335877862595,-12.119448803710936,5.932831713867187,-2.683900061035156,-20.396946564885496,-91.2824427480916,26.137404580152673,0.0
13.320000886917114,-11.398794104003905,-0.17956512451171874,-3.785232824707031,31.419847328244273,85.32824427480917,-14.366412213740459,-12.820949890136719,0.6177040283203125,-1.9895815795898437,-7.1603053435114505,-91.52671755725191,30.47328244274809,0.0
13.330000638961792,-14.566322900390624,5.8226984375,-2.319981408691406,16.793893129770993,99.16030534351145,-23.358778625954198,-11.444283935546874,0.43574470214843747,-4.134786267089844,-8.076335877862595,-95.3587786259542,26.931297709923665,0.0
13.340000629425049,-13.94861887207031,6.974309436035155,-1.4245499877929686,-11.16030534351145,100.09160305343511,-21.709923664122137,-10.982203015136719,1.407790576171875,-5.6383449096679685,-25.053435114503817,-88.74809160305344,21.72519083969466,0.0
13.350000381469727,-8.769960681152343,1.2856862915039062,-3.31357509765625,-22.38167938931298,99.31297709923665,-12.748091603053435,-12.722787622070312,-1.1516109985351561,-3.7325603881835936,-40.229007633587784,-73.23664122137404,24.16793893129771,0.0
13.360000610351562,-5.487510205078125,-3.6679169433593746,-3.1100679565429687,-4.1679389312977095,109.92366412213741,-13.954198473282442,-12.100295190429687,-1.8435352783203125,-5.4779333984375,-25.297709923664122,-75.6030534351145,22.85496183206107,0.0
13.37000060081482,-9.746794958496093,-0.33518823242187495,0.11731588134765625,11.419847328244275,122.99236641221374,-28.702290076335878,-9.713276135253906,-0.30885201416015623,-7.936778503417968,-24.885496183206108,-63.48091603053435,15.648854961832061,0.0
13.380000591278076,-12.914323754882812,3.383006945800781,1.608903515625,-6.534351145038168,117.83206106870229,-34.717557251908396,-10.670956799316405,0.00718260498046875,-6.232106921386718,-11.664122137404581,-53.25190839694657,11.068702290076336,0.0
13.390000343322754,-6.758831286621094,-2.0757728393554684,-0.5410895751953124,-7.679389312977099,109.41984732824427,-27.16030534351145,-11.353304272460937,0.4572925170898437,-4.414907861328125,-3.5267175572519083,-46.94656488549618,6.809160305343512,0.0
13.40000057220459,-6.763619689941406,-5.035006091308594,-0.12689268798828124,16.763358778625953,120.50381679389314,-31.17557251908397,-9.70369932861328,-0.6703764648437499,-2.375048046875,7.175572519083969,-43.89312977099237,4.778625954198473,0.0
13.410000562667847,-9.821015209960937,-0.737414111328125,1.0127473022460938,27.022900763358777,125.7557251908397,-45.786259541984734,-8.734047656249999,-0.00239420166015625,-2.365471240234375,18.213740458015266,-46.30534351145038,-1.6030534351145038,0.0
13.420000314712524,-12.030863342285155,2.9664158569335934,2.1308394775390624,16.748091603053435,122.6412213740458,-50.61068702290076,-10.149020837402343,-1.695094775390625,-0.9169792358398436,24.30534351145038,-38.06106870229008,-4.137404580152672,0.0
13.43000054359436,-10.28549033203125,2.0063409912109376,1.1348515869140625,3.954198473282443,113.61832061068702,-48.16793893129771,-9.035717065429687,-1.2114660400390624,-0.7493851196289062,42.48854961832061,-49.87786259541985,-9.954198473282442,0.0
13.440000772476196,-9.785102185058593,3.289633081054687,1.7022773803710936,-5.343511450381679,109.96946564885496,-47.3587786259542,-10.383652600097655,-1.1348515869140625,0.7015010864257812,56.48854961832061,-55.603053435114504,-11.86259541984733,0.0
13.450000286102295,-8.870517150878905,2.73896669921875,1.1923124267578125,-15.938931297709924,105.69465648854961,-44.94656488549618,-8.640673791503906,1.1516109985351561,-0.2442085693359375,56.25954198473283,-65.69465648854961,-17.297709923664122,0.0
13.46000075340271,-9.651026892089844,3.5194764404296874,2.1164742675781247,-22.519083969465647,104.59541984732824,-42.42748091603053,-9.160215551757812,1.6807295654296874,0.6560112548828124,54.458015267175576,-70.18320610687023,-15.541984732824428,0.0
13.470000267028809,-9.327809667968749,2.7724855224609373,2.176329309082031,-27.84732824427481,101.17557251908397,-39.267175572519086,-8.750807067871094,1.8195932617187498,0.6272808349609375,45.86259541984733,-73.77099236641222,-14.564885496183207,0.0
13.480000495910645,-11.116278308105468,3.4739866088867184,3.555389465332031,-33.05343511450382,100.04580152671755,-37.847328244274806,-7.606378674316406,3.2513258544921873,-0.39743747558593745,34.0,-78.36641221374046,-17.297709923664122,0.0
13.490000486373901,-10.105925207519531,2.789244934082031,3.794809631347656,-48.88549618320611,87.1145038167939,-34.900763358778626,-7.733271362304687,2.4588451049804685,0.5746083984375,13.236641221374045,-73.05343511450381,-15.465648854961833,0.0
13.500000238418579,-10.321403356933594,0.584185205078125,3.8043864379882812,-42.045801526717554,84.91603053435115,-31.053435114503817,-8.149862451171874,1.0366893188476562,1.0271125122070313,7.770992366412214,-72.47328244274809,-12.793893129770993,0.0
13.510001182556152,-9.038111267089842,-1.3024457031249999,2.6527754394531247,-29.633587786259543,77.43511450381679,-28.977099236641223,-7.129932543945312,1.9512743530273435,0.11013327636718749,-0.33587786259541985,-75.16030534351145,-16.3206106870229,0.0
13.52000093460083,-13.357251062011718,3.478775012207031,5.154716174316406,-26.213740458015266,77.08396946564885,-32.76335877862596,-8.990227233886719,0.47884033203125,0.6081272216796875,-6.259541984732825,-67.0381679389313,-13.312977099236642,0.0
13.530000925064087,-11.44667813720703,2.0278888061523435,3.5314474487304683,-38.74809160305343,62.85496183206107,-29.72519083969466,-9.004592443847656,-0.033518823242187495,-0.02633621826171875,5.893129770992366,-73.49618320610686,-15.633587786259541,0.0
13.540000677108765,-10.850521923828124,2.1787235107421874,3.086125939941406,-25.923664122137403,56.10687022900763,-22.427480916030536,-8.422801440429687,0.7924807495117187,-0.3064578125,4.870229007633588,-76.90076335877863,-19.068702290076335,0.0
13.5500009059906,-10.9175595703125,2.068590234375,2.4061726684570313,-28.732824427480917,49.7557251908397,-17.61832061068702,-8.908824377441405,0.15562310791015624,0.51714755859375,8.595419847328245,-77.90839694656489,-17.633587786259543,0.0
13.560000658035278,-12.050016955566406,3.35188232421875,3.0047230834960934,-25.419847328244273,50.99236641221374,-16.412213740458014,-8.86094034423828,0.46686932373046874,-0.47884033203125,14.290076335877863,-84.0,-19.938931297709924,0.0
13.570000886917114,-11.875240234375,3.0071172851562498,2.319981408691406,-31.69465648854962,43.11450381679389,-13.236641221374045,-8.999804040527343,0.3854664672851562,0.689530078125,11.770992366412214,-81.87786259541984,-19.81679389312977,0.0
13.580000638961792,-12.600683337402343,5.513846423339843,3.0214824951171875,-47.221374045801525,39.343511450381676,-13.816793893129772,-9.014169250488282,1.43652099609375,-0.0383072265625,13.98473282442748,-88.1526717557252,-20.931297709923665,0.0
13.590000629425049,-9.943119494628906,1.7597382202148437,1.1516109985351561,-55.282442748091604,33.74045801526717,-9.86259541984733,-9.497797985839844,1.43652099609375,0.5410895751953124,6.015267175572519,-83.87786259541984,-21.34351145038168,0.0
13.600000619888306,-10.374075793457031,1.6232687255859375,1.5825672973632812,-54.0,35.32824427480916,-9.297709923664122,-9.880870251464843,1.2401964599609374,0.086191259765625,7.099236641221374,-87.22137404580153,-21.404580152671755,0.0
13.610000610351562,-9.382876306152344,1.4532804077148436,0.8068459594726562,-51.20610687022901,36.35114503816794,-11.587786259541986,-9.323021264648437,1.1635820068359375,0.055066638183593745,1.3435114503816794,-80.99236641221374,-22.641221374045802,0.0
13.62000036239624,-11.152191333007812,2.3415292236328122,1.7094599853515624,-53.725190839694655,36.48854961832061,-13.664122137404581,-10.007762939453125,0.9145850341796874,0.076614453125,6.488549618320611,-80.7175572519084,-22.30534351145038,0.0
13.630000829696655,-9.275137231445312,-0.5219359619140624,0.4429273071289062,-44.717557251908396,34.83969465648855,-10.763358778625955,-8.061276989746093,1.8818425048828125,-0.47644613037109373,-2.732824427480916,-73.98473282442748,-26.18320610687023,0.0
13.640000581741333,-9.497797985839844,0.14125789794921875,0.5817910034179687,-34.82442748091603,37.343511450381676,-10.916030534351146,-9.78031378173828,0.8164227661132812,-0.15322890625,-3.114503816793893,-67.09923664122137,-23.435114503816795,0.0
13.65000057220459,-8.662221606445312,-0.45968671875,0.12210428466796874,-27.221374045801525,37.16030534351145,-11.435114503816793,-8.319850769042969,1.0486603271484374,-0.4955997436523437,-4.595419847328245,-64.70229007633588,-26.458015267175572,0.0
13.660000801086426,-10.352527978515624,1.005564697265625,1.0797849487304687,-17.603053435114504,44.87022900763359,-14.091603053435115,-7.252036828613281,1.678335363769531,-0.8092401611328125,-14.977099236641221,-55.908396946564885,-28.3206106870229,0.0
13.670000553131104,-9.560047229003906,0.8810662109374999,0.5099649536132812,-13.465648854961833,46.0763358778626,-13.450381679389313,-8.549694128417968,0.8714894042968749,0.23702596435546874,-15.49618320610687,-45.64885496183206,-24.244274809160306,0.0
13.68000078201294,-9.859322436523437,2.4660277099609376,1.3215993164062498,-19.81679389312977,46.94656488549618,-15.633587786259541,-8.327033374023436,-0.316034619140625,0.33518823242187495,-7.801526717557252,-45.74045801526717,-25.267175572519083,0.0
13.690000295639038,-10.441113439941406,2.2002713256835937,1.1468225952148436,-26.061068702290076,43.81679389312977,-14.763358778625955,-8.298302954101562,0.8930372192382812,0.4477157104492187,-5.633587786259542,-38.67175572519084,-27.49618320610687,0.0
13.700001001358032,-9.016563452148437,0.9097966308593749,0.40462008056640625,-22.47328244274809,42.595419847328245,-11.893129770992367,-7.982268334960937,1.5777788940429687,0.5099649536132812,-10.625954198473282,-31.96946564885496,-28.12213740458015,0.0
13.71000051498413,-8.518569506835936,0.5027823486328125,0.5051765502929687,-17.374045801526716,46.50381679389313,-12.366412213740459,-7.802703210449218,0.44053310546874996,1.2737152832031249,-16.12213740458015,-21.908396946564885,-25.068702290076335,0.0
13.720000505447388,-8.872911352539061,0.9528922607421875,1.1252747802734375,-16.366412213740457,48.97709923664122,-14.854961832061068,-6.900089184570312,0.2609679809570312,1.5945383056640625,-16.18320610687023,-18.03053435114504,-25.022900763358777,0.0
13.730000495910645,-9.619902270507811,0.9241618408203125,1.3814543579101561,-14.763358778625955,49.038167938931295,-16.076335877862597,-7.908048083496094,-0.09816226806640624,1.5705962890624998,-6.6106870229007635,-15.801526717557252,-23.801526717557252,0.0
13.740000486373901,-9.770736975097655,1.2808978881835937,2.032677209472656,-14.122137404580153,45.221374045801525,-16.229007633587788,-6.610390783691406,0.062249243164062495,1.369483349609375,-0.2595419847328244,-12.732824427480915,-24.641221374045802,0.0
13.750000476837158,-9.830592016601562,0.6392518432617187,2.868253588867187,-13.16030534351145,39.70992366412214,-17.099236641221374,-7.41244833984375,-0.105344873046875,1.9536685546875,7.587786259541985,-10.732824427480915,-22.641221374045802,0.0
13.760000705718994,-10.874463940429687,1.5610194824218748,3.768473413085937,-14.534351145038167,35.7557251908397,-16.091603053435115,-6.593631372070312,0.70868369140625,1.139639990234375,9.282442748091603,-8.427480916030534,-22.748091603053435,0.0
13.770000696182251,-11.130643518066405,1.43652099609375,4.161122485351562,-16.549618320610687,22.900763358778626,-18.061068702290076,-7.632714892578124,0.1580173095703125,1.4149731811523436,12.702290076335878,-2.2595419847328246,-18.977099236641223,0.0
13.780000448226929,-11.365275280761718,2.3965958618164063,5.825092639160156,-16.83969465648855,15.98473282442748,-17.328244274809162,-6.385335827636719,1.2904746948242187,0.5099649536132812,13.17557251908397,-0.3053435114503817,-20.12213740458015,0.0
13.790000915527344,-10.381258398437499,0.5506663818359374,5.734112976074218,-12.091603053435115,-0.32061068702290074,-14.320610687022901,-7.493851196289062,0.12210428466796874,1.3359645263671873,11.16030534351145,10.061068702290076,-14.50381679389313,0.0
13.800000667572021,-11.075576879882812,1.695094775390625,6.500257507324219,-5.022900763358779,-11.664122137404581,-14.122137404580153,-4.872200378417968,1.8938135131835936,0.07422025146484375,7.32824427480916,11.358778625954198,-17.46564885496183,0.0
13.810000658035278,-10.54645831298828,1.388636962890625,6.4475850708007805,9.877862595419847,-19.984732824427482,-13.404580152671755,-6.3901242309570305,1.1611878051757811,1.0007762939453124,-2.6259541984732824,26.366412213740457,-12.442748091603054,0.0
13.820000648498535,-12.109871997070313,4.410119458007812,8.049305981445311,6.458015267175573,-28.015267175572518,-16.27480916030534,-6.672640026855468,1.1228805786132812,0.09576806640624999,-4.152671755725191,31.251908396946565,-11.267175572519085,0.0
13.830000638961792,-10.905588562011719,3.9336733276367184,7.601590270996093,-5.740458015267175,-49.37404580152672,-15.770992366412214,-5.9591679321289055,2.2673089721679687,-0.51714755859375,-14.396946564885496,41.49618320610687,-12.106870229007633,0.0
13.840000629425049,-11.664550488281249,3.7229835815429686,8.214505895996094,-11.358778625954198,-61.9236641221374,-15.007633587786259,-7.52737001953125,1.2497732666015624,-0.05027823486328125,-22.412213740458014,52.44274809160305,-8.702290076335878,0.0
13.850000381469727,-11.061211669921875,2.6599580444335937,8.590395556640624,-14.198473282442748,-78.22900763358778,-14.259541984732824,-9.600748657226562,0.13646949462890623,-0.016759411621093748,-17.435114503816795,60.045801526717554,-7.603053435114504,0.0
13.860000848770142,-12.184092248535155,3.687070556640625,10.01733974609375,-6.351145038167939,-93.2824427480916,-13.541984732824428,-10.426748229980468,1.2018892333984375,-0.39264907226562495,-14.01526717557252,66.30534351145039,-9.648854961832061,0.0
13.87000060081482,-12.579135522460938,2.6431986328124997,10.943895788574219,-2.519083969465649,-113.55725190839695,-8.030534351145038,-14.26225928955078,1.0965443603515623,1.0462661254882812,-2.2290076335877864,74.29007633587786,-4.366412213740458,0.0
13.880000591278076,-12.897564343261719,2.0350714111328125,11.444283935546874,15.801526717557252,-131.78625954198472,-2.2442748091603053,-15.674838269042969,2.252943762207031,1.388636962890625,7.038167938931298,71.90839694656489,-4.442748091603053,0.0
13.890000581741333,-13.951013073730469,0.7158662963867187,11.552023010253906,30.15267175572519,-156.68702290076337,3.236641221374046,-16.94376514892578,1.1947066284179686,3.2034418212890623,13.145038167938932,73.16030534351145,-0.7175572519083969,0.0
13.90000033378601,-16.201562634277344,0.3806780639648437,11.707646118164062,37.49618320610687,-178.21374045801528,2.6412213740458017,-14.911087939453123,2.6671406494140624,2.2290017456054687,20.748091603053435,61.83206106870229,2.1526717557251906,0.0
13.910000562667847,-17.88229219970703,-0.38786066894531246,10.350133776855468,43.49618320610687,-203.57251908396947,2.2442748091603053,-12.246341491699217,3.0358477050781247,1.3168109130859373,18.061068702290076,59.83206106870229,11.648854961832061,0.0
13.920000791549683,-20.748151586914062,-0.24899697265624998,8.875305554199219,48.74809160305343,-225.12977099236642,0.8549618320610687,-8.010998754882811,4.290409374999999,-2.001552587890625,2.8091603053435112,54.33587786259542,14.82442748091603,0.0
13.93000054359436,-20.96602393798828,-0.8379705810546875,5.647921716308593,54.916030534351144,-238.04580152671755,6.885496183206107,-8.774749084472656,0.8283937744140625,-2.2768857788085937,-14.122137404580153,64.3969465648855,22.03053435114504,0.0
13.940000534057617,-20.386627136230466,-1.8938135131835936,4.120421057128906,66.79389312977099,-237.63358778625954,14.198473282442748,-7.108384729003906,-0.5985504150390625,-4.206612316894531,-21.770992366412212,66.30534351145039,16.549618320610687,0.0
13.950000524520874,-16.886304309082032,-2.798821740722656,-1.2282254516601563,94.76335877862596,-228.94656488549617,29.236641221374047,-9.306261853027344,-3.342305517578125,-3.009511486816406,-24.900763358778626,76.12213740458016,11.770992366412214,0.0
13.96000051498413,-13.151349719238281,-1.0319009155273438,-5.626373901367187,109.54198473282443,-206.19847328244273,40.030534351145036,-8.508992700195313,-3.778050219726562,-3.2704794677734372,-26.427480916030536,78.80916030534351,2.8396946564885495,0.0
13.970000743865967,-9.119514123535156,-1.7262193969726563,-8.573636145019531,91.43511450381679,-186.4732824427481,45.12977099236641,-8.149862451171874,-4.426878869628906,-3.0119056884765625,-30.458015267175572,84.9618320610687,-0.015267175572519083,0.0
13.980000495910645,-9.605537060546874,-1.4006079711914061,-7.220912207031249,50.33587786259542,-160.5801526717557,44.47328244274809,-7.343016491699219,-3.854664672851562,-4.139574670410156,-28.549618320610687,86.3206106870229,0.5648854961832062,0.0
13.990000486373901,-10.876858142089842,-0.4740519287109375,-3.2345664428710936,29.480916030534353,-146.793893129771,43.93893129770992,-9.188945971679686,-2.9664158569335934,-2.8898014038085935,-38.06106870229008,100.74809160305344,3.0229007633587788,0.0
14.000000476837158,-11.583147631835937,3.526659045410156,2.5043349365234375,36.94656488549618,-134.1679389312977,47.847328244274806,-8.913612780761719,-2.760514514160156,-3.27526787109375,-29.053435114503817,96.04580152671755,5.969465648854962,0.0
14.010000705718994,-10.251971508789062,1.68551796875,8.82981572265625,48.70229007633588,-125.2824427480916,52.29007633587786,-11.58075343017578,-2.9568390502929685,-0.3687070556640625,-15.893129770992367,95.34351145038168,11.17557251908397,0.0
14.020000457763672,-8.530540515136718,-1.7764976318359373,7.762001782226562,37.51145038167939,-124.56488549618321,42.56488549618321,-11.470620153808593,0.7876923461914062,-0.5099649536132812,-11.129770992366412,84.42748091603053,11.038167938931299,0.0
14.030000925064087,-8.499415893554687,-1.1611878051757811,2.3295582153320313,22.702290076335878,-127.52671755725191,30.580152671755727,-11.939883679199218,-0.24660277099609373,1.7094599853515624,-16.412213740458014,80.80916030534351,14.183206106870228,0.0
14.040000677108765,-7.857769848632812,-2.674323254394531,-1.8650830932617186,16.977099236641223,-124.06106870229007,26.763358778625953,-11.540052001953125,-0.5530605834960938,1.9728221679687499,-24.65648854961832,72.19847328244275,14.83969465648855,0.0
14.050000667572021,-7.745242370605468,-2.750937707519531,-1.838746875,10.213740458015268,-116.44274809160305,21.709923664122137,-11.295843432617186,-2.5258827514648434,3.0526071166992184,-20.198473282442748,61.57251908396947,15.816793893129772,0.0
14.060000658035278,-7.340622290039062,-1.4149731811523436,-0.24660277099609373,11.297709923664122,-107.83206106870229,19.480916030534353,-9.919177478027343,-1.6160861206054686,1.7118541870117185,-13.770992366412214,49.11450381679389,12.366412213740459,0.0
14.070000648498535,-6.852205151367187,0.2442085693359375,0.7565677246093749,5.938931297709924,-98.21374045801527,17.755725190839694,-9.981426721191406,-2.061407629394531,0.8643067993164062,-17.862595419847327,46.717557251908396,12.458015267175572,0.0
14.080000400543213,-5.9950809570312495,0.1771709228515625,0.239420166015625,0.24427480916030533,-90.4885496183206,17.81679389312977,-10.350133776855468,-1.3910311645507811,0.4381389038085937,-12.122137404580153,41.48091603053435,12.412213740458014,0.0
14.090000629425049,-5.585672473144531,0.7924807495117187,-0.7422025146484375,-5.526717557251908,-78.9618320610687,15.893129770992367,-8.535328918457031,-1.3910311645507811,-0.5913678100585937,-7.343511450381679,37.05343511450382,11.923664122137405,0.0
14.100000619888306,-4.053383410644531,0.33758243408203126,-2.0733786376953125,-7.038167938931298,-68.9618320610687,17.0381679389313,-7.826645227050781,-1.2832920898437499,-0.928950244140625,-3.7709923664122136,38.229007633587784,11.770992366412214,0.0
14.110000610351562,-4.53940634765625,1.7166425903320313,-1.7741034301757812,-14.610687022900763,-52.045801526717554,16.82442748091603,-9.167398156738281,-0.7829039428710937,-1.369483349609375,2.6564885496183206,40.778625954198475,12.335877862595419,0.0
14.12000060081482,-2.7653029174804686,0.46208092041015625,-3.1483751831054687,-22.732824427480917,-41.05343511450382,19.81679389312977,-8.813056311035156,-0.9720458740234375,-1.4724340209960938,3.83206106870229,45.083969465648856,12.702290076335878,0.0
14.130000591278076,-3.189076611328125,1.1827356201171875,-2.214636535644531,-32.76335877862596,-25.282442748091604,20.412213740458014,-8.839392529296875,-0.6368576416015624,-1.22583125,9.007633587786259,44.61068702290076,12.091603053435115,0.0
14.140000343322754,-2.6192566162109374,-0.5578489868164063,-1.93451494140625,-38.916030534351144,-9.694656488549619,22.519083969465647,-8.789114294433594,-0.9888052856445312,-0.5363011718749999,7.236641221374046,50.42748091603053,13.206106870229007,0.0
14.15000033378601,-2.133233679199219,0.5793968017578125,-0.2753331909179687,-38.12213740458015,11.267175572519085,20.732824427480917,-10.09395419921875,-0.7254431030273437,-0.086191259765625,6.702290076335878,51.66412213740458,13.312977099236642,0.0
14.160000324249268,-1.5658078857421873,0.507570751953125,0.17956512451171874,-45.221374045801525,18.48854961832061,19.14503816793893,-9.49300958251953,-2.403778466796875,1.1755530151367186,6.824427480916031,51.45038167938932,14.274809160305344,0.0
14.170000553131104,-3.7205893798828122,1.7980454467773437,2.39420166015625,-59.6793893129771,24.519083969465647,15.801526717557252,-9.481038574218749,-1.7334020019531249,0.39264907226562495,20.35114503816794,42.67175572519084,12.51908396946565,0.0
14.18000078201294,-1.4030021728515625,-0.6703764648437499,2.4756045166015626,-53.55725190839695,31.740458015267176,17.908396946564885,-10.352527978515624,-1.6927005737304686,0.2442085693359375,24.091603053435115,42.152671755725194,13.587786259541986,0.0
14.190000534057617,-0.6105214233398437,-1.6831237670898436,4.000710974121094,-40.38167938931298,42.3206106870229,16.671755725190838,-8.923189587402343,-1.3359645263671873,-0.10773907470703124,18.793893129770993,41.29770992366412,11.893129770992367,0.0
14.200000762939453,-1.3575123413085937,-2.221819140625,6.268019946289062,-20.076335877862597,49.45038167938932,14.290076335877863,-9.234435803222656,-1.2617442749023438,-0.59376201171875,23.51145038167939,41.83206106870229,12.106870229007633,0.0
14.21000051498413,-1.7405846069335937,-1.3910311645507811,8.403647827148436,8.16793893129771,59.465648854961835,14.274809160305344,-8.889670764160156,-1.4030021728515625,-0.7637503295898437,26.47328244274809,43.6793893129771,10.396946564885496,0.0
14.220000505447388,-1.6328455322265625,-1.7405846069335937,9.41639512939453,37.66412213740458,64.90076335877863,17.34351145038168,-10.503362683105468,-1.915361328125,0.8379705810546875,31.81679389312977,51.16030534351145,9.16030534351145,0.0
14.230000495910645,-4.331110803222656,1.1563994018554686,10.97502041015625,54.916030534351144,68.90076335877863,11.801526717557252,-9.6917283203125,-0.33758243408203126,0.33758243408203126,28.870229007633586,50.778625954198475,2.8396946564885495,0.0
14.240000486373901,-5.896918688964844,2.221819140625,10.728417639160156,45.29770992366412,58.06106870229008,5.572519083969466,-10.836156713867187,0.06464344482421874,1.62805712890625,21.358778625954198,54.33587786259542,1.450381679389313,0.0
14.250000476837158,-8.334215979003906,2.6767174560546874,10.735600244140624,27.374045801526716,49.954198473282446,-3.282442748091603,-10.967837805175781,1.4820108276367188,1.5729904907226562,14.229007633587786,49.404580152671755,2.8091603053435112,0.0
14.260000705718994,-9.840168823242188,3.5410242553710933,10.953472595214842,8.549618320610687,37.083969465648856,-6.106870229007634,-11.398794104003905,1.8100164550781248,1.8148048583984373,4.137404580152672,46.152671755725194,7.038167938931298,0.0
14.270000696182251,-6.4356140625,1.5753846923828123,9.361328491210937,17.282442748091604,25.862595419847327,3.801526717557252,-9.919177478027343,3.2441432495117186,1.3359645263671873,-15.648854961832061,41.3587786259542,10.183206106870228,0.0
14.280000448226929,-6.270414147949219,2.73896669921875,8.808267907714843,40.56488549618321,28.18320610687023,11.557251908396946,-11.25514200439453,0.5793968017578125,2.8227637573242186,-28.53435114503817,41.969465648854964,20.48854961832061,0.0
14.290000915527344,-6.172251879882812,2.3367408203125,7.256825231933593,51.954198473282446,31.206106870229007,22.702290076335878,-11.113884106445312,-0.2561795776367187,1.6136919189453125,-30.53435114503817,34.19847328244275,23.801526717557252,0.0
14.300000429153442,-13.893552233886718,-0.05985504150390625,11.044452258300781,17.083969465648856,32.50381679389313,21.81679389312977,-11.901576452636718,-1.7645266235351562,1.3311761230468748,-35.847328244274806,29.34351145038168,28.82442748091603,0.0
14.310000896453857,-20.089746130371093,-2.6791116577148437,17.810466149902343,34.045801526717554,33.099236641221374,31.358778625954198,-13.66849727783203,-2.7724855224609373,0.6823474731445313,-39.51145038167939,21.740458015267176,29.099236641221374,0.0
14.320000410079956,-25.55570852050781,2.6336218261718747,20.28128226318359,66.83969465648855,20.717557251908396,28.30534351145038,-15.205574743652344,-4.611232397460937,1.407790576171875,-36.50381679389313,9.007633587786259,26.885496183206108,0.0
14.330000877380371,-22.151153759765624,3.737348791503906,10.275913525390624,77.46564885496183,-8.274809160305344,18.595419847328245,-16.515203051757812,-3.8474820678710935,1.9632453613281249,-34.778625954198475,-7.847328244274809,24.137404580152673,0.0
14.340000629425049,-5.884947680664062,-1.7812860351562498,-0.46208092041015625,79.19083969465649,-23.297709923664122,19.64885496183206,-18.078616735839844,0.12449848632812499,0.5626373901367188,-33.3587786259542,-29.068702290076335,19.69465648854962,0.0
14.350000619888306,-0.9504980590820312,0.06464344482421874,-2.779668127441406,40.13740458015267,-7.267175572519084,-5.00763358778626,-16.807295654296873,-1.0462661254882812,1.9536685546875,-40.56488549618321,-45.099236641221374,21.557251908396946,0.0
14.360000610351562,0.7972691528320313,-1.216254443359375,-7.493851196289062,2.4122137404580153,14.885496183206106,-9.48091603053435,-15.921441040039062,0.35194764404296874,1.668758557128906,-23.435114503816795,-68.13740458015268,24.53435114503817,0.0
14.37000060081482,-6.282385156249999,0.5793968017578125,-5.2816088623046875,9.129770992366412,49.29770992366412,-8.091603053435115,-14.413093994140624,3.4644098022460934,-0.29927520751953124,-11.49618320610687,-83.41984732824427,26.27480916030534,0.0
14.380000829696655,-7.967903124999999,-2.0302830078125,-5.161898779296875,14.061068702290076,68.29007633587786,-4.916030534351145,-12.876016528320312,3.4093431640625,-1.3215993164062498,-4.99236641221374,-86.90076335877863,26.091603053435115,0.0
14.390000581741333,-11.748347546386718,2.250549560546875,-2.540247961425781,13.022900763358779,93.89312977099236,-17.34351145038168,-11.604695446777344,4.273649963378906,-2.8802245971679685,-10.16793893129771,-93.5114503816794,23.770992366412212,0.0
14.40000057220459,-10.907982763671875,3.708618371582031,-2.4061726684570313,1.450381679389313,97.81679389312977,-17.389312977099237,-13.196839550781249,0.24899697265624998,-0.5482721801757812,-19.068702290076335,-87.37404580152672,28.213740458015266,0.0
14.410000801086426,-10.862492932128905,2.767697119140625,-0.4908113403320312,-5.343511450381679,110.73282442748092,-19.282442748091604,-11.240776794433593,2.001552587890625,-3.421314172363281,-29.068702290076335,-92.29007633587786,22.916030534351144,0.0
14.420000791549683,-10.31661495361328,3.2441432495117186,-1.2617442749023438,-21.66412213740458,110.38167938931298,-22.015267175572518,-11.765106958007811,1.2042834350585936,-3.897760302734375,-41.98473282442748,-86.61068702290076,19.72519083969466,0.0
14.430000305175781,-12.069170568847655,2.8131869506835936,0.18914193115234373,-32.79389312977099,111.0381679389313,-23.236641221374047,-11.202469567871093,1.8267758666992187,-6.744466076660156,-50.44274809160305,-82.97709923664122,14.870229007633588,0.0
14.440000534057617,-4.912901806640625,-2.4253262817382812,-1.7884686401367187,-23.938931297709924,106.12213740458016,-17.129770992366414,-10.747571252441405,0.8667010009765624,-7.618349682617187,-55.63358778625954,-65.92366412213741,13.435114503816793,0.0
14.450000524520874,-7.6087728759765625,-3.394977954101562,0.5746083984375,4.931297709923665,121.69465648854961,-25.450381679389313,-11.674127294921874,-1.0726023437499999,-5.9591679321289055,-35.282442748091604,-57.7557251908397,10.992366412213741,0.0
14.460000991821289,-6.9360022094726554,-4.206612316894531,-1.1707646118164061,24.85496183206107,123.16030534351145,-32.97709923664122,-9.605537060546874,0.4070142822265625,-4.714183068847656,-19.221374045801525,-53.083969465648856,3.4198473282442747,0.0
14.470000505447388,-9.60793126220703,-0.3495534423828125,1.13006318359375,41.52671755725191,135.61832061068702,-38.54961832061068,-7.37414111328125,1.697488977050781,-4.043806604003906,-17.6793893129771,-49.20610687022901,-1.816793893129771,0.0
14.480000495910645,-9.730035546875,2.6815058593749996,1.1156979736328125,25.206106870229007,129.1908396946565,-45.43511450381679,-7.481880187988281,0.40462008056640625,-2.592920397949219,-17.52671755725191,-38.42748091603053,-2.6717557251908395,0.0
14.490000247955322,-11.200075366210937,3.4859576171874997,2.1404162841796874,9.206106870229007,125.57251908396947,-44.58015267175573,-7.117961535644531,-0.033518823242187495,-2.3774422485351563,-10.67175572519084,-39.3587786259542,-6.900763358778626,0.0
14.500000476837158,-9.698910925292969,3.7205893798828122,1.714248388671875,-5.66412213740458,117.45038167938931,-42.44274809160305,-8.9255837890625,-2.70065947265625,-0.5003881469726562,-2.33587786259542,-31.435114503816795,-6.656488549618321,0.0
14.510000705718994,-9.284714038085937,2.683900061035156,1.6519991455078125,-18.427480916030536,110.62595419847328,-38.656488549618324,-7.71890615234375,-2.4588451049804685,-0.258573779296875,15.236641221374045,-41.86259541984733,-12.01526717557252,0.0
14.520000696182251,-9.832986218261718,2.8730419921875,2.252943762207031,-25.267175572519083,105.92366412213741,-36.42748091603053,-8.250418920898436,-2.059013427734375,-0.18435352783203124,31.61832061068702,-46.94656488549618,-16.3206106870229,0.0
14.530000925064087,-9.282319836425781,2.2673089721679687,2.3870190551757813,-32.10687022900763,99.3587786259542,-33.74045801526717,-8.48505068359375,0.39743747558593745,-0.3806780639648437,38.656488549618324,-54.412213740458014,-22.763358778625953,0.0
14.540000915527344,-10.144232434082031,3.0909143432617188,3.4165257690429685,-32.74809160305343,98.68702290076335,-32.0,-9.200916979980468,0.07422025146484375,0.8954314208984374,35.63358778625954,-52.36641221374046,-20.778625954198475,0.0
14.5500009059906,-9.696516723632811,1.2665326782226562,3.31357509765625,-36.88549618320611,91.1145038167939,-27.389312977099237,-9.574412438964844,-0.15322890625,1.0630255371093749,47.29770992366412,-61.66412213740458,-21.267175572519083,0.0
14.560000658035278,-10.364498986816406,0.8020575561523438,3.9887399658203124,-30.641221374045802,87.00763358778626,-24.641221374045802,-8.231265307617187,1.180341418457031,1.1923124267578125,43.89312977099237,-66.70229007633588,-23.801526717557252,0.0
14.570001125335693,-10.958260998535156,0.5626373901367188,4.151545678710937,-31.17557251908397,80.18320610687023,-23.068702290076335,-8.80347950439453,1.2593500732421874,1.2401964599609374,43.541984732824424,-70.79389312977099,-22.396946564885496,0.0
14.580000877380371,-12.751518041992187,2.308010400390625,5.449202978515625,-31.297709923664122,73.58778625954199,-25.6793893129771,-8.161833459472655,2.1212626708984375,0.8188169677734375,36.916030534351144,-74.44274809160305,-23.129770992366414,0.0
14.590000629425049,-10.625466967773438,0.430956298828125,3.7517140014648436,-39.38931297709924,55.099236641221374,-23.129770992366414,-8.808267907714843,2.3918074584960936,1.2282254516601563,27.206106870229007,-73.29770992366412,-20.671755725190838,0.0
14.600000619888306,-11.640608471679688,2.166752502441406,3.9336733276367184,-34.44274809160305,48.25954198473283,-21.267175572519083,-9.217676391601563,1.7477672119140624,0.6727706665039062,21.0381679389313,-73.40458015267176,-18.99236641221374,0.0
14.610000610351562,-9.93354268798828,2.195482922363281,2.5067291381835934,-45.93893129770992,33.7557251908397,-17.419847328244273,-8.836998327636719,1.9201497314453124,0.5123591552734374,10.946564885496183,-71.29770992366412,-19.0381679389313,0.0
14.62000036239624,-10.053252770996092,1.4006079711914061,1.5801730957031248,-34.68702290076336,31.66412213740458,-11.83206106870229,-9.957484704589843,0.45010991210937495,0.6823474731445313,11.022900763358779,-70.8854961832061,-17.236641221374047,0.0
14.630000591278076,-9.244012609863281,0.679953271484375,0.5746083984375,-21.938931297709924,32.25954198473283,-7.786259541984733,-8.544905725097657,1.388636962890625,-0.10295067138671875,12.061068702290076,-75.40458015267176,-21.374045801526716,0.0
14.640001058578491,-14.075511560058592,5.76523759765625,3.5314474487304683,-25.114503816793892,37.49618320610687,-10.931297709923664,-10.283096130371094,0.055066638183593745,0.6655880615234374,12.610687022900763,-69.40458015267176,-18.48854961832061,0.0
14.650000810623169,-9.928754284667969,1.9584569580078124,0.6248866333007812,-33.38931297709924,31.81679389312977,-7.251908396946565,-8.949525805664061,1.2282254516601563,-0.023942016601562498,16.16793893129771,-76.33587786259542,-22.061068702290076,0.0
14.660000801086426,-10.12507882080078,2.6886884643554687,0.47165772705078124,-40.900763358778626,29.129770992366414,-7.526717557251908,-9.955090502929687,1.37906015625,0.10773907470703124,6.854961832061068,-67.3587786259542,-22.977099236641223,0.0
14.670000553131104,-9.030928662109375,0.9624690673828125,-0.36391865234375,-38.94656488549618,36.13740458015267,-7.755725190839694,-10.144232434082031,0.46686932373046874,0.181959326171875,10.351145038167939,-67.20610687022901,-22.68702290076336,0.0
14.68000078201294,-9.65342109375,2.2481553588867187,-0.3112462158203125,-46.16793893129771,36.47328244274809,-12.122137404580153,-8.532934716796875,1.2689268798828124,-0.6416460449218749,6.091603053435114,-66.18320610687023,-26.717557251908396,0.0
14.690000534057617,-9.777919580078125,1.4532804077148436,-0.33518823242187495,-46.79389312977099,39.404580152671755,-12.80916030534351,-9.849745629882811,1.0127473022460938,0.086191259765625,2.6106870229007635,-57.86259541984733,-23.770992366412212,0.0
14.700000762939453,-9.634267480468749,-0.8116343627929687,-0.21068974609375,-40.25954198473283,43.00763358778626,-11.297709923664122,-10.414777221679687,0.39264907226562495,0.39743747558593745,7.740458015267175,-58.6412213740458,-23.541984732824428,0.0
14.71000051498413,-8.394071020507813,-1.7262193969726563,-0.36631285400390623,-16.549618320610687,49.87786259541985,-13.587786259541986,-8.923189587402343,1.2569558715820313,0.18435352783203124,8.396946564885496,-57.6793893129771,-26.778625954198475,0.0
14.720000505447388,-11.56159981689453,2.626439221191406,1.8602946899414061,-11.145038167938932,56.82442748091603,-21.267175572519083,-8.001421948242188,1.24498486328125,0.38786066894531246,0.7633587786259542,-50.88549618320611,-25.801526717557252,0.0
14.730000495910645,-11.204863769531249,2.212242333984375,1.5011644409179687,-25.709923664122137,48.82442748091603,-21.61832061068702,-9.593566052246093,0.5434837768554687,0.5291185668945312,4.427480916030534,-46.85496183206107,-22.671755725190838,0.0
14.740000486373901,-9.842563024902343,1.0510545288085937,1.1252747802734375,-20.12213740458015,46.56488549618321,-19.129770992366414,-8.106766821289062,0.4429273071289062,0.47884033203125,4.290076335877862,-46.58015267175573,-25.51145038167939,0.0
14.750000476837158,-9.418789331054686,1.3335703247070312,1.2832920898437499,-20.03053435114504,44.045801526717554,-19.69465648854962,-8.465897070312499,1.2138602416992186,0.49799394531249996,2.8091603053435112,-39.343511450381676,-26.015267175572518,0.0
14.760000705718994,-9.945513696289062,0.7996633544921875,1.5466542724609373,-17.34351145038168,43.70992366412214,-18.763358778625953,-7.979874133300781,1.2210428466796874,0.1388636962890625,-0.8244274809160306,-32.85496183206107,-26.442748091603054,0.0
14.770000696182251,-11.724405529785155,3.3686417358398435,3.0693665283203124,-30.38167938931298,38.33587786259542,-20.763358778625953,-7.9463553100585935,0.7805097412109374,0.4213794921875,-1.9541984732824427,-26.412213740458014,-24.625954198473284,0.0
