timestamp,Thigh_L_Acc_X,Thigh_L_Acc_Y,Thigh_L_Acc_Z,Thigh_L_Gyr_X,Thigh_L_Gyr_Y,Thigh_L_Gyr_Z,Thigh_R_Acc_X,Thigh_R_Acc_Y,Thigh_R_Acc_Z,Thigh_R_Gyr_X,Thigh_R_Gyr_Y,Thigh_R_Gyr_Z,gpio_output
10.000000476837158,2.5953145996093747,8.343792785644531,5.1882349975585935,39.64885496183206,24.106870229007633,25.87786259541985,-9.710881933593749,1.438915197753906,1.0390835205078124,40.47328244274809,41.93893129770992,19.450381679389313,0.0
10.010000467300415,1.8076222534179687,8.71489404296875,5.267243652343749,20.83969465648855,34.091603053435115,32.10687022900763,-9.765948571777344,0.5099649536132812,0.10295067138671875,31.755725190839694,39.43511450381679,19.083969465648856,1.0
10.020000696182251,4.2137949218749995,6.009446166992187,2.427720483398437,-7.1603053435114505,45.038167938931295,34.13740458015267,-12.818555688476561,-0.9528922607421875,-0.47165772705078124,40.213740458015266,44.06106870229008,18.106870229007633,1.0
10.030000925064087,3.308786694335937,5.085284326171875,0.5674257934570313,-30.259541984732824,69.66412213740458,29.236641221374047,-10.433930834960936,2.4851813232421875,-1.01514150390625,15.251908396946565,35.969465648854964,13.129770992366412,1.0
10.040000677108765,-11.81777939453125,0.22744915771484372,25.28995213623047,-41.587786259541986,63.099236641221374,38.030534351145036,-12.899958544921875,1.9488801513671874,0.22266075439453123,-4.061068702290076,43.083969465648856,17.022900763358777,1.0
10.050000429153442,-23.92765139160156,-7.132326745605468,39.22540289916992,54.656488549618324,25.0381679389313,57.465648854961835,-14.470554833984375,1.3623007446289062,-0.0430956298828125,-30.564885496183205,38.19847328244275,18.732824427480917,1.0
10.060000896453857,-20.2645228515625,-4.450820886230469,13.029245434570312,61.847328244274806,38.83969465648855,47.52671755725191,-17.386692456054686,-6.481103894042969,2.389413256835937,-68.47328244274809,27.83206106870229,30.900763358778626,1.0
10.070000886917114,-13.91749425048828,0.12689268798828124,-13.335703247070311,20.30534351145038,23.740458015267176,-7.938931297709924,-15.037980627441405,-3.239354846191406,-0.19393033447265623,-14.427480916030534,10.030534351145038,23.34351145038168,1.0
10.080000638961792,-6.742071875,-8.154650854492187,4.278438366699218,17.34351145038168,24.38167938931298,-14.870229007633588,-19.761740502929687,-5.343858105468749,2.6527754394531247,-10.259541984732824,4.702290076335878,23.740458015267176,1.0
10.090000629425049,1.6998831787109374,-3.0406361083984375,8.710105639648438,75.49618320610686,46.6412213740458,-0.33587786259541985,-19.507955126953124,0.8403647827148437,-1.5107412475585937,1.2366412213740459,-19.69465648854962,20.99236641221374,1.0
10.100000858306885,-7.074865905761718,3.84987626953125,-2.4396914916992185,44.44274809160305,62.83969465648855,-10.80916030534351,-20.48718360595703,-2.808398547363281,0.32561142578124996,-7.419847328244275,-24.671755725190838,30.27480916030534,1.0
10.110000610351562,-13.826514587402343,-0.00718260498046875,2.887407202148437,7.435114503816794,64.99236641221374,-14.229007633587786,-18.423381774902342,-0.16280571289062498,-2.602497204589844,39.343511450381676,-44.38167938931298,25.083969465648856,1.0
10.120000839233398,-2.1643583007812497,-9.97903251953125,-6.2009822998046875,34.091603053435115,66.36641221374046,-5.816793893129771,-14.777012646484375,1.3646949462890625,-2.767697119140625,31.297709923664122,-48.33587786259542,24.12213740458015,1.0
10.130000591278076,-10.582371337890624,1.218648645019531,5.118803149414062,82.04580152671755,106.04580152671755,-21.984732824427482,-13.874398620605469,1.4508862060546874,-2.3774422485351563,23.81679389312977,-47.465648854961835,24.35114503816794,1.0
10.140000581741333,-8.506598498535157,5.394136340332031,2.059013427734375,93.31297709923665,105.8473282442748,-12.16793893129771,-13.455413330078125,0.13407529296874998,-0.9624690673828125,31.938931297709924,-51.083969465648856,26.0,1.0
10.15000057220459,-11.54244620361328,6.150704064941406,3.7900212280273435,88.42748091603053,115.83206106870229,-17.908396946564885,-13.091494677734374,-0.47644613037109373,-0.8858546142578124,35.404580152671755,-65.72519083969466,23.83206106870229,1.0
10.160000562667847,-4.386177441406249,3.3159692993164063,0.59376201171875,83.8473282442748,108.59541984732824,-10.854961832061068,-11.980585107421874,0.7900865478515624,-2.5809493896484375,33.603053435114504,-71.81679389312977,15.725190839694656,1.0
10.170000791549683,-8.724470849609375,3.794809631347656,0.3136404174804687,87.34351145038168,133.08396946564886,-18.778625954198475,-11.142614526367186,0.86191259765625,-2.7629087158203123,18.106870229007633,-72.19847328244275,11.236641221374045,1.0
10.180001020431519,-1.5083470458984374,-2.722207287597656,-4.666299035644531,107.38931297709924,136.01526717557252,-11.419847328244275,-12.138602416992187,-0.09576806640624999,-3.2249896362304686,15.068702290076336,-72.16793893129771,7.145038167938932,1.0
10.190000772476196,-6.215347509765625,2.7844565307617186,-0.7924807495117187,136.9770992366412,166.42748091603053,-22.977099236641223,-12.143390820312499,0.22026655273437498,-5.068524914550781,16.27480916030534,-70.62595419847328,2.4580152671755724,1.0
10.200000762939453,-13.2926076171875,9.423577734375,0.6775590698242188,102.62595419847328,168.04580152671755,-33.29770992366412,-12.033257543945313,2.003946789550781,-7.663839514160156,7.038167938931298,-65.1145038167939,-2.7480916030534353,1.0
10.21000075340271,-17.717092285156248,12.045228552246092,3.957615344238281,44.2442748091603,160.15267175572518,-36.36641221374046,-11.789048974609374,1.8698714965820311,-7.132326745605468,1.2213740458015268,-52.50381679389313,-4.854961832061068,0.0
10.220000982284546,-15.861585998535155,11.422736120605467,5.566518859863281,-28.702290076335878,133.1908396946565,-37.49618320610687,-11.65736788330078,1.2401964599609374,-6.742071875,-2.1068702290076335,-47.00763358778626,-5.114503816793893,0.0
10.230000495910645,-10.86009873046875,3.1196447631835937,2.5258827514648434,-62.70229007633588,111.55725190839695,-30.870229007633586,-10.654197387695312,2.01112939453125,-6.900089184570312,-1.2671755725190839,-41.786259541984734,-7.679389312977099,0.0
10.240000486373901,-8.573636145019531,-0.9145850341796874,2.0829554443359375,-59.9236641221374,109.41984732824427,-30.30534351145038,-9.411606726074218,2.0302830078125,-6.368576416015625,-10.045801526717558,-34.88549618320611,-10.030534351145038,0.0
10.250000238418579,-6.943184814453125,-4.7884033203125,1.1540052001953125,-30.50381679389313,118.70229007633588,-30.702290076335878,-10.110713610839843,0.35194764404296874,-4.946420629882812,-1.6641221374045803,-29.282442748091604,-11.633587786259541,0.0
10.260000705718994,-7.790732202148437,-3.7708676147460936,1.16837041015625,5.755725190839694,135.89312977099237,-38.19847328244275,-9.720458740234374,-0.040701428222656245,-3.7038299682617186,12.076335877862595,-26.65648854961832,-14.641221374045802,0.0
10.270000696182251,-9.5001921875,-0.9959878906249999,1.0821791503906248,30.519083969465647,149.3587786259542,-46.67175572519084,-10.211270080566406,-1.455674609375,-2.5043349365234375,29.755725190839694,-26.396946564885496,-17.709923664122137,0.0
10.280000448226929,-8.595183959960938,1.879448303222656,0.5913678100585937,35.61832061068702,155.23664122137404,-51.57251908396947,-8.020575561523437,2.142810485839844,-2.0925322509765625,32.94656488549618,-35.954198473282446,-23.69465648854962,0.0
10.290000677108765,-9.102754711914063,2.961627453613281,-0.3447650390625,23.17557251908397,151.1908396946565,-51.98473282442748,-7.024587670898437,2.4684219116210935,-1.1875240234375,10.305343511450381,-32.54961832061068,-24.366412213740457,0.0
10.300000667572021,-11.824961999511718,7.283161450195312,1.8770541015625,-5.32824427480916,146.6259541984733,-56.12213740458015,-8.75320126953125,-1.3168109130859373,1.0510545288085937,9.404580152671755,-27.938931297709924,-21.49618320610687,0.0
10.310000896453857,-10.223241088867187,4.6639048339843745,1.0031704956054688,-25.52671755725191,136.5648854961832,-51.74045801526717,-8.623914379882812,-0.03591302490234375,1.6160861206054686,13.725190839694656,-35.81679389312977,-23.267175572519083,0.0
10.320000648498535,-13.730746520996092,8.075642199707032,4.647145422363281,-53.55725190839695,133.58778625954199,-53.038167938931295,-9.41639512939453,-1.3718775512695311,2.7940333374023436,20.870229007633586,-40.36641221374046,-22.702290076335878,0.0
10.330000877380371,-6.816292126464844,-0.0047884033203125,-0.21068974609375,-68.35114503816794,114.12213740458016,-40.152671755725194,-9.782707983398437,-0.6919242797851562,2.068590234375,40.916030534351144,-50.091603053435115,-22.931297709923665,0.0
10.340001106262207,-14.197615844726561,6.303932971191406,5.118803149414062,-72.21374045801527,123.72519083969466,-48.030534351145036,-9.088389501953124,1.6352397338867186,1.5753846923828123,45.282442748091604,-58.595419847328245,-22.83969465648855,0.0
10.350001096725464,-9.176974963378905,-0.718260498046875,1.5179238525390624,-74.38167938931298,113.1145038167939,-38.35114503816794,-9.011775048828124,3.1004911499023438,0.7445967163085937,42.33587786259542,-67.0381679389313,-21.954198473282442,0.0
10.360000610351562,-15.066711047363281,3.871424084472656,5.465962390136719,-71.09923664122137,119.00763358778626,-42.961832061068705,-7.536946826171874,4.086902233886718,0.5913678100585937,29.786259541984734,-69.46564885496183,-19.00763358778626,0.0
10.37000060081482,-8.959102612304687,-0.076614453125,2.5713725830078125,-62.88549618320611,110.87022900763358,-34.778625954198475,-7.371746911621093,3.1459809814453124,0.3758896606445312,21.84732824427481,-72.62595419847328,-13.84732824427481,0.0
10.380000591278076,-13.78341895751953,4.077325427246094,4.7884033203125,-74.65648854961832,102.85496183206106,-39.49618320610687,-6.883329772949218,2.1691467041015624,0.8738836059570312,11.541984732824428,-69.20610687022901,-8.641221374045802,0.0
10.390000581741333,-7.536946826171874,-2.0973206542968748,1.8363526733398436,-61.89312977099237,95.92366412213741,-28.68702290076336,-6.263231542968749,2.157175695800781,0.20350714111328125,14.320610687022901,-75.12977099236642,-6.122137404580153,0.0
10.400000810623169,-9.150638745117186,2.147598889160156,2.999934680175781,-47.465648854961835,100.12213740458016,-31.633587786259543,-7.493851196289062,0.5219359619140624,0.7613561279296874,6.229007633587786,-71.25190839694656,-0.8854961832061069,0.0
10.410000562667847,-6.900089184570312,0.34237083740234375,1.2210428466796874,-41.87786259541985,97.45038167938931,-27.34351145038168,-7.168239770507812,1.9632453613281249,-0.3136404174804687,12.091603053435115,-78.82442748091603,-2.2442748091603053,0.0
10.420001029968262,-13.268665600585937,4.601655590820312,4.6447512207031245,-44.54961832061068,101.77099236641222,-34.152671755725194,-7.960720520019531,1.2832920898437499,1.6208745239257811,9.251908396946565,-75.49618320610686,2.5801526717557253,0.0
10.43000078201294,-8.329427575683594,-0.3711012573242187,2.770091320800781,-47.66412213740458,87.1145038167939,-23.297709923664122,-7.9846625366210935,2.887407202148437,0.7589619262695312,8.748091603053435,-83.93893129770993,3.053435114503817,0.0
10.440000772476196,-12.46900224609375,3.0789433349609374,4.857835168457031,-44.717557251908396,87.66412213740458,-26.931297709923665,-9.588777648925781,1.1348515869140625,1.197100830078125,4.580152671755725,-80.29007633587786,10.13740458015267,0.0
10.450001001358032,-8.894459167480468,-1.1707646118164061,2.578555187988281,-34.19847328244275,83.78625954198473,-18.396946564885496,-7.845798840332031,2.4516625,0.5386953735351562,0.3053435114503817,-87.57251908396947,11.129770992366412,0.0
10.46000075340271,-11.259930407714844,1.4796166259765624,5.116408947753906,-4.656488549618321,93.95419847328245,-21.87786259541985,-7.9463553100585935,1.7118541870117185,-0.06703764648437499,-4.564885496183206,-82.77862595419847,13.145038167938932,0.0
10.470000982284546,-11.927912670898436,0.8020575561523438,4.939238024902344,-1.7099236641221374,86.41221374045801,-24.27480916030534,-7.079654309082031,2.0183119995117185,-0.8738836059570312,-10.290076335877863,-78.8854961832061,9.572519083969466,0.0
10.480000495910645,-12.004527124023436,0.143652099609375,4.6351744140625,11.801526717557252,77.58778625954199,-26.27480916030534,-7.936778503417968,-0.13646949462890623,-0.41419688720703124,-16.18320610687023,-68.2442748091603,8.992366412213741,0.0
10.49000072479248,-12.097900988769531,-0.07422025146484375,4.829104748535156,28.412213740458014,71.49618320610686,-27.83206106870229,-8.075642199707032,-0.852335791015625,-1.867477294921875,-7.633587786259542,-64.10687022900764,6.488549618320611,0.0
10.500000715255737,-12.674903588867187,1.5658078857421873,4.8698061767578125,38.045801526717554,63.45038167938932,-31.129770992366414,-8.341398583984375,-0.4429273071289062,-0.9744400756835937,-7.221374045801527,-57.51145038167939,4.519083969465649,0.0
10.510000944137573,-12.476184851074217,3.8857892944335934,4.012681982421875,32.35114503816794,50.16793893129771,-31.6793893129771,-9.56962403564453,-0.814028564453125,-0.5793968017578125,-8.106870229007633,-54.458015267175576,3.0381679389312977,0.0
10.520000696182251,-12.038045947265624,4.987122058105468,2.379836450195312,27.83206106870229,38.33587786259542,-28.65648854961832,-10.733206042480468,-1.8195932617187498,0.2705447875976562,1.7404580152671756,-51.14503816793893,3.3282442748091605,0.0
10.530000448226929,-11.719617126464843,4.560954162597656,0.7565677246093749,21.00763358778626,33.29770992366412,-23.64885496183206,-11.860875024414062,-1.8124106567382812,-0.181959326171875,19.587786259541986,-58.16793893129771,0.24427480916030533,0.0
10.540000677108765,-13.268665600585937,6.900089184570312,0.55545478515625,0.3053435114503817,28.12213740458015,-22.16793893129771,-10.390835205078124,-0.21068974609375,-1.0438719238281249,19.251908396946565,-53.45038167938932,-5.4961832061068705,0.0
10.550000667572021,-10.64222637939453,1.8818425048828125,-0.46686932373046874,-13.969465648854962,23.587786259541986,-15.389312977099237,-10.242394702148436,-0.6200982299804687,-1.0845733520507812,27.587786259541986,-49.16030534351145,-7.022900763358779,0.0
10.560000896453857,-11.058817468261719,0.7517793212890624,-0.4261678955078125,-13.572519083969466,27.84732824427481,-15.282442748091603,-9.246406811523437,-0.1005564697265625,-1.4101847778320311,37.12977099236641,-44.42748091603053,-9.435114503816793,0.0
10.570001125335693,-11.58075343017578,-0.8188169677734375,-0.17956512451171874,-4.229007633587786,33.52671755725191,-19.96946564885496,-7.436390356445312,0.7948749511718749,-2.001552587890625,25.786259541984734,-37.267175572519086,-16.427480916030536,0.0
10.580000877380371,-11.999738720703125,0.10295067138671875,0.5817910034179687,0.6870229007633588,34.79389312977099,-25.267175572519083,-8.259995727539062,0.5746083984375,-0.97683427734375,21.603053435114504,-19.770992366412212,-16.366412213740457,0.0
10.590001106262207,-12.457031237792968,0.2705447875976562,1.158793603515625,0.9923664122137404,29.389312977099237,-30.549618320610687,-8.106766821289062,1.2473790649414063,-0.9648632690429687,15.32824427480916,-12.106870229007633,-18.793893129770993,0.0
10.600000858306885,-12.71081661376953,1.5490484741210937,2.3151930053710936,1.8931297709923665,24.12213740458015,-34.213740458015266,-9.114725720214842,0.6823474731445313,-0.06703764648437499,13.557251908396946,-6.534351145038168,-19.96946564885496,0.0
10.610000848770142,-12.69166300048828,2.6503812377929687,3.066972326660156,-6.549618320610687,12.702290076335878,-35.6793893129771,-9.667786303710937,1.158793603515625,0.5243301635742187,11.358778625954198,-5.541984732824427,-20.442748091603054,0.0
10.620000839233398,-12.569558715820312,3.31357509765625,3.6631285400390623,-13.893129770992367,-2.2442748091603053,-32.33587786259542,-10.568006127929687,0.26815058593749996,1.5059528442382812,17.297709923664122,-5.374045801526718,-18.564885496183205,0.0
10.630000829696655,-10.122684619140625,0.6679822631835937,3.337517114257812,-3.068702290076336,-10.961832061068701,-26.015267175572518,-9.018957653808593,0.3902548706054687,1.9823989746093749,15.007633587786259,-13.358778625954198,-21.450381679389313,0.0
10.640001058578491,-10.556035119628906,1.6903063720703124,3.6631285400390623,2.0763358778625953,-14.320610687022901,-27.0381679389313,-8.329427575683594,0.9600748657226562,1.5346832641601562,13.770992366412214,-13.770992366412214,-24.091603053435115,0.0
10.650000810623169,-10.907982763671875,2.9041666137695312,4.972756848144531,-7.541984732824427,-23.0381679389313,-31.17557251908397,-7.467514978027343,1.5059528442382812,1.5155296508789062,3.954198473282443,-14.961832061068701,-24.30534351145038,0.0
10.660000801086426,-10.654197387695312,2.3415292236328122,5.908889697265625,-17.72519083969466,-32.30534351145038,-30.83969465648855,-7.455543969726562,1.3144167114257812,1.47482822265625,-3.3740458015267176,-6.641221374045801,-22.045801526717558,0.0
10.670001029968262,-8.279149340820313,0.928950244140625,4.972756848144531,-14.458015267175572,-42.25954198473283,-26.27480916030534,-7.015010864257812,0.1197100830078125,1.5705962890624998,-11.908396946564885,-2.7480916030534353,-21.129770992366414,0.0
10.680001258850098,-8.17859287109375,-0.3064578125,4.967968444824218,-9.007633587786259,-49.038167938931295,-27.114503816793892,-6.579266162109374,0.01915361328125,1.9488801513671874,-6.854961832061068,-3.8625954198473282,-20.580152671755727,0.0
10.690000772476196,-8.20971749267578,1.7932570434570312,6.232106921386718,-12.717557251908397,-54.80916030534351,-32.916030534351144,-5.57370146484375,0.12449848632812499,1.5514426757812498,-3.954198473282443,-4.687022900763359,-20.916030534351144,0.0
10.700001001358032,-8.875305554199219,1.005564697265625,6.9168485961914055,-26.885496183206108,-70.0,-35.45038167938932,-4.082113830566406,1.2114660400390624,1.8267758666992187,-4.656488549618321,-5.541984732824427,-20.83969465648855,0.0
10.710000991821289,-8.923189587402343,-0.7805097412109374,7.0461354858398435,-23.862595419847327,-86.22900763358778,-33.16030534351145,-3.3399113159179685,1.3383587280273437,1.4413093994140624,-8.885496183206106,-4.3816793893129775,-18.47328244274809,0.0
10.720000982284546,-9.813832604980469,0.09576806640624999,9.543287817382812,-23.557251908396946,-97.7557251908397,-35.465648854961835,-2.0159177978515626,2.4516625,1.1611878051757811,-18.48854961832061,-5.557251908396947,-17.51145038167939,0.0
10.730000734329224,-10.20169327392578,-0.842758984375,10.47702646484375,-25.068702290076335,-121.34351145038168,-35.51145038167939,-0.5817910034179687,3.2704794677734372,0.373495458984375,-29.450381679389313,3.3893129770992365,-13.664122137404581,0.0
10.74000072479248,-11.425130322265625,-1.197100830078125,11.322179650878905,-16.564885496183205,-143.80152671755727,-34.82442748091603,0.7852981445312499,3.902548706054687,-2.370259643554687,-34.30534351145038,3.1908396946564888,-10.106870229007633,0.0
10.750000715255737,-11.226411584472656,-0.8810662109374999,11.781866369628906,-8.641221374045802,-173.5114503816794,-36.51908396946565,-3.801992236328125,1.4820108276367188,0.5626373901367188,-47.19083969465649,11.038167938931299,-9.435114503816793,0.0
10.760000944137573,-12.366051574707031,1.2689268798828124,10.87925234375,-6.412213740458015,-195.49618320610688,-41.61832061068702,-8.927977990722656,-0.36152445068359373,3.0741549316406247,-43.70992366412214,10.106870229007633,-19.709923664122137,0.0
10.77000093460083,-12.993332409667968,2.0542250244140625,7.972691528320312,-4.106870229007634,-219.23664122137404,-40.18320610687023,-18.35394992675781,-1.8626888916015625,3.1555577880859373,-33.38931297709924,30.106870229007633,-29.206106870229007,0.0
10.780000925064087,-14.221557861328124,-1.1420341918945311,5.0014872680664055,26.625954198473284,-227.48091603053436,-23.14503816793893,-27.902026147460937,0.016759411621093748,0.3184288208007812,-11.725190839694656,31.297709923664122,-24.213740458015266,0.0
10.790000677108765,-17.64526623535156,-3.0023288818359375,2.849099975585937,83.0381679389313,-217.70992366412213,-3.114503816793893,-24.07609189453125,6.4834980957031245,-0.3758896606445312,-23.72519083969466,24.0,0.3053435114503817,0.0
10.8000009059906,-24.167071557617184,1.6304513305664061,1.1444283935546875,124.44274809160305,-200.74809160305344,20.80916030534351,-14.386757775878905,6.725312463378906,-0.5315127685546874,-63.02290076335878,4.564885496183206,26.53435114503817,0.0
10.810001134872437,-24.473529370117188,7.589619262695312,-1.3814543579101561,122.18320610687023,-197.17557251908397,49.37404580152672,-9.124302526855468,-0.7350199096679687,0.6775590698242188,-105.69465648854961,1.8015267175572518,35.6793893129771,0.0
10.820001125335693,-20.834342846679686,9.557653027343749,-2.844311572265625,70.3969465648855,-197.98473282442748,68.4885496183206,-6.380547424316406,-6.739677673339843,-1.678335363769531,-91.09923664122137,-2.8396946564885495,25.14503816793893,0.0
10.830000877380371,-19.519926135253904,6.7085530517578125,-3.337517114257812,2.427480916030534,-198.13740458015266,73.77099236641222,-6.203376501464843,-11.918335864257811,-3.5482068603515624,-77.20610687022901,-4.67175572519084,12.534351145038167,0.0
10.840000867843628,-16.65646094970703,1.3670891479492187,-2.327164013671875,-43.3587786259542,-196.61068702290078,75.7557251908397,-7.182604980468749,-11.992556115722655,-5.4515971801757805,-31.31297709923664,-3.9236641221374047,-1.6793893129770991,0.0
10.850000858306885,-15.892710620117187,-0.29927520751953124,1.5753846923828123,-50.0,-184.5648854961832,72.25954198473282,-7.618349682617187,-8.25520732421875,-7.275978845214843,-11.816793893129772,-0.7938931297709924,-15.297709923664122,0.0
10.86000108718872,-12.854468713378905,0.02633621826171875,6.344634399414062,-41.00763358778626,-177.34351145038167,75.64885496183206,-6.471527087402343,-2.454056701660156,-9.835380419921874,-20.3206106870229,14.16793893129771,-23.374045801526716,0.0
10.870000839233398,-10.922347973632812,-1.3287819213867187,8.147468249511718,-33.3587786259542,-172.19847328244273,78.59541984732824,-10.766724865722656,-5.092466931152344,-5.310339282226562,-29.14503816793893,40.80916030534351,-14.687022900763358,0.0
10.880000829696655,-9.09796630859375,-3.2154128295898436,5.236119030761718,-29.83206106870229,-169.06870229007635,77.86259541984732,-5.099649536132812,19.218256726074216,-11.585541833496093,0.4122137404580153,61.02290076335878,-27.236641221374047,0.0
10.890000820159912,-10.120290417480469,-1.936909143066406,2.877830395507812,-31.0381679389313,-171.84732824427482,73.46564885496183,-7.9272016967773435,9.368511096191405,-10.137049829101562,-118.19847328244275,113.96946564885496,0.9618320610687023,0.0
10.900001049041748,-9.6917283203125,-3.7612908081054686,1.2904746948242187,-29.87786259541985,-180.51908396946564,75.37404580152672,-11.774683764648437,5.4515971801757805,-6.330269189453125,-94.83969465648855,146.793893129771,32.412213740458014,0.0
10.910000562667847,-11.626243261718749,-4.912901806640625,3.239354846191406,-15.740458015267176,-177.16030534351145,67.80152671755725,-11.738770739746093,-3.3446997192382812,-5.84185205078125,-102.79389312977099,159.86259541984734,52.74809160305343,0.0
10.92000126838684,-9.579200842285156,-6.969521032714844,2.6527754394531247,6.824427480916031,-179.58778625954199,62.01526717557252,-1.5634136840820312,6.545747338867187,-9.900023864746093,-66.9618320610687,144.7175572519084,35.48091603053435,0.0
10.93000078201294,-9.955090502929687,-3.0980969482421874,3.8043864379882812,22.458015267175572,-168.83969465648855,48.916030534351144,-10.05564697265625,-3.3877953491210935,-4.031835595703125,-94.85496183206106,184.33587786259542,41.55725190839695,0.0
10.940001010894775,-5.415684155273437,-4.967968444824218,1.0390835205078124,26.106870229007633,-170.41221374045801,41.37404580152672,-7.548917834472656,-6.921636999511718,-2.176329309082031,-33.81679389312977,163.93893129770993,35.61832061068702,0.0
10.950001001358032,-4.44363828125,-5.003881469726562,0.1771709228515625,27.17557251908397,-161.7709923664122,29.31297709923664,-8.623914379882812,-5.9974751586914055,-0.74699091796875,23.282442748091604,153.6030534351145,29.099236641221374,0.0
10.960001230239868,-2.0350714111328125,-4.958391638183594,0.9026140258789062,35.05343511450382,-151.57251908396947,17.923664122137403,-8.453926062011718,-2.5857377929687497,-1.2378022583007813,54.732824427480914,142.0916030534351,20.15267175572519,0.0
10.970000743865967,-3.1028853515624997,-3.5817256835937497,0.9409212524414062,40.97709923664122,-136.06106870229007,5.297709923664122,-9.081206896972656,1.7118541870117185,-1.4604630126953124,58.54961832061068,132.45801526717557,12.534351145038167,0.0
10.980001211166382,-0.33518823242187495,-3.957615344238281,-0.08379705810546874,49.20610687022901,-124.80916030534351,2.2748091603053435,-7.601590270996093,3.81156904296875,0.41898529052734373,32.595419847328245,127.61832061068702,13.267175572519085,0.0
10.99000096321106,-2.0781670410156248,-1.3910311645507811,-1.1755530151367186,57.465648854961835,-107.09923664122137,0.7938931297709924,-8.616731774902343,0.5219359619140624,3.105279553222656,31.587786259541986,128.93129770992365,18.671755725190838,0.0
11.000000953674316,-0.3447650390625,-0.9313444458007812,-1.6304513305664061,69.5114503816794,-92.2442748091603,8.091603053435115,-9.423577734375,1.3551181396484375,4.115632653808594,39.32824427480916,124.93129770992367,18.717557251908396,0.0
11.010000944137573,-2.1643583007812497,1.3263877197265623,-1.5442600708007812,67.63358778625954,-79.22137404580153,9.679389312977099,-9.854534033203125,1.1707646118164061,4.304774584960938,19.114503816793892,122.16793893129771,19.31297709923664,0.0
11.020000696182251,0.3495534423828125,0.42377369384765623,-1.7525556152343749,72.56488549618321,-70.13740458015268,16.137404580152673,-12.373234179687499,-5.693411547851563,7.841010437011718,28.793893129770993,110.50381679389314,21.0381679389313,0.0
11.030000925064087,-2.013523596191406,4.630386010742187,-0.4955997436523437,70.90076335877863,-51.63358778625954,17.984732824427482,-14.398728784179687,-4.110844250488281,9.210493786621093,41.81679389312977,87.57251908396947,13.236641221374045,0.0
11.040000915527344,-0.10295067138671875,5.882553479003906,-0.612915625,58.6412213740458,-48.93129770992366,26.12213740458015,-15.732299108886718,-0.8714894042968749,7.740453967285156,33.23664122137404,62.44274809160305,9.969465648854962,0.0
11.050001621246338,-1.1109095703125,10.117896215820313,1.915361328125,41.25190839694657,-32.61068702290076,32.93129770992366,-14.535198278808593,-1.01514150390625,6.591237170410156,18.732824427480917,44.900763358778626,8.091603053435115,0.0
11.060001134872437,0.3902548706054687,9.236830004882812,1.8914193115234375,7.312977099236641,-25.267175572519083,41.70992366412214,-13.136984509277344,-2.896984008789062,5.985504150390625,7.969465648854962,37.465648854961835,11.801526717557252,0.0
11.070001363754272,-0.7326257080078125,9.612719665527344,3.450044592285156,-20.9618320610687,-7.190839694656488,45.38931297709924,-11.422736120605467,-0.603338818359375,3.1555577880859373,10.763358778625955,34.82442748091603,11.633587786259541,0.0
11.080000877380371,0.45968671875,6.081272216796875,3.1076737548828124,-48.51908396946565,1.0229007633587786,48.229007633587784,-11.121066711425781,-4.388571643066406,5.418078356933593,-5.190839694656488,35.48091603053435,18.16793893129771,0.0
11.090000629425049,-0.36152445068359373,5.343858105468749,3.9312791259765625,-71.05343511450381,15.664122137404581,44.48854961832061,-8.78432589111328,1.9297265380859374,-1.1468225952148436,32.82442748091603,29.221374045801525,12.045801526717558,0.0
11.100000619888306,3.6176387084960937,0.055066638183593745,2.1452046874999997,-70.62595419847328,32.900763358778626,46.16793893129771,-9.634267480468749,0.4070142822265625,-2.0638018310546875,-16.3206106870229,36.045801526717554,18.702290076335878,0.0
11.110000610351562,6.514622717285156,-5.329492895507812,-0.9097966308593749,-46.01526717557252,64.03053435114504,39.74045801526717,-10.625466967773438,-0.7302315063476562,-2.1356278808593747,-10.030534351145038,37.11450381679389,17.404580152671755,0.0
11.12000060081482,2.6719290527343746,-6.481103894042969,-0.7206546997070312,-27.053435114503817,96.2442748091603,26.65648854961832,-13.048399047851563,-2.8514941772460936,-1.189918225097656,-16.977099236641223,43.404580152671755,17.435114503816795,0.0
11.130001068115234,-12.94065997314453,-7.702146740722656,27.913997155761717,6.351145038167939,93.5114503816794,30.427480916030536,-12.880804931640624,0.4165910888671875,-2.1547814941406247,-37.05343511450382,38.961832061068705,9.587786259541986,0.0
11.140001058578491,-27.846959509277344,-0.0718260498046875,39.22540289916992,117.74045801526718,56.656488549618324,50.595419847328245,-16.37394515380859,-5.303156677246093,1.2761094848632812,-39.587786259541986,38.0763358778626,14.229007633587786,0.0
11.150000810623169,-20.25734024658203,7.187393383789062,10.635043774414061,128.54961832061068,73.14503816793894,58.961832061068705,-13.977349291992187,-0.373495458984375,-1.7860744384765623,-22.106870229007633,18.442748091603054,8.549618320610687,0.0
11.160001277923584,-14.35802735595703,15.306131213378904,-12.061987963867187,26.16793893129771,26.99236641221374,-0.4732824427480916,-15.729904907226562,-3.7804444213867185,-0.26336218261718747,-25.96946564885496,16.045801526717558,18.137404580152673,0.0
11.170001029968262,-2.9376854370117185,0.3854664672851562,1.2306196533203124,-19.908396946564885,25.16030534351145,12.0,-16.436194396972656,-0.5482721801757812,-1.9800047729492187,-20.015267175572518,4.152671755725191,15.694656488549619,0.0
11.18000054359436,-0.7709329345703124,-3.361459130859375,7.706935144042968,-23.282442748091604,51.48091603053435,22.549618320610687,-21.248539733886716,-0.8858546142578124,-0.6105214233398437,-22.83969465648855,0.42748091603053434,25.740458015267176,0.0
11.190001010894775,-3.153163586425781,-3.775656018066406,-0.33758243408203126,-8.16793893129771,86.30534351145039,15.282442748091603,-21.727380065917966,0.02633621826171875,-3.114856359863281,-4.076335877862595,-19.14503816793893,27.66412213740458,0.0
11.200000762939453,-7.9104422851562495,-8.334215979003906,4.565742565917969,0.2900763358778626,94.8854961832061,4.67175572519084,-19.982007055664063,0.5051765502929687,-2.0446482177734375,16.99236641221374,-25.480916030534353,30.763358778625953,0.0
11.210000991821289,-7.800309008789062,-8.832209924316405,3.5960908935546874,77.70992366412214,126.54961832061069,-7.083969465648855,-15.265429785156249,4.472368701171875,-2.9496564453125,18.68702290076336,-47.70992366412214,24.977099236641223,0.0
11.220001220703125,-9.246406811523437,-1.9488801513671874,4.951209033203125,104.51908396946565,134.25954198473283,-22.16793893129771,-14.726734411621093,3.392583752441406,-0.51714755859375,5.648854961832061,-50.229007633587784,25.709923664122137,0.0
11.230000972747803,-15.425841296386718,4.283226770019531,3.5122938354492184,102.07633587786259,139.40458015267177,-32.76335877862596,-14.07790576171875,1.5322890624999999,0.8786720092773437,3.114503816793893,-65.64885496183206,25.938931297709924,0.0
11.24000072479248,-10.943895788574219,3.038241906738281,0.05027823486328125,84.8854961832061,119.48091603053435,-24.9618320610687,-13.17050333251953,0.47644613037109373,0.8307879760742187,-10.641221374045802,-77.23664122137404,23.938931297709924,0.0
11.250000953674316,-10.297461340332031,4.833893151855468,2.185906115722656,77.77099236641222,129.75572519083968,-32.25954198473283,-12.021286535644531,-1.7908628417968748,-0.6775590698242188,-14.748091603053435,-81.38931297709924,20.366412213740457,0.0
11.260001182556152,-3.277662072753906,-5.2624552490234375,-6.354211206054687,92.29007633587786,126.16793893129771,-20.091603053435115,-11.592724438476562,-1.6927005737304686,-2.655169641113281,-8.259541984732824,-83.57251908396947,9.007633587786259,0.0
11.27000093460083,-6.8593877563476555,-0.6200982299804687,-1.5634136840820312,137.58778625954199,165.14503816793894,-34.213740458015266,-9.816226806640625,-0.36631285400390623,-5.9400143188476555,-11.709923664122137,-73.81679389312977,0.5343511450381679,0.0
11.280001163482666,-11.161768139648437,6.586448767089843,-0.7110778930664062,127.3587786259542,171.4198473282443,-49.41984732824427,-9.284714038085937,0.6607996582031249,-9.543287817382812,-7.236641221374046,-56.656488549618324,-3.5419847328244276,0.0
11.290000677108765,-18.26536446533203,11.93270107421875,2.748543505859375,87.09923664122137,167.26717557251908,-53.02290076335878,-10.127473022460936,0.3447650390625,-9.45470235595703,-6.488549618320611,-37.06870229007634,-1.9236641221374047,0.0
11.300000429153442,-17.544709765624997,11.942277880859374,4.209006518554688,14.854961832061068,144.793893129771,-53.00763358778626,-11.10191309814453,-1.5155296508789062,-8.441955053710936,9.557251908396946,-31.938931297709924,-3.618320610687023,0.0
11.3100004196167,-12.780248461914061,8.343792785644531,2.0278888061523435,-36.29007633587786,119.48091603053435,-44.030534351145036,-9.880870251464843,-1.917755529785156,-6.912060192871094,1.9236641221374047,-27.87786259541985,-4.854961832061068,0.0
11.320000648498535,-9.648632690429688,1.5370774658203123,-0.016759411621093748,-45.83206106870229,114.50381679389314,-36.74809160305343,-10.424354028320312,-2.5330653564453125,-5.090072729492187,18.778625954198475,-26.244274809160306,-8.992366412213741,0.0
11.330001592636108,-8.74601866455078,-1.2880804931640624,0.28490999755859375,-27.603053435114504,123.09923664122137,-37.12977099236641,-9.631873278808593,-0.6464344482421874,-3.77326181640625,30.27480916030534,-29.251908396946565,-12.83969465648855,0.0
11.340001344680786,-6.847416748046874,-2.408566870117187,0.13168109130859373,-9.603053435114504,135.31297709923663,-40.06106870229008,-8.815450512695312,-0.258573779296875,-2.1619640991210938,49.06870229007634,-34.10687022900763,-15.114503816793894,0.0
11.350001335144043,-8.604760766601562,-2.2553379638671873,0.9002198242187499,5.755725190839694,147.0229007633588,-47.80152671755725,-8.355763793945313,1.235408056640625,-0.7733271362304687,62.06106870229008,-41.20610687022901,-19.374045801526716,0.0
11.360000610351562,-10.517727893066406,2.887407202148437,2.942473840332031,1.9389312977099236,152.50381679389312,-58.16793893129771,-8.224082702636718,2.3870190551757813,0.033518823242187495,53.43511450381679,-44.74809160305343,-19.66412213740458,0.0
11.370001077651978,-9.141061938476563,2.480392919921875,1.7741034301757812,-10.244274809160306,147.87786259541986,-56.229007633587784,-8.106766821289062,2.616862414550781,0.8283937744140625,44.961832061068705,-49.00763358778626,-18.50381679389313,0.0
11.380001068115234,-10.781090075683593,4.244919543457031,2.2170307373046874,-22.47328244274809,143.49618320610688,-55.038167938931295,-8.652644799804687,0.9983820922851562,1.707065783691406,41.725190839694655,-50.74809160305343,-15.17557251908397,0.0
11.390000820159912,-7.999027746582031,2.0278888061523435,1.4125789794921875,-24.763358778625953,137.61832061068702,-49.083969465648856,-7.671022119140624,2.214636535644531,1.3192051147460937,38.74809160305343,-60.396946564885496,-16.412213740458014,0.0
11.400001525878906,-12.380416784667968,7.709329345703124,4.541800549316406,-41.87786259541985,137.74045801526717,-50.93129770992366,-8.17141026611328,1.8195932617187498,1.0007762939453124,26.900763358778626,-60.01526717557252,-13.267175572519085,0.0
11.410001039505005,-7.917624890136718,1.6807295654296874,2.152387292480469,-64.62595419847328,114.61068702290076,-37.12977099236641,-7.9655089233398435,1.3239935180664062,0.5698199951171875,26.595419847328245,-66.01526717557252,-12.610687022900763,0.0
11.420000553131104,-14.772224243164061,6.2009822998046875,4.893748193359374,-72.67175572519083,114.27480916030534,-38.30534351145038,-6.931213806152344,1.9416975463867185,1.1827356201171875,18.48854961832061,-68.0,-9.374045801526718,0.0
11.43000078201294,-8.722076647949219,0.17477672119140625,3.31357509765625,-71.1145038167939,103.43511450381679,-25.480916030534353,-7.551312036132812,1.438915197753906,0.7302315063476562,14.564885496183207,-72.50381679389314,-7.816793893129771,0.0
11.440001249313354,-11.271901416015623,0.9600748657226562,4.034229797363281,-74.80916030534351,90.10687022900764,-24.244274809160306,-6.9910688476562495,1.6400281372070311,0.8116343627929687,12.946564885496183,-72.85496183206106,-5.1603053435114505,0.0
11.450000762939453,-8.360552197265624,-1.7477672119140624,2.7533319091796873,-60.94656488549618,90.04580152671755,-19.587786259541986,-7.781155395507812,0.35194764404296874,0.35194764404296874,11.236641221374045,-77.8473282442748,-2.8091603053435112,0.0
11.46000075340271,-11.054029064941405,3.545812658691406,6.1626750732421876,-68.93129770992367,85.64885496183206,-26.778625954198475,-7.922413293457031,0.2920926025390625,0.26815058593749996,13.740458015267176,-79.2824427480916,-2.0763358778625953,0.0
11.470000505447388,-9.86411083984375,-0.37828386230468747,3.162740393066406,-69.96946564885496,73.83206106870229,-20.076335877862597,-7.520187414550781,0.2537853759765625,-0.10295067138671875,23.00763358778626,-84.59541984732824,-0.24427480916030533,0.0
11.480001211166382,-12.014103930664062,3.2345664428710936,5.374982727050781,-57.20610687022901,79.58778625954199,-22.061068702290076,-7.278373046874999,0.7541735229492187,-0.9696516723632812,23.389312977099237,-84.91603053435115,1.3587786259541985,0.0
11.49000096321106,-9.469067565917967,0.9217676391601562,2.839523168945312,-66.2442748091603,68.04580152671755,-18.229007633587788,-7.3094976684570305,0.8475473876953125,-1.2497732666015624,30.045801526717558,-85.61832061068702,2.9160305343511452,0.0
11.500000476837158,-10.563217724609375,1.8100164550781248,3.6487633300781246,-47.541984732824424,71.26717557251908,-18.213740458015266,-7.40526573486328,0.3854664672851562,-1.5514426757812498,28.076335877862597,-78.59541984732824,6.106870229007634,0.0
11.510000944137573,-9.648632690429688,0.4165910888671875,2.7198130859375,-39.98473282442748,68.77862595419847,-15.84732824427481,-7.735665563964844,0.7948749511718749,-1.93451494140625,35.80152671755725,-81.49618320610686,7.114503816793893,0.0
11.520000696182251,-8.391676818847655,-0.5027823486328125,2.786850732421875,-11.129770992366412,72.3206106870229,-12.83969465648855,-7.692569934082031,1.149216796875,-1.9919757812499999,30.47328244274809,-74.42748091603053,8.274809160305344,0.0
11.530001401901245,-12.191274853515624,-0.47884033203125,4.335899206542969,-12.534351145038167,69.6030534351145,-15.312977099236642,-8.74601866455078,1.649604943847656,-1.4939818359375,34.396946564885496,-76.30534351145039,8.778625954198473,0.0
11.540000677108765,-11.03248125,-1.3311761230468748,3.852270471191406,12.67175572519084,66.94656488549619,-15.068702290076336,-8.02536396484375,2.133233679199219,-1.5658078857421873,22.564885496183205,-69.5114503816794,8.702290076335878,0.0
11.550001382827759,-10.352527978515624,-1.216254443359375,3.5098996337890624,30.702290076335878,65.64885496183206,-21.374045801526716,-8.865728747558594,1.1156979736328125,-0.7996633544921875,18.641221374045802,-66.9618320610687,8.595419847328245,0.0
11.560000896453857,-10.639832177734375,0.8212111694335937,2.798821740722656,43.404580152671755,61.603053435114504,-25.984732824427482,-7.785943798828124,2.252943762207031,-1.4604630126953124,11.725190839694656,-63.02290076335878,6.809160305343512,0.0
11.570001363754272,-11.250353601074218,2.5450363647460934,2.6288334228515624,46.54961832061068,58.18320610687023,-26.12213740458015,-8.413224633789062,1.6160861206054686,-0.6248866333007812,2.8091603053435112,-55.725190839694655,7.526717557251908,0.0
11.580000638961792,-11.513715783691406,3.327940307617187,2.521094348144531,41.541984732824424,53.02290076335878,-25.6793893129771,-9.660603698730467,-0.2705447875976562,-0.3591302490234375,6.549618320610687,-54.33587786259542,7.679389312977099,0.0
11.590003967285156,-11.176133349609374,3.4332851806640625,1.7429788085937499,33.17557251908397,43.66412213740458,-23.66412213740458,-9.919177478027343,0.17238251953125,-1.0223241088867188,13.923664122137405,-55.954198473282446,4.396946564885496,0.0
11.600000619888306,-10.927136376953124,3.775656018066406,1.1444283935546875,27.64885496183206,37.52671755725191,-20.885496183206108,-9.560047229003906,0.7661445312499999,-0.737414111328125,6.763358778625954,-51.11450381679389,2.9770992366412212,0.0
11.61000108718872,-11.470620153808593,3.4763808105468748,0.7757213378906249,17.129770992366414,32.961832061068705,-18.763358778625953,-10.728417639160156,0.16041151123046873,-0.6392518432617187,10.549618320610687,-49.61832061068702,4.473282442748092,0.0
11.620001077651978,-9.746794958496093,2.798821740722656,-0.076614453125,14.106870229007633,28.53435114503817,-17.19083969465649,-10.869675537109375,-0.488417138671875,-0.7398083129882812,18.99236641221374,-51.19083969465649,4.320610687022901,0.0
11.630000591278076,-9.708487731933593,2.868253588867187,-0.3758896606445312,3.145038167938931,26.778625954198475,-17.66412213740458,-9.198522778320312,1.388636962890625,-0.7996633544921875,10.473282442748092,-52.213740458015266,0.6106870229007634,0.0
11.640001058578491,-10.026916552734374,2.8706477905273435,-0.34715924072265625,1.282442748091603,32.76335877862596,-17.66412213740458,-9.976638317871092,0.6416460449218749,-0.040701428222656245,7.343511450381679,-41.465648854961835,0.9770992366412213,0.0
11.650000810623169,-11.068394274902342,2.27927998046875,-0.040701428222656245,-4.687022900763359,36.0763358778626,-17.6793893129771,-10.1131078125,0.00239420166015625,-0.2346317626953125,14.83969465648855,-42.54961832061068,-1.2061068702290076,0.0
11.660000801086426,-10.998962426757812,2.370259643554687,-0.2609679809570312,-8.625954198473282,34.961832061068705,-20.091603053435115,-8.729259252929687,1.70467158203125,-0.08140285644531249,11.511450381679388,-40.595419847328245,-6.717557251908397,0.0
11.670001029968262,-11.820173596191406,1.8124106567382812,0.967257470703125,-16.53435114503817,34.58015267175573,-22.18320610687023,-8.034940771484374,2.73896669921875,-1.0941501586914062,1.7251908396946565,-28.33587786259542,-9.267175572519085,0.0
11.680001020431519,-11.051634863281249,1.8004396484374998,1.254561669921875,-16.061068702290076,31.236641221374047,-22.946564885496183,-9.239224206542968,0.1197100830078125,0.9816226806640624,-9.893129770992367,-22.458015267175572,-6.412213740458015,0.0
11.690000534057617,-11.494562170410155,2.0302830078125,1.5466542724609373,-20.763358778625953,26.106870229007633,-25.435114503816795,-9.617508068847656,-0.3447650390625,0.06703764648437499,-4.351145038167939,-22.12213740458015,-9.725190839694656,0.0
11.700000762939453,-10.927136376953124,2.224213342285156,1.350329736328125,-20.68702290076336,20.3206106870229,-24.931297709923665,-9.785102185058593,-0.9002198242187499,1.0319009155273438,-1.786259541984733,-24.137404580152673,-12.610687022900763,0.0
11.71000051498413,-10.78348427734375,2.81558115234375,1.7549498168945312,-25.862595419847327,16.82442748091603,-25.19083969465649,-9.536105212402344,-0.1005564697265625,1.637633935546875,1.5267175572519085,-23.083969465648856,-14.534351145038167,0.0
11.720000982284546,-10.012551342773437,1.6065093139648436,2.2002713256835937,-25.099236641221374,12.793893129770993,-22.091603053435115,-8.724470849609375,0.12210428466796874,2.0254946044921875,-4.366412213740458,-22.580152671755727,-15.877862595419847,0.0
11.730001211166382,-10.615890161132812,2.3870190551757813,2.990357873535156,-28.870229007633586,10.67175572519084,-23.068702290076335,-8.078036401367187,0.6200982299804687,1.4891934326171874,-8.900763358778626,-15.954198473282442,-16.442748091603054,0.0
11.74000096321106,-10.692504614257812,1.6998831787109374,3.5242648437499997,-34.152671755725194,2.50381679389313,-22.732824427480917,-8.406042028808594,-0.948103857421875,1.675941162109375,-15.282442748091603,-13.099236641221374,-16.900763358778626,0.0
11.750000238418579,-9.900023864746093,0.8762778076171874,3.9839515624999997,-26.47328244274809,-3.5114503816793894,-21.72519083969466,-7.864952453613281,-1.0295067138671874,1.2832920898437499,-9.114503816793894,-11.007633587786259,-17.87786259541985,0.0
11.760000705718994,-9.785102185058593,0.6727706665039062,4.376600634765625,-20.85496183206107,-9.389312977099237,-21.908396946564885,-7.204152795410156,-0.4955997436523437,1.6472107421875,-5.923664122137405,-9.816793893129772,-20.412213740458014,0.0
11.770000457763672,-9.888052856445311,0.39743747558593745,4.582501977539062,-13.587786259541986,-16.778625954198475,-22.396946564885496,-6.495469104003906,-0.5817910034179687,0.9097966308593749,-1.1908396946564885,-7.32824427480916,-21.923664122137403,0.0
11.780000686645508,-10.273519323730468,0.8020575561523438,5.667075329589843,-11.48091603053435,-24.290076335877863,-24.977099236641223,-5.817910034179687,0.296881005859375,0.6631938598632812,-0.7786259541984732,-4.351145038167939,-23.862595419847327,0.0
11.790000677108765,-9.68454571533203,0.8259995727539062,6.514622717285156,-9.236641221374045,-34.61068702290076,-26.290076335877863,-5.386953735351562,0.63206923828125,-0.15083470458984374,0.48854961832061067,0.5190839694656488,-25.099236641221374,0.0
11.800000667572021,-10.666168395996094,0.8930372192382812,7.745242370605468,-13.969465648854962,-46.99236641221374,-29.31297709923664,-4.797980126953124,0.7972691528320313,-0.9600748657226562,-2.5343511450381677,2.8091603053435112,-28.885496183206108,0.0
11.810000896453857,-9.801861596679688,-0.3016694091796875,7.8721350585937495,-17.541984732824428,-65.61832061068702,-29.221374045801525,-4.170699291992188,0.7948749511718749,0.6368576416015624,-10.427480916030534,14.290076335877863,-20.9618320610687,0.0
11.820000648498535,-11.188104357910156,-0.05746083984375,9.165003955078124,-16.015267175572518,-81.49618320610686,-31.72519083969466,-3.294421484375,2.3870190551757813,-1.2306196533203124,-16.290076335877863,13.938931297709924,-21.61832061068702,0.0
11.83000135421753,-11.233594189453123,-0.689530078125,10.465055456542968,-19.022900763358777,-103.17557251908397,-33.083969465648856,-2.789244934082031,2.2098481323242187,0.5219359619140624,-25.6793893129771,21.358778625954198,-18.53435114503817,0.0
11.840000629425049,-13.026851232910156,-0.7781155395507812,11.882422839355469,-15.206106870229007,-124.61068702290076,-34.412213740458014,-4.007893579101562,1.9608511596679685,1.2737152832031249,-34.25954198473283,22.396946564885496,-19.96946564885496,0.0
11.850000858306885,-12.943054174804686,-0.1005564697265625,13.510479968261718,-13.19083969465649,-155.45038167938932,-35.770992366412216,-6.591237170410156,1.7932570434570312,1.2928688964843749,-37.343511450381676,29.557251908396946,-18.549618320610687,0.0
11.86000108718872,-14.286201306152343,0.36391865234375,13.685256689453125,-5.32824427480916,-180.73282442748092,-36.6412213740458,-10.005368737792969,1.8267758666992187,1.1252747802734375,-30.732824427480917,37.6793893129771,-15.251908396946565,0.0
11.870001316070557,-15.382745666503906,-1.1659762084960936,11.769895361328125,9.755725190839694,-207.06870229007635,-34.13740458015267,-18.377891943359373,1.697488977050781,2.511517541503906,-13.312977099236642,42.900763358778626,-10.83969465648855,0.0
11.880000829696655,-18.57182227783203,-2.2170307373046874,9.76116016845703,39.465648854961835,-224.793893129771,-28.671755725190838,-18.83279025878906,5.511452221679687,-0.6727706665039062,-13.86259541984733,35.81679389312977,-7.801526717557252,0.0
11.890001058578491,-21.346702001953123,-2.1021090576171875,7.71890615234375,69.55725190839695,-235.78625954198472,-16.83969465648855,-19.043480004882813,4.833893151855468,0.16998831787109375,-30.641221374045802,45.61832061068702,7.679389312977099,0.0
11.900001525878906,-23.269245935058592,-0.3016694091796875,4.338293408203125,102.61068702290076,-241.34351145038167,3.312977099236641,-12.140996618652343,3.9456443359374997,-0.028730419921875,-57.20610687022901,30.671755725190838,18.0,0.0
11.910001039505005,-22.412121740722654,3.162740393066406,0.6009446166992187,115.25190839694656,-241.6030534351145,26.778625954198475,-9.248801013183593,-1.9129671264648436,0.10295067138671875,-78.22900763358778,31.603053435114504,26.259541984732824,0.0
11.92000126838684,-19.574992773437497,5.97592734375,-4.283226770019531,99.17557251908397,-234.8854961832061,51.06870229007634,-6.330269189453125,-4.3430818115234375,-4.110844250488281,-84.65648854961832,20.47328244274809,18.3206106870229,0.0
11.93000054359436,-17.559074975585936,5.741295581054687,-8.664615808105468,47.48091603053435,-229.5114503816794,63.14503816793893,-8.382100012207031,-12.026074938964843,-2.808398547363281,-64.10687022900764,23.435114503816795,13.145038167938932,0.0
11.940001249313354,-15.48809053955078,5.236119030761718,-7.1395093505859375,-14.549618320610687,-221.75572519083968,65.58778625954199,-3.708618371582031,-6.366182214355469,-5.054159704589844,-42.595419847328245,13.694656488549619,-6.5038167938931295,0.0
11.950001001358032,-15.653290454101562,4.094084838867187,-1.3263877197265623,-46.25954198473283,-210.793893129771,67.46564885496183,-6.177040283203125,-4.096479040527344,-6.268019946289062,-77.6030534351145,41.37404580152672,-6.9465648854961835,0.0
11.96000075340271,-13.318943835449218,0.9193734375,8.020575561523437,-28.290076335877863,-197.86259541984734,80.06106870229007,-4.338293408203125,-0.5147533569335937,-12.052411157226562,-88.07633587786259,61.954198473282446,-6.687022900763359,0.0
11.970000982284546,-11.805808386230469,0.08379705810546874,11.02529864501953,-9.206106870229007,-184.1679389312977,84.61068702290076,-10.627861169433594,-1.6472107421875,-6.481103894042969,-130.6412213740458,98.3969465648855,6.961832061068702,0.0
11.980000734329224,-11.853692419433592,-3.447650390625,6.928819604492187,-4.458015267175573,-184.12213740458014,84.94656488549619,-10.256759912109374,0.852335791015625,-5.736507177734374,-84.87022900763358,113.05343511450381,20.48854961832061,0.0
11.99000096321106,-12.389993591308594,-4.726154077148437,2.3415292236328122,6.106870229007634,-187.58778625954199,74.44274809160305,-11.33175645751953,-5.954379528808594,-5.219359619140625,-72.22900763358778,126.35114503816794,30.396946564885496,0.0
12.000000476837158,-12.950236779785156,-4.7884033203125,0.59376201171875,12.381679389312977,-199.12977099236642,61.12977099236641,-2.7533319091796873,6.392518432617187,-8.793902697753905,-44.48854961832061,111.48091603053435,17.297709923664122,0.0
12.010000705718994,-12.248735693359373,-3.0023288818359375,2.2744915771484373,18.061068702290076,-193.95419847328245,48.50381679389313,-8.0062103515625,-2.9759926635742184,-4.786009118652344,-73.3587786259542,149.32824427480915,28.793893129770993,0.0
12.020000696182251,-6.998251452636718,-5.456385583496093,2.942473840332031,19.66412213740458,-195.1145038167939,47.74045801526717,-9.392453112792968,-4.216189123535156,-1.5322890624999999,-8.244274809160306,138.42748091603053,31.557251908396946,0.0
12.030000448226929,-5.437231970214843,-5.298368273925781,1.3814543579101561,25.34351145038168,-183.22137404580153,39.93893129770992,-10.223241088867187,-5.099649536132812,-1.5490484741210937,43.20610687022901,135.6030534351145,31.83206106870229,0.0
12.040000915527344,-3.6942531616210936,-4.896142395019531,-1.37906015625,39.221374045801525,-170.51908396946564,31.129770992366414,-9.4618849609375,0.2920926025390625,-3.6104561035156246,73.22137404580153,120.61068702290076,21.374045801526716,0.0
12.050001621246338,-4.6830584472656245,-3.5051112304687497,-1.8195932617187498,44.29007633587786,-152.18320610687022,20.580152671755727,-9.33978067626953,3.6176387084960937,-2.568978381347656,53.89312977099237,122.09160305343511,18.198473282442748,0.0
12.060001134872437,-3.797203833007812,-3.878606689453125,-2.1883003173828124,43.61832061068702,-142.85496183206106,12.290076335877863,-9.706093530273437,2.521094348144531,0.7733271362304687,43.52671755725191,120.59541984732824,17.923664122137403,0.0
12.07000184059143,-1.9704279663085937,-3.0166940917968748,-1.4700398193359374,45.7557251908397,-128.82442748091603,7.0534351145038165,-9.1554271484375,1.8243816650390623,2.8012159423828122,44.152671755725194,116.4885496183206,17.984732824427482,0.0
12.08000111579895,-0.8403647827148437,-3.1579519897460937,-2.8419173706054686,48.33587786259542,-118.3969465648855,3.8473282442748094,-8.173804467773436,2.952050646972656,1.9656395629882812,23.419847328244273,113.22137404580153,18.47328244274809,0.0
12.090001344680786,0.05985504150390625,-1.6352397338867186,-2.8107927490234372,59.908396946564885,-96.18320610687023,0.6412213740458015,-9.105148913574219,-1.2018892333984375,4.402936853027343,17.81679389312977,111.77099236641222,21.267175572519083,0.0
12.100000381469727,1.139639990234375,-0.33518823242187495,-3.21780703125,62.35114503816794,-81.69465648854961,0.4732824427480916,-11.303026037597656,-3.907337109375,5.566518859863281,28.106870229007633,102.04580152671755,19.893129770992367,0.0
12.110000610351562,1.5490484741210937,2.8203695556640622,-3.047818713378906,72.1526717557252,-62.534351145038165,9.145038167938932,-11.937489477539062,-1.2018892333984375,6.093243225097656,30.229007633587788,83.48091603053435,15.633587786259541,0.0
12.12000060081482,2.5043349365234375,6.2392895263671875,-2.7174188842773437,71.66412213740458,-47.969465648854964,19.053435114503817,-13.481749548339844,-2.6695348510742187,7.975085729980468,27.282442748091604,73.46564885496183,16.9618320610687,0.0
12.130000591278076,1.6352397338867186,11.130643518066405,-0.2920926025390625,51.12977099236641,-32.38167938931298,27.740458015267176,-13.09388887939453,-2.085349645996094,7.1203557373046875,46.33587786259542,50.396946564885496,12.778625954198473,0.0
12.140000581741333,3.2728736694335936,11.463437548828125,0.9241618408203125,20.442748091603054,-24.900763358778626,38.47328244274809,-12.670115185546875,0.7757213378906249,5.267243652343749,34.35114503816794,42.44274809160305,11.770992366412214,0.0
12.15000057220459,1.7525556152343749,10.85291612548828,2.446874096679687,-10.106870229007633,-8.65648854961832,45.725190839694655,-11.142614526367186,0.82360537109375,4.036623999023437,25.69465648854962,34.900763358778626,13.938931297709924,0.0
12.160000562667847,1.8171990600585937,8.176198669433592,1.9225439331054686,-48.534351145038165,2.198473282442748,47.63358778625954,-12.957419384765624,-3.0645781249999997,4.357447021484375,30.977099236641223,36.97709923664122,18.27480916030534,0.0
12.170000791549683,3.4548329956054684,3.902548706054687,1.4508862060546874,-73.57251908396947,17.358778625954198,44.80916030534351,-10.632649572753905,0.4644751220703125,1.0319009155273438,7.709923664122138,35.93893129770992,18.48854961832061,0.0
12.180001020431519,7.740453967285156,-3.0526071166992184,-2.205059729003906,-68.04580152671755,43.6793893129771,42.778625954198475,-11.834538806152343,0.45968671875,-0.8714894042968749,4.5038167938931295,36.045801526717554,17.801526717557252,0.0
12.190000772476196,9.3852705078125,-8.59278975830078,-7.673416320800781,-43.541984732824424,92.93129770992367,28.732824427480917,-10.85291612548828,-0.1292868896484375,-1.6352397338867186,-18.3206106870229,34.88549618320611,16.16793893129771,0.0
12.200000762939453,-1.4030021728515625,-8.949525805664061,-1.9680337646484374,-30.53435114503817,137.00763358778627,13.282442748091603,-12.67250938720703,0.08379705810546874,-1.917755529785156,-26.763358778625953,37.70992366412214,13.633587786259541,0.0
12.21000051498413,-29.32897033691406,-10.156203442382813,39.22540289916992,56.13740458015267,88.0,30.763358778625953,-13.615824841308592,1.9704279663085937,-1.9871873779296874,-40.656488549618324,34.44274809160305,13.16030534351145,0.0
12.220001220703125,-25.86216633300781,-9.270348828125,36.02555238037109,152.2290076335878,53.587786259541986,60.68702290076336,-16.072275744628904,-4.264073156738281,0.086191259765625,-67.41984732824427,29.557251908396946,25.00763358778626,0.0
12.230000495910645,-18.09777034912109,11.314997045898437,-18.236634045410156,113.93893129770993,44.900763358778626,-8.702290076335878,-14.204798449707031,-5.3390697021484375,-0.181959326171875,-19.419847328244273,13.740458015267176,21.938931297709924,0.0
12.24000072479248,-12.81376728515625,10.809820495605468,-6.964732629394531,-13.694656488549619,-1.450381679389313,-22.33587786259542,-15.887922216796873,-6.924031201171875,-1.2018892333984375,-2.549618320610687,7.435114503816794,24.519083969465647,0.0
12.250001192092896,2.906560815429687,-3.0047230834960934,10.445901843261717,-1.4809160305343512,26.595419847328245,-0.10687022900763359,-18.741810595703125,-0.16280571289062498,-1.6400281372070311,4.061068702290076,-12.290076335877863,21.450381679389313,0.0
12.260000467300415,0.5626373901367188,0.3016694091796875,-2.4564509033203126,5.679389312977099,73.0381679389313,-4.290076335877862,-24.18383096923828,-4.742913488769531,-1.0486603271484374,-13.465648854961833,-21.49618320610687,28.580152671755727,0.0
12.270000696182251,-12.504915270996094,-1.9033903198242186,-1.1109095703125,-21.83206106870229,78.65648854961832,-3.2213740458015265,-20.496760412597656,2.5570073730468748,-2.327164013671875,43.86259541984733,-50.68702290076336,18.99236641221374,0.0
12.280000925064087,-7.615955480957031,-7.230489013671875,2.961627453613281,3.4656488549618323,86.53435114503817,-13.511450381679388,-15.349226843261718,6.426037255859375,-4.149151477050781,18.33587786259542,-58.396946564885496,18.47328244274809,0.0
12.290001153945923,-8.396465222167969,-3.356670727539062,0.5291185668945312,24.18320610687023,94.2442748091603,-24.30534351145038,-13.618219042968748,3.897760302734375,-2.91134921875,-0.061068702290076333,-59.969465648854964,21.740458015267176,0.0
12.300000429153442,-5.999869360351562,-6.299144567871093,0.23702596435546874,62.213740458015266,103.93893129770993,-20.931297709923665,-13.295001818847656,0.16998831787109375,-0.4070142822265625,4.061068702290076,-61.29770992366412,27.267175572519083,0.0
12.310000896453857,-11.262324609375,2.231395947265625,2.825157958984375,93.6030534351145,130.50381679389312,-36.0,-11.954248889160155,-0.3280056274414062,-1.7573440185546874,8.595419847328245,-68.13740458015268,22.076335877862597,0.0
12.320000886917114,-7.390900524902343,1.9536685546875,1.3335703247070312,106.3206106870229,126.38167938931298,-31.83206106870229,-11.077971081542968,0.488417138671875,-3.564966271972656,3.7404580152671754,-70.51908396946565,12.82442748091603,0.0
12.33000135421753,-11.080365283203124,5.0014872680664055,2.104503259277344,104.09160305343511,140.4732824427481,-39.099236641221374,-11.212046374511718,-0.09337386474609374,-5.307945080566406,-7.877862595419847,-64.91603053435115,5.786259541984733,0.0
12.340000867843628,-6.744466076660156,2.4564509033203126,-1.898601916503906,95.69465648854961,131.22137404580153,-35.267175572519086,-10.563217724609375,-0.30885201416015623,-7.943961108398437,-6.625954198473282,-53.3587786259542,3.83206106870229,0.0
12.350001096725464,-11.066000073242186,4.242525341796875,0.13407529296874998,101.58778625954199,146.03053435114504,-41.23664122137404,-12.174515441894531,-1.2832920898437499,-6.5960255737304685,4.8396946564885495,-38.396946564885496,6.396946564885496,0.0
12.360000848770142,-15.227122558593749,11.458649145507811,3.1004911499023438,66.22900763358778,139.00763358778627,-50.29007633587786,-12.849680310058593,0.6488286499023437,-6.586448767089843,14.091603053435115,-38.534351145038165,1.4351145038167938,0.0
12.370000839233398,-2.5953145996093747,-2.568978381347656,-3.883395092773437,64.4885496183206,119.81679389312977,-24.885496183206108,-11.307814440917968,-0.13646949462890623,-5.070919116210937,11.32824427480916,-33.7557251908397,-0.3816793893129771,0.0
12.380000591278076,-8.470685473632813,-0.9026140258789062,0.20829554443359374,110.04580152671755,163.9083969465649,-34.61068702290076,-10.067617980957031,-0.469263525390625,-3.9240965209960934,16.061068702290076,-30.763358778625953,-6.229007633587786,0.0
12.390000581741333,-13.66849727783203,9.636661682128906,2.252943762207031,72.73282442748092,166.87022900763358,-58.79389312977099,-10.520122094726561,-0.11013327636718749,-3.21780703125,24.610687022900763,-31.19083969465649,-12.534351145038167,0.0
12.400000810623169,-15.610194824218748,10.04846436767578,3.564966271972656,10.15267175572519,148.9618320610687,-60.79389312977099,-10.350133776855468,0.9864110839843749,-2.6048914062499997,33.221374045801525,-32.97709923664122,-18.427480916030536,0.0
12.410000562667847,-12.208034265136718,6.299144567871093,3.3973721557617185,-36.54961832061068,129.58778625954199,-56.091603053435115,-9.464279162597656,1.6711527587890624,-1.6831237670898436,30.778625954198475,-36.2442748091603,-19.389312977099237,0.0
12.420000553131104,-8.21690009765625,1.1324573852539062,0.5793968017578125,-49.908396946564885,116.35114503816794,-48.13740458015267,-8.341398583984375,3.3399113159179685,-2.655169641113281,29.267175572519083,-39.12977099236641,-19.66412213740458,0.0
12.43000054359436,-8.59997236328125,-0.8571241943359375,0.689530078125,-26.27480916030534,126.47328244274809,-45.465648854961835,-8.458714465332031,1.199495031738281,-0.9050082275390624,22.580152671755727,-40.10687022900763,-14.778625954198473,0.0
12.440000772476196,-8.607154968261717,-2.8227637573242186,0.05746083984375,-5.221374045801527,132.85496183206106,-45.847328244274806,-8.228871105957031,1.1156979736328125,-0.59376201171875,21.206106870229007,-47.404580152671755,-15.679389312977099,0.0
12.450000524520874,-9.121908325195312,-1.4867992309570313,0.5410895751953124,16.30534351145038,141.95419847328245,-48.88549618320611,-7.230489013671875,1.3958195678710936,-1.1372457885742187,21.404580152671755,-47.51145038167939,-18.977099236641223,0.0
12.460000991821289,-10.929530578613281,1.4125789794921875,2.0877438476562498,21.435114503816795,149.38931297709922,-53.908396946564885,-8.269572534179687,-2.6695348510742187,1.5538368774414062,19.17557251908397,-48.76335877862596,-18.366412213740457,0.0
12.470000982284546,-9.121908325195312,3.3399113159179685,1.9297265380859374,19.053435114503817,147.95419847328245,-53.847328244274806,-7.000645654296875,0.9433154541015625,0.031124621582031248,33.541984732824424,-53.541984732824424,-21.053435114503817,0.0
12.480001211166382,-14.259865087890624,11.8369330078125,4.304774584960938,-16.870229007633586,140.04580152671755,-58.13740458015267,-7.156268762207031,1.5466542724609373,0.00718260498046875,19.297709923664122,-48.83969465648855,-17.755725190839694,0.0
12.490000486373901,-10.266336718749999,7.398083129882812,2.7174188842773437,-65.08396946564885,110.91603053435115,-44.10687022900763,-8.073247998046874,1.4700398193359374,-0.32561142578124996,10.01526717557252,-49.45038167938932,-14.16793893129771,0.0
12.500000476837158,-12.425906616210936,8.724470849609375,4.910507604980468,-74.85496183206106,108.67175572519083,-37.9236641221374,-8.386888415527343,-0.2705447875976562,0.6727706665039062,5.893129770992366,-49.16030534351145,-9.32824427480916,0.0
12.510000705718994,-8.74601866455078,0.8906430175781249,1.7788918334960937,-80.56488549618321,95.37404580152672,-24.27480916030534,-8.489839086914062,0.8212111694335937,0.277727392578125,7.694656488549619,-58.412213740458014,-10.51908396946565,0.0
12.520000696182251,-15.744270117187499,5.839457849121094,3.909731311035156,-97.87786259541984,87.87786259541984,-26.061068702290076,-9.567229833984374,-1.5275006591796874,1.7262193969726563,11.19083969465649,-56.595419847328245,-7.511450381679389,0.0
12.530000925064087,-8.597578161621094,-2.7365724975585937,2.1452046874999997,-99.80152671755725,79.05343511450381,-14.763358778625955,-8.609549169921875,0.34237083740234375,-0.033518823242187495,30.35114503816794,-69.40458015267176,-11.786259541984732,0.0
12.540000915527344,-13.019668627929686,3.5386300537109374,6.385335827636719,-87.46564885496183,84.2442748091603,-20.091603053435115,-9.047688073730468,-0.10773907470703124,-0.12689268798828124,32.091603053435115,-69.93893129770993,-10.778625954198473,0.0
12.55000114440918,-9.246406811523437,-1.3670891479492187,3.191470812988281,-95.72519083969466,71.93893129770993,-16.793893129770993,-8.176198669433592,1.4604630126953124,-0.852335791015625,32.85496183206107,-77.16030534351145,-13.404580152671755,0.0
12.560001134872437,-13.836091394042969,2.5139117431640625,6.598419775390624,-90.8854961832061,68.93129770992367,-24.15267175572519,-8.008604553222655,1.3239935180664062,-0.7685387329101562,34.70229007633588,-73.49618320610686,-9.83206106870229,0.0
12.570001125335693,-10.199299072265624,-1.879448303222656,3.3590649291992185,-85.7557251908397,55.11450381679389,-17.389312977099237,-7.994239343261718,1.4006079711914061,-0.8164227661132812,33.404580152671755,-74.33587786259542,-7.801526717557252,0.0
12.580000877380371,-7.805097412109374,-4.69263525390625,1.2521674682617188,-36.79389312977099,62.44274809160305,-10.564885496183207,-6.584054565429687,2.4444798950195312,-1.6017209106445311,26.748091603053435,-72.9618320610687,-6.534351145038168,0.0
12.590000867843628,-10.752359655761719,1.5969325073242187,3.23696064453125,-16.045801526717558,81.55725190839695,-21.541984732824428,-7.153874560546875,0.411802685546875,-1.20667763671875,23.419847328244273,-62.36641221374046,-2.0916030534351147,0.0
12.600000619888306,-9.320627062988281,1.3407529296874998,1.120486376953125,-21.099236641221374,78.50381679389314,-23.557251908396946,-7.474697583007812,1.7118541870117185,-1.3024457031249999,27.31297709923664,-61.14503816793893,-3.0229007633587788,0.0
12.610000848770142,-7.467514978027343,-0.4644751220703125,-1.0031704956054688,-4.0,84.53435114503817,-17.419847328244273,-7.37414111328125,2.2194249389648437,-1.16837041015625,15.648854961832061,-53.98473282442748,-1.3129770992366412,0.0
12.62000060081482,-7.819462622070312,-1.697488977050781,-1.9991583862304687,12.961832061068701,99.37404580152672,-19.19083969465649,-8.456320263671875,1.656787548828125,-0.43574470214843747,11.694656488549619,-50.01526717557252,2.3206106870229006,0.0
12.630000829696655,-12.94065997314453,2.6910826660156246,1.0342951171875,16.53435114503817,111.5114503816794,-32.35114503816794,-9.662997900390625,-0.07900865478515624,0.23223756103515625,12.320610687022901,-49.17557251908397,3.954198473282443,0.0
12.640000820159912,-12.780248461914061,1.8914193115234375,1.6400281372070311,5.358778625954199,97.86259541984732,-31.221374045801525,-9.586383447265625,2.1499930908203124,0.48123453369140623,14.564885496183207,-53.57251908396947,1.099236641221374,0.0
12.650001049041748,-12.140996618652343,2.0638018310546875,2.6575638427734374,6.458015267175573,93.23664122137404,-28.83969465648855,-9.251195214843749,3.0909143432617188,0.5219359619140624,2.381679389312977,-48.47328244274809,3.1755725190839694,0.0
12.660001277923584,-13.306972827148437,3.327940307617187,3.469198205566406,-0.7938931297709924,85.61832061068702,-29.34351145038168,-11.712434521484374,0.44532150878906246,1.0630255371093749,-3.3740458015267176,-51.31297709923664,7.145038167938932,0.0
12.670000791549683,-12.981361401367186,3.536235852050781,3.229778039550781,-6.229007633587786,69.6030534351145,-27.66412213740458,-10.129867224121092,2.0350714111328125,0.4165910888671875,-1.9541984732824427,-58.38167938931298,5.465648854961832,0.0
12.68000054359436,-12.46900224609375,3.7397429931640622,3.028665100097656,-13.48091603053435,56.85496183206107,-24.870229007633586,-10.261548315429687,0.6009446166992187,0.689530078125,-10.381679389312977,-53.69465648854962,6.122137404580153,0.0
12.690001010894775,-12.433089221191405,3.42849677734375,3.6104561035156246,-19.083969465648856,44.80916030534351,-22.763358778625953,-11.389217297363281,-0.8355763793945312,0.7517793212890624,-1.1603053435114503,-58.79389312977099,5.679389312977099,0.0
12.700000762939453,-11.552023010253906,3.239354846191406,3.6487633300781246,-19.419847328244273,33.31297709923664,-20.48854961832061,-9.555258825683593,0.3184288208007812,-0.7278373046875,-2.1374045801526718,-58.33587786259542,0.6870229007633588,0.0
12.710001230239868,-12.014103930664062,1.9512743530273435,3.134009973144531,-16.946564885496183,24.519083969465647,-16.9618320610687,-9.976638317871092,-0.8978256225585937,-0.7948749511718749,2.6106870229007635,-52.19847328244275,0.42748091603053434,0.0
12.720001459121704,-11.295843432617186,0.97683427734375,1.9919757812499999,-13.465648854961833,16.519083969465647,-15.572519083969466,-10.27830772705078,-1.3335703247070312,-1.2210428466796874,13.969465648854962,-51.17557251908397,-1.1297709923664123,0.0
12.730000972747803,-11.449072338867186,1.5155296508789062,2.133233679199219,-8.183206106870228,11.740458015267176,-16.427480916030536,-8.497021691894531,0.086191259765625,-1.458068811035156,13.099236641221374,-46.229007633587784,-5.694656488549619,0.0
12.74000072479248,-10.649408984374999,0.5123591552734374,1.4245499877929686,-5.145038167938932,5.6183206106870225,-15.419847328244275,-9.885658654785155,-0.22505495605468748,-1.9321207397460936,17.66412213740458,-34.85496183206107,-5.267175572519084,0.0
12.750000953674316,-10.244788903808594,0.33039982910156246,0.8212111694335937,7.923664122137405,6.030534351145038,-16.259541984732824,-9.65342109375,0.009576806640625,-0.8690952026367187,24.47328244274809,-33.770992366412216,-5.847328244274809,0.0
12.760000467300415,-10.845733520507812,1.0726023437499999,0.948103857421875,7.00763358778626,4.0458015267175576,-20.16793893129771,-10.390835205078124,0.0,-0.040701428222656245,27.267175572519083,-31.908396946564885,-8.183206106870228,0.0
12.77000093460083,-10.726023437499999,1.2808978881835937,1.3766659545898436,11.557251908396946,3.9389312977099236,-22.519083969465647,-8.836998327636719,1.7860744384765623,0.11013327636718749,21.572519083969464,-27.129770992366414,-10.549618320610687,0.0
12.780001163482666,-11.209652172851563,2.0350714111328125,1.9776105712890624,6.015267175572519,0.4122137404580153,-23.84732824427481,-8.374917407226562,2.5617957763671875,-0.23702596435546874,6.824427480916031,-18.68702290076336,-12.076335877862595,0.0
12.790000677108765,-11.336544860839844,2.252943762207031,2.549824768066406,7.32824427480916,-3.435114503816794,-23.46564885496183,-8.176198669433592,1.216254443359375,0.7948749511718749,-3.5572519083969465,-13.16030534351145,-11.633587786259541,0.0
12.8000009059906,-11.259930407714844,2.152387292480469,2.6695348510742187,2.4427480916030535,-11.053435114503817,-23.572519083969464,-7.977479931640625,0.7948749511718749,0.7565677246093749,-5.358778625954199,-12.702290076335878,-13.511450381679388,0.0
12.810001373291016,-10.651803186035156,2.032677209472656,2.844311572265625,0.6564885496183206,-16.763358778625953,-24.748091603053435,-7.6997525390625,0.7565677246093749,0.6871358764648438,-7.32824427480916,-11.007633587786259,-14.763358778625955,0.0
12.820001125335693,-10.620678564453124,2.8945898071289062,3.380612744140625,-9.053435114503817,-23.34351145038168,-27.984732824427482,-7.029376074218749,1.1875240234375,0.97683427734375,-10.687022900763358,-9.954198473282442,-15.633587786259541,0.0
12.830000877380371,-10.601524951171875,3.1651345947265623,3.9360675292968748,-23.6793893129771,-31.31297709923664,-29.709923664122137,-7.651868505859374,0.02154781494140625,1.43652099609375,-12.687022900763358,-8.244274809160306,-15.145038167938932,0.0
12.840001106262207,-9.289502441406249,3.5242648437499997,3.6535517333984373,-34.229007633587784,-40.3206106870229,-28.885496183206108,-6.696582043457031,0.8259995727539062,0.29927520751953124,-8.595419847328245,-14.82442748091603,-16.38167938931298,0.0
12.850001096725464,-8.413224633789062,2.521094348144531,4.127603662109375,-47.00763358778626,-52.19847328244275,-28.03053435114504,-6.1076084350585935,1.1085153686523437,0.8164227661132812,-14.870229007633588,-11.86259541984733,-16.99236641221374,0.0
12.860000610351562,-9.014169250488282,2.7198130859375,4.7381250854492185,-52.0,-61.221374045801525,-27.908396946564885,-5.4779333984375,1.1180921752929687,1.0726023437499999,-22.83969465648855,-5.938931297709924,-16.106870229007633,0.0
12.870000839233398,-7.781155395507812,1.0726023437499999,5.195417602539062,-57.32824427480916,-73.23664122137404,-25.053435114503817,-5.142745166015625,-0.08140285644531249,0.507570751953125,-21.221374045801525,-3.404580152671756,-14.748091603053435,0.0
12.880001306533813,-8.55448253173828,1.0438719238281249,6.847416748046874,-54.83969465648855,-83.6793893129771,-26.48854961832061,-3.4093431640625,0.5123591552734374,-0.6967126831054687,-19.801526717557252,-0.2748091603053435,-16.885496183206108,0.0
12.890001058578491,-9.311050256347656,-0.6847416748046875,6.931213806152344,-52.61068702290076,-94.35114503816794,-25.480916030534353,-3.8953661010742184,-0.63206923828125,0.10773907470703124,-11.893129770992367,6.213740458015267,-15.19083969465649,0.0
12.900001049041748,-10.670956799316405,0.05746083984375,8.635885388183594,-44.778625954198475,-102.9618320610687,-27.14503816793893,-0.11013327636718749,2.427720483398437,-2.04943662109375,-17.16030534351145,4.549618320610687,-21.114503816793892,0.0
12.910001039505005,-11.145008728027342,-0.5099649536132812,9.641450085449218,-44.88549618320611,-119.54198473282443,-27.053435114503817,-2.3511060302734372,1.4963760375976562,-0.3136404174804687,-34.10687022900763,23.938931297709924,-15.938931297709924,0.0
12.920001029968262,-12.301408129882812,-1.2521674682617188,11.195286962890624,-35.587786259541986,-137.00763358778627,-27.19083969465649,-3.0645781249999997,0.9816226806640624,-1.3000515014648437,-36.396946564885496,22.47328244274809,-14.183206106870228,0.0
12.93000054359436,-12.179303845214843,-2.142810485839844,10.589553942871094,-22.80916030534351,-159.12977099236642,-31.31297709923664,-5.76523759765625,-0.2346317626953125,0.12449848632812499,-37.74045801526717,30.793893129770993,-17.87786259541985,0.0
12.940001010894775,-13.414711901855467,-1.2737152832031249,11.204863769531249,-14.15267175572519,-177.7709923664122,-38.30534351145038,-10.953472595214842,-1.2713210815429687,0.6775590698242188,-37.41984732824427,33.29770992366412,-28.18320610687023,0.0
12.950000524520874,-14.647725756835937,-0.8379705810546875,10.05564697265625,-4.687022900763359,-202.1679389312977,-42.29007633587786,-20.635624108886716,-3.8762124877929685,3.143586779785156,-19.893129770992367,48.94656488549618,-26.65648854961832,0.0
12.96000075340271,-17.673996655273438,-2.099714855957031,9.318232861328125,20.259541984732824,-217.45038167938932,-36.54961832061068,-24.236503405761717,2.6216508178710938,4.1563340820312495,-9.022900763358779,36.82442748091603,-25.328244274809162,0.0
12.970000505447388,-20.980389147949218,-2.5905261962890624,8.89924757080078,66.45801526717557,-226.4732824427481,-19.480916030534353,-21.63161199951172,7.651868505859374,2.521094348144531,-5.038167938931298,32.045801526717554,1.297709923664122,0.0
12.980000734329224,-24.26044542236328,-0.2753331909179687,6.974309436035155,120.4885496183206,-228.65648854961833,6.549618320610687,-14.159308618164061,8.947131604003905,1.1348515869140625,-27.770992366412212,19.66412213740458,24.03053435114504,0.0
12.99000072479248,-23.625981982421873,4.043806604003906,2.8802245971679685,143.58778625954199,-231.31297709923663,35.19083969465649,-10.58476553955078,1.4963760375976562,0.9241618408203125,-54.82442748091603,8.534351145038167,36.80916030534351,0.0
13.000000715255737,-20.62844150390625,7.273584643554687,-3.3710359375,120.82442748091603,-227.6946564885496,61.11450381679389,-6.892906579589844,-2.2577321655273437,-1.0199299072265624,-67.98473282442748,-0.42748091603053434,29.984732824427482,0.0
13.010000705718994,-15.452177514648437,6.679822631835937,-6.53138212890625,49.19083969465649,-225.9236641221374,71.6793893129771,-6.706158850097656,-5.865794067382812,-2.4349030883789062,-71.64885496183206,5.068702290076335,18.946564885496183,0.0
13.020000696182251,-14.362815759277343,3.5242648437499997,-8.250418920898436,-21.14503816793893,-215.84732824427482,68.27480916030534,-5.786785412597656,-5.082890124511718,-6.574477758789062,-76.06106870229007,4.5038167938931295,1.8473282442748091,0.0
13.030000448226929,-12.234370483398436,3.4739866088867184,-3.2824504760742186,-54.48854961832061,-196.76335877862596,66.22900763358778,-7.4962453979492185,-7.800309008789062,-6.418854650878906,-98.09160305343511,34.396946564885496,1.2061068702290076,0.0
13.040000677108765,-11.066000073242186,-1.697488977050781,4.599261389160156,-23.770992366412212,-178.33587786259542,78.0,-3.7301661865234372,-2.0877438476562498,-16.977283972167967,-93.72519083969466,50.01526717557252,-9.557251908396946,0.0
13.05000114440918,-9.619902270507811,-1.1324573852539062,10.793061083984375,7.480916030534351,-154.33587786259542,79.37404580152672,-8.504204296874999,-2.3487118286132813,-6.682216833496093,-152.53435114503816,89.78625954198473,-2.4427480916030535,0.0
13.060000896453857,-10.666168395996094,-2.9568390502929685,7.548917834472656,10.961832061068701,-152.25954198473283,78.13740458015268,-11.25514200439453,-10.261548315429687,-3.2249896362304686,-93.81679389312977,109.19083969465649,18.396946564885496,0.0
13.070000886917114,-13.824120385742187,-2.3223756103515623,3.8857892944335934,11.572519083969466,-159.96946564885496,66.58015267175573,-5.698199951171874,0.06464344482421874,-4.680664245605469,0.5954198473282443,98.47328244274809,13.038167938931299,0.0
13.08000111579895,-14.283807104492187,-1.5562310791015623,0.4955997436523437,8.65648854961832,-170.29007633587787,58.045801526717554,0.6153098266601562,9.291896643066405,-10.867281335449219,-64.80916030534351,109.74045801526718,1.251908396946565,0.0
13.090001106262207,-10.448296044921875,-1.3431471313476562,2.980781066894531,5.267175572519084,-165.58778625954199,56.94656488549618,-10.165780249023436,0.21787235107421873,-3.897760302734375,-92.61068702290076,151.6946564885496,23.267175572519083,0.0
13.100000858306885,-8.346186987304687,-6.332663391113281,2.0829554443359375,-5.587786259541985,-170.01526717557252,57.20610687022901,-9.562441430664062,-2.01112939453125,-4.285620971679688,-33.9236641221374,137.38931297709922,33.908396946564885,0.0
13.11000108718872,-5.166687182617188,-5.255272644042968,2.482787121582031,23.099236641221374,-150.5801526717557,51.49618320610687,-10.09395419921875,-6.904877587890625,-2.8371289672851563,1.8015267175572518,147.96946564885496,38.18320610687023,0.0
13.12000060081482,-3.689464758300781,-7.041347082519531,-0.37828386230468747,31.52671755725191,-151.48091603053436,41.93893129770992,-8.28633194580078,-3.0693665283203124,-3.277662072753906,53.31297709923664,138.99236641221373,28.33587786259542,0.0
13.130000591278076,-3.845087866210937,-5.0206408813476555,-0.3016694091796875,52.93129770992366,-133.61832061068702,29.69465648854962,-9.222464794921875,-1.4101847778320311,0.40940848388671874,76.44274809160305,129.48091603053436,21.557251908396946,0.0
13.140000820159912,-2.020706201171875,-5.317521887207031,-1.3311761230468748,47.41984732824427,-128.19847328244273,17.053435114503817,-8.40125362548828,1.867477294921875,0.5434837768554687,58.80916030534351,116.56488549618321,12.15267175572519,0.0
13.150000810623169,-3.9815573608398434,-2.4971523315429685,0.2825157958984375,50.82442748091603,-110.06106870229007,7.312977099236641,-9.425971936035156,0.8259995727539062,3.9336733276367184,49.43511450381679,108.3969465648855,11.038167938931299,0.0
13.160000801086426,0.19153613281249998,-4.185064501953125,-2.4779987182617185,48.01526717557252,-107.09923664122137,5.557251908396947,-10.184933862304687,1.3335703247070312,6.6510922119140625,55.31297709923664,100.27480916030534,9.282442748091603,0.0
13.170000791549683,-1.254561669921875,-1.4796166259765624,-1.5155296508789062,50.12213740458015,-84.74809160305344,-3.5877862595419847,-10.644620581054687,2.9448680419921875,4.620809204101562,43.49618320610687,88.21374045801527,8.702290076335878,0.0
13.18000054359436,1.8411410766601561,-3.9935283691406247,-4.1563340820312495,57.038167938931295,-74.27480916030534,-3.9389312977099236,-11.21683477783203,2.3726538452148436,4.687846850585937,19.480916030534353,80.3969465648855,10.717557251908397,0.0
13.190000772476196,1.3359645263671873,0.55545478515625,-2.578555187988281,72.61068702290076,-47.19083969465649,-3.877862595419847,-10.93671318359375,1.66636435546875,4.920084411621094,-7.114503816793893,75.63358778625954,12.580152671755725,0.0
13.200001001358032,0.6392518432617187,3.6487633300781246,-1.47482822265625,64.7175572519084,-36.56488549618321,-1.0229007633587786,-14.10903038330078,-4.216189123535156,6.41646044921875,-6.870229007633588,75.89312977099236,19.572519083969464,0.0
13.21000075340271,-0.6392518432617187,7.082048510742187,0.2346317626953125,49.81679389312977,-26.198473282442748,4.717557251908397,-11.6837041015625,-2.252943762207031,4.276044165039062,11.725190839694656,60.0,14.061068702290076,0.0
13.220000505447388,0.4860229370117187,7.618349682617187,1.2401964599609374,33.69465648854962,-22.106870229007633,14.549618320610687,-13.536816186523437,-1.905784521484375,3.323151904296875,24.50381679389313,57.02290076335878,18.732824427480917,0.0
13.230000734329224,-0.6823474731445313,9.258377819824219,3.39018955078125,13.49618320610687,-12.992366412213741,22.931297709923665,-10.287884533691406,-2.2768857788085937,2.6431986328124997,27.64885496183206,47.404580152671755,19.17557251908397,0.0
13.24000096321106,-0.42377369384765623,8.300697155761718,4.613626599121093,-13.099236641221374,-7.862595419847328,26.18320610687023,-11.504138977050781,-5.389347937011719,3.871424084472656,34.51908396946565,41.81679389312977,23.206106870229007,0.0
13.250000476837158,0.6392518432617187,6.665457421875,4.967968444824218,-31.587786259541986,1.3893129770992367,28.213740458015266,-10.1131078125,-2.446874096679687,2.2649147705078123,39.083969465648856,41.725190839694655,22.259541984732824,0.0
13.260000467300415,1.3910311645507811,4.599261389160156,4.733336682128906,-43.083969465648856,12.274809160305344,27.84732824427481,-9.89523546142578,-0.4070142822265625,0.4477157104492187,42.16793893129771,41.86259541984733,20.793893129770993,0.0
13.27000093460083,0.8451531860351562,3.737348791503906,4.0222587890625,-55.43511450381679,21.84732824427481,23.557251908396946,-11.93270107421875,-1.2378022583007813,0.12449848632812499,28.671755725190838,41.969465648854964,22.702290076335878,0.0
13.280000925064087,0.7781155395507812,-0.8571241943359375,5.104437939453125,-44.33587786259542,34.58015267175573,26.580152671755727,-12.564770312499999,-0.4836287353515625,-1.0678139404296874,18.091603053435115,42.412213740458014,22.717557251908396,0.0
13.290001153945923,-8.329427575683594,-3.7421371948242186,25.12714642333984,-5.923664122137405,35.51145038167939,34.717557251908396,-12.097900988769531,2.6527754394531247,-1.3742717529296875,1.618320610687023,40.48854961832061,21.282442748091604,0.0
13.300000667572021,-17.8128603515625,-4.185064501953125,39.22540289916992,73.70992366412214,14.732824427480915,48.091603053435115,-14.044386938476562,-1.5705962890624998,2.408566870117187,-32.88549618320611,35.603053435114504,27.206106870229007,0.0
13.310000896453857,-11.463437548828125,-0.14604630126953125,7.532158422851562,98.82442748091603,26.03053435114504,52.83969465648855,-12.69884560546875,2.384624853515625,-3.0334535034179684,-20.38167938931298,20.946564885496183,19.938931297709924,0.0
13.320000648498535,-7.4770917846679685,4.587290380859375,-11.003750830078124,57.083969465648856,29.893129770992367,12.687022900763358,-11.662156286621093,1.0079588989257813,-3.1507693847656246,-57.541984732824424,19.328244274809162,19.893129770992367,0.0
13.33000111579895,-6.344634399414062,-0.5578489868164063,2.3367408203125,19.282442748091604,33.74045801526717,3.648854961832061,-14.580688110351561,-3.9240965209960934,-2.1883003173828124,-75.58778625954199,23.480916030534353,21.358778625954198,0.0
13.340000867843628,-4.924872814941406,0.6679822631835937,10.594342346191405,59.3587786259542,64.19847328244275,8.65648854961832,-18.511967236328125,-7.429207751464843,-1.7190367919921874,-31.282442748091604,16.916030534351144,22.137404580152673,0.0
13.350001335144043,-4.733336682128906,2.8898014038085935,-1.2042834350585936,59.86259541984733,97.77099236641222,6.351145038167939,-19.273323364257813,-1.467645617675781,-6.291961962890625,-9.022900763358779,-1.297709923664122,10.396946564885496,0.0
13.360000371932983,-2.8131869506835936,-4.410119458007812,0.47884033203125,33.11450381679389,100.35114503816794,9.786259541984732,-19.819201342773436,-1.6400281372070311,-4.92247861328125,-24.091603053435115,-0.916030534351145,13.404580152671755,0.0
13.370000839233398,-10.611101757812499,-3.5769372802734374,2.7940333374023436,63.93893129770992,129.64885496183206,-8.732824427480915,-16.558298681640625,1.4532804077148436,-3.318363500976562,5.1603053435114505,-19.51145038167939,19.328244274809162,0.0
13.380001068115234,-14.329296936035155,3.593696691894531,7.869740856933594,59.70992366412214,127.02290076335878,-18.27480916030534,-16.82166086425781,2.0542250244140625,-3.1771056030273437,-6.870229007633588,-26.38167938931298,24.99236641221374,0.0
13.390000820159912,-17.980454467773438,7.848193041992187,5.9950809570312495,25.64885496183206,119.41984732824427,-21.84732824427481,-15.263035583496093,3.6846763549804686,-2.070984436035156,-10.290076335877863,-37.32824427480916,27.236641221374047,0.0
13.400001525878906,-11.595118640136718,3.0789433349609374,3.976768957519531,1.4045801526717556,100.65648854961832,-13.206106870229007,-16.072275744628904,-1.0941501586914062,0.22505495605468748,-2.122137404580153,-42.44274809160305,35.37404580152672,0.0
13.410000801086426,-10.378864196777343,0.46208092041015625,2.7054478759765623,5.3893129770992365,106.01526717557252,-18.061068702290076,-15.037980627441405,-2.645592834472656,0.15083470458984374,17.893129770992367,-63.603053435114504,31.49618320610687,0.0
13.42000150680542,4.441244079589843,-10.62307276611328,-3.3351229125976563,56.30534351145038,110.62595419847328,-3.816793893129771,-12.476184851074217,0.9911994873046874,-3.2249896362304686,20.091603053435115,-77.8473282442748,19.114503816793892,0.0
13.430001020431519,-4.675875842285156,-7.582436657714843,-1.5322890624999999,134.83969465648855,165.48091603053436,-29.251908396946565,-11.245565197753905,0.6512228515624999,-4.455609289550781,11.526717557251908,-70.87022900763358,9.633587786259541,0.0
13.440000772476196,-9.488221179199218,2.578555187988281,-1.5562310791015623,147.0381679389313,174.77862595419847,-44.87022900763359,-11.382034692382812,0.6607996582031249,-5.813121630859374,8.366412213740459,-63.20610687022901,0.5038167938931297,0.0
13.450001001358032,-14.693215588378905,12.689268798828124,2.70065947265625,111.83206106870229,175.61832061068702,-53.66412213740458,-8.786720092773438,0.8212111694335937,-8.504204296874999,6.580152671755725,-50.54961832061068,-3.9236641221374047,0.0
13.460001230239868,-18.488025219726563,14.870386511230468,5.228936425781249,28.12213740458015,153.4198473282443,-59.23664122137404,-10.931924780273437,-0.07900865478515624,-8.767566479492187,-0.2900763358778626,-30.793893129770993,-4.091603053435114,0.0
13.470000505447388,-14.255076684570312,9.777919580078125,3.912125512695312,-32.83969465648855,120.0,-51.282442748091604,-11.425130322265625,-3.4668040039062498,-6.251260534667968,7.145038167938932,-21.389312977099237,-1.5725190839694656,0.0
13.480000972747803,-9.679757312011718,3.208230224609375,1.7788918334960937,-42.656488549618324,111.89312977099236,-42.29007633587786,-10.579977136230468,-1.5394716674804687,-4.651933825683593,21.16030534351145,-24.3206106870229,-4.763358778625954,0.0
13.490000486373901,-6.6151791870117185,-1.618480322265625,-0.51714755859375,-24.427480916030536,116.07633587786259,-37.66412213740458,-9.488221179199218,2.020706201171875,-4.656722229003906,20.045801526717558,-26.610687022900763,-12.82442748091603,0.0
13.500000715255737,-6.203376501464843,-2.4971523315429685,-1.189918225097656,7.022900763358779,132.19847328244273,-39.86259541984733,-9.459490759277344,1.47482822265625,-2.212242333984375,23.404580152671755,-23.358778625954198,-15.84732824427481,0.0
13.510000944137573,-7.908048083496094,-0.9409212524414062,-0.00718260498046875,24.045801526717558,145.14503816793894,-47.52671755725191,-10.029310754394531,0.9792284790039062,-0.2825157958984375,41.19083969465649,-30.27480916030534,-17.603053435114504,0.0
13.520000696182251,-9.370905297851563,0.3711012573242187,0.05027823486328125,29.81679389312977,153.00763358778627,-54.01526717557252,-9.105148913574219,2.319981408691406,0.09576806640624999,45.61832061068702,-37.17557251908397,-20.625954198473284,0.0
13.530001640319824,-10.455478649902343,2.925714428710937,1.3359645263671873,23.72519083969466,157.57251908396947,-59.06870229007634,-7.805097412109374,4.132392065429687,0.06464344482421874,31.709923664122137,-47.49618320610687,-24.213740458015266,0.0
13.540000677108765,-9.404424121093749,3.383006945800781,1.9919757812499999,10.427480916030534,154.793893129771,-60.68702290076336,-8.336610180664062,3.4931402221679684,1.0510545288085937,6.152671755725191,-51.45038167938932,-20.610687022900763,0.0
13.550000667572021,-9.588777648925781,3.1316157714843746,3.1842882080078123,1.9541984732824427,154.61068702290078,-62.16793893129771,-8.508992700195313,1.707065783691406,1.4867992309570313,-6.076335877862595,-53.541984732824424,-18.33587786259542,0.0
13.560001134872437,-8.372523205566406,0.8164227661132812,1.180341418457031,0.6717557251908397,149.98473282442748,-60.900763358778626,-9.0021982421875,-0.9911994873046874,2.5617957763671875,-8.854961832061068,-60.33587786259542,-15.282442748091603,0.0
13.570000886917114,-9.686939916992188,1.1468225952148436,0.4213794921875,-3.3435114503816794,144.9618320610687,-61.786259541984734,-7.702146740722656,0.5482721801757812,1.024718310546875,-0.030534351145038167,-69.25190839694656,-18.48854961832061,0.0
13.580000638961792,-8.003816149902343,3.1507693847656246,1.8842367065429686,-6.488549618320611,142.36641221374046,-59.87786259541985,-7.237671618652343,0.4955997436523437,0.8379705810546875,2.4122137404580153,-72.85496183206106,-17.49618320610687,0.0
13.590000867843628,-10.369287390136718,1.484405029296875,1.0630255371093749,-6.366412213740458,144.8854961832061,-57.9236641221374,-6.612784985351562,1.618480322265625,0.1149216796875,6.885496183206107,-79.38931297709924,-18.47328244274809,0.0
13.600001096725464,-12.327744348144531,7.8912886718749995,4.73094248046875,-34.656488549618324,138.35114503816794,-63.725190839694655,-7.675810522460937,0.354341845703125,0.4477157104492187,3.572519083969466,-75.83206106870229,-14.992366412213741,0.0
13.610000610351562,-9.244012609863281,2.0829554443359375,3.1004911499023438,-63.43511450381679,111.52671755725191,-54.900763358778626,-7.1395093505859375,1.66636435546875,-0.8643067993164062,2.946564885496183,-83.98473282442748,-15.114503816793894,0.0
13.62000060081482,-15.576676000976562,7.273584643554687,5.413289953613281,-74.19847328244275,106.6412213740458,-52.85496183206107,-7.800309008789062,0.0143652099609375,-0.9409212524414062,-1.618320610687023,-79.46564885496183,-11.603053435114504,0.0
13.630000591278076,-9.880870251464843,0.201112939453125,2.578555187988281,-67.00763358778626,92.61068702290076,-38.82442748091603,-6.9168485961914055,1.22583125,-1.1109095703125,-0.48854961832061067,-85.29770992366412,-11.297709923664122,0.0
13.640000820159912,-11.324573852539062,2.291250988769531,3.8187516479492185,-65.66412213740458,77.37404580152672,-33.20610687022901,-8.267178332519531,-0.5578489868164063,-0.5267243652343749,12.213740458015268,-82.58015267175573,-8.534351145038167,0.0
13.650000810623169,-10.460267053222656,1.0678139404296874,2.7629087158203123,-42.70229007633588,82.7175572519084,-29.0381679389313,-8.262389929199218,-1.1420341918945311,-1.4628572143554686,25.419847328244273,-86.70229007633588,-8.183206106870228,0.0
13.660000562667847,-16.54153927001953,9.904812268066406,6.1818286865234375,-76.97709923664122,69.05343511450381,-38.30534351145038,-8.334215979003906,-0.03591302490234375,-1.8028338500976562,32.595419847328245,-86.94656488549619,-9.236641221374045,0.0
13.670000314712524,-9.679757312011718,3.201047619628906,2.308010400390625,-114.51908396946565,36.62595419847328,-28.38167938931298,-7.838616235351562,2.408566870117187,-2.3535002319335936,33.14503816793893,-91.34351145038168,-8.793893129770993,0.0
13.68000054359436,-13.766659545898436,5.092466931152344,2.7748797241210936,-106.70229007633588,29.603053435114504,-16.65648854961832,-8.37012900390625,1.0821791503906248,-1.2737152832031249,25.114503816793892,-83.61832061068702,-1.465648854961832,0.0
13.690000772476196,-8.832209924316405,-0.181959326171875,0.9792284790039062,-103.6793893129771,19.69465648854962,-1.4045801526717556,-7.898471276855468,1.43652099609375,-0.699106884765625,23.572519083969464,-87.41984732824427,1.465648854961832,0.0
13.700000762939453,-11.3389390625,0.9528922607421875,2.01112939453125,-76.38167938931298,30.213740458015266,-1.1145038167938932,-8.664615808105468,1.448492004394531,-0.11013327636718749,26.33587786259542,-82.44274809160305,4.366412213740458,0.0
13.71000051498413,-8.916006982421875,-1.7812860351562498,0.584185205078125,-58.0,30.290076335877863,2.885496183206107,-7.548917834472656,1.9009961181640624,-0.5746083984375,24.793893129770993,-79.89312977099236,2.854961832061069,0.0
13.720000743865967,-8.315062365722655,-3.9432501342773434,0.5003881469726562,-24.396946564885496,41.86259541984733,-1.3282442748091603,-8.295908752441406,1.6041151123046875,0.3064578125,25.709923664122137,-76.45801526717557,2.6564885496183206,0.0
13.730000495910645,-7.709329345703124,-1.1156979736328125,0.8810662109374999,-24.519083969465647,43.23664122137404,-14.259541984732824,-7.455543969726562,2.319981408691406,-0.1388636962890625,16.198473282442748,-73.0381679389313,-0.42748091603053434,0.0
13.74000096321106,-10.156203442382813,-0.316034619140625,1.659181750488281,-7.893129770992366,50.961832061068705,-19.19083969465649,-8.271966735839843,1.9728221679687499,0.19393033447265623,8.65648854961832,-64.22900763358778,0.32061068702290074,0.0
13.750000953674316,-9.229647399902344,-0.6655880615234374,1.419761584472656,13.526717557251908,57.02290076335878,-19.17557251908397,-9.320627062988281,0.7589619262695312,0.7829039428710937,5.419847328244275,-70.62595419847328,1.3129770992366412,0.0
13.760000705718994,-10.953472595214842,2.3822306518554686,1.8339584716796873,23.709923664122137,59.770992366412216,-22.244274809160306,-8.82263311767578,2.1452046874999997,0.14125789794921875,0.44274809160305345,-67.87786259541984,-1.3893129770992367,0.0
13.770000696182251,-12.399570397949217,3.4524387939453125,2.2936451904296873,15.633587786259541,53.14503816793893,-20.99236641221374,-10.254365710449218,0.8786720092773437,1.5897499023437498,-10.854961832061068,-66.54961832061069,0.44274809160305345,0.0
13.780000686645508,-13.0627642578125,4.378994836425781,3.1699229980468746,0.549618320610687,41.57251908396947,-20.091603053435115,-11.295843432617186,1.0127473022460938,0.9241618408203125,-7.343511450381679,-68.21374045801527,1.465648854961832,0.0
13.790000677108765,-11.441889733886718,2.427720483398437,2.7557261108398436,-5.740458015267175,30.47328244274809,-15.16030534351145,-10.376469995117187,2.042254016113281,0.469263525390625,-6.702290076335878,-71.7557251908397,1.1297709923664123,0.0
13.800000667572021,-10.503362683105468,1.9847931762695312,1.6232687255859375,-12.534351145038167,21.72519083969466,-13.893129770992367,-9.382876306152344,2.9735984619140625,-0.1005564697265625,-17.0381679389313,-69.61832061068702,0.1984732824427481,0.0
13.810001134872437,-10.007762939453125,0.7230489013671875,0.9888052856445312,-10.305343511450381,18.076335877862597,-12.870229007633588,-10.70686982421875,0.5865794067382812,0.26815058593749996,-22.35114503816794,-64.4885496183206,3.9236641221374047,0.0
13.820000648498535,-10.117896215820313,1.0630255371093749,0.8164227661132812,-16.900763358778626,15.099236641221374,-15.19083969465649,-9.327809667968749,0.6751648681640625,-0.6296750366210937,-18.885496183206108,-63.11450381679389,1.4809160305343512,0.0
13.830001592636108,-9.763554370117188,1.5275006591796874,0.5458779785156249,-13.19083969465649,15.526717557251908,-16.702290076335878,-7.793126403808594,0.8547299926757812,-2.1787235107421874,-23.374045801526716,-48.13740458015267,-1.297709923664122,0.0
13.840000629425049,-10.091559997558592,2.212242333984375,0.4381389038085937,-20.076335877862597,15.679389312977099,-18.106870229007633,-8.315062365722655,-0.6392518432617187,-0.6296750366210937,-27.923664122137403,-35.83206106870229,-0.366412213740458,0.0
13.850000619888306,-9.694122521972655,1.8219874633789062,0.00718260498046875,-23.00763358778626,16.427480916030536,-17.419847328244273,-7.580042456054687,-0.1005564697265625,-0.3112462158203125,-26.870229007633586,-27.633587786259543,-2.4427480916030535,0.0
13.860000610351562,-10.134655627441406,2.2601263671875,-0.15562310791015624,-28.198473282442748,16.65648854961832,-18.595419847328245,-7.912836486816405,-1.0965443603515623,-0.3112462158203125,-22.564885496183205,-22.625954198473284,-4.641221374045801,0.0
13.870000839233398,-10.024522351074218,1.678335363769531,-0.07900865478515624,-25.31297709923664,18.27480916030534,-17.328244274809162,-8.197746484375,-0.679953271484375,0.9624690673828125,-9.664122137404581,-18.396946564885496,-6.8396946564885495,0.0
13.880001068115234,-10.204087475585936,1.678335363769531,0.1771709228515625,-27.923664122137403,17.52671755725191,-18.671755725190838,-8.207323291015625,-1.0271125122070313,1.2832920898437499,-7.343511450381679,-16.99236641221374,-8.488549618320612,0.0
13.890001058578491,-10.005368737792969,1.1635820068359375,0.7062894897460937,-26.47328244274809,16.977099236641223,-18.83969465648855,-8.05648858642578,-0.36631285400390623,1.9201497314453124,-1.5267175572519085,-14.992366412213741,-9.16030534351145,0.0
13.900000810623169,-10.73799444580078,1.6232687255859375,1.5370774658203123,-28.65648854961832,15.114503816793894,-20.091603053435115,-7.338228088378906,0.7445967163085937,1.838746875,-4.290076335877862,-15.541984732824428,-10.259541984732824,0.0
13.910000801086426,-10.192116467285155,1.218648645019531,2.5617957763671875,-27.587786259541986,11.358778625954198,-20.80916030534351,-8.262389929199218,-0.26336218261718747,2.461239306640625,3.2519083969465647,-11.938931297709924,-9.297709923664122,0.0
13.92000126838684,-10.589553942871094,1.20667763671875,2.923320227050781,-29.572519083969464,6.748091603053435,-22.259541984732824,-7.295132458496093,0.6943184814453125,1.8914193115234375,1.1297709923664123,-12.381679389312977,-11.251908396946565,0.0
13.930001020431519,-9.94072529296875,0.8595183959960937,3.7014357666015623,-23.572519083969464,1.7557251908396947,-22.045801526717558,-6.296750366210937,0.9097966308593749,1.5346832641601562,-8.244274809160306,-5.312977099236641,-11.877862595419847,0.0
13.940001249313354,-10.412383020019531,1.0486603271484374,4.005499377441406,-23.480916030534353,-4.564885496183206,-22.671755725190838,-6.945579016113281,0.25139117431640623,1.6615759521484375,-8.13740458015267,0.44274809160305345,-11.954198473282442,0.0
13.950001001358032,-10.20169327392578,0.6153098266601562,4.843469958496094,-15.007633587786259,-9.603053435114504,-23.267175572519083,-6.756437084960937,-0.48123453369140623,0.39983167724609375,-8.51908396946565,9.511450381679388,-11.893129770992367,0.0
13.96000075340271,-10.402806213378906,0.5003881469726562,5.291185668945312,-13.725190839694656,-18.045801526717558,-24.595419847328245,-6.0884548217773435,0.16998831787109375,0.06464344482421874,-2.16793893129771,12.122137404580153,-14.870229007633588,0.0
13.970000982284546,-10.141838232421874,0.373495458984375,5.374982727050781,-7.908396946564886,-24.748091603053435,-26.27480916030534,-6.124367846679687,0.201112939453125,-0.05027823486328125,-6.396946564885496,20.900763358778626,-14.732824427480915,0.0
13.980001211166382,-9.801861596679688,2.1499930908203124,6.979097839355468,-16.290076335877863,-36.74809160305343,-28.82442748091603,-6.2392895263671875,0.5267243652343749,0.39743747558593745,-10.65648854961832,27.129770992366414,-16.27480916030534,0.0
13.990000486373901,-11.190498559570312,1.3072341064453123,7.812280017089844,-22.9618320610687,-53.083969465648856,-28.30534351145038,-5.72693037109375,-0.047884033203124995,0.4955997436523437,-18.412213740458014,34.961832061068705,-15.145038167938932,0.0
14.000000476837158,-12.291831323242187,1.01514150390625,9.445125549316407,-20.793893129770993,-67.87786259541984,-27.6793893129771,-6.986280444335937,-1.6543933471679686,0.30885201416015623,-7.419847328244275,39.23664122137404,-12.763358778625955,0.0
14.010000705718994,-12.212822668457031,-0.32082302246093747,11.389217297363281,-15.16030534351145,-92.87022900763358,-28.213740458015266,-7.311891870117187,-0.016759411621093748,-0.7685387329101562,5.404580152671755,40.717557251908396,-12.442748091603054,0.0
14.020000696182251,-14.578293908691405,-1.218648645019531,12.955025183105468,-1.8625954198473282,-114.36641221374046,-28.48854961832061,-8.418013037109375,2.128445275878906,-1.62805712890625,6.106870229007634,46.30534351145038,-11.694656488549619,0.0
14.030001640319824,-15.370774658203125,-2.051830822753906,14.865598107910156,10.580152671755725,-140.7175572519084,-29.755725190839694,-10.409988818359375,2.712630480957031,-1.39821376953125,4.137404580152672,51.89312977099237,-9.297709923664122,0.0
14.040000915527344,-18.38746875,-0.9457096557617187,15.631742639160155,19.374045801526716,-169.3740458015267,-34.97709923664122,-13.366827868652344,1.8100164550781248,-0.0047884033203125,12.0,52.0,-7.3893129770992365,0.0
14.050000667572021,-19.60132899169922,-0.5027823486328125,13.70680450439453,28.427480916030536,-207.95419847328245,-35.083969465648856,-13.567940808105467,2.020706201171875,0.16041151123046873,17.786259541984734,46.030534351145036,-8.748091603053435,0.0
14.060000658035278,-20.57576906738281,1.0869675537109373,12.014103930664062,37.70992366412214,-237.57251908396947,-28.641221374045802,-11.398794104003905,2.8323405639648436,0.00718260498046875,5.32824427480916,43.786259541984734,-7.3893129770992365,0.0
14.070000410079956,-22.335507287597654,0.46686932373046874,9.234435803222656,44.85496183206107,-260.9770992366412,-17.893129770992367,-10.826579907226561,1.4341267944335936,-0.055066638183593745,-7.114503816793893,45.603053435114504,1.618320610687023,0.0
14.080000877380371,-21.55978594970703,0.33039982910156246,5.647921716308593,67.06870229007633,-274.7480916030534,0.030534351145038167,-5.853823059082031,4.426878869628906,-1.1252747802734375,-20.366412213740457,39.66412213740458,-1.8931297709923665,0.0
14.090001106262207,-18.839972863769532,1.8219874633789062,2.138022082519531,87.90839694656489,-274.68702290076334,28.916030534351144,-6.8593877563476555,4.129997863769531,-3.076549133300781,-98.27480916030534,76.27480916030534,12.16793893129771,0.0
14.100000858306885,-16.144101794433592,1.5538368774414062,-4.7117888671875,93.3587786259542,-261.2977099236641,61.969465648854964,-5.212177014160156,1.3311761230468748,-4.76924970703125,-128.0916030534351,82.80916030534351,14.916030534351146,0.0
14.11000108718872,-12.947842578125,3.189076611328125,-8.202534887695313,71.38931297709924,-244.65648854961833,79.49618320610686,-13.189656945800781,-4.292803576660156,-3.0214824951171875,-149.25190839694656,106.30534351145039,26.48854961832061,0.0
14.120001316070557,-15.452177514648437,2.0661960327148434,-9.042899670410156,27.984732824427482,-235.72519083969465,81.6030534351145,-11.010933435058593,-7.034164477539062,-2.849099975585937,-102.04580152671755,95.43511450381679,21.938931297709924,0.0
14.130000829696655,-15.138537097167967,2.932897033691406,-2.375048046875,16.3206106870229,-223.84732824427482,79.1145038167939,-11.281478222656249,-11.314997045898437,-2.269703173828125,-71.2824427480916,95.34351145038168,20.671755725190838,0.0
14.140000581741333,-15.289371801757811,1.3551181396484375,8.391676818847655,41.32824427480916,-211.1145038167939,86.19847328244275,-7.388506323242187,-7.694964135742187,-4.951209033203125,-28.015267175572518,73.52671755725191,6.854961832061068,0.0
14.150001049041748,-14.025233325195313,0.8259995727539062,12.399570397949217,39.29770992366412,-201.54198473282443,83.78625954198473,-10.448296044921875,-8.37012900390625,-3.3111808959960936,-8.549618320610687,81.00763358778626,8.213740458015268,0.0
14.160001277923584,-12.409147204589843,-3.0621839233398433,4.912901806640625,22.870229007633586,-204.87022900763358,73.5114503816794,-5.908889697265625,1.3670891479492187,-5.968744738769531,31.96946564885496,75.83206106870229,-0.7633587786259542,0.0
14.170000553131104,-10.843339318847656,-3.778050219726562,-0.2059013427734375,8.580152671755725,-207.93893129770993,58.29007633587786,-10.453084448242187,0.19632453613281248,-4.7117888671875,-31.603053435114504,98.3969465648855,7.190839694656488,0.0
14.180001258850098,-6.928819604492187,-6.227318518066406,-1.6112977172851561,12.580152671755725,-214.1679389312977,50.68702290076336,-7.987056738281249,5.106832141113281,-6.8593877563476555,-21.633587786259543,99.34351145038168,7.847328244274809,0.0
14.190000772476196,-8.99501563720703,-5.389347937011719,2.9281086303710935,25.541984732824428,-199.1145038167939,39.17557251908397,-10.218452685546874,-0.258573779296875,-2.8227637573242186,-35.49618320610687,131.06870229007635,20.83969465648855,0.0
14.200001239776611,-5.444414575195312,-7.745242370605468,2.1787235107421874,55.17557251908397,-191.26717557251908,39.32824427480916,-6.775590698242187,-0.8858546142578124,-4.299986181640625,-0.32061068702290074,126.12213740458016,21.068702290076335,0.0
14.21000075340271,-9.33978067626953,-2.849099975585937,0.8499415893554687,67.49618320610686,-177.72519083969465,27.83206106870229,-6.8569935546875,-1.62805712890625,-1.5442600708007812,24.3206106870229,131.38931297709922,19.908396946564885,0.0
14.220001220703125,-4.302380383300781,-3.35188232421875,-1.8219874633789062,86.47328244274809,-167.64885496183206,31.755725190839694,-9.124302526855468,-2.990357873535156,-1.189918225097656,45.541984732824424,129.38931297709922,16.366412213740457,0.0
14.230000495910645,-6.042964990234375,-0.1771709228515625,-1.4700398193359374,80.45801526717557,-152.3969465648855,29.17557251908397,-9.129090930175781,-0.3591302490234375,-0.32082302246093747,45.98473282442748,120.44274809160305,11.358778625954198,0.0
14.240000486373901,-4.50109912109375,-0.03591302490234375,-2.224213342285156,72.54961832061069,-139.98473282442748,30.625954198473284,-10.749965454101561,-1.5298948608398437,2.442085693359375,48.61068702290076,113.34351145038168,13.48091603053435,0.0
14.250000953674316,-3.0813375366210938,0.51714755859375,-1.5777788940429687,65.29770992366412,-128.3053435114504,28.137404580152673,-10.59194814453125,-1.5490484741210937,4.9416322265625,60.229007633587784,100.25954198473282,13.312977099236642,0.0
14.260000705718994,-0.622492431640625,-0.24899697265624998,-2.04943662109375,43.45038167938932,-125.0381679389313,19.267175572519083,-10.884040747070312,0.9313444458007812,5.437231970214843,54.50381679389313,86.50381679389314,11.053435114503817,0.0
14.27000093460083,1.1707646118164061,-0.4070142822265625,-2.8754361938476563,46.62595419847328,-101.05343511450381,10.580152671755725,-11.245565197753905,0.1005564697265625,6.806715319824218,39.06870229007634,78.16793893129771,14.946564885496183,0.0
14.280001163482666,2.233790148925781,0.2537853759765625,-3.9719805541992184,45.02290076335878,-89.38931297709924,10.030534351145038,-11.959037292480469,-0.6464344482421874,6.7037646484375,43.05343511450382,65.72519083969466,13.618320610687023,0.0
14.290001153945923,3.1771056030273437,2.398990063476562,-3.6846763549804686,54.12213740458015,-64.18320610687023,16.870229007633586,-11.937489477539062,-2.2481553588867187,4.7572786987304685,37.14503816793893,53.3587786259542,13.694656488549619,0.0
14.30000114440918,3.5529952636718747,5.736507177734374,-1.448492004394531,53.70992366412214,-38.99236641221374,23.51145038167939,-10.857704528808593,0.3112462158203125,2.2194249389648437,36.396946564885496,40.76335877862596,11.572519083969466,0.0
14.310001134872437,3.622427111816406,8.192958081054687,0.35673604736328124,28.427480916030536,-23.374045801526716,27.435114503816795,-10.977414611816405,-0.5865794067382812,1.7764976318359373,24.458015267175572,43.17557251908397,15.648854961832061,0.0
14.320000886917114,4.4196962646484375,7.560888842773437,1.7549498168945312,2.549618320610687,-7.526717557251908,31.099236641221374,-8.712499841308594,1.0702081420898437,0.02154781494140625,12.83969465648855,40.06106870229008,14.076335877862595,0.0
14.33000135421753,1.6615759521484375,8.343792785644531,2.3870190551757813,-29.72519083969466,6.961832061068702,27.053435114503817,-9.354145886230468,2.839523168945312,-1.1731588134765625,-4.9465648854961835,46.83969465648855,14.610687022900763,0.0
14.34000039100647,3.6727053466796873,5.425260961914062,0.8786720092773437,-55.48091603053435,20.946564885496183,30.061068702290076,-9.892841259765625,0.47884033203125,-0.7733271362304687,-26.106870229007633,56.01526717557252,17.053435114503817,0.0
14.350001335144043,6.342240197753906,0.5027823486328125,-1.2425906616210938,-56.152671755725194,46.045801526717554,28.82442748091603,-9.540893615722656,-1.5418658691406248,-0.39743747558593745,-28.50381679389313,53.49618320610687,15.236641221374045,0.0
14.36000108718872,6.667851623535156,-3.4835634155273434,-3.995922570800781,-52.48854961832061,84.35114503816794,14.65648854961832,-13.678074084472655,-6.368576416015625,3.394977954101562,-33.89312977099237,58.61068702290076,18.99236641221374,0.0
14.370001077651978,-8.152256652832031,-6.174646081542968,17.19276212158203,-41.80152671755725,101.26717557251908,14.50381679389313,-12.883199133300781,1.908178723144531,-0.7876923461914062,-35.770992366412216,42.18320610687023,6.854961832061068,0.0
14.380001068115234,-26.302699438476562,-1.2737152832031249,39.22540289916992,85.14503816793894,49.404580152671755,40.76335877862596,-17.228675146484374,0.833182177734375,0.9911994873046874,-47.282442748091604,34.19847328244275,12.244274809160306,0.0
14.390000820159912,-20.997148559570313,3.6104561035156246,15.344438439941406,109.25190839694656,81.20610687022901,64.58015267175573,-14.621389538574219,2.1021090576171875,-1.3551181396484375,-59.38931297709924,16.03053435114504,13.893129770992367,0.0
14.400000810623169,-17.791312536621092,15.456965917968748,-14.063540551757812,14.458015267175572,32.33587786259542,-1.1450381679389312,-15.033192224121093,-3.402160559082031,-0.9193734375,-73.37404580152672,16.549618320610687,23.16030534351145,0.0
14.410000562667847,-10.417171423339843,6.3901242309570305,2.0733786376953125,-28.38167938931298,31.52671755725191,-1.8015267175572518,-15.720328100585936,-1.5777788940429687,-3.3877953491210935,-55.41984732824427,2.7022900763358777,18.106870229007633,0.0
14.42000126838684,1.8195932617187498,-2.2673089721679687,5.540182641601562,-15.404580152671755,52.62595419847328,21.61832061068702,-21.811177124023438,-10.405200415039062,-1.8291700683593748,-44.0763358778626,4.793893129770993,29.099236641221374,0.0
14.430000305175781,-4.043806604003906,-0.055066638183593745,-3.689464758300781,-40.29007633587786,88.12213740458016,9.251908396946565,-20.32198369140625,-0.23702596435546874,-6.888118176269531,14.916030534351146,-26.045801526717558,13.801526717557252,0.0
14.440001249313354,-6.315903979492187,-8.659827404785156,1.43652099609375,-23.64885496183206,94.73282442748092,13.694656488549619,-20.209456213378903,2.061407629394531,-3.6296097167968746,17.541984732824428,-23.0381679389313,20.916030534351144,0.0
14.450000524520874,-9.670180505371093,-3.797203833007812,4.0988732421875,24.16793893129771,119.63358778625954,-6.412213740458015,-15.816096166992187,5.025429284667968,-5.051765502929687,22.091603053435115,-48.33587786259542,19.786259541984734,0.0
14.460000991821289,-9.572018237304688,-1.2761094848632812,3.2609026611328122,44.045801526717554,117.61832061068702,-11.541984732824428,-15.69878028564453,0.4860229370117187,-1.7501614135742187,-2.198473282442748,-43.55725190839695,31.87786259541985,0.0
14.470000505447388,-14.70279239501953,2.906560815429687,4.395754248046875,54.045801526717554,128.27480916030535,-21.206106870229007,-13.230358374023437,2.3774422485351563,-1.3239935180664062,16.076335877862597,-60.38167938931298,25.908396946564885,0.0
14.480000734329224,-9.634267480468749,1.1372457885742187,2.3965958618164063,59.770992366412216,122.29007633587786,-14.580152671755725,-12.636596362304687,0.8044517578125,-0.507570751953125,2.8091603053435112,-59.86259541984733,24.977099236641223,0.0
14.490000486373901,-11.621454858398437,1.6208745239257811,3.1579519897460937,67.6793893129771,136.65648854961833,-23.6793893129771,-11.77228956298828,-0.7948749511718749,-1.199495031738281,2.8244274809160306,-68.83969465648855,18.610687022900763,0.0
14.500000953674316,-9.572018237304688,2.4133552734375,0.6440402465820312,53.221374045801525,131.22137404580153,-28.82442748091603,-12.555193505859375,-1.484405029296875,-1.5011644409179687,-4.916030534351145,-71.58778625954199,16.18320610687023,0.0
14.510000944137573,-10.40041201171875,4.005499377441406,1.180341418457031,42.412213740458014,134.70229007633588,-35.770992366412216,-12.006921325683592,-2.6288334228515624,-2.6503812377929687,6.229007633587786,-73.00763358778626,9.450381679389313,0.0
14.520000696182251,-0.12210428466796874,-7.805097412109374,-5.054159704589844,77.16030534351145,128.3969465648855,-19.31297709923664,-9.911994873046874,0.5339069702148437,-6.653486413574218,11.038167938931299,-66.85496183206106,0.15267175572519084,0.0
14.530000686645508,-8.559270935058594,-3.2513258544921873,0.3064578125,131.89312977099237,173.12977099236642,-39.099236641221374,-9.117119921875,0.679953271484375,-8.034940771484374,0.9312977099236641,-46.97709923664122,-3.648854961832061,0.0
14.540000677108765,-15.899893225097655,6.301538769531249,2.463633508300781,116.44274809160305,177.61832061068702,-55.66412213740458,-11.954248889160155,-2.3678654418945313,-6.449979272460937,23.603053435114504,-35.038167938931295,-8.061068702290076,0.0
14.550001382827759,-15.983690283203124,10.608707556152343,5.358223315429687,67.58778625954199,162.74809160305344,-58.74809160305343,-9.7683427734375,-0.33039982910156246,-5.6311623046875,18.198473282442748,-35.66412213740458,-10.564885496183207,0.0
14.560001134872437,-11.262324609375,7.580042456054687,5.164292980957031,7.206106870229007,134.33587786259542,-58.213740458015266,-9.524134204101562,-2.094926452636719,-4.592078784179687,19.236641221374047,-25.770992366412212,-11.740458015267176,0.0
14.570001125335693,-10.517727893066406,4.185064501953125,2.834734765625,-17.984732824427482,114.62595419847328,-53.80152671755725,-9.035717065429687,-0.16280571289062498,-4.113238452148437,33.343511450381676,-28.48854961832061,-16.931297709923665,0.0
14.580000638961792,-8.307879760742187,1.6136919189453125,1.6615759521484375,-16.03053435114504,112.62595419847328,-50.36641221374046,-8.80347950439453,0.8786720092773437,-3.0550013183593747,32.94656488549618,-28.9618320610687,-18.015267175572518,0.0
14.590001344680786,-7.915230688476562,-0.9816226806640624,0.7900865478515624,-5.557251908396947,113.6030534351145,-49.69465648854962,-8.564059338378906,1.3024457031249999,-2.212242333984375,35.37404580152672,-31.022900763358777,-19.66412213740458,0.0
14.600000619888306,-9.205705383300781,-1.4149731811523436,0.6703764648437499,15.435114503816793,124.6412213740458,-51.29770992366412,-8.458714465332031,-0.2705447875976562,-0.316034619140625,45.969465648854964,-36.213740458015266,-20.259541984732824,0.0
14.61000108718872,-7.161057165527343,0.34715924072265625,0.41419688720703124,33.06870229007634,131.6793893129771,-53.93893129770992,-8.611943371582031,1.2569558715820313,0.17477672119140625,55.32824427480916,-41.282442748091604,-23.282442748091604,0.0
14.62000060081482,-8.705317236328124,1.668758557128906,0.6536170532226562,33.31297709923664,136.03053435114504,-58.534351145038165,-8.650250598144531,1.216254443359375,0.239420166015625,50.50381679389313,-44.412213740458014,-24.50381679389313,0.0
14.630000352859497,-9.289502441406249,3.6535517333984373,-0.1197100830078125,27.16030534351145,136.83969465648855,-58.58015267175573,-8.245630517578125,0.6919242797851562,0.7493851196289062,46.87022900763359,-49.52671755725191,-23.938931297709924,0.0
14.640000581741333,-10.144232434082031,5.705382556152343,0.8092401611328125,17.251908396946565,137.45038167938932,-56.74809160305343,-8.28633194580078,1.1133037719726562,0.1388636962890625,43.83206106870229,-52.82442748091603,-22.3206106870229,0.0
14.650001287460327,-8.470685473632813,5.066130712890625,0.5961562133789062,10.183206106870228,138.0916030534351,-49.847328244274806,-7.908048083496094,2.0877438476562498,-0.5003881469726562,30.38167938931298,-56.30534351145038,-21.267175572519083,0.0
14.660000562667847,-8.173804467773436,4.1563340820312495,0.8978256225585937,-1.618320610687023,132.82442748091603,-43.404580152671755,-8.844180932617187,-0.22266075439453123,0.814028564453125,22.290076335877863,-53.37404580152672,-15.786259541984732,0.0
14.670001029968262,-9.052476477050782,3.6942531616210936,0.8212111694335937,-11.923664122137405,129.26717557251908,-41.17557251908397,-9.229647399902344,-0.4070142822265625,0.5865794067382812,30.03053435114504,-61.02290076335878,-15.938931297709924,0.0
14.680001020431519,-9.390058911132812,3.31357509765625,2.1356278808593747,-14.702290076335878,132.29007633587787,-40.900763358778626,-8.738836059570312,0.2059013427734375,1.5801730957031248,30.793893129770993,-65.7557251908397,-17.236641221374047,0.0
14.690001726150513,-9.069235888671875,1.0989385620117187,2.8562825805664063,-20.30534351145038,125.6793893129771,-37.770992366412216,-8.690952026367187,0.40222587890625,1.1276689819335937,34.30534351145038,-71.61832061068702,-17.34351145038168,0.0
14.700022459030151,-14.49210264892578,7.371746911621093,6.392518432617187,-43.80152671755725,125.6793893129771,-49.81679389312977,-9.09796630859375,0.679953271484375,0.5027823486328125,34.58015267175573,-75.6793893129771,-17.328244274809162,0.0
14.71000051498413,-8.489839086914062,0.229843359375,4.11802685546875,-77.92366412213741,94.85496183206106,-42.67175572519084,-8.267178332519531,1.2976572998046874,-0.3184288208007812,33.05343511450382,-81.09923664122137,-17.0381679389313,0.0
14.720000743865967,-12.440271826171875,2.138022082519531,5.947196923828125,-75.80152671755725,89.6030534351145,-44.19847328244275,-7.556100439453124,1.7788918334960937,-0.6296750366210937,25.633587786259543,-80.06106870229007,-17.282442748091604,0.0
14.730000495910645,-8.84178673095703,-2.636016027832031,1.8842367065429686,-57.099236641221374,79.58778625954199,-34.458015267175576,-8.365340600585936,0.9696516723632812,-0.9648632690429687,24.259541984732824,-80.8854961832061,-15.49618320610687,0.0
14.740012884140015,-16.014814904785155,8.080430603027343,9.248801013183593,-71.64885496183206,77.3587786259542,-43.11450381679389,-8.034940771484374,0.1484405029296875,-0.70868369140625,25.938931297709924,-78.87022900763358,-15.221374045801527,0.0
14.750000476837158,-10.819397302246093,1.7381904052734374,2.712630480957031,-91.57251908396947,53.343511450381676,-29.984732824427482,-8.94473740234375,1.4413093994140624,-2.5330653564453125,38.44274809160305,-83.25190839694656,-13.053435114503817,0.0
14.760000944137573,-13.666103076171874,5.2648494506835934,5.829881042480468,-84.36641221374046,47.14503816793893,-24.717557251908396,-9.006986645507812,0.70868369140625,-1.886630908203125,28.763358778625953,-76.76335877862596,-8.229007633587786,0.0
14.77000093460083,-8.968679418945312,-0.040701428222656245,1.5682020874023437,-84.33587786259542,36.68702290076336,-14.01526717557252,-8.398859423828124,1.3766659545898436,-2.1978771240234374,22.82442748091603,-79.14503816793894,-6.916030534351145,0.0
