timestamp,Thigh_L_Acc_X,Thigh_L_Acc_Y,Thigh_L_Acc_Z,Thigh_L_Gyr_X,Thigh_L_Gyr_Y,Thigh_L_Gyr_Z,Thigh_R_Acc_X,Thigh_R_Acc_Y,Thigh_R_Acc_Z,Thigh_R_Gyr_X,Thigh_R_Gyr_Y,Thigh_R_Gyr_Z,gpio_output
10.000000715255737,-10.079588989257813,1.0845733520507812,1.7334020019531249,7.206106870229007,47.282442748091604,-3.0229007633587788,-9.442731347656249,-2.389413256835937,-2.1691467041015624,-16.458015267175572,-31.374045801526716,10.396946564885496,0.0
10.010000944137573,-11.204863769531249,1.1133037719726562,1.9847931762695312,6.351145038167939,45.05343511450382,-4.015267175572519,-9.394847314453125,-2.4756045166015626,-2.5258827514648434,4.030534351145038,-34.94656488549618,5.4961832061068705,1.0
10.02000093460083,-10.036493359375,0.8667010009765624,0.7422025146484375,8.106870229007633,41.6793893129771,-2.6259541984732824,-8.125920434570313,-0.26336218261718747,-3.2537200561523436,15.541984732824428,-37.31297709923664,1.0229007633587786,1.0
10.030000686645508,-8.662221606445312,1.216254443359375,0.737414111328125,8.396946564885496,39.587786259541986,-2.0,-7.520187414550781,2.7246014892578123,-4.517858532714843,10.748091603053435,-30.198473282442748,-2.931297709923664,1.0
10.040000438690186,-9.287108239746093,1.2138602416992186,0.7613561279296874,5.770992366412214,40.10687022900763,-3.2061068702290076,-7.730877160644531,3.5529952636718747,-4.414907861328125,-10.854961832061068,-21.938931297709924,-0.366412213740458,1.0
10.0500009059906,-10.175357055664062,1.3934253662109375,1.4437036010742186,1.450381679389313,38.961832061068705,-4.106870229007634,-9.78031378173828,1.0103531005859374,-3.1387983764648437,-13.083969465648854,-12.473282442748092,2.8244274809160306,1.0
10.060000658035278,-10.122684619140625,1.7741034301757812,0.9720458740234375,-2.564885496183206,36.47328244274809,-4.580152671755725,-10.13226142578125,0.17477672119140625,-2.3032219970703123,-7.419847328244275,-11.419847328244275,0.0916030534351145,1.0
10.070000410079956,-10.24000050048828,1.2042834350585936,0.6177040283203125,-3.8931297709923665,35.81679389312977,-2.6259541984732824,-9.79946739501953,0.4477157104492187,-2.4660277099609376,-1.099236641221374,-11.908396946564885,-3.450381679389313,1.0
10.080000400543213,-10.644620581054687,2.379836450195312,1.3048399047851562,-9.053435114503817,36.656488549618324,-4.0458015267175576,-9.203311181640624,1.8124106567382812,-2.221819140625,-0.44274809160305345,-13.419847328244275,-5.847328244274809,1.0
10.090000629425049,-11.350910070800781,2.001552587890625,1.189918225097656,-19.236641221374047,30.763358778625953,-4.1679389312977095,-10.043675964355469,0.3711012573242187,-0.8882488159179687,4.931297709923665,-11.664122137404581,-4.458015267175573,1.0
10.100000858306885,-10.749965454101561,0.05985504150390625,0.612915625,-14.595419847328245,31.14503816793893,-3.435114503816794,-9.943119494628906,0.9528922607421875,-1.3814543579101561,12.183206106870228,-16.259541984732824,-6.625954198473282,1.0
10.110000848770142,-10.472238061523436,-0.45489831542968745,0.1005564697265625,-13.618320610687023,31.480916030534353,-6.6106870229007635,-10.618284362792968,1.120486376953125,0.1580173095703125,15.633587786259541,-26.778625954198475,-9.435114503816793,1.0
10.120001077651978,-9.931148486328125,0.6392518432617187,0.16998831787109375,-8.625954198473282,34.74809160305343,-10.427480916030534,-10.228029492187499,2.6695348510742187,-1.3048399047851562,14.396946564885496,-28.68702290076336,-11.86259541984733,1.0
10.130001306533813,-9.60793126220703,1.2737152832031249,0.7637503295898437,-15.725190839694656,34.50381679389313,-11.49618320610687,-9.464279162597656,3.881000891113281,-1.197100830078125,-0.9923664122137404,-28.83969465648855,-11.908396946564885,1.0
10.140000581741333,-10.419565624999999,1.5634136840820312,1.0342951171875,-18.793893129770993,33.099236641221374,-9.740458015267176,-9.87608184814453,2.8706477905273435,-0.8595183959960937,-14.977099236641221,-21.480916030534353,-7.816793893129771,1.0
10.15000057220459,-9.969455712890625,1.6017209106445311,0.48123453369140623,-12.80916030534351,32.36641221374046,-8.488549618320612,-9.753977563476562,1.3192051147460937,-0.3280056274414062,-22.03053435114504,-21.557251908396946,-7.114503816793893,1.0
10.160001039505005,-11.049240661621093,1.9991583862304687,0.97683427734375,-13.923664122137405,31.0381679389313,-7.1603053435114505,-10.412383020019531,0.13168109130859373,-0.5865794067382812,-12.183206106870228,-24.48854961832061,-9.587786259541986,1.0
10.170001029968262,-11.010933435058593,1.6807295654296874,0.0383072265625,-16.0,24.229007633587788,-5.267175572519084,-9.897629663085937,-0.7302315063476562,0.29448680419921874,-4.015267175572519,-30.748091603053435,-11.404580152671755,1.0
10.18000078201294,-10.733206042480468,2.2840683837890623,0.7422025146484375,-19.450381679389313,22.900763358778626,-6.458015267175573,-9.811438403320311,-0.7015010864257812,-0.46686932373046874,10.870229007633588,-33.25190839694657,-14.213740458015268,1.0
10.190000534057617,-10.20169327392578,1.3263877197265623,0.047884033203124995,-26.778625954198475,17.19083969465649,-6.3816793893129775,-8.997409838867187,1.89620771484375,-0.6751648681640625,13.923664122137405,-39.725190839694655,-18.0,1.0
10.200000524520874,-10.084377392578125,1.2928688964843749,0.35673604736328124,-27.099236641221374,15.526717557251908,-6.213740458015267,-7.987056738281249,3.545812658691406,-0.9457096557617187,-8.396946564885496,-39.11450381679389,-17.19083969465649,1.0
10.21000051498413,-10.259154113769531,1.197100830078125,0.3902548706054687,-26.732824427480917,15.450381679389313,-5.435114503816794,-9.220070593261719,2.2194249389648437,0.43574470214843747,-20.732824427480917,-29.221374045801525,-11.877862595419847,0.0
10.220000505447388,-10.644620581054687,1.0438719238281249,0.29448680419921874,-29.14503816793893,12.351145038167939,-4.916030534351145,-9.859322436523437,1.0678139404296874,0.06943184814453125,-22.03053435114504,-31.450381679389313,-11.206106870229007,0.0
10.230000257492065,-10.335768566894531,0.38307226562499996,0.32561142578124996,-23.52671755725191,10.748091603053435,-2.885496183206107,-9.751583361816406,-0.20350714111328125,0.028730419921875,-11.557251908396946,-35.66412213740458,-13.114503816793894,0.0
10.240000247955322,-10.421959826660157,0.29927520751953124,0.6200982299804687,-20.091603053435115,8.854961832061068,-3.2061068702290076,-10.079588989257813,-0.2657563842773437,-0.0430956298828125,5.862595419847328,-36.458015267175576,-15.206106870229007,0.0
10.250000238418579,-9.835380419921874,-0.06464344482421874,0.4070142822265625,-10.229007633587786,8.67175572519084,-4.091603053435114,-10.426748229980468,0.15562310791015624,0.430956298828125,15.709923664122137,-44.99236641221374,-17.389312977099237,0.0
10.260000944137573,-9.05965908203125,-0.258573779296875,0.00239420166015625,-4.5038167938931295,7.66412213740458,-5.038167938931298,-9.054870678710937,3.3111808959960936,-0.8475473876953125,11.34351145038168,-44.778625954198475,-20.763358778625953,0.0
10.270000696182251,-8.808267907714843,0.8259995727539062,0.11013327636718749,2.2595419847328246,10.610687022900763,-6.0,-8.688557824707031,3.1316157714843746,-1.2761094848632812,-5.419847328244275,-37.786259541984734,-17.297709923664122,0.0
10.280000686645508,-9.363722692871093,0.6943184814453125,-0.086191259765625,-0.7022900763358778,7.938931297709924,-6.595419847328245,-9.229647399902344,1.7453730102539062,-0.8714894042968749,-9.801526717557252,-36.229007633587784,-14.366412213740459,0.0
10.290000438690186,-10.022128149414062,1.0678139404296874,0.016759411621093748,-4.259541984732825,5.6183206106870225,-7.648854961832061,-10.419565624999999,-0.9050082275390624,0.14125789794921875,-3.404580152671756,-30.85496183206107,-11.816793893129772,0.0
10.3000009059906,-9.648632690429688,0.22505495605468748,-0.3806780639648437,-0.6717557251908397,4.778625954198473,-6.8396946564885495,-10.220846887207031,-0.603338818359375,-0.22266075439453123,18.229007633587788,-35.00763358778626,-14.01526717557252,0.0
10.310000658035278,-9.605537060546874,0.41419688720703124,-0.584185205078125,4.961832061068702,5.6183206106870225,-7.587786259541985,-9.974244116210937,-0.33039982910156246,-0.6105214233398437,30.641221374045802,-38.42748091603053,-15.740458015267176,0.0
10.320000648498535,-9.880870251464843,0.5746083984375,-0.5339069702148437,9.587786259541986,6.8396946564885495,-6.9465648854961835,-9.3086560546875,1.0079588989257813,-0.6464344482421874,37.343511450381676,-40.76335877862596,-17.572519083969464,0.0
10.33000111579895,-9.334992272949219,0.6081272216796875,-0.21068974609375,20.15267175572519,12.381679389312977,-6.732824427480916,-8.604760766601562,2.5067291381835934,-0.8906430175781249,25.64885496183206,-39.43511450381679,-18.0,0.0
10.340000629425049,-11.085153686523437,2.3247698120117186,0.967257470703125,14.83969465648855,14.793893129770993,-9.770992366412214,-9.512163195800781,2.2290017456054687,-0.2920926025390625,14.183206106870228,-28.30534351145038,-14.992366412213741,0.0
10.350001096725464,-10.335768566894531,1.419761584472656,0.09337386474609374,8.106870229007633,9.34351145038168,-9.206106870229007,-9.763554370117188,0.7158662963867187,0.49799394531249996,8.412213740458014,-26.717557251908396,-12.885496183206106,0.0
10.360000610351562,-10.13226142578125,1.0534487304687499,0.20829554443359374,3.8931297709923665,5.175572519083969,-9.358778625954198,-9.955090502929687,0.21787235107421873,0.06464344482421874,18.85496183206107,-24.763358778625953,-13.770992366412214,0.0
10.370000839233398,-9.935936889648437,1.139639990234375,0.718260498046875,6.5038167938931295,7.541984732824427,-11.282442748091603,-8.932766394042968,1.3718775512695311,-0.2705447875976562,17.81679389312977,-24.427480916030536,-14.992366412213741,0.0
10.380000829696655,-9.737218151855469,0.97683427734375,0.105344873046875,3.435114503816794,4.5038167938931295,-10.854961832061068,-9.167398156738281,1.5011644409179687,-0.4333505004882812,17.66412213740458,-22.702290076335878,-14.748091603053435,0.0
10.390000820159912,-9.215282189941405,0.6200982299804687,-0.3184288208007812,10.458015267175572,5.816793893129771,-10.213740458015268,-9.574412438964844,0.8164227661132812,-0.011971008300781249,17.282442748091604,-20.732824427480917,-14.259541984732824,0.0
10.40000057220459,-10.488997473144531,2.1619640991210938,0.48123453369140623,1.4351145038167938,4.763358778625954,-12.534351145038167,-10.108319409179687,0.7661445312499999,-0.21787235107421873,24.50381679389313,-22.18320610687023,-16.076335877862597,0.0
10.410000562667847,-9.871293444824218,1.35990654296875,0.13168109130859373,0.3969465648854962,3.450381679389313,-11.465648854961833,-9.435548742675781,0.277727392578125,-0.1867477294921875,27.633587786259543,-24.549618320610687,-17.389312977099237,0.0
10.420000553131104,-9.306261853027344,0.6919242797851562,0.2442085693359375,-0.16793893129770993,5.175572519083969,-11.618320610687023,-9.787496386718749,0.679953271484375,-0.040701428222656245,34.12213740458015,-24.366412213740457,-17.34351145038168,0.0
10.43000078201294,-8.14028564453125,0.22266075439453123,-0.07900865478515624,6.99236641221374,9.694656488549619,-13.419847328244275,-7.637503295898437,2.269703173828125,-1.0797849487304687,28.99236641221374,-23.17557251908397,-19.34351145038168,0.0
10.440000534057617,-9.957484704589843,1.7549498168945312,1.2306196533203124,2.6259541984732824,13.49618320610687,-16.33587786259542,-7.012616662597656,2.7581203125,-0.8906430175781249,15.145038167938932,-25.557251908396946,-20.091603053435115,0.0
10.450000762939453,-10.690110412597656,2.375048046875,1.898601916503906,-6.564885496183206,12.870229007633588,-17.51145038167939,-7.5345526245117185,2.0350714111328125,-0.9840168823242187,1.5267175572519085,-10.595419847328245,-16.244274809160306,0.0
10.46000051498413,-10.989385620117186,1.448492004394531,1.7860744384765623,-12.80916030534351,8.274809160305344,-15.587786259541986,-8.269572534179687,0.833182177734375,-0.5602431884765625,-0.6717557251908397,-4.717557251908397,-13.893129770992367,0.0
10.470000505447388,-10.505756884765624,0.4477157104492187,1.8459294799804686,-15.145038167938932,3.66412213740458,-16.045801526717558,-7.7596075805664055,0.09576806640624999,-0.8738836059570312,-1.282442748091603,-4.396946564885496,-14.290076335877863,0.0
10.480000972747803,-10.850521923828124,0.27293898925781246,2.2098481323242187,-11.923664122137405,0.24427480916030533,-16.396946564885496,-7.223306408691406,-0.05985504150390625,-1.0414777221679687,1.3282442748091603,-1.450381679389313,-15.312977099236642,0.0
10.49000072479248,-10.903194360351561,0.7685387329101562,3.3399113159179685,-8.488549618320612,-0.21374045801526717,-19.19083969465649,-7.4962453979492185,0.0526724365234375,-0.7517793212890624,3.145038167938931,3.4198473282442747,-15.435114503816793,0.0
10.500000715255737,-10.058041174316406,0.5458779785156249,3.0813375366210938,-7.755725190839694,-6.213740458015267,-18.48854961832061,-7.371746911621093,0.49799394531249996,-0.7685387329101562,1.282442748091603,1.4961832061068703,-16.091603053435115,0.0
10.510000705718994,-10.637437976074217,1.3287819213867187,3.5506010620117183,-14.961832061068701,-13.908396946564885,-19.938931297709924,-7.764395983886718,0.28012159423828126,-0.5123591552734374,-1.1450381679389312,3.66412213740458,-15.526717557251908,0.0
10.520000696182251,-10.409988818359375,1.0486603271484374,3.854664672851562,-11.17557251908397,-18.38167938931298,-19.801526717557252,-7.9272016967773435,0.277727392578125,-0.22505495605468748,-3.5877862595419847,4.9465648854961835,-15.83206106870229,0.0
10.530000686645508,-9.919177478027343,0.9217676391601562,4.129997863769531,-10.091603053435115,-22.610687022900763,-19.61832061068702,-8.611943371582031,0.22026655273437498,0.20350714111328125,-7.175572519083969,5.770992366412214,-17.099236641221374,0.0
10.540000677108765,-10.242394702148436,1.7812860351562498,4.582501977539062,-12.80916030534351,-28.396946564885496,-21.603053435114504,-9.169792358398437,-0.30885201416015623,0.7206546997070312,-12.931297709923664,10.67175572519084,-18.259541984732824,0.0
10.550000667572021,-10.663774194335938,1.8100164550781248,4.965574243164062,-14.458015267175572,-35.93893129770992,-20.793893129770993,-10.635043774414061,-1.7788918334960937,0.6153098266601562,-10.763358778625955,15.664122137404581,-19.633587786259543,0.0
10.560000658035278,-11.06360587158203,1.8602946899414061,5.473144995117187,-16.015267175572518,-44.229007633587784,-20.076335877862597,-11.441889733886718,-1.8171990600585937,-0.5961562133789062,-4.717557251908397,16.03053435114504,-21.572519083969464,0.0
10.570000648498535,-11.226411584472656,1.6136919189453125,5.987898352050781,-13.34351145038168,-53.45038167938932,-18.48854961832061,-12.081141577148436,-1.3144167114257812,-1.3144167114257812,4.595419847328245,16.580152671755727,-24.82442748091603,0.0
10.580000638961792,-12.351686364746094,3.208230224609375,7.151480358886718,-16.061068702290076,-64.44274809160305,-20.793893129770993,-13.318943835449218,0.3064578125,0.033518823242187495,9.007633587786259,20.519083969465647,-24.015267175572518,0.0
10.590001106262207,-12.998120812988281,3.801992236328125,8.8489693359375,-27.893129770992367,-80.68702290076335,-15.282442748091603,-13.223175769042967,3.208230224609375,0.28490999755859375,4.549618320610687,21.83206106870229,-21.87786259541985,0.0
10.600000619888306,-12.217611071777343,3.0909143432617188,8.743624462890624,-30.85496183206107,-102.29007633587786,-6.137404580152672,-12.703634008789061,3.797203833007812,1.4437036010742186,-11.114503816793894,28.12213740458015,-13.86259541984733,0.0
10.610000848770142,-11.092336291503905,1.47482822265625,8.78432589111328,-19.87786259541985,-118.85496183206106,4.67175572519084,-12.169727038574218,1.3934253662109375,2.6575638427734374,-7.969465648854962,25.770992366412212,-4.122137404580153,0.0
10.62000060081482,-10.979808813476561,0.1580173095703125,8.118737829589843,-5.66412213740458,-133.0381679389313,9.694656488549619,-9.758765966796874,1.5298948608398437,1.4939818359375,-2.0,21.328244274809162,-3.648854961832061,0.0
10.630000829696655,-11.245565197753905,-1.6998831787109374,6.5960255737304685,11.877862595419847,-144.04580152671755,12.335877862595419,-8.590395556640624,0.258573779296875,0.7637503295898437,-8.702290076335878,28.763358778625953,-3.2519083969465647,0.0
10.640000581741333,-11.212046374511718,-3.744531396484375,3.071760729980469,19.64885496183206,-150.3053435114504,9.49618320610687,-7.6997525390625,-0.01915361328125,0.1149216796875,-8.549618320610687,25.541984732824428,-4.977099236641221,0.0
10.650000810623169,-11.401188305664062,-5.389347937011719,0.8858546142578124,25.938931297709924,-150.33587786259542,0.9923664122137404,-7.790732202148437,-0.7015010864257812,-0.24660277099609373,-16.732824427480917,22.549618320610687,-7.541984732824427,0.0
10.660000562667847,-11.61906065673828,-5.597643481445312,-0.4477157104492187,44.0763358778626,-142.13740458015266,-4.488549618320611,-8.52335791015625,-3.0813375366210938,0.16041151123046873,-18.9618320610687,33.587786259541986,-8.931297709923664,0.0
10.670000791549683,-11.8369330078125,-4.939238024902344,-1.5586252807617187,65.57251908396947,-128.99236641221373,-5.816793893129771,-10.419565624999999,-4.651933825683593,0.6177040283203125,-8.778625954198473,26.885496183206108,-10.366412213740459,0.0
10.680000305175781,-11.705251916503906,-2.9735984619140625,-2.6815058593749996,82.4885496183206,-110.30534351145039,-7.4961832061068705,-9.236830004882812,-2.901772412109375,-1.5251064575195312,-5.66412213740458,24.68702290076336,-15.938931297709924,0.0
10.690000534057617,-11.777077966308592,-0.928950244140625,-2.664746447753906,82.22900763358778,-94.01526717557252,-8.748091603053435,-11.537657800292967,-4.477157104492187,-0.047884033203124995,-4.580152671755725,30.50381679389313,-14.16793893129771,0.0
10.700000524520874,-12.083535778808592,-0.09576806640624999,-1.5227122558593749,64.7175572519084,-79.06870229007633,-8.763358778625955,-11.990161914062499,-5.051765502929687,0.0526724365234375,10.351145038167939,23.480916030534353,-12.030534351145038,0.0
10.71000051498413,-11.152191333007812,1.4341267944335936,-1.47482822265625,47.14503816793893,-70.59541984732824,-5.648854961832061,-10.826579907226561,-1.7645266235351562,-0.842758984375,14.229007633587786,16.442748091603054,-12.854961832061068,0.0
10.720000505447388,-11.434707128906249,1.7884686401367187,-0.22505495605468748,30.16793893129771,-63.87786259541985,0.732824427480916,-8.98304462890625,0.5386953735351562,-0.24660277099609373,-1.1603053435114503,21.83206106870229,-11.083969465648854,0.0
10.730000495910645,-12.241553088378906,2.6671406494140624,3.0502129150390624,14.687022900763358,-57.64885496183206,7.603053435114504,-10.958260998535156,-2.7341782958984373,1.39821376953125,-6.427480916030534,28.015267175572518,-3.099236641221374,0.0
10.740000247955322,-10.13226142578125,1.1468225952148436,2.231395947265625,10.763358778625955,-61.099236641221374,17.786259541984734,-10.965443603515624,-3.679887951660156,0.842758984375,3.4656488549618323,18.931297709923665,-3.282442748091603,0.0
10.750000476837158,-11.501744775390625,1.6998831787109374,4.7189714721679685,2.2595419847328246,-57.847328244274806,18.870229007633586,-9.708487731933593,-1.2401964599609374,-0.25139117431640623,9.419847328244275,15.34351145038168,-6.183206106870229,0.0
10.760000944137573,-10.122684619140625,2.1811177124023438,4.048595007324218,-8.793893129770993,-62.396946564885496,20.793893129770993,-9.315838659667968,-0.1149216796875,0.14604630126953125,-3.8931297709923665,11.236641221374045,-6.931297709923665,0.0
10.770000696182251,-9.667786303710937,2.461239306640625,3.124433166503906,-18.27480916030534,-64.25954198473282,24.229007633587788,-9.969455712890625,-0.32082302246093747,1.0678139404296874,-16.48854961832061,11.725190839694656,-1.3587786259541985,0.0
10.780000925064087,-8.353369592285155,2.3870190551757813,1.5610194824218748,-27.66412213740458,-65.29770992366412,28.900763358778626,-9.909600671386718,-0.7015010864257812,0.8188169677734375,-19.709923664122137,6.809160305343512,0.7175572519083969,0.0
10.790000677108765,-7.321468676757812,1.1180921752929687,0.7015010864257812,-34.534351145038165,-62.36641221374046,32.35114503816794,-10.237606298828124,-2.269703173828125,0.6488286499023437,-15.282442748091603,4.549618320610687,1.4045801526717556,0.0
10.800000429153442,-7.196970190429687,-0.430956298828125,0.49799394531249996,-41.11450381679389,-55.64885496183206,34.85496183206107,-10.182539660644531,-1.2641384765625,-0.97683427734375,-8.16793893129771,1.7404580152671756,-0.7633587786259542,0.0
10.8100004196167,-6.87614716796875,-1.5107412475585937,0.6248866333007812,-44.94656488549618,-51.14503816793893,32.229007633587784,-9.469067565917967,-0.076614453125,-1.3215993164062498,-9.664122137404581,-4.015267175572519,-2.1068702290076335,0.0
10.820000410079956,-7.44357296142578,-2.683900061035156,1.9033903198242186,-45.954198473282446,-45.221374045801525,29.801526717557252,-9.330203869628905,1.1468225952148436,-1.369483349609375,-16.748091603053435,-4.412213740458015,-0.8396946564885496,0.0
10.830000400543213,-7.292738256835937,-2.3870190551757813,2.5641899780273434,-41.87786259541985,-38.79389312977099,25.862595419847327,-8.877699755859375,1.838746875,-1.7549498168945312,-26.045801526717558,-2.732824427480916,0.4122137404580153,0.0
10.840000629425049,-7.247248425292969,-2.786850732421875,2.5546131713867184,-33.282442748091604,-37.6793893129771,25.801526717557252,-8.985438830566405,1.0654197387695312,-2.959233251953125,-34.213740458015266,1.2061068702290076,3.053435114503817,0.0
10.850001096725464,-8.544905725097657,-1.465251416015625,4.13718046875,-25.00763358778626,-31.450381679389313,23.46564885496183,-9.090783703613281,-1.0175357055664063,-1.5442600708007812,-36.83969465648855,2.717557251908397,5.374045801526718,0.0
10.860000610351562,-8.36294639892578,-1.5777788940429687,3.6439749267578123,-20.48854961832061,-31.84732824427481,21.66412213740458,-9.208099584960937,-0.01915361328125,-2.1404162841796874,-31.053435114503817,11.618320610687023,3.480916030534351,0.0
10.870000839233398,-6.737283471679687,-2.0877438476562498,2.446874096679687,-15.068702290076336,-31.374045801526716,20.442748091603054,-8.21690009765625,-0.7422025146484375,-2.6240450195312497,-36.82442748091603,15.038167938931299,4.366412213740458,0.0
10.880000591278076,-8.453926062011718,-1.6065093139648436,3.7229835815429686,-14.381679389312977,-28.732824427480917,16.366412213740457,-9.595960253906249,-3.1555577880859373,-1.4987702392578124,-28.061068702290076,20.48854961832061,5.297709923664122,0.0
10.890000581741333,-7.364564306640625,-2.8227637573242186,2.2673089721679687,-10.412213740458014,-31.908396946564885,13.19083969465649,-9.878476049804688,-4.520252734375,-1.189918225097656,-7.3893129770992365,21.557251908396946,3.816793893129771,0.0
10.900000810623169,-7.37414111328125,-2.6216508178710938,2.9975404785156248,-1.0687022900763359,-24.564885496183205,8.977099236641221,-9.006986645507812,-2.157175695800781,-2.3774422485351563,3.877862595419847,18.778625954198475,0.07633587786259542,0.0
10.910000562667847,-7.615955480957031,-2.2960393920898436,3.1483751831054687,3.5877862595419847,-22.3206106870229,5.190839694656488,-9.04050546875,-1.3383587280273437,-2.568978381347656,8.763358778625955,23.31297709923664,0.3816793893129771,0.0
10.920000314712524,-7.8529814453124995,-1.5179238525390624,3.6200329101562496,6.885496183206107,-19.31297709923664,2.4122137404580153,-9.847351428222655,-1.3359645263671873,-1.2306196533203124,14.931297709923664,28.748091603053435,2.33587786259542,0.0
10.93000078201294,-7.843404638671874,-1.3479355346679687,3.430890979003906,7.114503816793893,-17.954198473282442,-0.0916030534351145,-9.962273107910155,-1.2306196533203124,-1.6448165405273436,17.053435114503817,28.68702290076336,2.183206106870229,0.0
10.940000534057617,-7.41244833984375,-0.7852981445312499,3.246537451171875,10.16793893129771,-13.770992366412214,-1.8625954198473282,-9.655815295410155,-0.6823474731445313,-1.637633935546875,19.374045801526716,29.755725190839694,2.0,0.0
10.950000524520874,-7.232883215332031,-0.8738836059570312,2.8131869506835936,9.954198473282442,-12.091603053435115,-2.8091603053435112,-10.058041174316406,-0.6081272216796875,-0.9026140258789062,19.46564885496183,33.3587786259542,2.7480916030534353,0.0
10.96000051498413,-6.677428430175781,-0.430956298828125,2.6623522460937497,10.213740458015268,-6.824427480916031,-4.67175572519084,-9.3086560546875,-0.1292868896484375,-1.2952630981445312,14.580152671755725,32.58015267175573,2.0,0.0
10.970000505447388,-5.68862314453125,-1.01514150390625,1.5107412475585937,15.618320610687023,-1.9389312977099236,-4.091603053435114,-9.698910925292969,-0.9504980590820312,-0.4477157104492187,18.12213740458015,33.74045801526717,3.1908396946564888,0.0
10.980000734329224,-6.5960255737304685,-0.2059013427734375,2.1930887207031247,9.49618320610687,1.6793893129770991,-6.213740458015267,-10.287884533691406,-1.39821376953125,0.2753331909179687,18.931297709923665,34.58015267175573,3.8625954198473282,0.0
10.990000486373901,-7.2903440551757805,0.8164227661132812,2.89219560546875,3.145038167938931,6.259541984732825,-7.572519083969466,-9.80665,-0.20829554443359374,-0.42377369384765623,18.15267175572519,31.099236641221374,3.114503816793893,0.0
11.000000715255737,-5.614402893066406,-0.8116343627929687,1.7214309936523438,9.770992366412214,13.923664122137405,-5.4961832061068705,-10.139444030761718,-0.9241618408203125,0.6153098266601562,13.98473282442748,30.931297709923665,4.6106870229007635,0.0
11.010000944137573,-7.132326745605468,1.1563994018554686,2.9448680419921875,1.3435114503816794,19.84732824427481,-8.534351145038167,-9.670180505371093,0.8690952026367187,-0.38307226562499996,6.549618320610687,24.396946564885496,2.5801526717557253,0.0
11.02000093460083,-7.079654309082031,1.3766659545898436,2.7964275390625,-4.412213740458015,23.31297709923664,-7.526717557251908,-10.314220751953124,-0.699106884765625,0.5386953735351562,-0.5038167938931297,27.00763358778626,6.8396946564885495,0.0
11.030000686645508,-6.9527616210937495,1.3551181396484375,2.7820623291015623,-14.870229007633588,26.198473282442748,-6.488549618320611,-9.923965881347655,-0.39743747558593745,0.14604630126953125,-7.923664122137405,23.69465648854962,7.175572519083969,0.0
11.040000677108765,-6.701370446777343,1.1563994018554686,2.6815058593749996,-20.85496183206107,29.49618320610687,-4.625954198473282,-9.852139831542969,-0.8810662109374999,0.21308394775390624,-10.83969465648855,21.709923664122137,7.984732824427481,0.0
11.050000667572021,-6.193799694824218,0.469263525390625,2.583343591308594,-22.885496183206108,35.29770992366412,-3.480916030534351,-9.878476049804688,-1.0797849487304687,0.22026655273437498,-13.603053435114504,20.091603053435115,8.290076335877863,0.0
11.060000658035278,-7.6614453125,2.252943762207031,4.192247106933594,-33.7557251908397,41.11450381679389,-6.412213740458015,-9.775525378417969,-1.3263877197265623,0.2442085693359375,-13.068702290076336,18.427480916030536,8.381679389312977,0.0
11.070000648498535,-6.7803791015625,1.2713210815429687,3.488351818847656,-43.74045801526717,37.55725190839695,-2.2595419847328246,-9.469067565917967,-0.948103857421875,-0.08140285644531249,-13.664122137404581,15.648854961832061,9.022900763358779,0.0
11.080000877380371,-6.078878015136718,-0.16759411621093748,3.1794998046874996,-44.045801526717554,40.38167938931298,1.5572519083969465,-9.392453112792968,-1.7741034301757812,0.1484405029296875,-13.007633587786259,15.648854961832061,10.0,0.0
11.090000629425049,-5.973533142089844,-0.8786720092773437,3.4093431640625,-34.80916030534351,48.61068702290076,3.816793893129771,-9.107543115234375,-0.9169792358398436,-0.5219359619140624,-10.748091603053435,11.374045801526718,8.748091603053435,0.0
11.100000858306885,-6.995857250976562,-0.3016694091796875,4.728548278808593,-27.221374045801525,59.05343511450382,5.0534351145038165,-9.41639512939453,-1.1707646118164061,-0.40222587890625,-15.618320610687023,15.419847328244275,11.404580152671755,0.0
11.110000848770142,-7.235277416992187,0.1292868896484375,5.006275671386718,-21.267175572519083,62.56488549618321,10.854961832061068,-9.318232861328125,-1.438915197753906,-0.40222587890625,-12.595419847328245,14.549618320610687,11.801526717557252,0.0
11.12000060081482,-7.431601953125,0.023942016601562498,6.253654736328125,-14.030534351145038,67.14503816793894,15.312977099236642,-9.555258825683593,-1.5777788940429687,-0.42377369384765623,-11.206106870229007,14.51908396946565,13.16030534351145,0.0
11.130000829696655,-8.068459594726562,0.5602431884765625,7.395688928222656,-12.748091603053435,65.92366412213741,16.35114503816794,-9.229647399902344,-0.8738836059570312,-0.7134720947265625,-10.961832061068701,14.82442748091603,12.83969465648855,0.0
11.140000820159912,-8.836998327636719,0.9600748657226562,8.655039001464843,-15.86259541984733,61.7557251908397,16.091603053435115,-9.670180505371093,-0.4740519287109375,-0.40222587890625,-11.419847328244275,15.725190839694656,13.572519083969466,0.0
11.15000057220459,-9.009380847167968,0.7158662963867187,8.805873706054687,-16.595419847328245,52.30534351145038,16.53435114503817,-9.679757312011718,-0.22026655273437498,-0.19153613281249998,-15.114503816793894,15.755725190839694,15.267175572519085,0.0
11.160000562667847,-9.354145886230468,-0.20350714111328125,8.980650427246093,-11.954198473282442,44.79389312977099,16.748091603053435,-9.586383447265625,-0.16998831787109375,0.20350714111328125,-15.740458015267176,16.290076335877863,16.885496183206108,0.0
11.170000553131104,-10.184933862304687,-0.47644613037109373,8.79150849609375,-10.580152671755725,34.961832061068705,15.49618320610687,-9.82580361328125,0.1197100830078125,-0.22744915771484372,-20.15267175572519,15.648854961832061,18.12213740458015,0.0
11.18000054359436,-10.110713610839843,-1.2210428466796874,6.457161877441406,-11.98473282442748,27.022900763358777,12.748091603053435,-10.09395419921875,-0.3447650390625,-0.3232172241210937,-24.931297709923665,17.755725190839694,20.137404580152673,0.0
11.190000772476196,-11.295843432617186,-2.2673089721679687,4.089296435546875,-11.007633587786259,26.076335877862597,10.641221374045802,-10.764330664062498,-0.8858546142578124,-0.6488286499023437,-27.572519083969464,17.862595419847327,21.450381679389313,0.0
11.200000524520874,-14.214375256347655,-3.308786694335937,3.4811692138671875,-11.389312977099237,28.47328244274809,12.183206106870228,-11.477802758789062,-0.8810662109374999,-1.1037269653320312,-28.68702290076336,16.9618320610687,20.671755725190838,0.0
11.21000051498413,-14.164097021484373,-5.391742138671875,5.334281298828125,5.557251908396947,38.732824427480914,15.068702290076336,-11.405976708984374,-1.2593500732421874,-0.6200982299804687,-36.74809160305343,18.99236641221374,21.541984732824428,0.0
11.220000267028809,-13.654132067871092,-5.049371301269531,8.147468249511718,14.534351145038167,37.343511450381676,7.465648854961832,-11.044452258300781,-0.45968671875,-0.8954314208984374,-37.38931297709924,15.664122137404581,20.53435114503817,0.0
11.230000734329224,-15.2845833984375,-1.120486376953125,10.54645831298828,17.49618320610687,23.61832061068702,0.8244274809160306,-12.054805358886718,-1.944091748046875,0.011971008300781249,-29.267175572519083,14.885496183206106,23.923664122137403,0.0
11.240000247955322,-15.152902307128905,-0.40222587890625,10.692504614257812,51.29770992366412,17.00763358778626,9.007633587786259,-12.196063256835936,-1.6256629272460936,-0.5386953735351562,-24.396946564885496,10.916030534351146,24.870229007633586,0.0
11.250000476837158,-13.70680450439453,4.762067102050781,6.339845996093749,47.19083969465649,7.450381679389313,12.274809160305344,-13.043610644531249,-1.0079588989257813,-1.5227122558593749,-27.328244274809162,7.603053435114504,23.908396946564885,0.0
11.260000944137573,-8.307879760742187,0.7852981445312499,-1.0079588989257813,49.20610687022901,4.091603053435114,18.99236641221374,-13.970166687011718,-0.023942016601562498,-1.5801730957031248,-33.3587786259542,2.1526717557251906,23.66412213740458,0.0
11.270000457763672,-6.244077929687499,-1.3096283081054687,-4.192247106933594,48.274809160305345,16.641221374045802,12.274809160305344,-15.045163232421874,-1.0271125122070313,-0.8786720092773437,-31.786259541984734,-3.450381679389313,26.99236641221374,0.0
11.280000925064087,-5.810727429199218,-1.4030021728515625,-5.090072729492187,38.35114503816794,25.83206106870229,0.42748091603053434,-14.238317272949217,-0.2442085693359375,-1.2378022583007813,-21.938931297709924,-18.33587786259542,26.045801526717558,0.0
11.290000677108765,-6.1842228881835934,1.0342951171875,-4.158728283691406,24.35114503816794,36.76335877862596,-5.6183206106870225,-13.632584252929687,1.189918225097656,-0.9145850341796874,-15.755725190839694,-21.709923664122137,27.709923664122137,0.0
11.300000667572021,-7.802703210449218,3.840299462890625,-2.6144682128906247,4.213740458015267,43.89312977099237,-5.3893129770992365,-12.076353173828124,1.7908628417968748,-1.7477672119140624,-10.946564885496183,-23.755725190839694,27.984732824427482,0.0
11.310000658035278,-7.520187414550781,2.252943762207031,-2.5665841796874997,-1.5572519083969465,49.57251908396947,2.122137404580153,-10.666168395996094,0.43574470214843747,-0.3591302490234375,0.4122137404580153,-28.519083969465647,28.427480916030536,0.0
11.320000648498535,-8.379705810546875,1.637633935546875,-1.9105729248046874,0.44274809160305345,60.6412213740458,4.519083969465649,-10.213664282226562,0.7254431030273437,0.7996633544921875,11.801526717557252,-34.61068702290076,27.0381679389313,0.0
11.330000638961792,-9.176974963378905,1.9536685546875,-1.3742717529296875,-0.9770992366412213,68.61068702290076,2.549618320610687,-8.034940771484374,3.5529952636718747,-0.3758896606445312,5.236641221374046,-38.82442748091603,23.87786259541985,0.0
11.34000039100647,-9.229647399902344,1.1923124267578125,-1.177947216796875,-6.244274809160306,71.49618320610686,2.6259541984732824,-7.541735229492187,4.44363828125,-1.1348515869140625,-13.679389312977099,-29.114503816793892,25.893129770992367,0.0
11.350000381469727,-10.340556970214843,0.5027823486328125,-0.24181436767578124,-11.511450381679388,73.16030534351145,1.5877862595419847,-7.934384301757812,1.5322890624999999,0.40462008056640625,-31.17557251908397,-25.251908396946565,32.36641221374046,0.0
11.360000610351562,-10.867281335449219,-0.49320554199218747,0.8044517578125,-12.763358778625955,70.16793893129771,0.9007633587786259,-8.75320126953125,-0.6416460449218749,0.9361328491210937,-30.18320610687023,-24.931297709923665,30.763358778625953,0.0
11.370000839233398,-10.32379755859375,-0.9696516723632812,0.9911994873046874,-8.50381679389313,66.9618320610687,0.9923664122137404,-8.099584216308592,-1.0007762939453124,-0.6751648681640625,-22.30534351145038,-28.442748091603054,25.83206106870229,0.0
11.380000591278076,-9.428366137695312,-2.3343466186523436,0.5363011718749999,1.4351145038167938,64.97709923664122,0.9465648854961832,-8.896853369140624,-1.5801730957031248,0.011971008300781249,-16.396946564885496,-28.870229007633586,21.480916030534353,0.0
11.390000820159912,-8.559270935058594,-1.0390835205078124,1.4867992309570313,18.564885496183205,67.2824427480916,-1.4351145038167938,-8.55448253173828,-0.0909796630859375,-1.5777788940429687,-19.114503816793892,-26.80916030534351,17.938931297709924,0.0
11.40000057220459,-8.520963708496094,-0.0430956298828125,1.4101847778320311,24.85496183206107,64.42748091603053,-3.786259541984733,-9.188945971679686,0.24181436767578124,-2.0374656127929685,-23.49618320610687,-19.404580152671755,18.12213740458015,0.0
11.410000562667847,-9.356540087890625,0.354341845703125,1.39821376953125,30.977099236641223,63.00763358778626,-4.1679389312977095,-8.710105639648438,-0.8571241943359375,-1.5921441040039062,-29.709923664122137,-17.61832061068702,19.00763358778626,0.0
11.420000553131104,-9.366116894531249,0.1484405029296875,2.061407629394531,35.770992366412216,59.51145038167939,-4.396946564885496,-9.126696728515624,-2.703053674316406,-2.1883003173828124,-15.099236641221374,-15.969465648854962,16.015267175572518,0.0
11.430000305175781,-9.890447058105469,0.9888052856445312,2.269703173828125,37.93893129770992,57.221374045801525,-6.351145038167939,-8.24802471923828,-2.0087351928710935,-3.2321722412109373,-2.9618320610687023,-12.458015267175572,12.122137404580153,0.0
11.440000534057617,-8.963891015625,0.10295067138671875,1.2832920898437499,42.76335877862596,51.770992366412216,-6.213740458015267,-8.073247998046874,-1.5753846923828123,-3.6583401367187496,7.419847328244275,-8.977099236641221,7.847328244274809,0.0
11.450000762939453,-10.271125122070313,1.8842367065429686,1.7238251953125,47.25190839694657,52.091603053435115,-5.541984732824427,-8.528146313476562,-1.5849614990234373,-3.8187516479492185,18.045801526717558,-5.480916030534351,3.984732824427481,0.0
11.460000991821289,-11.777077966308592,3.564966271972656,1.6927005737304686,43.6793893129771,51.89312977099237,-1.251908396946565,-8.894459167480468,-1.89620771484375,-2.729389892578125,31.49618320610687,-5.603053435114504,0.9312977099236641,0.0
11.470000505447388,-12.35408056640625,4.04141240234375,2.138022082519531,30.229007633587788,49.48091603053435,5.633587786259542,-8.635885388183594,-0.6512228515624999,-2.166752502441406,40.06106870229008,-9.083969465648854,-3.099236641221374,0.0
11.480000734329224,-10.843339318847656,3.1938650146484373,1.2282254516601563,17.419847328244273,45.32824427480916,11.053435114503817,-8.552088330078124,0.13407529296874998,-1.8100164550781248,43.32824427480916,-13.267175572519085,-6.122137404580153,0.0
11.490000486373901,-9.622296472167967,2.157175695800781,2.001552587890625,3.3740458015267176,41.31297709923664,10.122137404580153,-10.230423693847655,0.14604630126953125,-0.8403647827148437,48.88549618320611,-12.900763358778626,-6.1679389312977095,0.0
11.500000715255737,-9.399635717773437,0.7613561279296874,1.0438719238281249,-4.595419847328245,35.12977099236641,7.083969465648855,-9.974244116210937,1.3407529296874998,-0.0526724365234375,45.954198473282446,-20.778625954198475,-8.244274809160306,0.0
11.510000467300415,-10.060435375976562,0.6512228515624999,1.2737152832031249,-8.931297709923664,36.99236641221374,1.633587786259542,-9.698910925292969,2.655169641113281,-0.7852981445312499,38.33587786259542,-24.18320610687023,-10.412213740458014,0.0
11.520000696182251,-9.674968908691406,1.438915197753906,1.429338391113281,-16.30534351145038,35.37404580152672,-3.0839694656488548,-9.512163195800781,4.742913488769531,-2.1643583007812497,30.702290076335878,-22.82442748091603,-10.198473282442748,0.0
11.530000686645508,-10.27830772705078,0.44053310546874996,1.1540052001953125,-20.717557251908396,32.656488549618324,-4.8396946564885495,-9.871293444824218,4.592078784179687,-1.2425906616210938,13.877862595419847,-23.66412213740458,-7.66412213740458,0.0
11.540000915527344,-9.361328491210937,-0.08379705810546874,0.5889736083984375,-17.96946564885496,31.34351145038168,-6.091603053435114,-10.503362683105468,4.247313745117188,-0.9121908325195311,3.816793893129771,-21.52671755725191,-5.32824427480916,0.0
11.550000667572021,-8.147468249511718,0.40940848388671874,-0.18914193115234373,-13.877862595419847,30.229007633587788,-7.801526717557252,-10.192116467285155,3.6008792968749996,-0.842758984375,-12.977099236641221,-20.412213740458014,-5.267175572519084,0.0
11.560000658035278,-9.370905297851563,1.5227122558593749,0.12689268798828124,-15.603053435114504,29.51145038167939,-8.625954198473282,-10.101136804199218,2.3032219970703123,-1.3575123413085937,-12.595419847328245,-23.206106870229007,-6.67175572519084,0.0
11.570000886917114,-10.43153663330078,1.024718310546875,-0.04548983154296875,-19.755725190839694,26.396946564885496,-7.251908396946565,-10.034099157714843,0.9097966308593749,0.02154781494140625,-15.236641221374045,-29.083969465648856,-7.114503816793893,0.0
11.580000638961792,-10.019733947753906,0.9504980590820312,-0.2609679809570312,-13.786259541984732,24.259541984732824,-4.396946564885496,-10.579977136230468,0.17477672119140625,0.3495534423828125,-7.145038167938932,-29.083969465648856,-8.50381679389313,0.0
11.590000629425049,-10.273519323730468,1.446097802734375,0.11252747802734374,-16.9618320610687,20.15267175572519,-3.267175572519084,-10.232817895507813,0.1388636962890625,-1.5227122558593749,-1.4045801526717556,-36.61068702290076,-12.67175572519084,0.0
11.600000619888306,-10.71884083251953,2.940079638671875,1.0773907470703123,-10.396946564885496,24.091603053435115,-2.3969465648854964,-8.664615808105468,2.205059729003906,-1.120486376953125,-9.358778625954198,-37.06870229007634,-15.603053435114504,0.0
11.610000610351562,-9.734823950195311,2.142810485839844,0.5027823486328125,-19.51145038167939,18.091603053435115,1.9541984732824427,-8.564059338378906,3.0166940917968748,-1.3575123413085937,-26.03053435114504,-31.374045801526716,-13.389312977099237,0.0
11.62000060081482,-10.658985791015624,2.0661960327148434,1.0917559570312498,-23.16030534351145,15.572519083969466,4.1679389312977095,-9.840168823242188,0.8595183959960937,-0.3327940307617187,-28.580152671755727,-26.763358778625953,-8.717557251908397,0.0
11.630000829696655,-10.012551342773437,0.7254431030273437,0.5027823486328125,-21.083969465648856,14.183206106870228,4.809160305343512,-9.617508068847656,0.4333505004882812,-0.055066638183593745,-28.015267175572518,-26.671755725190838,-9.221374045801527,0.0
11.640000820159912,-10.682927807617187,1.4173673828125,1.0606313354492187,-21.46564885496183,14.122137404580153,3.480916030534351,-10.184933862304687,-1.6448165405273436,0.258573779296875,-16.045801526717558,-26.366412213740457,-9.022900763358779,0.0
11.65000057220459,-9.849745629882811,0.031124621582031248,0.34237083740234375,-20.48854961832061,9.374045801526718,3.0381679389312977,-10.326191760253906,-1.3575123413085937,-0.4860229370117187,7.679389312977099,-31.435114503816795,-11.145038167938932,0.0
11.660000324249268,-9.911994873046874,0.2705447875976562,0.35673604736328124,-13.893129770992367,10.702290076335878,1.1145038167938932,-9.97184991455078,-0.7661445312499999,-0.05985504150390625,25.64885496183206,-41.69465648854962,-15.32824427480916,0.0
11.670000553131104,-9.583989245605467,0.239420166015625,0.143652099609375,-16.702290076335878,7.358778625954199,-0.6412213740458015,-9.227253198242186,1.2018892333984375,-0.21787235107421873,27.068702290076335,-47.55725190839695,-18.83969465648855,0.0
11.68000054359436,-10.271125122070313,0.699106884765625,0.3136404174804687,-16.83969465648855,6.122137404580153,-0.9465648854961832,-8.767566479492187,2.7964275390625,-1.3072341064453123,18.229007633587788,-37.48091603053435,-17.46564885496183,0.0
11.690000534057617,-10.081983190917969,0.19153613281249998,0.30885201416015623,-13.954198473282442,5.770992366412214,-0.1984732824427481,-8.796296899414061,1.3407529296874998,-0.21308394775390624,3.969465648854962,-37.14503816793893,-11.938931297709924,0.0
11.700000286102295,-10.433930834960936,0.46208092041015625,0.13168109130859373,-14.885496183206106,2.4427480916030535,-1.3893129770992367,-9.83777462158203,-0.4908113403320312,-0.18435352783203124,12.900763358778626,-38.25954198473283,-10.106870229007633,0.0
11.71000051498413,-10.019733947753906,0.11252747802734374,-0.05985504150390625,-7.374045801526718,1.3129770992366412,-0.7175572519083969,-10.144232434082031,-0.5985504150390625,0.584185205078125,32.93129770992366,-34.68702290076336,-11.740458015267176,0.0
11.720000267028809,-9.739612353515625,-0.23223756103515625,-0.316034619140625,0.916030534351145,1.5725190839694656,0.04580152671755725,-9.842563024902343,0.689530078125,-0.2609679809570312,41.14503816793893,-41.17557251908397,-14.13740458015267,0.0
11.730000495910645,-10.381258398437499,1.0342951171875,0.39743747558593745,4.809160305343512,2.732824427480916,-1.2061068702290076,-8.473079675292968,2.4444798950195312,-1.0007762939453124,38.82442748091603,-39.45038167938932,-15.145038167938932,0.0
11.74000072479248,-10.287884533691406,0.45489831542968745,0.009576806640625,6.106870229007634,1.0229007633587786,-0.16793893129770993,-8.846575134277343,3.7708676147460936,-0.584185205078125,24.946564885496183,-30.15267175572519,-11.007633587786259,0.0
11.750000476837158,-10.32379755859375,0.8858546142578124,0.2059013427734375,6.625954198473282,2.015267175572519,-0.732824427480916,-9.641450085449218,1.8052280517578123,0.086191259765625,7.32824427480916,-24.229007633587788,-6.1679389312977095,0.0
11.760000944137573,-9.6917283203125,0.6512228515624999,-0.28012159423828126,5.190839694656488,-0.04580152671755725,-0.9618320610687023,-10.096348400878906,1.189918225097656,0.4213794921875,8.885496183206106,-26.549618320610687,-4.961832061068702,0.0
11.770000696182251,-9.047688073730468,0.201112939453125,-0.6919242797851562,9.16030534351145,0.9770992366412213,-0.6870229007633588,-9.792284790039062,0.8954314208984374,-0.11013327636718749,12.091603053435115,-26.3206106870229,-6.061068702290076,0.0
11.780000925064087,-9.435548742675781,0.7206546997070312,-0.41419688720703124,10.01526717557252,1.7251908396946565,-1.9389312977099236,-9.471461767578125,1.1085153686523437,0.20829554443359374,14.213740458015268,-25.893129770992367,-6.5038167938931295,0.0
11.790000677108765,-9.497797985839844,0.48123453369140623,-0.354341845703125,12.732824427480915,2.9923664122137406,-2.7022900763358777,-9.70369932861328,1.1348515869140625,0.17238251953125,20.580152671755727,-31.19083969465649,-6.870229007633588,0.0
11.800000667572021,-9.943119494628906,0.9816226806640624,-0.105344873046875,12.061068702290076,2.732824427480916,-4.458015267175573,-9.555258825683593,0.9888052856445312,0.93852705078125,23.068702290076335,-30.18320610687023,-6.9465648854961835,0.0
11.810000658035278,-9.9215716796875,0.70868369140625,0.15322890625,13.48091603053435,3.5877862595419847,-5.190839694656488,-9.459490759277344,0.5578489868164063,0.86191259765625,25.374045801526716,-32.54961832061068,-7.419847328244275,0.0
11.820000886917114,-9.821015209960937,0.8643067993164062,0.09816226806640624,11.587786259541986,3.145038167938931,-6.152671755725191,-9.437942944335937,1.3623007446289062,0.45489831542968745,25.328244274809162,-40.595419847328245,-8.870229007633588,0.0
11.830000638961792,-9.94072529296875,1.6831237670898436,0.201112939453125,10.67175572519084,4.305343511450381,-7.221374045801527,-7.75721337890625,3.4332851806640625,-0.4836287353515625,17.61832061068702,-35.404580152671755,-10.076335877862595,0.0
11.840000867843628,-10.103531005859374,2.2266075439453124,0.19393033447265623,3.1755725190839694,3.3893129770992365,-5.969465648854962,-7.845798840332031,3.4931402221679684,-0.09576806640624999,-3.7557251908396947,-32.0763358778626,-6.870229007633588,0.0
11.850000858306885,-10.098742602539062,1.85790048828125,0.21308394775390624,-1.0687022900763359,3.5572519083969465,-4.717557251908397,-9.809044201660155,0.7445967163085937,0.5458779785156249,-7.893129770992366,-22.106870229007633,-0.33587786259541985,0.0
11.860000371932983,-9.854534033203125,0.9433154541015625,-0.1005564697265625,-2.900763358778626,1.9541984732824427,-3.969465648854962,-9.418789331054686,0.3711012573242187,0.09576806640624999,-3.7099236641221376,-25.587786259541986,-1.7709923664122138,0.0
11.870000839233398,-9.727641345214844,0.2705447875976562,-0.41419688720703124,-0.8702290076335878,2.351145038167939,-5.175572519083969,-9.629479077148437,0.040701428222656245,0.09576806640624999,6.900763358778626,-22.68702290076336,-4.854961832061068,0.0
11.880000591278076,-9.363722692871093,-0.17956512451171874,-0.7493851196289062,6.137404580152672,3.7557251908396947,-5.312977099236641,-8.348581188964843,0.689530078125,-0.4070142822265625,3.0839694656488548,-24.244274809160306,-5.435114503816794,0.0
11.890000820159912,-10.17056865234375,0.9409212524414062,-0.17477672119140625,9.587786259541986,8.458015267175572,-9.129770992366412,-10.261548315429687,-0.28012159423828126,-0.10773907470703124,11.679389312977099,-16.061068702290076,-3.816793893129771,0.0
11.90000033378601,-11.135431921386719,2.6527754394531247,0.8259995727539062,5.419847328244275,8.396946564885496,-12.198473282442748,-9.323021264648437,0.4381389038085937,-1.2330138549804688,14.198473282442748,-19.129770992366414,-6.687022900763359,0.0
11.910000562667847,-9.952696301269532,1.5658078857421873,0.25139117431640623,-1.816793893129771,3.450381679389313,-8.992366412213741,-9.30147344970703,0.26336218261718747,-0.3327940307617187,13.664122137404581,-19.557251908396946,-7.740458015267175,0.0
11.920000553131104,-9.279925634765624,0.7206546997070312,0.40940848388671874,3.954198473282443,5.190839694656488,-8.320610687022901,-9.052476477050782,-0.74699091796875,-0.7254431030273437,17.572519083969464,-13.022900763358779,-7.1603053435114505,0.0
11.930000305175781,-10.08677159423828,1.39821376953125,0.612915625,-2.8396946564885495,3.1603053435114505,-11.022900763358779,-9.947907897949218,0.3854664672851562,-0.3184288208007812,32.396946564885496,-16.16793893129771,-8.702290076335878,0.0
11.940000534057617,-10.1131078125,1.7693150268554687,0.9313444458007812,-2.2442748091603053,1.8931297709923665,-10.625954198473282,-8.032546569824218,1.350329736328125,-0.7685387329101562,21.46564885496183,-15.679389312977099,-12.320610687022901,0.0
11.950000524520874,-10.117896215820313,1.2928688964843749,1.1540052001953125,-3.3893129770992365,1.6946564885496183,-9.145038167938932,-8.70771143798828,1.2497732666015624,-0.3687070556640625,15.923664122137405,-4.305343511450381,-10.091603053435115,0.0
11.96000051498413,-10.268730920410155,1.0414777221679687,1.7334020019531249,-3.1603053435114505,-1.6793893129770991,-9.83206106870229,-9.816226806640625,0.07900865478515624,-0.02633621826171875,18.198473282442748,-3.0381679389312977,-8.610687022900763,0.0
11.970000505447388,-10.091559997558592,0.8810662109374999,1.7860744384765623,0.16793893129770993,-5.038167938931298,-10.625954198473282,-9.45470235595703,0.1771709228515625,0.05985504150390625,21.374045801526716,-2.9770992366412212,-10.641221374045802,0.0
11.980000972747803,-9.710881933593749,0.9265560424804687,2.0973206542968748,3.1755725190839694,-8.687022900763358,-11.618320610687023,-8.930372192382812,0.7350199096679687,0.040701428222656245,24.12213740458015,-0.8549618320610687,-13.511450381679388,0.0
11.990000486373901,-9.832986218261718,1.1731588134765625,2.27927998046875,6.1679389312977095,-11.98473282442748,-12.549618320610687,-8.504204296874999,1.216254443359375,-0.11013327636718749,23.64885496183206,1.8473282442748091,-14.106870229007633,0.0
12.000000715255737,-9.91438907470703,1.5945383056640625,2.990357873535156,6.732824427480916,-16.38167938931298,-12.946564885496183,-8.135497241210937,1.5298948608398437,-0.2920926025390625,17.557251908396946,3.801526717557252,-13.954198473282442,0.0
12.010000467300415,-9.95987890625,1.6136919189453125,3.6343981201171873,6.152671755725191,-21.786259541984734,-12.51908396946565,-7.541735229492187,2.2361843505859373,-0.9169792358398436,8.213740458015268,6.824427480916031,-14.687022900763358,0.0
12.020000696182251,-9.97903251953125,1.848323681640625,4.572925170898437,4.625954198473282,-28.015267175572518,-12.625954198473282,-8.087613208007811,1.407790576171875,-0.8020575561523438,0.5954198473282443,14.549618320610687,-13.389312977099237,0.0
12.030000448226929,-9.871293444824218,1.668758557128906,5.528211633300781,3.2213740458015265,-36.6412213740458,-12.778625954198473,-8.298302954101562,0.7110778930664062,-0.39743747558593745,-2.4580152671755724,18.53435114503817,-13.267175572519085,0.0
12.040000677108765,-10.606313354492187,3.246537451171875,7.407659936523437,-4.778625954198473,-46.29007633587786,-14.641221374045802,-7.785943798828124,1.3718775512695311,-0.679953271484375,-3.404580152671756,18.244274809160306,-15.954198473282442,0.0
12.050000667572021,-10.958260998535156,3.6679169433593746,8.779537487792968,-22.50381679389313,-65.6793893129771,-13.267175572519085,-6.433219860839843,1.8507178833007811,-1.6711527587890624,-9.816793893129772,20.702290076335878,-17.6793893129771,0.0
12.060000658035278,-11.748347546386718,3.5697546752929687,9.928754284667969,-34.732824427480914,-88.27480916030534,-9.038167938931299,-6.138733056640625,2.7198130859375,-0.8403647827148437,-21.908396946564885,26.12213740458015,-17.068702290076335,0.0
12.070000648498535,-11.235988391113281,3.2704794677734372,11.18571015625,-38.47328244274809,-108.12213740458016,-4.549618320610687,-5.403713146972656,2.142810485839844,-1.465251416015625,-36.93129770992366,34.79389312977099,-14.732824427480915,0.0
12.080000400543213,-11.75313594970703,3.0119056884765625,11.712434521484374,-40.68702290076336,-129.8320610687023,-0.3969465648854962,-7.580042456054687,-1.2042834350585936,-0.0143652099609375,-36.54961832061068,39.267175572519086,-12.244274809160306,0.0
12.09000039100647,-11.824961999511718,1.6519991455078125,12.457031237792968,-32.44274809160305,-154.68702290076337,2.4580152671755724,-9.674968908691406,-3.450044592285156,-0.19632453613281248,-13.312977099236642,37.908396946564885,-15.908396946564885,0.0
12.100000619888306,-11.628637463378906,-0.1005564697265625,10.87206973876953,-16.366412213740457,-174.8854961832061,2.5343511450381677,-10.129867224121092,-0.6200982299804687,-0.27293898925781246,3.0839694656488548,34.83969465648855,-22.946564885496183,0.0
12.110000848770142,-9.13627353515625,-1.5514426757812498,6.58884296875,-24.519083969465647,-189.49618320610688,-5.7251908396946565,-12.425906616210936,1.426944189453125,-0.4740519287109375,6.641221374045801,41.31297709923664,-20.946564885496183,0.0
12.12000060081482,-11.226411584472656,-4.2305543334960936,4.762067102050781,-24.47328244274809,-201.0229007633588,-16.15267175572519,-18.66759034423828,0.29448680419921874,1.66636435546875,20.717557251908396,43.6793893129771,-14.473282442748092,0.0
12.130000829696655,-13.09388887939453,-5.693411547851563,2.176329309082031,8.748091603053435,-201.29770992366412,-18.47328244274809,-19.60611739501953,1.2521674682617188,0.9337386474609375,32.62595419847328,33.083969465648856,-12.351145038167939,0.0
12.140000581741333,-15.198392138671874,-5.659892724609374,1.6711527587890624,47.43511450381679,-190.68702290076337,-14.946564885496183,-14.34605634765625,4.946420629882812,-0.9074024291992187,23.801526717557252,25.49618320610687,-7.00763358778626,0.0
12.15000057220459,-17.343596826171876,-3.9600095458984375,2.559401574707031,74.12213740458016,-177.98473282442748,-11.648854961832061,-10.613495959472656,3.356670727539062,-0.28730419921875,4.152671755725191,36.67175572519084,5.679389312977099,0.0
12.160000562667847,-16.651672546386717,-2.6048914062499997,1.9009961181640624,86.87022900763358,-168.3969465648855,-6.916030534351145,-9.674968908691406,0.06703764648437499,0.00239420166015625,-6.656488549618321,37.404580152671755,10.51908396946565,0.0
12.170001029968262,-16.824055065917968,-1.005564697265625,1.4867992309570313,91.52671755725191,-154.77862595419847,-5.648854961832061,-7.4962453979492185,-1.697488977050781,-1.4820108276367188,-25.099236641221374,37.9236641221374,0.4732824427480916,0.0
12.18000054359436,-14.884751721191405,0.373495458984375,-0.7038952880859375,87.95419847328245,-145.31297709923663,-4.6106870229007635,-5.521029028320312,-1.2665326782226562,-3.4955344238281247,-29.19083969465649,42.76335877862596,-8.763358778625955,0.0
12.190000534057617,-13.493720556640625,1.5059528442382812,-1.0199299072265624,85.09923664122137,-130.67175572519085,-0.6412213740458015,-8.769960681152343,-5.058948107910156,-1.7980454467773437,-27.801526717557252,48.458015267175576,-10.51908396946565,0.0
12.200000524520874,-10.735600244140624,1.5346832641601562,-1.9321207397460936,82.65648854961832,-113.55725190839695,4.793893129770993,-9.157821350097656,-4.438849877929687,-2.2074539306640624,-26.259541984732824,48.58015267175573,-13.007633587786259,0.0
12.210000276565552,-8.999804040527343,2.7748797241210936,-1.946485949707031,69.93893129770993,-93.0381679389313,9.068702290076336,-10.536881506347656,-5.449202978515625,-0.9313444458007812,-27.572519083969464,49.64885496183206,-10.793893129770993,0.0
12.220000505447388,-7.864952453613281,2.5617957763671875,-2.398990063476562,56.47328244274809,-78.22900763358778,14.946564885496183,-10.627861169433594,-4.927267016601562,-0.18914193115234373,-20.0,40.030534351145036,-9.465648854961833,0.0
12.230000495910645,-7.979874133300781,4.666299035644531,-0.4525041137695312,39.23664122137404,-60.33587786259542,17.587786259541986,-10.771513269042968,-2.50912333984375,0.8930372192382812,-24.717557251908396,31.16030534351145,-8.564885496183207,0.0
12.24000072479248,-8.283937744140625,5.518634826660156,-0.201112939453125,7.847328244274809,-48.87022900763359,25.0381679389313,-9.433154541015625,0.699106884765625,1.2497732666015624,-41.80152671755725,29.328244274809162,-6.442748091603053,0.0
12.250000476837158,-9.02135185546875,6.169857678222656,1.2497732666015624,-23.52671755725191,-42.458015267175576,35.23664122137404,-11.269507214355468,-2.7629087158203123,4.247313745117188,-48.01526717557252,27.450381679389313,0.366412213740458,0.0
12.260000944137573,-9.117119921875,4.99909306640625,1.22583125,-46.51908396946565,-36.79389312977099,46.25954198473283,-10.455478649902343,-0.40940848388671874,2.4947581298828125,-39.9236641221374,14.15267175572519,2.2290076335877864,0.0
12.270000696182251,-8.966285217285156,3.2130186279296873,1.0199299072265624,-70.25954198473282,-31.87786259541985,53.87786259541985,-10.108319409179687,0.9935936889648437,1.9632453613281249,-53.61832061068702,9.83206106870229,1.9694656488549618,0.0
12.280000686645508,-8.43956085205078,1.024718310546875,0.35673604736328124,-87.87786259541984,-32.42748091603053,57.221374045801525,-10.299855541992187,0.48123453369140623,2.7150246826171873,-56.01526717557252,7.908396946564886,5.480916030534351,0.0
12.290000438690186,-7.673416320800781,-1.1875240234375,0.7565677246093749,-95.52671755725191,-32.36641221374046,54.70229007633588,-10.687716210937499,-1.6160861206054686,1.879448303222656,-42.595419847328245,1.83206106870229,8.564885496183207,0.0
12.300000429153442,-8.846575134277343,-2.0973206542968748,2.940079638671875,-95.86259541984732,-30.076335877862597,48.47328244274809,-9.363722692871093,0.10295067138671875,-0.13168109130859373,-29.404580152671755,-7.893129770992366,6.366412213740458,0.0
12.310000658035278,-7.611167077636718,-1.7908628417968748,2.834734765625,-84.58015267175573,-29.31297709923664,44.229007633587784,-8.985438830566405,0.41898529052734373,-0.8571241943359375,-29.14503816793893,-4.183206106870229,7.221374045801527,0.0
12.320000648498535,-6.53138212890625,-1.956062756347656,1.707065783691406,-75.45038167938931,-29.587786259541986,41.282442748091604,-9.210493786621093,-0.9241618408203125,-0.09816226806640624,-25.31297709923664,0.1984732824427481,9.801526717557252,0.0
12.330000638961792,-5.863399865722656,-2.262520568847656,1.1061211669921875,-69.22137404580153,-26.458015267175572,37.63358778625954,-9.038111267089842,-1.3766659545898436,-0.33518823242187495,-18.702290076335878,-0.0916030534351145,10.488549618320612,0.0
12.340000629425049,-4.3813890380859375,-3.5721488769531247,-0.3064578125,-65.45038167938931,-25.083969465648856,33.038167938931295,-9.188945971679686,-1.2569558715820313,-0.6344634399414062,-6.732824427480916,0.549618320610687,8.793893129770993,0.0
12.350000858306885,-5.4779333984375,-4.027047192382812,1.0893617553710937,-64.87022900763358,-16.045801526717558,23.572519083969464,-8.17141026611328,0.3902548706054687,-2.080561242675781,-2.33587786259542,-0.8244274809160306,5.404580152671755,0.0
12.360000371932983,-5.097255334472656,-5.834669445800781,0.7422025146484375,-64.38167938931298,-14.183206106870228,14.198473282442748,-9.97184991455078,-2.1930887207031247,-0.46208092041015625,1.1450381679389312,9.358778625954198,7.038167938931298,0.0
12.370000839233398,-5.3390697021484375,-5.992686755371094,1.8004396484374998,-50.35114503816794,-4.885496183206107,4.015267175572519,-9.488221179199218,-0.8690952026367187,-1.707065783691406,10.732824427480915,8.763358778625955,4.564885496183206,0.0
12.380000591278076,-3.6296097167968746,-7.357381701660156,0.47165772705078124,-31.603053435114504,0.5801526717557252,-4.33587786259542,-9.038111267089842,-0.19871873779296872,-1.5203180541992187,4.916030534351145,11.221374045801527,5.190839694656488,0.0
12.390000581741333,-4.472368701171875,-6.394912634277343,1.1540052001953125,-11.267175572519085,11.908396946564885,-14.045801526717558,-8.990227233886719,-0.9002198242187499,-1.5179238525390624,8.885496183206106,13.068702290076336,5.770992366412214,0.0
12.40000057220459,-5.916072302246094,-4.42448466796875,2.1308394775390624,-5.358778625954199,15.893129770992367,-26.15267175572519,-10.019733947753906,-1.6304513305664061,-0.8212111694335937,22.564885496183205,15.633587786259541,7.1603053435114505,0.0
12.410000562667847,-6.045359191894531,-3.318363500976562,1.9129671264648436,2.4122137404580153,20.091603053435115,-31.19083969465649,-9.5384994140625,-1.6639701538085936,-0.9888052856445312,31.786259541984734,8.778625954198473,5.969465648854962,0.0
12.420000553131104,-5.396530541992187,-2.6240450195312497,1.4053963745117186,10.061068702290076,25.61832061068702,-34.38167938931298,-9.756371765136718,-0.8068459594726562,-1.6903063720703124,40.274809160305345,14.534351145038167,5.633587786259542,0.0
12.43000054359436,-3.450044592285156,-3.227383837890625,0.6272808349609375,35.66412213740458,39.908396946564885,-32.82442748091603,-8.56166513671875,0.5123591552734374,-1.6112977172851561,34.16793893129771,12.67175572519084,5.679389312977099,0.0
12.440000534057617,-4.359841223144531,-1.6304513305664061,1.2808978881835937,50.961832061068705,51.16030534351145,-33.74045801526717,-10.04846436767578,0.09576806640624999,-2.4516625,37.49618320610687,22.427480916030536,10.01526717557252,0.0
12.450000524520874,-5.346252307128906,1.0319009155273438,3.0023288818359375,63.3587786259542,63.06870229007634,-31.96946564885496,-8.904035974121093,0.031124621582031248,-0.6272808349609375,23.0381679389313,20.50381679389313,10.183206106870228,0.0
12.460000991821289,-6.057330200195312,2.789244934082031,3.404554760742187,66.56488549618321,69.96946564885496,-26.519083969465647,-9.476250170898437,-0.9816226806640624,-0.6823474731445313,28.137404580152673,26.82442748091603,10.641221374045802,0.0
12.470000505447388,-6.964732629394531,4.398148449707031,4.821922143554687,63.3587786259542,74.51908396946565,-19.083969465648856,-9.880870251464843,-1.5059528442382812,0.13646949462890623,28.412213740458014,31.16030534351145,11.374045801526718,0.0
12.480000734329224,-8.135497241210937,5.815515832519531,6.131550451660156,47.7557251908397,72.1526717557252,-11.679389312977099,-9.859322436523437,-0.9193734375,0.49320554199218747,28.213740458015266,33.343511450381676,10.396946564885496,0.0
12.490000486373901,-8.710105639648438,5.8610056640625,7.216123803710937,28.137404580152673,67.1145038167939,-3.984732824427481,-9.648632690429688,0.7900865478515624,-0.46208092041015625,28.12213740458015,32.229007633587784,9.572519083969466,0.0
12.500000953674316,-9.466673364257812,5.698199951171874,8.097190014648437,4.1679389312977095,61.847328244274806,2.8702290076335877,-9.93354268798828,0.0430956298828125,1.4915876342773438,18.671755725190838,30.977099236641223,10.106870229007633,0.0
12.510000705718994,-8.487444885253906,4.000710974121094,7.730877160644531,-11.068702290076336,56.213740458015266,8.916030534351146,-10.149020837402343,1.1133037719726562,0.8355763793945312,11.786259541984732,34.412213740458014,10.870229007633588,0.0
12.52000093460083,-7.908048083496094,2.5354595581054684,6.926425402832031,-21.557251908396946,52.51908396946565,11.297709923664122,-9.8449572265625,1.695094775390625,1.1348515869140625,-2.0610687022900764,34.85496183206107,15.17557251908397,0.0
12.530000686645508,-8.863334545898438,1.7908628417968748,7.043741284179687,-26.427480916030536,52.70229007633588,11.954198473282442,-10.563217724609375,0.1292868896484375,2.1452046874999997,-8.748091603053435,33.63358778625954,19.389312977099237,0.0
12.540000677108765,-8.085219006347655,-0.07422025146484375,5.930437512207031,-13.755725190839694,52.091603053435115,15.725190839694656,-10.63025537109375,-1.1707646118164061,1.4963760375976562,-2.763358778625954,30.091603053435115,22.717557251908396,0.0
12.5500009059906,-10.376469995117187,0.1388636962890625,7.967903124999999,4.656488549618321,58.47328244274809,20.061068702290076,-10.029310754394531,-0.8882488159179687,1.5634136840820312,-10.763358778625955,23.709923664122137,21.17557251908397,0.0
12.560000896453857,-14.56871710205078,1.3958195678710936,9.995791931152343,12.51908396946565,57.17557251908397,27.87786259541985,-10.544064111328124,-0.4165910888671875,0.7517793212890624,-12.580152671755725,18.68702290076336,22.213740458015266,0.0
12.570000886917114,-18.191144213867187,1.608903515625,10.24000050048828,7.3893129770992365,54.0,35.038167938931295,-12.136208215332031,-1.5394716674804687,1.1444283935546875,-18.33587786259542,14.67175572519084,24.290076335877863,0.0
12.580000638961792,-19.347543615722657,-2.703053674316406,10.89122335205078,-4.244274809160306,44.01526717557252,32.19847328244275,-12.861651318359375,-1.7334020019531249,1.1947066284179686,-21.801526717557252,7.297709923664122,22.0,0.0
12.590000629425049,-16.575058093261717,-6.6151791870117185,11.276689819335937,-0.2900763358778626,25.31297709923664,15.969465648854962,-12.957419384765624,-0.679953271484375,1.1827356201171875,-28.091603053435115,-2.763358778625954,19.633587786259543,0.0
12.600000619888306,-9.576806640625,-7.994239343261718,6.809109521484374,42.51908396946565,15.664122137404581,7.099236641221374,-12.85207451171875,0.4836287353515625,1.0558429321289062,-37.98473282442748,-11.221374045801527,19.6793893129771,0.0
12.610000610351562,-7.898471276855468,-2.3367408203125,3.0047230834960934,65.43511450381679,13.32824427480916,-0.5801526717557252,-12.799402075195312,1.6112977172851561,1.0869675537109373,-46.19847328244275,-18.12213740458015,20.763358778625953,0.0
12.620000839233398,-5.4707507934570305,-0.55545478515625,-0.5865794067382812,79.93893129770993,12.793893129770993,1.5725190839694656,-13.512874169921874,0.08140285644531249,0.8858546142578124,-42.56488549618321,-23.893129770992367,24.85496183206107,0.0
12.630001068115234,-5.130774157714844,-0.13407529296874998,-0.8259995727539062,76.7175572519084,18.442748091603054,-0.732824427480916,-13.49611475830078,0.7805097412109374,0.07900865478515624,-37.74045801526717,-33.343511450381676,24.259541984732824,0.0
12.640000343322754,-6.315903979492187,0.6727706665039062,-0.8020575561523438,63.00763358778626,24.03053435114504,-7.190839694656488,-12.89038173828125,2.039859814453125,-1.3120225097656248,-29.603053435114504,-39.725190839694655,23.19083969465649,0.0
12.65000057220459,-8.652644799804687,3.4572271972656248,-0.565031591796875,41.51145038167939,28.458015267175572,-11.312977099236642,-12.299013928222655,2.2936451904296873,-1.6807295654296874,-23.83206106870229,-42.74809160305343,23.740458015267176,0.0
12.660000324249268,-10.156203442382813,5.403713146972656,-0.5961562133789062,20.778625954198475,33.12977099236641,-8.442748091603054,-13.828908789062499,-0.3806780639648437,-1.5155296508789062,0.9923664122137404,-36.42748091603053,25.34351145038168,0.0
12.670000791549683,-9.234435803222656,5.549759448242187,-1.0223241088867188,8.122137404580153,36.916030534351144,-0.42748091603053434,-10.462661254882812,2.5163059448242184,-3.0334535034179684,-3.099236641221374,-46.93129770992366,20.900763358778626,0.0
12.680001497268677,-9.773131176757811,5.755660791015624,0.699106884765625,0.8396946564885496,46.74809160305343,8.442748091603054,-9.047688073730468,1.5945383056640625,-2.8203695556640622,-17.358778625954198,-34.38167938931298,23.450381679389313,0.0
12.690000534057617,-9.588777648925781,4.704606262207031,0.9576806640625,-5.816793893129771,47.099236641221374,12.564885496183207,-10.218452685546874,-0.6631938598632812,-1.8746598999023436,-4.580152671755725,-24.732824427480917,28.091603053435115,0.0
12.700000524520874,-10.141838232421874,2.896984008789062,1.4221557861328125,-10.854961832061068,46.2442748091603,15.541984732824428,-10.012551342773437,-1.8818425048828125,-1.8124106567382812,10.900763358778626,-30.16793893129771,25.862595419847327,0.0
12.71000051498413,-9.86411083984375,2.1404162841796874,1.9752163696289062,-17.267175572519083,46.56488549618321,15.083969465648854,-9.428366137695312,-0.33758243408203126,-2.003946789550781,19.16030534351145,-29.572519083969464,20.80916030534351,0.0
12.720000505447388,-9.215282189941405,-0.18435352783203124,1.3048399047851562,-20.85496183206107,41.93893129770992,13.923664122137405,-8.84178673095703,0.689530078125,-2.9041666137695312,17.52671755725191,-23.96946564885496,18.213740458015266,0.0
12.730000495910645,-9.272743029785156,-1.6903063720703124,2.2577321655273437,-14.900763358778626,42.54961832061068,10.335877862595419,-8.856151940917968,1.388636962890625,-2.2026655273437497,5.526717557251908,-17.954198473282442,18.442748091603054,0.0
12.74000072479248,-8.851363537597656,-2.5474305664062498,1.2665326782226562,-4.1679389312977095,40.67175572519084,7.526717557251908,-8.884882360839843,1.905784521484375,-2.518700146484375,-1.6488549618320612,-18.137404580152673,15.511450381679388,0.0
12.750000238418579,-8.700528833007812,-2.039859814453125,1.8052280517578123,12.870229007633588,43.93893129770992,4.564885496183206,-9.2320416015625,0.9720458740234375,-1.9847931762695312,-8.687022900763358,-13.236641221374045,15.068702290076336,0.0
12.760001182556152,-6.888118176269531,-2.360682836914062,0.0383072265625,31.541984732824428,44.80916030534351,4.366412213740458,-9.054870678710937,-0.3064578125,-1.4508862060546874,-6.702290076335878,-11.236641221374045,13.251908396946565,0.0
12.770000696182251,-8.851363537597656,-0.45489831542968745,1.70467158203125,43.267175572519086,53.00763358778626,-0.8854961832061069,-9.246406811523437,-0.16759411621093748,-1.956062756347656,6.641221374045801,-12.0,9.297709923664122,0.0
12.780000686645508,-8.595183959960938,0.9504980590820312,1.8291700683593748,46.67175572519084,54.83969465648855,-2.9618320610687023,-7.970297326660156,1.35990654296875,-1.659181750488281,-0.732824427480916,-12.290076335877863,5.709923664122138,0.0
12.790000677108765,-9.773131176757811,2.0973206542968748,1.649604943847656,37.05343511450382,52.47328244274809,-2.8702290076335877,-8.307879760742187,0.5219359619140624,-1.5275006591796874,-0.21374045801526717,-8.931297709923664,5.893129770992366,0.0
12.800000429153442,-9.64623848876953,2.6384102294921874,1.6639701538085936,27.52671755725191,51.587786259541986,-3.1755725190839694,-8.480262280273436,1.1516109985351561,-2.389413256835937,6.122137404580153,-10.80916030534351,3.7709923664122136,0.0
12.810000658035278,-9.382876306152344,1.9800047729492187,1.2234370483398436,17.00763358778626,50.38167938931298,-1.6488549618320612,-8.671798413085938,2.2170307373046874,-2.9472622436523435,-1.4198473282442747,-7.923664122137405,3.099236641221374,0.0
12.820000410079956,-9.150638745117186,0.9169792358398436,1.2976572998046874,13.206106870229007,53.57251908396947,-2.3053435114503817,-9.220070593261719,1.668758557128906,-2.482787121582031,-3.3587786259541983,-3.8625954198473282,3.3740458015267176,0.0
12.83000111579895,-9.169792358398437,0.7015010864257812,0.4165910888671875,13.786259541984732,55.770992366412216,-4.396946564885496,-9.97903251953125,1.0462661254882812,-2.2601263671875,-2.717557251908397,-4.580152671755725,1.1450381679389312,0.0
12.840000629425049,-8.520963708496094,0.7565677246093749,-0.08140285644531249,13.908396946564885,57.80152671755725,-5.770992366412214,-10.335768566894531,1.2378022583007813,-1.62805712890625,-2.6564885496183206,-5.419847328244275,-2.2900763358778624,0.0
12.850000858306885,-9.323021264648437,1.465251416015625,0.20829554443359374,13.267175572519085,64.12213740458016,-8.854961832061068,-10.369287390136718,1.4149731811523436,-0.8068459594726562,-3.404580152671756,-6.076335877862595,-4.824427480916031,0.0
12.860000610351562,-9.545682019042967,2.2936451904296873,0.2657563842773437,5.648854961832061,65.7557251908397,-11.435114503816793,-10.20169327392578,1.2641384765625,-0.6177040283203125,-4.793893129770993,-8.274809160305344,-5.923664122137405,0.0
12.870000839233398,-9.911994873046874,2.6096798095703124,0.0143652099609375,-3.954198473282443,64.09160305343511,-11.755725190839694,-10.220846887207031,1.4006079711914061,-0.22266075439453123,-7.511450381679389,-11.48091603053435,-6.717557251908397,0.0
12.880000591278076,-10.36210478515625,2.157175695800781,0.19153613281249998,-13.511450381679388,62.47328244274809,-11.114503816793894,-9.904812268066406,1.1156979736328125,-0.086191259765625,-9.557251908396946,-13.84732824427481,-7.206106870229007,0.0
12.890000581741333,-10.730811840820312,2.104503259277344,0.7685387329101562,-19.480916030534353,61.725190839694655,-10.335877862595419,-9.725247143554688,-0.011971008300781249,0.3112462158203125,-9.648854961832061,-15.633587786259541,-7.221374045801527,0.0
12.90000057220459,-10.172962854003906,1.4030021728515625,0.47165772705078124,-22.412213740458014,58.56488549618321,-8.351145038167939,-9.07163009033203,-0.4070142822265625,0.4572925170898437,-6.137404580152672,-22.3206106870229,-9.236641221374045,0.0
12.910000562667847,-9.962273107910155,1.3862427612304686,0.2825157958984375,-25.450381679389313,54.25954198473283,-7.755725190839694,-9.112331518554686,0.055066638183593745,0.296881005859375,3.435114503816794,-23.068702290076335,-10.82442748091603,0.0
12.920000553131104,-9.81862100830078,0.8164227661132812,0.737414111328125,-21.450381679389313,54.30534351145038,-6.0458015267175576,-9.938331091308592,-0.34237083740234375,1.448492004394531,11.099236641221374,-29.328244274809162,-10.961832061068701,0.0
12.93000078201294,-9.303867651367186,0.4908113403320312,0.6488286499023437,-19.96946564885496,51.64885496183206,-5.465648854961832,-8.396465222167969,2.422932080078125,-0.7062894897460937,11.053435114503817,-33.541984732824424,-14.076335877862595,0.0
12.940000772476196,-10.105925207519531,0.8882488159179687,1.4221557861328125,-21.6793893129771,51.66412213740458,-6.198473282442748,-7.635109094238281,3.9647979492187497,-1.13006318359375,-2.885496183206107,-28.625954198473284,-12.549618320610687,0.0
12.950000286102295,-10.345345373535155,0.38786066894531246,1.0941501586914062,-23.297709923664122,47.847328244274806,-3.969465648854962,-8.24802471923828,1.6903063720703124,-0.033518823242187495,-17.251908396946565,-21.450381679389313,-4.809160305343512,0.0
12.96000051498413,-10.781090075683593,0.8906430175781249,2.3367408203125,-21.435114503816795,45.083969465648856,-4.351145038167939,-8.750807067871094,1.0702081420898437,-0.469263525390625,-12.687022900763358,-20.946564885496183,-4.824427480916031,0.0
12.970000505447388,-9.662997900390625,0.3591302490234375,1.235408056640625,-16.65648854961832,40.717557251908396,-4.015267175572519,-8.367734802246094,0.6536170532226562,-0.7517793212890624,-13.17557251908397,-17.83206106870229,-6.229007633587786,0.0
12.980000734329224,-11.099518896484375,0.6200982299804687,0.9409212524414062,-14.122137404580153,38.01526717557252,-4.2748091603053435,-8.597578161621094,-0.6679822631835937,-0.09576806640624999,-7.847328244274809,-13.709923664122137,-5.236641221374046,0.0
12.99000072479248,-9.131485131835937,-0.97683427734375,0.2657563842773437,-12.748091603053435,32.62595419847328,-2.6717557251908395,-8.741230261230468,-1.0366893188476562,0.09337386474609374,-0.3969465648854962,-19.541984732824428,-6.33587786259542,0.0
13.000000715255737,-11.154585534667968,1.4508862060546874,1.7597382202148437,-9.083969465648854,34.030534351145036,-6.717557251908397,-9.34696328125,-0.5793968017578125,-0.4572925170898437,12.335877862595419,-17.893129770992367,-8.061068702290076,0.0
13.010000705718994,-9.993397729492187,0.13646949462890623,0.26815058593749996,-14.091603053435115,25.328244274809162,-5.847328244274809,-9.950302099609374,-0.17956512451171874,0.11013327636718749,20.702290076335878,-23.541984732824428,-9.114503816793894,0.0
13.02000117301941,-10.053252770996092,0.36152445068359373,0.3136404174804687,-6.564885496183206,26.076335877862597,-6.229007633587786,-9.318232861328125,1.448492004394531,-0.6943184814453125,20.061068702290076,-27.633587786259543,-11.954198473282442,0.0
13.030000686645508,-9.579200842285156,0.258573779296875,0.2154781494140625,-2.351145038167939,26.83969465648855,-6.580152671755725,-8.283937744140625,2.5905261962890624,-0.8020575561523438,4.916030534351145,-22.99236641221374,-10.870229007633588,0.0
13.040000677108765,-9.481038574218749,0.44532150878906246,0.47165772705078124,7.145038167938932,30.793893129770993,-6.519083969465649,-9.18655177001953,1.1563994018554686,0.3136404174804687,-6.1679389312977095,-12.687022900763358,-5.648854961832061,0.0
13.050000429153442,-10.867281335449219,0.8906430175781249,0.5315127685546874,7.343511450381679,30.091603053435115,-7.66412213740458,-10.180145458984374,0.086191259765625,0.5865794067382812,1.5267175572519085,-16.27480916030534,-6.717557251908397,0.0
13.060000658035278,-11.128249316406249,2.786850732421875,1.3120225097656248,6.8396946564885495,28.106870229007633,-9.725190839694656,-9.773131176757811,-0.0526724365234375,0.031124621582031248,7.312977099236641,-16.610687022900763,-9.083969465648854,0.0
13.070000648498535,-10.13226142578125,2.023100402832031,0.17238251953125,2.6564885496183206,21.068702290076335,-7.267175572519084,-10.115502014160155,0.5267243652343749,0.33518823242187495,11.725190839694656,-17.129770992366414,-10.83969465648855,0.0
13.080000638961792,-9.715670336914062,1.886630908203125,0.25139117431640623,2.213740458015267,19.46564885496183,-6.3816793893129775,-11.489773767089844,-1.024718310546875,1.3024457031249999,22.83969465648855,-17.068702290076335,-9.786259541984732,0.0
13.09000039100647,-9.763554370117188,1.2018892333984375,-0.1771709228515625,2.4885496183206106,17.480916030534353,-5.755725190839694,-10.682927807617187,-0.3711012573242187,0.0526724365234375,35.083969465648856,-25.328244274809162,-13.038167938931299,0.0
13.100000619888306,-11.116278308105468,1.867477294921875,0.70868369140625,-0.16793893129770993,18.83969465648855,-8.564885496183207,-10.970232006835937,-0.28730419921875,0.7206546997070312,45.23664122137404,-33.038167938931295,-15.19083969465649,0.0
13.11000108718872,-8.98304462890625,0.9241618408203125,-0.7302315063476562,1.1450381679389312,13.587786259541986,-7.9541984732824424,-10.577582934570312,1.7812860351562498,-0.11252747802734374,50.458015267175576,-40.10687022900763,-18.53435114503817,0.0
13.12000060081482,-9.402029919433593,1.465251416015625,-0.4333505004882812,0.15267175572519084,16.015267175572518,-9.19083969465649,-8.75320126953125,3.986345764160156,-0.38786066894531246,35.038167938931295,-39.267175572519086,-20.198473282442748,0.0
13.130000829696655,-9.30147344970703,1.1707646118164061,-0.39264907226562495,-2.122137404580153,17.786259541984734,-9.511450381679388,-9.138667736816405,4.762067102050781,-0.5482721801757812,18.549618320610687,-27.6793893129771,-15.938931297709924,0.0
13.140000581741333,-9.572018237304688,-0.30885201416015623,-0.9097966308593749,1.8473282442748091,17.435114503816795,-8.931297709923664,-11.353304272460937,1.2785036865234374,0.7781155395507812,8.83969465648855,-22.595419847328245,-10.473282442748092,0.0
13.15000057220459,-8.84178673095703,-0.22026655273437498,-1.4772224243164063,13.954198473282442,20.061068702290076,-11.053435114503817,-10.457872851562499,0.9935936889648437,0.1484405029296875,17.129770992366414,-25.557251908396946,-13.236641221374045,0.0
13.160000562667847,-10.687716210937499,0.6655880615234374,-0.19153613281249998,17.633587786259543,23.923664122137403,-14.82442748091603,-9.217676391601563,1.407790576171875,0.3136404174804687,22.946564885496183,-32.6412213740458,-16.748091603053435,0.0
13.170000553131104,-9.694122521972655,1.4700398193359374,-0.2442085693359375,17.221374045801525,23.87786259541985,-14.381679389312977,-9.713276135253906,1.6448165405273436,-0.055066638183593745,21.083969465648856,-34.30534351145038,-17.572519083969464,0.0
13.18000054359436,-9.749189160156249,2.408566870117187,-0.5722141967773438,10.992366412213741,21.389312977099237,-13.129770992366412,-8.70771143798828,3.9791631591796874,-0.5051765502929687,11.603053435114504,-30.549618320610687,-17.435114503816795,0.0
13.190000534057617,-10.058041174316406,2.6575638427734374,-0.17956512451171874,-0.9618320610687023,18.045801526717558,-10.458015267175572,-8.853757739257812,4.410119458007812,-0.3687070556640625,-3.9389312977099236,-21.236641221374047,-13.267175572519085,0.0
13.200000524520874,-10.271125122070313,2.1811177124023438,0.5578489868164063,-0.061068702290076333,19.862595419847327,-8.595419847328245,-9.41639512939453,2.50912333984375,0.12689268798828124,-22.68702290076336,-15.450381679389313,-9.129770992366412,0.0
13.210000276565552,-10.058041174316406,0.9983820922851562,0.011971008300781249,-7.435114503816794,13.801526717557252,-7.251908396946565,-10.299855541992187,1.216254443359375,0.1388636962890625,-20.99236641221374,-16.763358778625953,-8.122137404580153,0.0
13.220000505447388,-9.97903251953125,1.0271125122070313,0.15083470458984374,-3.816793893129771,11.893129770992367,-7.450381679389313,-9.634267480468749,0.737414111328125,0.15322890625,-19.52671755725191,-15.679389312977099,-7.572519083969466,0.0
13.230000495910645,-9.718064538574218,0.7876923461914062,0.22744915771484372,-2.549618320610687,10.885496183206106,-8.381679389312977,-10.244788903808594,-0.8188169677734375,0.9002198242187499,-13.755725190839694,-15.404580152671755,-7.099236641221374,0.0
13.24000096321106,-10.081983190917969,0.814028564453125,0.4261678955078125,-2.045801526717557,9.770992366412214,-9.786259541984732,-10.101136804199218,-0.3447650390625,0.7445967163085937,-0.21374045801526717,-21.87786259541985,-9.221374045801527,0.0
13.250000476837158,-9.801861596679688,0.229843359375,0.27293898925781246,-0.8396946564885496,7.740458015267175,-9.86259541984733,-10.342951171874999,-0.2561795776367187,0.8858546142578124,8.916030534351146,-24.38167938931298,-10.67175572519084,0.0
13.260000705718994,-9.813832604980469,0.6847416748046875,0.7565677246093749,6.488549618320611,10.473282442748092,-12.274809160305344,-10.194510668945313,-0.5315127685546874,0.8451531860351562,22.18320610687023,-28.53435114503817,-11.98473282442748,0.0
13.270000696182251,-10.228029492187499,1.7717092285156248,0.47644613037109373,-2.9923664122137406,5.923664122137405,-13.801526717557252,-9.34696328125,1.5753846923828123,0.6703764648437499,24.65648854961832,-36.33587786259542,-14.732824427480915,0.0
13.280000686645508,-9.861716638183593,1.66636435546875,-0.06464344482421874,-3.66412213740458,5.114503816793893,-11.679389312977099,-7.228094812011718,4.058171813964844,-0.16041151123046873,13.603053435114504,-30.580152671755727,-14.885496183206106,0.0
13.290000677108765,-9.5001921875,1.3072341064453123,-0.26815058593749996,-5.816793893129771,5.450381679389313,-10.045801526717558,-8.092401611328125,2.6048914062499997,0.6560112548828124,-16.213740458015266,-22.35114503816794,-8.50381679389313,0.0
13.300000667572021,-9.957484704589843,1.4221557861328125,-0.6655880615234374,-8.778625954198473,4.763358778625954,-10.274809160305344,-10.194510668945313,-0.32561142578124996,1.70467158203125,-17.00763358778626,-22.977099236641223,-4.198473282442748,0.0
13.3100004196167,-9.801861596679688,0.852335791015625,-0.7326257080078125,-8.992366412213741,3.9083969465648853,-9.816793893129772,-9.363722692871093,0.35194764404296874,0.8188169677734375,-5.6183206106870225,-22.580152671755727,-6.748091603053435,0.0
13.320000648498535,-9.734823950195311,0.5602431884765625,-0.5961562133789062,-7.480916030534351,4.2748091603053435,-10.396946564885496,-8.973467822265624,0.258573779296875,0.6248866333007812,-3.0229007633587788,-18.18320610687023,-7.343511450381679,0.0
13.330000638961792,-9.85692823486328,0.842758984375,-0.38786066894531246,-5.984732824427481,3.9236641221374047,-11.603053435114504,-10.237606298828124,-1.1324573852539062,0.30885201416015623,4.625954198473282,-17.572519083969464,-6.656488549618321,0.0
13.340000629425049,-9.792284790039062,0.9097966308593749,-0.36391865234375,-4.732824427480916,2.7022900763358777,-12.229007633587786,-9.859322436523437,-0.3447650390625,0.9552864624023437,22.290076335877863,-24.50381679389313,-8.83969465648855,0.0
13.350000858306885,-9.562441430664062,0.9864110839843749,-0.24181436767578124,-3.404580152671756,2.030534351145038,-13.038167938931299,-8.777143286132812,1.2378022583007813,0.13168109130859373,26.18320610687023,-27.755725190839694,-13.17557251908397,0.0
13.360000610351562,-9.734823950195311,1.1228805786132812,-0.05746083984375,-3.5114503816793894,1.7404580152671756,-13.541984732824428,-8.197746484375,2.2744915771484373,-1.1444283935546875,43.93893129770992,-20.946564885496183,-15.374045801526718,0.0
13.370001077651978,-9.72285294189453,1.5801730957031248,0.4836287353515625,-3.0381679389312977,0.7786259541984732,-14.870229007633588,-6.835445739746094,3.6942531616210936,-0.17956512451171874,13.709923664122137,-16.198473282442748,-15.358778625954198,0.0
13.380000591278076,-10.007762939453125,1.388636962890625,0.737414111328125,-7.541984732824427,-1.6946564885496183,-13.709923664122137,-6.157886669921875,3.5889082885742187,-0.928950244140625,5.32824427480916,-6.793893129770993,-13.923664122137405,0.0
13.390001058578491,-10.522516296386717,1.3551181396484375,1.3311761230468748,-9.603053435114504,-5.221374045801527,-14.030534351145038,-8.456320263671875,0.22266075439453123,0.3327940307617187,-14.580152671755725,-1.3893129770992367,-7.267175572519084,0.0
13.40000057220459,-10.187328063964843,0.9002198242187499,1.5801730957031248,-7.7251908396946565,-9.679389312977099,-14.748091603053435,-9.167398156738281,-1.24498486328125,0.5817910034179687,-0.10687022900763359,2.5801526717557253,-9.17557251908397,0.0
13.410000562667847,-9.809044201660155,0.8355763793945312,1.7645266235351562,-2.900763358778626,-13.114503816793894,-15.587786259541986,-8.097190014648437,-0.2154781494140625,-0.01915361328125,6.824427480916031,5.648854961832061,-13.297709923664122,0.0
13.420000553131104,-9.840168823242188,1.2234370483398436,2.195482922363281,-0.12213740458015267,-16.244274809160306,-14.992366412213741,-7.639897497558593,0.8403647827148437,-0.3327940307617187,8.82442748091603,9.022900763358779,-15.068702290076336,0.0
13.43000054359436,-10.189722265624999,1.350329736328125,2.7078420776367187,0.7938931297709924,-20.763358778625953,-14.427480916030534,-7.5465236328125,0.24899697265624998,-0.12210428466796874,6.549618320610687,13.709923664122137,-14.381679389312977,0.0
13.440000534057617,-10.307038146972655,1.197100830078125,3.153163586425781,2.381679389312977,-26.83969465648855,-13.740458015267176,-7.7763669921875,0.20350714111328125,0.35194764404296874,7.786259541984733,12.854961832061068,-15.587786259541986,0.0
13.450000762939453,-10.249577307128906,1.446097802734375,4.007893579101562,1.7404580152671756,-32.58015267175573,-13.83206106870229,-7.362170104980469,0.5961562133789062,0.4955997436523437,0.6870229007633588,19.61832061068702,-16.03053435114504,0.0
13.46000051498413,-11.092336291503905,2.2577321655273437,5.219359619140625,-2.549618320610687,-39.23664122137404,-14.778625954198473,-7.886500268554687,0.1580173095703125,0.047884033203124995,4.5038167938931295,26.549618320610687,-14.83969465648855,0.0
13.470000505447388,-12.042834350585936,3.1076737548828124,6.830657336425781,-18.137404580152673,-54.29007633587786,-15.16030534351145,-7.594407666015624,0.02633621826171875,0.09337386474609374,2.763358778625954,19.053435114503817,-16.30534351145038,0.0
13.480000734329224,-11.623849060058593,2.1356278808593747,7.137115148925781,-25.69465648854962,-70.82442748091603,-12.961832061068701,-8.621520178222656,-0.6560112548828124,1.2282254516601563,2.33587786259542,23.755725190839694,-17.81679389312977,0.0
13.490000486373901,-11.451466540527344,1.7405846069335937,7.953537915039062,-25.83206106870229,-85.77099236641222,-14.854961832061068,-8.671798413085938,0.718260498046875,-0.7829039428710937,2.519083969465649,31.557251908396946,-19.984732824427482,0.0
13.500000715255737,-11.999738720703125,1.3192051147460937,8.736441857910156,-27.541984732824428,-102.25954198473282,-15.221374045801527,-9.241618408203124,1.7238251953125,-0.59376201171875,-7.190839694656488,34.30534351145038,-20.870229007633586,0.0
13.510000705718994,-12.152967626953124,1.8148048583984373,10.613495959472656,-24.519083969465647,-124.18320610687023,-15.465648854961833,-10.488997473144531,2.1643583007812497,-0.34715924072265625,-17.46564885496183,45.70992366412214,-19.801526717557252,0.0
13.520000696182251,-12.89038173828125,1.9129671264648436,11.461043347167967,-20.68702290076336,-144.99236641221373,-12.13740458015267,-13.271059802246093,-0.1867477294921875,1.3168109130859373,-10.045801526717558,48.35114503816794,-16.916030534351144,0.0
13.530000686645508,-12.966996191406249,1.47482822265625,12.437877624511717,-6.8396946564885495,-171.09923664122138,-6.5038167938931295,-13.038822241210937,0.5626373901367188,1.2952630981445312,3.786259541984733,38.70229007633588,-20.458015267175572,0.0
13.540000677108765,-12.246341491699217,-0.21068974609375,14.674061975097656,20.68702290076336,-194.70229007633588,-1.7099236641221374,-11.628637463378906,1.7501614135742187,1.7597382202148437,3.4198473282442747,40.091603053435115,-20.106870229007633,0.0
13.550000429153442,-10.493785876464843,-1.5131354492187499,6.720524060058593,12.274809160305344,-213.08396946564886,-2.0610687022900764,-12.449848632812499,0.5889736083984375,1.8698714965820311,13.129770992366412,44.97709923664122,-11.648854961832061,0.0
13.560000658035278,-10.51533369140625,-5.5832782714843745,3.81156904296875,5.068702290076335,-228.15267175572518,-9.938931297709924,-10.766724865722656,2.73896669921875,0.5602431884765625,17.236641221374047,37.49618320610687,-6.396946564885496,0.0
13.570000648498535,-11.540052001953125,-5.947196923828125,1.0941501586914062,36.61068702290076,-226.53435114503816,-8.641221374045802,-9.229647399902344,2.5354595581054684,-0.5626373901367188,0.7633587786259542,45.38931297709924,-0.2900763358778626,0.0
13.580000638961792,-13.488932153320311,-5.212177014160156,0.2753331909179687,75.08396946564885,-208.85496183206106,1.8015267175572518,-7.6231380859375,2.482787121582031,-1.8243816650390623,-11.129770992366412,44.97709923664122,2.519083969465649,0.0
13.59000039100647,-16.019603308105467,-3.1842882080078123,-1.1420341918945311,102.7175572519084,-191.3587786259542,5.526717557251908,-10.081983190917969,-1.0031704956054688,-1.656787548828125,-23.786259541984734,55.038167938931295,6.534351145038168,0.0
13.600000619888306,-15.310919616699218,-2.2649147705078123,-3.1387983764648437,119.09923664122137,-170.77862595419847,9.83206106870229,-7.864952453613281,0.16998831787109375,-4.096479040527344,-26.519083969465647,50.045801526717554,-1.6030534351145038,0.0
13.610000610351562,-16.278177087402344,0.19632453613281248,-3.9049429077148434,113.93893129770993,-145.84732824427482,7.236641221374046,-10.070012182617187,-3.7110125732421873,-2.971204260253906,-40.12213740458015,52.19847328244275,-3.984732824427481,0.0
13.62000060081482,-13.718775512695311,-0.34715924072265625,-5.0206408813476555,104.41221374045801,-122.83969465648855,9.969465648854962,-11.748347546386718,-6.057330200195312,-2.29843359375,-29.557251908396946,59.099236641221374,-7.633587786259542,0.0
13.630000829696655,-12.023680737304687,0.42377369384765623,-5.05655390625,88.1526717557252,-97.93893129770993,8.625954198473282,-11.587936035156249,-6.598419775390624,-2.9831752685546875,-17.64885496183206,52.412213740458014,-9.954198473282442,0.0
13.640000581741333,-10.13226142578125,2.3630770385742186,-4.11802685546875,65.3587786259542,-77.09923664122137,8.900763358778626,-10.165780249023436,-3.9887399658203124,-3.69664736328125,-20.03053435114504,48.29007633587786,-13.877862595419847,0.0
13.65000057220459,-8.453926062011718,4.604049792480469,-3.3016040893554686,34.045801526717554,-59.908396946564885,14.717557251908397,-8.94473740234375,-3.0023288818359375,-1.8100164550781248,-22.061068702290076,47.786259541984734,-11.49618320610687,0.0
13.660000562667847,-9.363722692871093,5.9950809570312495,-0.02633621826171875,4.9465648854961835,-45.29770992366412,20.38167938931298,-11.015721838378905,-3.2513258544921873,-0.46208092041015625,-24.229007633587788,44.42748091603053,-7.4961832061068705,0.0
13.670000791549683,-9.066841687011719,6.026205578613281,1.7764976318359373,-16.38167938931298,-39.770992366412216,28.9618320610687,-10.912771166992187,-1.1875240234375,0.1388636962890625,-33.51145038167939,40.67175572519084,-6.320610687022901,0.0
13.68000054359436,-9.04050546875,5.087678527832031,2.1643583007812497,-36.732824427480914,-38.61068702290076,38.458015267175576,-11.563994018554688,-0.5099649536132812,2.5905261962890624,-47.51145038167939,37.7557251908397,-3.114503816793893,0.0
13.690000295639038,-10.874463940429687,4.778826513671874,2.6862942626953124,-55.66412213740458,-34.48854961832061,44.99236641221374,-12.179303845214843,-2.310404602050781,4.228160131835938,-46.16793893129771,30.229007633587788,-0.24427480916030533,0.0
13.700000286102295,-8.664615808105468,3.399766357421875,0.40940848388671874,-80.47328244274809,-39.66412213740458,49.80152671755725,-10.71884083251953,-0.2442085693359375,3.208230224609375,-42.62595419847328,14.763358778625955,-2.427480916030534,0.0
13.71000051498413,-9.354145886230468,2.7629087158203123,1.4604630126953124,-107.45038167938931,-36.62595419847328,50.2442748091603,-10.649408984374999,0.5458779785156249,3.35188232421875,-53.19083969465649,7.236641221374046,-2.2595419847328246,0.0
13.720000505447388,-8.372523205566406,0.41419688720703124,0.5530605834960938,-122.83969465648855,-37.64885496183206,53.14503816793893,-10.129867224121092,0.3591302490234375,3.651157531738281,-49.45038167938932,0.8702290076335878,1.2366412213740459,0.0
13.730000495910645,-7.625532287597656,-0.8188169677734375,0.011971008300781249,-125.5114503816794,-32.51908396946565,54.80916030534351,-9.639055883789062,0.70868369140625,1.426944189453125,-45.29770992366412,-7.8320610687022905,1.6793893129770991,0.0
13.74000072479248,-6.710947253417968,-2.1715409057617188,0.3136404174804687,-122.76335877862596,-27.282442748091604,53.00763358778626,-9.804255798339844,0.40940848388671874,1.3359645263671873,-46.54961832061068,-8.229007633587786,3.6793893129770994,0.0
13.750000476837158,-6.5960255737304685,-2.8706477905273435,0.967257470703125,-118.33587786259542,-23.068702290076335,51.32824427480916,-9.548076220703125,-0.6607996582031249,0.9816226806640624,-41.45038167938932,-6.534351145038168,5.068702290076335,0.0
13.760000944137573,-5.111620544433594,-4.211400720214844,0.5746083984375,-109.0381679389313,-20.27480916030534,48.412213740458014,-9.279925634765624,-2.1021090576171875,1.0582371337890624,-38.0763358778626,-5.6183206106870225,3.7099236641221376,0.0
13.770000696182251,-6.725312463378906,-4.630386010742187,2.4971523315429685,-96.74809160305344,-12.534351145038167,42.152671755725194,-9.651026892089844,-1.668758557128906,-0.6775590698242188,-20.53435114503817,-6.473282442748092,4.564885496183206,0.0
13.780000686645508,-4.639962817382812,-6.193799694824218,1.0965443603515623,-82.97709923664122,-12.335877862595419,35.05343511450382,-9.756371765136718,-1.7764976318359373,0.28490999755859375,-3.2213740458015265,-7.374045801526718,3.801526717557252,0.0
13.790000677108765,-5.176263989257812,-5.492298608398437,2.013523596191406,-71.63358778625954,-7.114503816793893,25.49618320610687,-8.688557824707031,0.3136404174804687,-2.128445275878906,3.450381679389313,-9.954198473282442,-0.4732824427480916,0.0
13.8000009059906,-5.370194323730469,-4.891353991699218,2.5570073730468748,-59.404580152671755,-1.8778625954198473,14.458015267175572,-8.418013037109375,1.8219874633789062,-1.656787548828125,-15.145038167938932,-0.4732824427480916,0.9465648854961832,0.0
13.810000658035278,-5.691017346191406,-5.576095666503906,2.099714855957031,-47.786259541984734,0.04580152671755725,7.3893129770992365,-9.770736975097655,-1.3479355346679687,-0.7972691528320313,-23.908396946564885,17.099236641221374,8.122137404580153,0.0
13.820000648498535,-4.951209033203125,-6.4834980957031245,1.455674609375,-19.740458015267176,8.763358778625955,0.7175572519083969,-9.97184991455078,-2.612074011230469,-0.6847416748046875,-12.83969465648855,17.14503816793893,9.099236641221374,0.0
13.830000638961792,-5.667075329589843,-5.674257934570313,1.5514426757812498,-5.66412213740458,14.305343511450381,-9.34351145038168,-9.775525378417969,-2.3439234252929686,-1.6304513305664061,0.9923664122137404,15.297709923664122,7.190839694656488,0.0
13.840000867843628,-6.737283471679687,-4.431667272949219,2.1452046874999997,5.465648854961832,17.786259541984734,-16.091603053435115,-9.567229833984374,-1.93451494140625,-1.3575123413085937,13.526717557251908,21.083969465648856,6.229007633587786,0.0
13.850001335144043,-6.459556079101562,-3.4859576171874997,2.0302830078125,16.18320610687023,24.12213740458015,-21.49618320610687,-9.208099584960937,-1.2378022583007813,-1.0223241088867188,15.954198473282442,21.603053435114504,6.488549618320611,0.0
13.860000610351562,-6.287173559570312,-3.2058360229492187,1.8267758666992187,27.603053435114504,27.64885496183206,-24.65648854961832,-9.600748657226562,-1.3670891479492187,-0.9504980590820312,18.519083969465647,23.786259541984734,8.427480916030534,0.0
13.87000060081482,-5.820304235839844,-3.2728736694335936,1.9584569580078124,47.83206106870229,38.35114503816794,-26.80916030534351,-9.543287817382812,-2.0542250244140625,-0.6536170532226562,23.236641221374047,24.870229007633586,9.16030534351145,0.0
13.880000591278076,-7.417236743164062,-2.1619640991210938,2.8706477905273435,54.458015267175576,45.14503816793893,-31.52671755725191,-9.406818322753905,-0.928950244140625,-1.3551181396484375,30.18320610687023,24.15267175572519,6.900763358778626,0.0
13.890001058578491,-6.950367419433594,-1.1635820068359375,2.6312276245117188,61.7557251908397,51.57251908396947,-33.038167938931295,-9.442731347656249,-1.024718310546875,-1.2378022583007813,29.083969465648856,28.076335877862597,8.366412213740459,0.0
13.90000057220459,-7.378929516601562,0.12689268798828124,3.2249896362304686,64.3969465648855,56.61068702290076,-32.29007633587786,-9.619902270507811,-1.4604630126953124,-0.5674257934570313,32.152671755725194,31.282442748091604,9.557251908396946,0.0
13.910000562667847,-8.884882360839843,1.9105729248046874,4.352658618164062,61.20610687022901,59.404580152671755,-30.732824427480917,-9.708487731933593,-1.1635820068359375,-0.19871873779296872,34.18320610687023,29.923664122137403,9.419847328244275,0.0
13.920000553131104,-8.21690009765625,2.588131994628906,4.594472985839843,57.02290076335878,59.404580152671755,-24.946564885496183,-9.904812268066406,-0.8044517578125,-0.16041151123046873,34.030534351145036,30.198473282442748,9.068702290076336,0.0
13.93000054359436,-9.083601098632812,4.072537023925781,5.449202978515625,45.70992366412214,59.725190839694655,-20.427480916030536,-9.871293444824218,-0.3687070556640625,0.40462008056640625,29.022900763358777,30.47328244274809,8.488549618320612,0.0
13.940000534057617,-9.449913952636718,5.087678527832031,6.100425830078125,28.427480916030536,55.45038167938932,-13.893129770992367,-10.565611926269531,-1.0319009155273438,1.3287819213867187,27.83206106870229,32.83969465648855,10.290076335877863,0.0
13.950000286102295,-9.662997900390625,5.212177014160156,6.667851623535156,9.694656488549619,52.3206106870229,-6.793893129770993,-9.751583361816406,1.1061211669921875,0.37828386230468747,19.358778625954198,27.206106870229007,8.595419847328245,0.0
13.96000051498413,-8.865728747558594,4.908113403320312,6.318298181152343,-7.587786259541985,46.213740458015266,-0.8854961832061069,-9.770736975097655,0.19871873779296872,0.46208092041015625,5.1603053435114505,27.129770992366414,11.419847328244275,0.0
13.970000505447388,-9.014169250488282,3.306392492675781,6.205770703124999,-20.458015267175572,45.6793893129771,4.564885496183206,-10.230423693847655,-0.4525041137695312,0.7613561279296874,6.320610687022901,30.564885496183205,13.49618320610687,0.0
13.980000734329224,-7.091625317382812,1.7118541870117185,4.505887524414062,-26.213740458015266,41.89312977099237,8.595419847328245,-11.480196960449218,-4.053383410644531,3.19865341796875,4.8396946564885495,26.793893129770993,16.259541984732824,0.0
13.990000486373901,-8.027758166503906,0.7589619262695312,5.102043737792968,-21.19083969465649,48.56488549618321,11.587786259541986,-9.919177478027343,-0.8595183959960937,0.584185205078125,12.961832061068701,19.633587786259543,13.770992366412214,0.0
14.000000715255737,-8.245630517578125,0.9648632690429687,5.197811804199218,-14.702290076335878,52.80916030534351,13.679389312977099,-9.991003527832031,-0.3447650390625,0.2059013427734375,7.938931297709924,18.610687022900763,15.801526717557252,0.0
14.010000467300415,-9.193734375,0.7278373046875,5.887341882324218,-6.5038167938931295,55.66412213740458,18.290076335877863,-10.266336718749999,-0.5386953735351562,0.3687070556640625,2.9618320610687023,18.076335877862597,19.083969465648856,0.0
14.020000696182251,-10.022128149414062,0.6488286499023437,6.279990954589843,0.0,55.37404580152672,23.52671755725191,-10.654197387695312,-0.679953271484375,-0.0047884033203125,-3.5114503816793894,15.32824427480916,21.083969465648856,0.0
14.030000448226929,-12.327744348144531,0.5626373901367188,6.687005236816406,-0.8091603053435115,54.717557251908396,26.442748091603054,-10.101136804199218,-0.622492431640625,-0.47644613037109373,-14.229007633587786,13.099236641221374,22.015267175572518,0.0
14.040000677108765,-15.263035583496093,-0.13646949462890623,7.235277416992187,-4.061068702290076,53.43511450381679,29.404580152671755,-10.488997473144531,-1.2282254516601563,-0.565031591796875,-16.290076335877863,10.488549618320612,22.53435114503817,0.0
14.050000667572021,-16.026785913085938,-2.1356278808593747,7.967903124999999,-3.49618320610687,49.465648854961835,29.31297709923664,-11.6070896484375,-1.7741034301757812,-0.01915361328125,-10.122137404580153,5.541984732824427,21.709923664122137,0.0
14.060000658035278,-15.777788940429687,-4.161122485351562,9.97184991455078,-2.549618320610687,40.534351145038165,22.99236641221374,-11.228805786132812,-0.49320554199218747,0.22744915771484372,-16.15267175572519,0.13740458015267176,20.30534351145038,0.0
14.070000648498535,-14.97094298095703,-6.900089184570312,11.202469567871093,12.641221374045802,27.267175572519083,14.045801526717558,-11.01332763671875,0.7589619262695312,-0.00718260498046875,-19.72519083969466,-6.748091603053435,19.0381679389313,0.0
14.080000638961792,-11.01332763671875,-7.278373046874999,8.748412866210938,41.64885496183206,19.587786259541986,6.5038167938931295,-11.336544860839844,1.0917559570312498,0.28012159423828126,-30.076335877862597,-8.977099236641221,20.671755725190838,0.0
14.09000039100647,-9.30147344970703,-2.925714428710937,5.140350964355468,56.25954198473283,12.351145038167939,0.15267175572519084,-12.00931552734375,0.6512228515624999,0.2154781494140625,-35.404580152671755,-12.305343511450381,21.709923664122137,0.0
14.100000381469727,-7.896077075195312,-0.19632453613281248,0.8571241943359375,52.152671755725194,5.145038167938932,-2.0763358778625953,-12.789825268554686,0.20829554443359374,-0.6631938598632812,-28.442748091603054,-19.954198473282442,21.14503816793893,0.0
14.11000108718872,-5.722141967773437,-0.7613561279296874,-1.3934253662109375,65.1145038167939,12.625954198473282,0.33587786259541985,-12.258312499999999,1.149216796875,-0.7876923461914062,-26.916030534351144,-29.14503816793893,19.755725190839694,0.0
14.120000839233398,-5.099649536132812,-0.08140285644531249,-2.482787121582031,66.67175572519083,21.068702290076335,-2.351145038167939,-12.00213292236328,1.9536685546875,-2.051830822753906,-27.755725190839694,-31.114503816793892,22.625954198473284,0.0
14.130000829696655,-7.491456994628906,2.6001030029296874,-1.4915876342773438,55.86259541984733,26.427480916030536,-5.66412213740458,-11.322179650878905,1.3551181396484375,-2.408566870117187,-31.64885496183206,-30.38167938931298,22.793893129770993,0.0
14.140000820159912,-8.731653454589843,4.084508032226562,-1.2761094848632812,38.213740458015266,29.328244274809162,-3.1755725190839694,-11.89439384765625,-0.7829039428710937,-1.7788918334960937,-22.946564885496183,-30.549618320610687,24.80916030534351,0.0
14.15000057220459,-8.367734802246094,4.675875842285156,-1.886630908203125,28.442748091603054,37.52671755725191,2.7022900763358777,-11.17852755126953,-0.34237083740234375,-1.656787548828125,-3.83206106870229,-32.50381679389313,22.442748091603054,0.0
14.160000562667847,-9.1554271484375,4.908113403320312,-1.35990654296875,18.442748091603054,42.82442748091603,7.6183206106870225,-9.200916979980468,1.5466542724609373,-2.952050646972656,-1.2061068702290076,-33.17557251908397,20.15267175572519,0.0
14.170000553131104,-9.641450085449218,4.678270043945313,-0.28969840087890625,9.740458015267176,51.55725190839695,10.931297709923664,-9.3086560546875,2.568978381347656,-2.786850732421875,-3.053435114503817,-20.244274809160306,25.31297709923664,0.0
14.18000054359436,-10.556035119628906,3.986345764160156,0.5889736083984375,-5.419847328244275,50.18320610687023,12.13740458015267,-9.969455712890625,0.277727392578125,-1.4006079711914061,-8.870229007633588,-11.923664122137405,31.69465648854962,0.0
14.190000534057617,-10.601524951171875,1.2521674682617188,1.2282254516601563,-16.061068702290076,46.30534351145038,13.236641221374045,-10.273519323730468,-0.14125789794921875,-1.0941501586914062,1.3893129770992367,-14.931297709923664,29.893129770992367,0.0
14.200000286102295,-10.429142431640624,-0.4644751220703125,1.7693150268554687,-20.564885496183205,43.05343511450382,11.145038167938932,-9.974244116210937,0.17477672119140625,-0.8283937744140625,4.67175572519084,-15.84732824427481,27.69465648854962,0.0
14.21000051498413,-9.976638317871092,-1.697488977050781,1.5921441040039062,-14.030534351145038,41.70992366412214,9.282442748091603,-9.490615380859374,1.1372457885742187,-0.8906430175781249,3.4198473282442747,-15.877862595419847,26.18320610687023,0.0
14.220000505447388,-8.647856396484375,-4.4005426513671875,0.47165772705078124,3.801526717557252,41.93893129770992,8.351145038167939,-9.840168823242188,1.0486603271484374,-0.7230489013671875,2.1374045801526718,-15.022900763358779,25.893129770992367,0.0
14.230000734329224,-9.418789331054686,-2.9041666137695312,1.0462661254882812,24.610687022900763,49.00763358778626,1.099236641221374,-10.199299072265624,-0.3854664672851562,-0.105344873046875,4.916030534351145,-15.86259541984733,24.091603053435115,0.0
14.240000247955322,-9.866505041503906,-1.189918225097656,0.8475473876953125,35.45038167938932,47.908396946564885,-5.32824427480916,-9.64623848876953,0.1867477294921875,-0.05985504150390625,9.221374045801527,-21.297709923664122,19.358778625954198,0.0
14.250000476837158,-9.945513696289062,0.0143652099609375,1.2378022583007813,39.16030534351145,45.63358778625954,-6.625954198473282,-9.600748657226562,0.584185205078125,-0.9983820922851562,15.938931297709924,-20.885496183206108,15.450381679389313,0.0
14.260000944137573,-9.423577734375,0.7493851196289062,0.7685387329101562,41.908396946564885,41.87786259541985,-6.412213740458015,-9.540893615722656,0.02154781494140625,-0.143652099609375,21.984732824427482,-28.091603053435115,12.641221374045802,0.0
14.27000093460083,-9.289502441406249,1.8770541015625,0.7565677246093749,38.229007633587784,38.458015267175576,-7.435114503816794,-9.035717065429687,0.8307879760742187,-0.7038952880859375,20.213740458015266,-34.97709923664122,7.984732824427481,0.0
14.280000686645508,-8.647856396484375,1.139639990234375,-0.46208092041015625,36.35114503816794,35.14503816793893,-4.183206106870229,-7.738059765625,2.655169641113281,-2.6695348510742187,5.923664122137405,-28.15267175572519,5.435114503816794,0.0
14.290000677108765,-8.908824377441405,2.0566192260742184,0.1149216796875,40.25954198473283,38.152671755725194,-2.0,-6.947973217773437,3.4069489624023435,-3.4332851806640625,-16.015267175572518,-19.374045801526716,8.625954198473282,0.0
14.300000667572021,-9.334992272949219,2.104503259277344,0.7757213378906249,38.19847328244275,39.9236641221374,-1.5572519083969465,-8.913612780761719,-0.05027823486328125,-2.310404602050781,-19.129770992366414,-8.274809160305344,14.274809160305344,0.0
14.310000896453857,-10.019733947753906,1.4245499877929686,0.8571241943359375,37.038167938931295,41.786259541984734,-2.213740458015267,-9.07163009033203,-0.181959326171875,-2.8131869506835936,-9.206106870229007,-10.83969465648855,9.572519083969466,0.0
14.320000648498535,-9.708487731933593,1.7956512451171873,0.8643067993164062,33.32824427480916,42.12213740458015,-4.015267175572519,-8.971073620605468,0.48123453369140623,-2.901772412109375,-1.4198473282442747,-9.98473282442748,4.412213740458015,0.0
14.330000638961792,-9.93354268798828,1.678335363769531,1.120486376953125,26.3206106870229,43.57251908396947,-5.541984732824427,-8.858546142578124,1.35990654296875,-2.7581203125,1.2671755725190839,-6.793893129770993,3.404580152671756,0.0
14.340000629425049,-9.90241806640625,2.7557261108398436,1.426944189453125,17.236641221374047,43.099236641221374,-7.236641221374046,-9.323021264648437,0.7852981445312499,-2.403778466796875,2.6259541984732824,-6.625954198473282,2.3053435114503817,0.0
14.350000858306885,-9.473855969238281,2.6815058593749996,0.8738836059570312,7.206106870229007,40.091603053435115,-6.213740458015267,-9.512163195800781,0.814028564453125,-1.6328455322265625,3.6946564885496183,-8.244274809160306,1.1755725190839694,0.0
14.360000610351562,-9.409212524414063,2.7916391357421872,1.0486603271484374,1.1603053435114503,39.587786259541986,-5.8320610687022905,-9.744400756835937,0.8714894042968749,-1.4628572143554686,4.809160305343512,-8.259541984732824,0.07633587786259542,0.0
14.370001077651978,-9.87608184814453,2.157175695800781,1.7884686401367187,-7.00763358778626,37.29770992366412,-5.648854961832061,-10.067617980957031,0.9720458740234375,-1.0103531005859374,6.717557251908397,-8.977099236641221,-0.7786259541984732,0.0
14.380000591278076,-9.516951599121093,1.5442600708007812,1.1228805786132812,-9.099236641221374,34.54961832061068,-4.778625954198473,-9.89523546142578,0.36152445068359373,-0.45968671875,9.038167938931299,-9.282442748091603,-1.5725190839694656,0.0
14.390001058578491,-11.176133349609374,1.0127473022460938,1.4101847778320311,-11.221374045801527,33.37404580152672,-5.297709923664122,-10.369287390136718,-0.3016694091796875,0.33039982910156246,14.778625954198473,-17.49618320610687,-3.4656488549618323,0.0
14.40000057220459,-9.49300958251953,0.6679822631835937,0.3064578125,-3.282442748091603,31.236641221374047,-4.442748091603053,-9.830592016601562,0.7781155395507812,-0.39743747558593745,25.908396946564885,-18.396946564885496,-6.412213740458015,0.0
14.410000562667847,-11.480196960449218,2.1883003173828124,2.1499930908203124,-5.145038167938932,33.66412213740458,-6.595419847328245,-9.660603698730467,0.28490999755859375,0.09576806640624999,33.954198473282446,-23.374045801526716,-8.488549618320612,0.0
14.420000791549683,-11.822567797851562,3.517082238769531,2.1906945190429687,-15.419847328244275,28.198473282442748,-7.221374045801527,-9.275137231445312,2.5905261962890624,-0.9193734375,38.30534351145038,-30.625954198473284,-14.030534351145038,0.0
14.43000054359436,-9.572018237304688,1.5251064575195312,0.842758984375,-21.374045801526716,22.35114503816794,-1.7557251908396947,-8.506598498535157,3.6463691284179687,-0.5123591552734374,12.290076335877863,-30.12213740458015,-12.564885496183207,0.0
14.440000295639038,-9.890447058105469,1.6256629272460936,0.833182177734375,-26.3206106870229,21.0381679389313,-0.3969465648854962,-9.964667309570311,2.4756045166015626,-0.5243301635742187,8.580152671755725,-17.129770992366414,-7.175572519083969,0.0
14.450000524520874,-9.773131176757811,0.5267243652343749,0.143652099609375,-20.12213740458015,21.64885496183206,-0.3969465648854962,-10.747571252441405,0.93852705078125,-0.3184288208007812,6.473282442748092,-20.137404580152673,-5.175572519083969,0.0
14.460000991821289,-10.1131078125,0.6368576416015624,-0.011971008300781249,-19.786259541984734,18.99236641221374,-1.7404580152671756,-10.77630167236328,-0.34237083740234375,1.2832920898437499,11.206106870229007,-28.12213740458015,-7.267175572519084,0.0
14.470000505447388,-9.957484704589843,0.5243301635742187,0.373495458984375,-13.34351145038168,19.984732824427482,-2.5801526717557253,-9.567229833984374,0.7230489013671875,0.21308394775390624,24.18320610687023,-31.00763358778626,-11.587786259541986,0.0
14.480000734329224,-10.283096130371094,0.8475473876953125,0.584185205078125,-11.786259541984732,19.00763358778626,-3.816793893129771,-8.674192614746094,2.798821740722656,0.040701428222656245,21.206106870229007,-34.274809160305345,-12.977099236641221,0.0
14.490000486373901,-10.012551342773437,1.180341418457031,1.0175357055664063,-8.793893129770993,19.083969465648856,-3.4198473282442747,-8.482656481933594,3.878606689453125,-0.59376201171875,3.312977099236641,-24.30534351145038,-10.16793893129771,0.0
14.500000715255737,-10.524910498046875,1.3192051147460937,1.3431471313476562,-12.442748091603054,15.740458015267176,-2.198473282442748,-9.603142858886718,2.7461493041992187,0.033518823242187495,-9.282442748091603,-17.801526717557252,-5.00763358778626,0.0
14.510000705718994,-10.149020837402343,0.9983820922851562,1.3934253662109375,-11.007633587786259,13.068702290076336,-1.4961832061068703,-9.579200842285156,1.7788918334960937,0.0526724365234375,-17.46564885496183,-17.87786259541985,-4.656488549618321,0.0
14.520000457763672,-10.072406384277343,0.4955997436523437,1.1444283935546875,-8.900763358778626,10.67175572519084,0.2900763358778626,-10.730811840820312,-0.5961562133789062,0.842758984375,-10.488549618320612,-17.786259541984734,-5.343511450381679,0.0
14.530000925064087,-10.204087475585936,-0.02154781494140625,1.4604630126953124,-3.0076335877862594,10.259541984732824,-0.8549618320610687,-10.589553942871094,-1.5562310791015623,0.82360537109375,5.633587786259542,-26.68702290076336,-8.305343511450381,0.0
14.540000677108765,-9.418789331054686,-0.229843359375,1.0678139404296874,5.374045801526718,9.709923664122137,-1.9694656488549618,-9.813832604980469,-0.229843359375,0.40462008056640625,22.53435114503817,-32.961832061068705,-12.610687022900763,0.0
14.550000667572021,-10.295067138671874,1.2378022583007813,1.2330138549804688,2.33587786259542,6.824427480916031,-5.786259541984733,-8.621520178222656,1.4939818359375,-0.11731588134765625,20.290076335877863,-37.74045801526717,-15.358778625954198,0.0
14.560000896453857,-10.007762939453125,1.177947216796875,0.9624690673828125,2.7480916030534353,5.312977099236641,-5.282442748091603,-7.812280017089844,3.5913024902343746,-0.4572925170898437,7.984732824427481,-33.02290076335878,-14.412213740458014,0.0
14.570000648498535,-9.701305126953125,0.8954314208984374,0.32561142578124996,5.404580152671755,5.816793893129771,-3.7709923664122136,-9.586383447265625,1.429338391113281,0.39264907226562495,-6.030534351145038,-25.49618320610687,-8.595419847328245,0.0
14.580000877380371,-10.292672937011718,1.6615759521484375,-0.316034619140625,4.061068702290076,3.5114503816793894,-4.030534351145038,-10.043675964355469,1.0127473022460938,0.8355763793945312,-8.610687022900763,-26.290076335877863,-7.312977099236641,0.0
14.590001106262207,-10.75714805908203,2.346317626953125,0.7661445312499999,1.297709923664122,7.175572519083969,-4.641221374045801,-9.775525378417969,0.6392518432617187,0.5961562133789062,-0.9770992366412213,-27.755725190839694,-8.80916030534351,0.0
14.600000619888306,-10.060435375976562,1.9225439331054686,0.2920926025390625,-2.900763358778626,4.244274809160306,-3.954198473282443,-9.560047229003906,1.4604630126953124,0.2346317626953125,5.770992366412214,-26.213740458015266,-9.740458015267176,0.0
14.610000848770142,-9.60793126220703,1.254561669921875,0.3495534423828125,-2.198473282442748,3.5267175572519083,-3.66412213740458,-9.612719665527344,0.7350199096679687,0.469263525390625,5.908396946564886,-24.3206106870229,-8.51908396946565,0.0
14.62000060081482,-10.153809240722655,1.2473790649414063,0.8116343627929687,-3.6030534351145036,2.50381679389313,-4.351145038167939,-10.436325036621094,0.3687070556640625,0.5339069702148437,15.83206106870229,-25.419847328244273,-8.320610687022901,0.0
14.630000829696655,-10.144232434082031,0.9361328491210937,0.7733271362304687,-1.3740458015267176,0.9465648854961832,-4.519083969465649,-10.771513269042968,0.009576806640625,0.7254431030273437,22.68702290076336,-33.038167938931295,-10.274809160305344,0.0
14.640000581741333,-9.97903251953125,0.3854664672851562,0.43574470214843747,2.6564885496183206,0.6717557251908397,-4.854961832061068,-10.608707556152343,0.3902548706054687,0.7924807495117187,32.85496183206107,-36.93129770992366,-12.229007633587786,0.0
14.650001049041748,-9.095572106933593,-0.46686932373046874,-0.2920926025390625,11.206106870229007,1.786259541984733,-4.854961832061068,-8.415618835449218,2.863465185546875,-0.6344634399414062,30.793893129770993,-40.36641221374046,-15.49618320610687,0.0
14.660000562667847,-10.165780249023436,2.2194249389648437,0.6536170532226562,7.465648854961832,6.33587786259542,-8.549618320610687,-8.382100012207031,4.094084838867187,-0.7422025146484375,15.312977099236642,-28.198473282442748,-13.48091603053435,0.0
14.670000553131104,-8.86812294921875,1.1635820068359375,-0.009576806640625,4.259541984732825,6.351145038167939,-6.137404580152672,-9.950302099609374,1.7501614135742187,1.0845733520507812,-3.3893129770992365,-19.64885496183206,-6.091603053435114,0.0
14.68000054359436,-7.996633544921875,0.6584054565429687,-0.842758984375,3.312977099236641,6.931297709923665,-7.0534351145038165,-10.541669909667968,1.0271125122070313,0.7924807495117187,3.1297709923664123,-24.977099236641223,-6.961832061068702,0.0
14.690000534057617,-8.0828248046875,1.5011644409179687,-0.8068459594726562,5.175572519083969,10.16793893129771,-9.679389312977099,-10.304643945312499,0.8307879760742187,0.6057330200195312,10.67175572519084,-23.206106870229007,-9.694656488549619,0.0
14.700000524520874,-9.605537060546874,1.9033903198242186,-0.7661445312499999,5.419847328244275,15.358778625954198,-10.778625954198473,-9.68454571533203,1.5921441040039062,0.689530078125,13.648854961832061,-21.00763358778626,-10.732824427480915,0.0
14.71000051498413,-9.674968908691406,2.152387292480469,-0.373495458984375,5.129770992366412,17.46564885496183,-9.648854961832061,-9.576806640625,1.6903063720703124,0.6655880615234374,12.870229007633588,-20.641221374045802,-9.450381679389313,0.0
14.720000982284546,-10.01733974609375,2.8754361938476563,0.16759411621093748,1.450381679389313,18.65648854961832,-9.282442748091603,-9.53131680908203,1.6472107421875,0.6344634399414062,12.01526717557252,-20.916030534351144,-9.664122137404581,0.0
14.730000495910645,-10.050858569335936,2.789244934082031,0.44053310546874996,-5.923664122137405,16.916030534351144,-7.526717557251908,-9.04050546875,1.4173673828125,0.7661445312499999,8.580152671755725,-18.259541984732824,-10.534351145038167,0.0
14.74000096321106,-9.916783276367187,2.214636535644531,0.143652099609375,-8.458015267175572,13.618320610687023,-4.931297709923665,-9.028534460449219,1.7286135986328124,0.42377369384765623,5.435114503816794,-18.778625954198475,-10.67175572519084,0.0
14.750000476837158,-10.20887587890625,1.8315642700195311,1.0797849487304687,-12.900763358778626,14.961832061068701,-5.267175572519084,-8.750807067871094,1.4796166259765624,0.34715924072265625,1.450381679389313,-17.328244274809162,-10.335877862595419,0.0
14.760000944137573,-11.073182678222656,1.5634136840820312,1.3335703247070312,-14.198473282442748,14.259541984732824,-6.488549618320611,-8.762778076171875,1.0845733520507812,0.30885201416015623,-0.21374045801526717,-14.870229007633588,-10.80916030534351,0.0
