timestamp,Thigh_L_Acc_X,Thigh_L_Acc_Y,Thigh_L_Acc_Z,Thigh_L_Gyr_X,Thigh_L_Gyr_Y,Thigh_L_Gyr_Z,Thigh_R_Acc_X,Thigh_R_Acc_Y,Thigh_R_Acc_Z,Thigh_R_Gyr_X,Thigh_R_Gyr_Y,Thigh_R_Gyr_Z,gpio_output
10.000000715255737,-8.975862023925782,1.9297265380859374,-3.0621839233398433,-2.7480916030534353,95.95419847328245,-18.30534351145038,-8.628702783203124,1.0414777221679687,-6.0333881835937495,-11.114503816793894,-32.534351145038165,4.870229007633588,0.0
10.010000705718994,-11.635820068359374,2.7916391357421872,-1.2952630981445312,-22.625954198473284,97.83206106870229,-23.419847328244273,-9.176974963378905,2.059013427734375,-5.95677373046875,-14.488549618320612,-21.52671755725191,1.618320610687023,1.0
10.020000696182251,-8.79150849609375,-2.370259643554687,-1.5873557006835937,-25.938931297709924,94.76335877862596,-19.69465648854962,-9.713276135253906,2.0446482177734375,-4.620809204101562,-17.984732824427482,-18.061068702290076,-0.6106870229007634,1.0
10.030000686645508,-9.964667309570311,-0.814028564453125,1.89620771484375,-19.740458015267176,102.67175572519083,-28.85496183206107,-9.696516723632811,1.1444283935546875,-2.5617957763671875,-15.603053435114504,-16.458015267175572,-0.916030534351145,1.0
10.040000915527344,-9.014169250488282,-1.5298948608398437,2.0159177978515626,-17.358778625954198,95.22137404580153,-32.16793893129771,-8.710105639648438,0.7422025146484375,-1.5442600708007812,-7.251908396946565,-19.801526717557252,-1.1450381679389312,1.0
10.050000667572021,-10.153809240722655,-1.3239935180664062,2.499546533203125,-4.213740458015267,96.50381679389314,-34.38167938931298,-9.267954626464844,-0.0383072265625,-0.1867477294921875,3.6030534351145036,-23.221374045801525,-1.9389312977099236,1.0
10.060000658035278,-6.009446166992187,-3.5386300537109374,-0.5578489868164063,15.16030534351145,91.22137404580153,-33.61832061068702,-7.110778930664062,0.8283937744140625,-0.4860229370117187,6.931297709923665,-30.68702290076336,-8.351145038167939,1.0
10.070000648498535,-8.166621862792969,-2.142810485839844,0.2154781494140625,33.786259541984734,102.82442748091603,-37.52671755725191,-7.0269818725585935,0.7757213378906249,-0.5051765502929687,12.549618320610687,-34.56488549618321,-12.229007633587786,1.0
10.080000638961792,-8.774749084472656,-0.5698199951171875,0.34715924072265625,32.0,102.44274809160305,-42.87022900763359,-8.305485559082031,0.3399766357421875,0.689530078125,17.480916030534353,-33.61832061068702,-12.51908396946565,1.0
10.090000629425049,-9.6151138671875,1.1420341918945311,0.9361328491210937,32.44274809160305,104.36641221374046,-42.44274809160305,-8.813056311035156,-0.6272808349609375,1.1348515869140625,28.076335877862597,-37.41984732824427,-12.50381679389313,1.0
10.100000381469727,-6.823474731445312,-1.3910311645507811,-0.08379705810546874,36.396946564885496,100.3969465648855,-37.87786259541985,-8.992621435546875,-0.7876923461914062,1.2976572998046874,38.6412213740458,-43.969465648854964,-15.923664122137405,1.0
10.11000108718872,-9.294290844726563,-0.277727392578125,1.6639701538085936,45.55725190839695,103.20610687022901,-40.58015267175573,-7.785943798828124,0.8930372192382812,-0.11252747802734374,37.29770992366412,-50.56488549618321,-20.412213740458014,1.0
10.120000839233398,-7.560888842773437,0.6464344482421874,0.7709329345703124,30.35114503816794,94.47328244274809,-42.01526717557252,-9.153032946777342,0.6488286499023437,0.70868369140625,36.61068702290076,-47.6793893129771,-17.72519083969466,1.0
10.130001068115234,-10.381258398437499,1.199495031738281,1.8938135131835936,30.702290076335878,94.33587786259542,-42.732824427480914,-9.124302526855468,0.06943184814453125,0.584185205078125,43.55725190839695,-53.343511450381676,-18.15267175572519,1.0
10.140000581741333,-9.267954626464844,0.5793968017578125,1.3431471313476562,24.12213740458015,84.45801526717557,-41.64885496183206,-9.176974963378905,1.5514426757812498,0.4836287353515625,37.465648854961835,-55.43511450381679,-19.954198473282442,1.0
10.15000057220459,-10.338162768554687,3.0885201416015624,2.4660277099609376,20.213740458015266,81.78625954198473,-39.404580152671755,-9.504980590820312,1.4317325927734375,1.0486603271484374,31.6793893129771,-57.32824427480916,-17.69465648854962,1.0
10.160000801086426,-10.848127722167968,3.2537200561523436,2.6288334228515624,9.969465648854962,73.0381679389313,-36.54961832061068,-10.347739575195313,0.9816226806640624,1.7956512451171873,33.465648854961835,-61.343511450381676,-14.778625954198473,1.0
10.170000553131104,-10.778695874023438,3.0310593017578125,2.3391350219726563,0.5190839694656488,64.93129770992367,-31.61832061068702,-8.84178673095703,2.0638018310546875,0.33039982910156246,27.129770992366414,-70.04580152671755,-18.3206106870229,1.0
10.18000054359436,-12.425906616210936,5.537788439941406,3.383006945800781,-14.854961832061068,54.99236641221374,-25.450381679389313,-10.670956799316405,0.21068974609375,1.9201497314453124,20.53435114503817,-66.21374045801527,-15.099236641221374,1.0
10.190000534057617,-10.39322940673828,2.195482922363281,1.6304513305664061,-21.770992366412212,46.67175572519084,-19.022900763358777,-10.977414611816405,0.1867477294921875,0.9624690673828125,30.38167938931298,-75.14503816793894,-16.061068702290076,1.0
10.200000524520874,-12.296619726562499,5.142745166015625,2.8036101440429686,-23.358778625954198,46.94656488549618,-16.427480916030536,-10.235212097167969,1.0438719238281249,0.6416460449218749,23.709923664122137,-77.14503816793894,-21.541984732824428,1.0
10.21000051498413,-9.9981861328125,1.924938134765625,0.5530605834960938,-43.3587786259542,30.748091603053435,-10.13740458015267,-11.159373937988281,0.699106884765625,0.6177040283203125,30.519083969465647,-79.2824427480916,-20.641221374045802,0.0
10.220000982284546,-12.449848632812499,2.3511060302734372,1.886630908203125,-37.66412213740458,31.206106870229007,-9.083969465648854,-10.340556970214843,1.455674609375,0.21308394775390624,29.435114503816795,-80.04580152671755,-22.16793893129771,0.0
10.230000495910645,-10.970232006835937,1.5514426757812498,1.5658078857421873,-36.732824427480914,30.33587786259542,-8.67175572519084,-10.836156713867187,0.7038952880859375,0.05985504150390625,31.0381679389313,-77.12977099236642,-21.16030534351145,0.0
10.24000072479248,-9.993397729492187,0.7158662963867187,1.3383587280273437,-34.80916030534351,27.19083969465649,-9.419847328244275,-9.315838659667968,2.0973206542968748,-1.3335703247070312,28.9618320610687,-78.62595419847328,-24.641221374045802,0.0
10.250000476837158,-12.191274853515624,2.3870190551757813,2.7461493041992187,-42.213740458015266,21.72519083969466,-12.564885496183207,-9.591171850585937,1.209071838378906,0.33039982910156246,22.458015267175572,-68.01526717557252,-22.229007633587788,0.0
10.260000944137573,-11.554417211914062,1.0438719238281249,2.4899697265625,-40.58015267175573,21.083969465648856,-12.931297709923664,-9.830592016601562,1.5849614990234373,-0.2609679809570312,25.34351145038168,-67.98473282442748,-21.633587786259543,0.0
10.270000696182251,-10.196904870605469,0.6057330200195312,1.7501614135742187,-32.62595419847328,20.580152671755727,-12.51908396946565,-8.350975390624999,2.4444798950195312,-0.5195417602539062,15.648854961832061,-64.68702290076335,-24.18320610687023,0.0
10.280000686645508,-10.096348400878906,0.7493851196289062,1.5825672973632812,-31.068702290076335,18.458015267175572,-11.068702290076336,-9.14824454345703,1.2713210815429687,0.277727392578125,12.534351145038167,-56.6412213740458,-20.53435114503817,0.0
10.290000677108765,-13.759476940917969,3.8762124877929685,3.1866824096679687,-39.099236641221374,17.114503816793892,-12.076335877862595,-9.765948571777344,1.4963760375976562,-0.16759411621093748,16.99236641221374,-59.038167938931295,-20.977099236641223,0.0
10.300000667572021,-12.373234179687499,3.402160559082031,2.521094348144531,-54.030534351145036,8.793893129770993,-8.50381679389313,-8.528146313476562,3.356670727539062,0.3112462158203125,11.816793893129772,-57.29770992366412,-22.33587786259542,0.0
10.310000658035278,-9.935936889648437,0.5506663818359374,0.5243301635742187,-54.01526717557252,0.732824427480916,0.21374045801526717,-8.89924757080078,2.849099975585937,0.37828386230468747,-2.5801526717557253,-46.35114503816794,-17.6793893129771,0.0
10.320000648498535,-10.544064111328124,1.2521674682617188,1.2282254516601563,-46.29007633587786,6.977099236641221,-0.183206106870229,-8.499415893554687,2.7341782958984373,-0.47165772705078124,-7.083969465648855,-45.02290076335878,-16.12213740458015,0.0
10.330000638961792,-8.95670841064453,-0.44053310546874996,-0.016759411621093748,-46.18320610687023,3.572519083969466,-2.7786259541984735,-8.846575134277343,1.3048399047851562,1.5035586425781249,-11.022900763358779,-37.221374045801525,-13.877862595419847,0.0
10.340000629425049,-7.845798840332031,-3.246537451171875,-1.0965443603515623,-26.793893129770993,6.229007633587786,-1.8473282442748091,-9.526528405761718,0.1580173095703125,1.5682020874023437,-1.099236641221374,-37.603053435114504,-12.229007633587786,0.0
10.350000858306885,-8.276755139160155,-1.5921441040039062,0.033518823242187495,-2.5343511450381677,20.15267175572519,-8.641221374045802,-7.314286071777343,0.47165772705078124,-0.062249243164062495,5.801526717557252,-44.18320610687023,-17.893129770992367,0.0
10.360000610351562,-9.706093530273437,2.0063409912109376,1.7022773803710936,-3.969465648854962,24.885496183206108,-17.19083969465649,-5.0757075195312495,2.4109610717773435,-0.430956298828125,-6.961832061068702,-32.35114503816794,-21.14503816793893,0.0
10.370000839233398,-10.091559997558592,2.205059729003906,2.2840683837890623,-20.748091603053435,16.458015267175572,-15.740458015267176,-7.357381701660156,1.0175357055664063,0.7805097412109374,-14.65648854961832,-19.450381679389313,-16.12213740458015,0.0
10.380000352859497,-7.920019091796875,-1.0726023437499999,2.003946789550781,-5.572519083969466,15.786259541984732,-11.389312977099237,-6.222530114746093,0.5506663818359374,-0.4429273071289062,-16.83969465648855,-20.53435114503817,-16.641221374045802,0.0
10.390000820159912,-8.978256225585938,-0.6200982299804687,2.6048914062499997,6.641221374045801,16.778625954198475,-13.98473282442748,-7.548917834472656,-0.8355763793945312,1.1324573852539062,-13.038167938931299,-12.305343511450381,-17.0381679389313,0.0
10.40000057220459,-10.299855541992187,1.2473790649414063,3.6391865234374996,11.450381679389313,16.641221374045802,-19.358778625954198,-7.790732202148437,-1.4820108276367188,1.3646949462890625,1.4351145038167938,-14.564885496183207,-18.106870229007633,0.0
10.410000562667847,-11.326968054199218,2.616862414550781,4.199429711914062,11.129770992366412,9.32824427480916,-20.076335877862597,-7.831433630371094,-0.9145850341796874,1.9895815795898437,8.687022900763358,-13.664122137404581,-19.297709923664122,0.0
10.420000553131104,-9.368511096191405,3.0142998901367184,4.053383410644531,8.732824427480915,-0.8244274809160306,-17.053435114503817,-6.6702458251953125,0.3687070556640625,1.7525556152343749,7.267175572519084,-13.389312977099237,-20.16793893129771,0.0
10.43000054359436,-10.134655627441406,3.778050219726562,5.518634826660156,-7.679389312977099,-13.511450381679388,-15.48091603053435,-7.5465236328125,0.031124621582031248,2.346317626953125,7.694656488549619,-12.595419847328245,-18.412213740458014,0.0
10.440000534057617,-9.706093530273437,1.7669208251953124,6.275202551269531,-7.343511450381679,-27.52671755725191,-11.297709923664122,-6.289567761230469,0.8403647827148437,1.5921441040039062,3.053435114503817,-12.778625954198473,-19.69465648854962,0.0
10.450000762939453,-8.659827404785156,1.3287819213867187,7.524975817871093,11.664122137404581,-32.0,-6.702290076335878,-5.386953735351562,1.2713210815429687,1.235408056640625,-1.7251908396946565,-8.931297709923664,-19.633587786259543,0.0
10.46000051498413,-10.319009155273436,3.5577836669921874,10.20887587890625,6.091603053435114,-45.6793893129771,-4.442748091603053,-5.0014872680664055,0.44532150878906246,1.35990654296875,-3.0076335877862594,-4.854961832061068,-17.755725190839694,0.0
10.470000505447388,-10.390835205078124,3.5434184570312497,12.023680737304687,24.27480916030534,-57.70992366412214,4.641221374045801,-4.855440966796874,-0.5770026000976562,1.254561669921875,1.1450381679389312,-3.450381679389313,-15.709923664122137,0.0
10.480000734329224,-11.647791076660155,6.964732629394531,12.57674132080078,18.229007633587788,-81.48091603053435,12.091603053435115,-4.295197778320312,-0.4908113403320312,1.4532804077148436,2.2900763358778624,-2.7786259541984735,-17.96946564885496,0.0
10.490000486373901,-12.112266198730469,6.0908490234374995,12.059593762207031,-2.3053435114503817,-107.1145038167939,18.610687022900763,-5.91846650390625,0.0718260498046875,2.0302830078125,3.236641221374046,0.24427480916030533,-15.877862595419847,0.0
10.500000715255737,-11.992556115722655,2.8993782104492185,9.68454571533203,-16.290076335877863,-131.1908396946565,22.65648854961832,-7.034164477539062,1.6065093139648436,-0.6464344482421874,4.198473282442748,3.969465648854962,-14.106870229007633,0.0
10.510000705718994,-18.588581689453125,4.944026428222656,12.00931552734375,-30.198473282442748,-135.3740458015267,14.50381679389313,-11.434707128906249,3.0550013183593747,-1.7286135986328124,2.5801526717557253,16.748091603053435,-15.358778625954198,0.0
10.520000457763672,-16.11297717285156,0.09816226806640624,9.14824454345703,-29.66412213740458,-161.78625954198472,16.549618320610687,-18.82081925048828,2.4109610717773435,1.2641384765625,8.290076335877863,25.328244274809162,-16.48854961832061,0.0
10.530000686645508,-15.82567297363281,-3.986345764160156,7.841010437011718,7.6183206106870225,-175.61832061068702,20.16793893129771,-24.181436767578123,2.2744915771484373,4.903325,19.69465648854962,17.389312977099237,-15.801526717557252,0.0
10.540000438690186,-17.992425476074217,-4.256890551757812,6.562506750488281,56.717557251908396,-176.9618320610687,15.755725190839694,-21.918916198730468,4.65432802734375,5.9783215454101555,12.702290076335878,9.32824427480916,-14.335877862595419,0.0
10.550000667572021,-22.400150732421874,-0.43574470214843747,7.149086157226562,71.02290076335878,-177.54198473282443,10.641221374045802,-17.47527791748047,5.518634826660156,5.68862314453125,-3.267175572519084,-2.8091603053435112,-0.33587786259541985,0.0
10.560000658035278,-24.396914916992188,1.0630255371093749,6.543353137207031,80.3969465648855,-184.93129770992365,19.770992366412212,-10.627861169433594,4.841075756835937,1.9009961181640624,-27.541984732824428,-14.351145038167939,12.13740458015267,0.0
10.570000648498535,-21.327548388671875,2.327164013671875,3.0597897216796874,94.12213740458016,-188.0763358778626,42.44274809160305,-5.68862314453125,2.578555187988281,-2.3319524169921872,-46.42748091603053,-19.557251908396946,21.69465648854962,0.0
10.580000638961792,-20.338743103027344,3.9887399658203124,1.3168109130859373,73.64885496183206,-181.55725190839695,52.97709923664122,-0.1292868896484375,3.1603461914062496,-9.13627353515625,-75.17557251908397,-21.083969465648856,15.022900763358779,0.0
10.590000629425049,-13.527239379882811,2.422932080078125,-2.389413256835937,36.56488549618321,-182.21374045801528,61.89312977099237,-1.9129671264648436,-1.1252747802734375,-7.900865478515625,-120.38167938931298,21.267175572519083,14.0,0.0
10.600000619888306,-7.8362220336914055,-2.5905261962890624,-4.1754876953124995,-5.343511450381679,-163.66412213740458,66.45801526717557,-5.537788439941406,-6.552929943847656,-7.275978845214843,-118.58015267175573,39.43511450381679,14.213740458015268,0.0
10.610000848770142,-5.413289953613281,-5.717353564453124,-4.728548278808593,-11.618320610687023,-134.21374045801528,62.6412213740458,-10.144232434082031,-9.706093530273437,-4.991910461425781,-103.77099236641222,64.1526717557252,8.580152671755725,0.0
10.62000060081482,-7.4962453979492185,-5.128379956054687,-1.0821791503906248,4.229007633587786,-104.04580152671755,51.282442748091604,-8.310273962402343,-7.829039428710937,-6.45476767578125,-61.083969465648856,64.80916030534351,2.50381679389313,0.0
10.630000829696655,-8.066065393066406,-0.6081272216796875,1.7166425903320313,36.6412213740458,-85.09923664122137,45.61832061068702,-10.579977136230468,-5.588066674804687,-4.5585599609375,-26.137404580152673,77.17557251908397,5.480916030534351,0.0
10.640000581741333,-10.793061083984375,1.9105729248046874,5.0948611328124995,33.12977099236641,-69.2824427480916,39.038167938931295,-7.199364392089843,0.11252747802734374,-7.438784558105469,-11.145038167938932,78.38167938931298,5.908396946564886,0.0
10.65000057220459,-10.613495959472656,0.20350714111328125,4.04141240234375,14.82442748091603,-69.32824427480917,34.97709923664122,-9.586383447265625,2.114080065917969,-4.570530969238281,-11.374045801526718,93.54198473282443,12.183206106870228,0.0
10.660000562667847,-11.659762084960937,0.6751648681640625,2.825157958984375,-2.030534351145038,-69.14503816793894,30.931297709923665,-9.888052856445311,3.632003918457031,-3.612850305175781,-25.81679389312977,104.68702290076335,18.396946564885496,0.0
10.670000553131104,-10.256759912109374,-0.08379705810546874,0.19393033447265623,-22.885496183206108,-82.10687022900764,30.091603053435115,-10.414777221679687,2.7844565307617186,-1.2641384765625,-43.43511450381679,118.85496183206106,24.16793893129771,0.0
10.680000305175781,-9.351751684570312,-1.678335363769531,-0.4525041137695312,-28.35114503816794,-90.91603053435115,28.99236641221374,-6.619967590332031,3.306392492675781,-2.243366955566406,-36.18320610687023,110.85496183206106,27.221374045801525,0.0
10.690000534057617,-8.327033374023436,-1.0582371337890624,-0.2442085693359375,-28.15267175572519,-94.09160305343511,24.458015267175572,-10.83376251220703,0.7254431030273437,1.0295067138671874,-36.54961832061068,123.25190839694656,34.152671755725194,0.0
10.700000762939453,-7.125144140624999,-0.5770026000976562,0.009576806640625,-28.290076335877863,-96.7175572519084,19.31297709923664,-9.603142858886718,0.6607996582031249,-0.4908113403320312,-35.969465648854964,123.48091603053435,36.412213740458014,0.0
10.71000051498413,-5.722141967773437,-0.2561795776367187,-0.5363011718749999,-28.03053435114504,-95.32824427480917,14.854961832061068,-10.398017810058594,0.13646949462890623,-0.6584054565429687,-28.198473282442748,116.6412213740458,36.030534351145036,0.0
10.720000505447388,-4.285620971679688,-1.419761584472656,-1.9752163696289062,-25.87786259541985,-89.05343511450381,10.534351145038167,-10.663774194335938,-0.8283937744140625,-0.0430956298828125,-28.900763358778626,117.52671755725191,34.6412213740458,0.0
10.730000495910645,-4.228160131835938,-2.0973206542968748,-3.066972326660156,-23.435114503816795,-77.7557251908397,5.480916030534351,-10.160991845703125,-1.5155296508789062,0.8116343627929687,-7.7251908396946565,106.50381679389314,32.18320610687023,0.0
10.740000247955322,-2.8898014038085935,-2.138022082519531,-3.907337109375,-16.763358778625953,-62.97709923664122,3.053435114503817,-9.993397729492187,-1.3407529296874998,0.93852705078125,2.030534351145038,101.16030534351145,28.625954198473284,0.0
10.750000238418579,-3.5865140869140624,-0.4572925170898437,-3.2034418212890623,-18.916030534351144,-44.48854961832061,0.8244274809160306,-8.571241943359375,-1.5514426757812498,0.30885201416015623,11.526717557251908,91.87786259541984,25.022900763358777,0.0
10.760000705718994,-1.7334020019531249,-1.6017209106445311,-3.861847277832031,-21.786259541984734,-27.603053435114504,2.33587786259542,-10.27830772705078,-2.2194249389648437,1.9943699829101562,28.641221374045802,86.13740458015268,24.82442748091603,0.0
10.770000696182251,-3.0310593017578125,-0.3687070556640625,-2.4971523315429685,-27.557251908396946,-7.679389312977099,-0.2748091603053435,-8.537723120117187,-1.1707646118164061,0.45968671875,43.52671755725191,69.16030534351145,21.450381679389313,0.0
10.780000686645508,-1.1851298217773436,-0.63206923828125,-3.095702746582031,-31.236641221374047,4.198473282442748,1.3129770992366412,-11.319785449218749,-1.5682020874023437,2.940079638671875,41.12977099236641,68.12213740458016,20.625954198473284,0.0
10.790000438690186,-2.3151930053710936,0.14125789794921875,-1.7166425903320313,-32.74809160305343,28.18320610687023,0.13740458015267176,-11.37006368408203,-1.0295067138671874,2.492363928222656,29.480916030534353,66.6412213740458,18.610687022900763,0.0
10.800000667572021,-3.0693665283203124,0.6919242797851562,-0.8810662109374999,-39.083969465648856,37.52671755725191,-0.5038167938931297,-12.928688964843749,-1.0630255371093749,2.3965958618164063,32.74809160305343,61.66412213740458,16.946564885496183,0.0
10.810000658035278,-4.374206433105469,1.43652099609375,1.1444283935546875,-46.458015267175576,43.86259541984733,-0.9923664122137404,-13.117830895996093,-1.1276689819335937,2.221819140625,28.83969465648855,56.534351145038165,15.038167938931299,0.0
10.820000648498535,-2.384624853515625,-1.4053963745117186,1.426944189453125,-30.793893129770993,53.19083969465649,3.5877862595419847,-14.480131640624998,-2.2194249389648437,3.9935283691406247,34.3206106870229,52.82442748091603,15.48091603053435,0.0
10.830000638961792,-2.5665841796874997,-1.2641384765625,3.337517114257812,-15.526717557251908,63.770992366412216,3.267175572519084,-12.11705460205078,-1.3215993164062498,2.674323254394531,34.06106870229008,45.19083969465649,15.877862595419847,0.0
10.840000629425049,-4.582501977539062,-0.11013327636718749,6.835445739746094,2.4580152671755724,74.6412213740458,4.396946564885496,-9.634267480468749,1.0342951171875,0.00718260498046875,26.793893129770993,35.83206106870229,15.19083969465649,0.0
10.850000858306885,-2.980781066894531,-1.7214309936523438,8.963891015625,31.404580152671755,77.37404580152672,12.854961832061068,-12.260706701660155,-2.308010400390625,4.426878869628906,24.83969465648855,38.74809160305343,21.66412213740458,0.0
10.860000610351562,-3.361459130859375,-0.0526724365234375,12.179303845214843,64.06106870229007,88.54961832061069,14.259541984732824,-12.387599389648436,-2.559401574707031,4.469974499511719,32.458015267175576,34.62595419847328,22.641221374045802,0.0
10.87000060081482,-7.917624890136718,5.422866760253906,14.793772058105468,47.770992366412216,80.93129770992367,5.816793893129771,-8.355763793945313,0.2346317626953125,0.3854664672851562,17.603053435114504,28.427480916030536,13.603053435114504,0.0
10.880000352859497,-7.963114721679687,3.778050219726562,13.168109130859374,23.633587786259543,64.33587786259542,5.66412213740458,-12.78743106689453,-2.5857377929687497,5.645527514648437,12.51908396946565,37.465648854961835,16.427480916030536,0.0
10.890000820159912,-9.701305126953125,2.2960393920898436,12.739547033691405,12.564885496183207,62.76335877862596,3.404580152671756,-10.943895788574219,0.15322890625,2.923320227050781,5.862595419847328,32.13740458015267,12.488549618320612,0.0
10.90000057220459,-11.183315954589844,4.163516687011718,12.411541406249999,-4.931297709923665,46.396946564885496,-2.2595419847328246,-10.043675964355469,2.2361843505859373,1.7549498168945312,-23.572519083969464,30.061068702290076,10.793893129770993,0.0
10.910000562667847,-8.757989672851561,3.1555577880859373,10.83376251220703,-9.221374045801527,26.68702290076336,1.2213740458015268,-11.501744775390625,0.8786720092773437,3.0885201416015624,-30.18320610687023,27.374045801526716,19.81679389312977,0.0
10.920000553131104,-8.836998327636719,3.268085266113281,11.061211669921875,21.17557251908397,19.923664122137403,8.793893129770993,-10.582371337890624,1.0127473022460938,0.9265560424804687,-45.83206106870229,22.641221374045802,23.87786259541985,0.0
10.93000078201294,-8.628702783203124,5.865794067382812,0.26815058593749996,40.56488549618321,26.53435114503817,25.099236641221374,-11.808202587890625,-1.1324573852539062,0.7015010864257812,-51.603053435114504,20.259541984732824,31.740458015267176,0.0
10.940000534057617,-10.046070166015625,-1.1707646118164061,-0.24660277099609373,3.312977099236641,37.80152671755725,29.84732824427481,-12.607865942382812,-2.952050646972656,0.11252747802734374,-51.7557251908397,16.83969465648855,33.05343511450382,0.0
10.950000762939453,-15.557522387695311,-9.030928662109375,14.034810131835936,24.99236641221374,48.68702290076336,23.297709923664122,-14.190433239746094,-4.826710546875,1.6304513305664061,-43.404580152671755,11.435114503816793,30.885496183206108,0.0
10.960000991821289,-21.657948217773438,-4.8650177734375,20.963629736328123,73.46564885496183,35.37404580152672,9.099236641221374,-14.56871710205078,-4.034229797363281,1.5514426757812498,-34.0763358778626,-5.145038167938932,25.64885496183206,0.0
10.970000267028809,-26.04173145751953,6.842628344726562,20.058621508789063,87.09923664122137,8.977099236641221,8.01526717557252,-14.501679455566405,-2.128445275878906,1.5514426757812498,-31.251908396946565,-18.564885496183205,22.106870229007633,0.0
10.980000734329224,-18.504784631347654,2.0350714111328125,6.193799694824218,88.9618320610687,-11.038167938931299,17.267175572519083,-14.46097802734375,-0.13407529296874998,1.7118541870117185,-22.48854961832061,-32.36641221374046,18.3206106870229,0.0
10.990000247955322,-8.425195642089843,-0.29927520751953124,-2.9927520751953125,65.90839694656489,-23.49618320610687,4.809160305343512,-17.255011364746093,2.300827795410156,1.9297265380859374,-33.86259541984733,-34.045801526717554,15.34351145038168,0.0
11.000000715255737,-2.3295582153320313,-6.002263562011718,-7.606378674316406,33.80152671755725,-23.0381679389313,-3.9083969465648853,-16.70913338623047,1.1228805786132812,1.7525556152343749,-22.732824427480917,-44.458015267175576,22.885496183206108,0.0
11.010000705718994,0.2609679809570312,-6.4475850708007805,-8.817844714355468,16.778625954198475,4.625954198473282,-18.213740458015266,-14.944606762695312,0.699106884765625,-1.4173673828125,0.5954198473282443,-64.80916030534351,23.022900763358777,0.0
11.02000093460083,-4.374206433105469,-0.6200982299804687,-7.163451367187499,22.38167938931298,39.98473282442748,-22.442748091603054,-12.07874737548828,3.9647979492187497,-3.8953661010742184,6.0,-71.64885496183206,16.717557251908396,0.0
11.030000686645508,-9.478644372558593,4.498704919433593,-4.723759875488281,18.48854961832061,57.25190839694657,-21.34351145038168,-12.15536182861328,2.157175695800781,-5.815515832519531,13.083969465648854,-78.3206106870229,15.129770992366412,0.0
11.040000677108765,-11.611878051757811,5.626373901367187,-2.1260510742187497,13.038167938931299,71.48091603053435,-19.389312977099237,-10.697293017578124,3.0023288818359375,-6.121973645019531,4.396946564885496,-61.9236641221374,11.648854961832061,0.0
11.0500009059906,-9.916783276367187,4.510675927734375,-3.0142998901367184,2.50381679389313,77.46564885496183,-13.32824427480916,-9.198522778320312,3.746925598144531,-6.873752966308594,-15.007633587786259,-45.37404580152672,7.557251908396947,0.0
11.060000658035278,-9.076418493652342,1.7764976318359373,-3.229778039550781,-8.274809160305344,87.26717557251908,-11.297709923664122,-10.122684619140625,0.59376201171875,-7.979874133300781,-24.47328244274809,-24.47328244274809,9.587786259541986,0.0
11.070000648498535,-10.534487304687499,1.0534487304687499,-2.272097375488281,-17.236641221374047,94.9618320610687,-17.64885496183206,-9.662997900390625,-1.2617442749023438,-9.64623848876953,-20.427480916030536,-8.610687022900763,7.847328244274809,0.0
11.080000638961792,-7.331045483398437,-2.1930887207031247,-2.7653029174804686,-9.954198473282442,94.3969465648855,-18.3206106870229,-11.808202587890625,-2.1499930908203124,-5.8610056640625,-6.396946564885496,4.396946564885496,4.396946564885496,0.0
11.090000629425049,-10.225635290527343,-1.9919757812499999,0.6464344482421874,4.732824427480916,104.97709923664122,-27.404580152671755,-11.647791076660155,-1.4604630126953124,-3.447650390625,17.114503816793892,-0.6259541984732825,-1.816793893129771,0.0
11.100000858306885,-7.005434057617187,-3.7110125732421873,0.16519991455078123,10.427480916030534,98.58015267175573,-30.931297709923665,-10.532093103027343,-0.4261678955078125,-1.448492004394531,30.137404580152673,-8.15267175572519,-7.099236641221374,0.0
11.110000610351562,-10.141838232421874,-1.927332336425781,2.0254946044921875,23.801526717557252,112.12213740458016,-40.38167938931298,-9.888052856445311,-0.5578489868164063,0.7709329345703124,32.229007633587784,-14.961832061068701,-11.435114503816793,0.0
11.12000060081482,-13.211204760742186,0.6607996582031249,2.96881005859375,11.34351145038168,105.19083969465649,-48.80916030534351,-9.3086560546875,0.00239420166015625,2.2194249389648437,37.343511450381676,-25.49618320610687,-16.244274809160306,0.0
11.130000829696655,-10.364498986816406,-0.7134720947265625,1.16837041015625,8.076335877862595,94.7175572519084,-43.908396946564885,-9.279925634765624,-1.13006318359375,3.651157531738281,44.76335877862596,-30.38167938931298,-16.427480916030536,0.0
11.140000343322754,-8.12113203125,-3.5984850952148437,-0.6751648681640625,25.83206106870229,95.63358778625954,-41.93893129770992,-9.516951599121093,-1.6352397338867186,3.399766357421875,66.7175572519084,-42.88549618320611,-21.236641221374047,0.0
11.15000057220459,-9.631873278808593,-0.41898529052734373,0.5746083984375,39.954198473282446,101.08396946564885,-47.51145038167939,-7.71890615234375,0.8810662109374999,1.917755529785156,70.47328244274809,-56.56488549618321,-28.045801526717558,0.0
11.160000562667847,-7.513004809570312,0.00239420166015625,-0.21787235107421873,39.63358778625954,97.77099236641222,-46.6412213740458,-7.513004809570312,1.637633935546875,2.3343466186523436,60.19847328244275,-56.274809160305345,-28.68702290076336,0.0
11.170000553131104,-9.198522778320312,1.8459294799804686,0.4836287353515625,44.30534351145038,101.57251908396947,-48.83969465648855,-7.7979148071289055,0.5961562133789062,1.6112977172851561,58.25954198473283,-63.282442748091604,-28.671755725190838,0.0
11.18000054359436,-10.295067138671874,3.699041564941406,1.8267758666992187,28.076335877862597,96.36641221374046,-51.49618320610687,-6.4834980957031245,3.038241906738281,0.33039982910156246,39.603053435114504,-67.86259541984732,-31.72519083969466,0.0
11.190000534057617,-8.671798413085938,1.6807295654296874,1.3239935180664062,10.641221374045802,87.96946564885496,-42.38167938931298,-8.125920434570313,2.1356278808593747,0.8858546142578124,23.16030534351145,-61.98473282442748,-25.603053435114504,0.0
11.200000524520874,-8.374917407226562,0.40462008056640625,1.3623007446289062,16.625954198473284,93.66412213740458,-37.3587786259542,-8.283937744140625,0.4644751220703125,0.9145850341796874,25.389312977099237,-66.19847328244275,-21.740458015267176,0.0
11.21000051498413,-8.93755479736328,0.6177040283203125,1.8626888916015625,15.114503816793894,94.04580152671755,-41.038167938931295,-7.936778503417968,2.9472622436523435,-0.9624690673828125,19.66412213740458,-70.62595419847328,-24.18320610687023,0.0
11.220000505447388,-10.771513269042968,3.6679169433593746,3.2537200561523436,1.9694656488549618,89.69465648854961,-42.458015267175576,-9.160215551757812,1.8507178833007811,0.14125789794921875,12.549618320610687,-63.06870229007634,-18.03053435114504,0.0
11.230000495910645,-10.960655200195312,2.252943762207031,3.019088293457031,-5.770992366412214,81.19083969465649,-36.48854961832061,-10.225635290527343,0.5410895751953124,-0.02633621826171875,21.66412213740458,-70.01526717557252,-15.709923664122137,0.0
11.240000247955322,-11.10191309814453,1.9776105712890624,2.2768857788085937,0.6106870229007634,75.74045801526718,-29.297709923664122,-9.639055883789062,1.199495031738281,-0.8020575561523438,20.198473282442748,-78.42748091603053,-18.885496183206108,0.0
11.250000476837158,-15.059528442382812,7.453149768066406,4.754884497070313,-13.129770992366412,72.61068702290076,-25.374045801526716,-9.425971936035156,1.4867992309570313,-0.05985504150390625,9.206106870229007,-75.19083969465649,-18.259541984732824,0.0
11.260000944137573,-12.526463085937499,5.793968017578124,4.024652990722656,-51.32824427480916,50.091603053435115,-18.38167938931298,-11.575965026855467,0.06703764648437499,0.38307226562499996,14.595419847328245,-76.87022900763358,-13.893129770992367,0.0
11.270000457763672,-10.359710583496094,0.8714894042968749,1.618480322265625,-50.76335877862596,38.42748091603053,-10.702290076335878,-10.728417639160156,1.0295067138671874,-0.277727392578125,16.045801526717558,-86.10687022900764,-16.83969465648855,0.0
11.280000686645508,-12.38520518798828,2.2864625854492187,2.7150246826171873,-49.93893129770992,31.297709923664122,-7.709923664122138,-11.614272253417967,-0.03591302490234375,1.2785036865234374,16.18320610687023,-82.2442748091603,-15.877862595419847,0.0
11.290000677108765,-9.366116894531249,-0.5434837768554687,0.9504980590820312,-34.97709923664122,33.038167938931295,-5.557251908396947,-10.82179150390625,0.296881005859375,0.12689268798828124,28.671755725190838,-91.78625954198473,-18.396946564885496,0.0
11.300000667572021,-12.655749975585938,4.42448466796875,2.8107927490234372,-41.23664122137404,31.603053435114504,-11.465648854961833,-10.931924780273437,-0.1197100830078125,0.8547299926757812,32.93129770992366,-91.45038167938931,-19.358778625954198,0.0
11.310000658035278,-11.92551846923828,1.8818425048828125,2.437297290039062,-49.908396946564885,27.206106870229007,-12.366412213740459,-9.481038574218749,1.9608511596679685,-0.34237083740234375,32.19847328244275,-95.09923664122137,-23.267175572519083,0.0
11.320000648498535,-12.840103503417968,4.139574670410156,3.4332851806640625,-47.083969465648856,29.374045801526716,-12.106870229007633,-10.848127722167968,2.0350714111328125,-0.3016694091796875,29.221374045801525,-90.74809160305344,-21.068702290076335,0.0
11.330000400543213,-11.082759484863281,1.668758557128906,2.3439234252929686,-58.045801526717554,16.977099236641223,-10.778625954198473,-9.023746057128905,3.3710359375,-0.5315127685546874,19.450381679389313,-86.47328244274809,-21.419847328244273,0.0
11.340000629425049,-11.805808386230469,2.9664158569335934,2.8562825805664063,-54.99236641221374,16.916030534351144,-8.549618320610687,-9.435548742675781,2.3774422485351563,-0.6009446166992187,13.86259541984733,-80.79389312977099,-17.6793893129771,0.0
11.350000858306885,-9.545682019042967,1.1731588134765625,1.5538368774414062,-56.42748091603053,7.068702290076335,-4.687022900763359,-7.809885815429687,3.727771984863281,-1.0893617553710937,1.786259541984733,-74.50381679389314,-18.12213740458015,0.0
11.360000610351562,-8.17141026611328,-1.3383587280273437,0.41898529052734373,-35.80152671755725,5.435114503816794,2.2290076335877864,-8.8872765625,1.7477672119140624,-0.30885201416015623,-5.419847328244275,-64.01526717557252,-12.305343511450381,0.0
11.370000839233398,-10.479420666503906,0.09576806640624999,1.5705962890624998,-24.045801526717558,8.030534351145038,-1.2213740458015268,-9.279925634765624,1.3479355346679687,-0.3758896606445312,-3.236641221374046,-62.534351145038165,-12.870229007633588,0.0
11.380000591278076,-11.44667813720703,1.426944189453125,1.8435352783203125,-22.091603053435115,4.0458015267175576,-3.6946564885496183,-8.137891442871092,2.3151930053710936,-0.1388636962890625,-8.0,-56.12213740458015,-15.16030534351145,0.0
11.390000820159912,-8.971073620605468,0.4070142822265625,0.6344634399414062,-17.16030534351145,-1.6488549618320612,-0.42748091603053434,-7.022193469238281,2.1739351074218747,0.6607996582031249,-20.15267175572519,-47.52671755725191,-14.335877862595419,0.0
11.40000057220459,-8.389282617187499,-0.5027823486328125,0.3711012573242187,-10.427480916030534,-0.916030534351145,0.9770992366412213,-7.086836914062499,2.2170307373046874,-0.1292868896484375,-22.458015267175572,-46.396946564885496,-13.877862595419847,0.0
11.410000324249268,-9.562441430664062,1.3455413330078123,1.0749965454101562,-4.0,3.572519083969466,-3.648854961832061,-9.282319836425781,0.1292868896484375,1.9752163696289062,-23.282442748091604,-36.97709923664122,-11.801526717557252,0.0
11.420000553131104,-8.508992700195313,-0.430956298828125,0.1867477294921875,0.8702290076335878,4.564885496183206,-5.236641221374046,-7.297526660156249,0.6344634399414062,0.737414111328125,-22.53435114503817,-39.847328244274806,-15.603053435114504,0.0
11.43000054359436,-8.623914379882812,0.7038952880859375,0.26815058593749996,6.854961832061068,6.977099236641221,-6.641221374045801,-9.131485131835937,-0.7661445312499999,2.2385785522460937,-15.267175572519085,-36.01526717557252,-14.900763358778626,0.0
11.440000295639038,-9.34696328125,1.5729904907226562,1.0175357055664063,-2.015267175572519,3.8473282442748094,-9.587786259541986,-7.8362220336914055,-0.062249243164062495,1.4867992309570313,-12.412213740458014,-35.6793893129771,-18.977099236641223,0.0
11.450000286102295,-9.828197814941406,1.2641384765625,1.6328455322265625,-3.83206106870229,1.4961832061068703,-9.236641221374045,-8.700528833007812,-0.6847416748046875,2.2553379638671873,-5.358778625954199,-33.969465648854964,-18.702290076335878,0.0
11.46000051498413,-9.327809667968749,0.3687070556640625,1.9033903198242186,1.4198473282442747,-0.44274809160305345,-8.320610687022901,-8.726865051269531,-2.1452046874999997,3.2632968627929686,4.778625954198473,-32.12213740458015,-17.786259541984734,0.0
11.470000505447388,-9.816226806640625,0.45489831542968745,2.683900061035156,4.870229007633588,-2.4580152671755724,-10.916030534351146,-7.9655089233398435,-1.8938135131835936,1.5610194824218748,21.96946564885496,-42.12213740458015,-20.076335877862597,0.0
11.480000734329224,-9.816226806640625,0.70868369140625,2.6527754394531247,13.755725190839694,-5.847328244274809,-12.473282442748092,-6.691793640136718,-0.0383072265625,1.7405846069335937,27.908396946564885,-42.47328244274809,-21.435114503816795,0.0
11.490000486373901,-9.5384994140625,1.5298948608398437,2.9472622436523435,15.251908396946565,-8.778625954198473,-13.083969465648854,-6.418854650878906,1.0007762939453124,1.2138602416992186,24.3206106870229,-35.86259541984733,-19.358778625954198,0.0
11.500000715255737,-9.919177478027343,2.6336218261718747,3.5984850952148437,10.610687022900763,-12.091603053435115,-13.954198473282442,-4.395754248046875,2.1691467041015624,0.5219359619140624,11.206106870229007,-30.82442748091603,-18.9618320610687,0.0
11.510000705718994,-9.334992272949219,2.1356278808593747,3.6176387084960937,9.877862595419847,-16.625954198473284,-11.511450381679388,-5.913678100585937,0.7134720947265625,1.3910311645507811,2.687022900763359,-18.778625954198475,-13.526717557251908,0.0
11.520000457763672,-9.083601098632812,1.5777788940429687,4.074931225585937,7.740458015267175,-21.419847328244273,-10.320610687022901,-5.4013189453125,0.5195417602539062,0.7757213378906249,-0.5038167938931297,-14.442748091603054,-13.32824427480916,0.0
11.530000686645508,-10.129867224121092,1.7573440185546874,4.948814831542968,6.687022900763359,-26.244274809160306,-10.564885496183207,-6.399701037597656,-0.3591302490234375,1.22583125,3.801526717557252,-9.786259541984732,-12.992366412213741,0.0
11.540000677108765,-9.334992272949219,0.7206546997070312,5.051765502929687,12.106870229007633,-32.42748091603053,-9.893129770992367,-4.893748193359374,1.2689268798828124,0.21068974609375,0.6412213740458015,-6.534351145038168,-16.65648854961832,0.0
11.550000667572021,-8.432378247070313,1.0486603271484374,5.710170959472656,16.33587786259542,-36.18320610687023,-8.977099236641221,-5.719747766113281,0.49320554199218747,1.024718310546875,-3.145038167938931,4.549618320610687,-14.534351145038167,0.0
11.560000658035278,-11.669338891601562,5.377376928710937,8.695740429687499,2.198473282442748,-40.25954198473283,-13.236641221374045,-4.446032482910156,1.209071838378906,0.13646949462890623,-11.267175572519085,11.450381679389313,-16.870229007633586,0.0
11.570000410079956,-10.455478649902343,4.88417138671875,8.760383874511719,-19.34351145038168,-62.79389312977099,-6.488549618320611,-3.153163586425781,1.7381904052734374,-2.43250888671875,-23.480916030534353,19.938931297709924,-17.053435114503817,0.0
11.580000638961792,-11.568782421875,5.379771130371093,9.849745629882811,-26.076335877862597,-77.78625954198473,2.7480916030534353,-4.680664245605469,0.9050082275390624,-3.0214824951171875,-30.885496183206108,33.099236641221374,-16.0,0.0
11.59000039100647,-11.180921752929686,3.7134067749023436,9.952696301269532,-32.045801526717554,-95.54198473282443,9.435114503816793,-5.983109948730468,1.0199299072265624,-4.496310717773437,-30.16793893129771,47.083969465648856,-16.458015267175572,0.0
11.600000381469727,-12.210428466796873,3.6080619018554687,10.692504614257812,-33.00763358778626,-109.46564885496183,11.267175572519085,-13.306972827148437,-0.8403647827148437,-1.3455413330078123,-12.82442748091603,62.76335877862596,-13.755725190839694,0.0
11.61000108718872,-12.473790649414061,1.254561669921875,10.522516296386717,-24.427480916030536,-127.08396946564885,9.389312977099237,-18.933346728515623,-1.3958195678710936,2.683900061035156,8.961832061068701,63.725190839694655,-18.778625954198475,0.0
11.62000060081482,-14.961366174316405,2.2098481323242187,10.151415039062499,-14.061068702290076,-138.25954198473283,4.6106870229007635,-22.457611572265623,-0.622492431640625,6.701370446777343,23.221374045801525,62.42748091603053,-21.84732824427481,0.0
11.630000591278076,-16.11297717285156,0.5578489868164063,9.660603698730467,-9.572519083969466,-153.61832061068702,4.244274809160306,-21.610064184570312,0.5770026000976562,7.453149768066406,38.3206106870229,48.274809160305345,-17.19083969465649,0.0
11.640000581741333,-19.37627403564453,0.23702596435546874,9.967061511230469,17.435114503816795,-165.8320610687023,6.824427480916031,-15.246276171875,7.060500695800781,1.3335703247070312,33.63358778625954,29.786259541984734,-10.091603053435115,0.0
11.650000810623169,-20.977994946289062,0.9002198242187499,8.52335791015625,40.2442748091603,-178.67175572519085,15.511450381679388,-11.585541833496093,7.481880187988281,1.5275006591796874,-7.908396946564886,43.3587786259542,8.977099236641221,0.0
11.660000562667847,-20.803218225097655,-0.718260498046875,6.6510922119140625,52.458015267175576,-189.49618320610688,25.267175572519083,-7.37414111328125,8.877699755859375,-5.092466931152344,-31.17557251908397,31.72519083969466,20.748091603053435,0.0
11.670000553131104,-19.47204210205078,-0.9648632690429687,3.69664736328125,68.90076335877863,-194.6412213740458,32.732824427480914,-8.394071020507813,3.303998291015625,-5.0014872680664055,-58.19847328244275,51.17557251908397,31.114503816793892,0.0
11.68000054359436,-15.885528015136718,-4.369418029785156,-1.9943699829101562,80.93129770992367,-190.8091603053435,42.396946564885496,-8.66940421142578,-3.6343981201171873,-4.247313745117188,-56.36641221374046,63.3587786259542,30.16793893129771,0.0
11.690000534057617,-14.274230297851561,-4.994304663085937,-5.954379528808594,89.92366412213741,-175.26717557251908,44.18320610687023,-6.988674645996094,-5.513846423339843,-6.157886669921875,-44.42748091603053,62.36641221374046,16.916030534351144,0.0
11.700000524520874,-12.720393420410156,-3.105279553222656,-5.899312890625,78.62595419847328,-161.34351145038167,40.38167938931298,-5.825092639160156,-3.9935283691406247,-6.471527087402343,-51.45038167938932,74.04580152671755,4.198473282442748,0.0
11.71000075340271,-10.764330664062498,-1.0845733520507812,-4.453215087890625,55.52671755725191,-144.85496183206106,41.32824427480916,-7.182604980468749,-2.6599580444335937,-5.418078356933593,-69.96946564885496,95.05343511450381,3.3740458015267176,0.0
11.720000505447388,-12.536039892578124,1.3742717529296875,0.040701428222656245,37.17557251908397,-122.07633587786259,41.25190839694657,-5.774814404296874,-0.9624690673828125,-7.390900524902343,-69.26717557251908,89.7557251908397,6.320610687022901,0.0
11.730000495910645,-9.83777462158203,2.5522189697265625,3.3327287109375,37.55725190839695,-108.54961832061069,47.43511450381679,-11.200075366210937,-1.3287819213867187,-3.9169139160156248,-92.59541984732824,117.37404580152672,11.32824427480916,0.0
11.74000096321106,-7.4579381713867186,-0.28969840087890625,4.568136767578125,40.93129770992366,-94.83969465648855,49.19083969465649,-11.640608471679688,-3.4548329956054684,-0.9145850341796874,-74.36641221374046,114.79389312977099,16.778625954198475,0.0
11.750000715255737,-6.2392895263671875,-1.7453730102539062,2.9951462768554684,41.05343511450382,-86.59541984732824,43.52671755725191,-10.218452685546874,-4.170699291992188,0.43574470214843747,-43.87786259541985,104.45801526717557,20.458015267175572,0.0
11.760000705718994,-6.119579443359375,-1.848323681640625,0.9528922607421875,34.19847328244275,-81.26717557251908,37.038167938931295,-9.241618408203124,-0.8188169677734375,-0.5865794067382812,-13.603053435114504,83.54198473282443,20.38167938931298,0.0
11.770000696182251,-8.111555224609374,0.9145850341796874,0.5123591552734374,18.412213740458014,-75.49618320610686,30.259541984732824,-8.901641772460938,-0.2561795776367187,0.5027823486328125,-21.603053435114504,86.99236641221374,20.0,0.0
11.780000925064087,-9.397241516113281,0.9864110839843749,0.6751648681640625,-7.419847328244275,-79.46564885496183,30.931297709923665,-9.548076220703125,0.3806780639648437,1.1061211669921875,-14.625954198473282,78.91603053435115,21.068702290076335,0.0
11.790000915527344,-9.014169250488282,1.599326708984375,0.7493851196289062,-27.435114503816795,-79.78625954198473,31.46564885496183,-9.2320416015625,1.0223241088867188,0.04548983154296875,-30.916030534351144,76.91603053435115,20.290076335877863,0.0
11.800000667572021,-7.637503295898437,0.507570751953125,-0.03591302490234375,-41.16030534351145,-81.81679389312977,33.17557251908397,-10.965443603515624,-0.9145850341796874,1.9608511596679685,-33.083969465648856,75.90839694656489,21.053435114503817,0.0
11.810000658035278,-6.68461103515625,1.2210428466796874,0.09576806640624999,-46.3206106870229,-77.08396946564885,30.442748091603054,-10.228029492187499,-2.142810485839844,1.944091748046875,-14.778625954198473,65.6030534351145,22.442748091603054,0.0
11.820000886917114,-3.907337109375,-1.5586252807617187,-1.4532804077148436,-44.732824427480914,-78.03053435114504,30.18320610687023,-12.90235274658203,-4.254496350097656,3.9743747558593747,6.5038167938931295,63.45038167938932,23.114503816793892,0.0
11.830000638961792,-4.474762902832031,-1.0534487304687499,-1.429338391113281,-40.85496183206107,-63.80152671755725,23.480916030534353,-10.309432348632813,-1.5969325073242187,1.1324573852539062,4.106870229007634,55.25190839694657,15.419847328244275,0.0
11.840000629425049,-2.767697119140625,-2.6096798095703124,-2.9089550170898435,-36.56488549618321,-57.83206106870229,22.732824427480917,-10.730811840820312,-0.5722141967773438,0.689530078125,9.603053435114504,50.80916030534351,14.15267175572519,0.0
11.850000381469727,-3.890577697753906,-1.4796166259765624,-2.3918074584960936,-33.12977099236641,-38.0763358778626,18.68702290076336,-10.572794531249999,-0.4740519287109375,1.39821376953125,5.343511450381679,52.091603053435115,13.816793893129772,0.0
11.860000371932983,-2.24097275390625,-3.414131567382812,-3.7014357666015623,-27.83206106870229,-24.47328244274809,18.564885496183205,-11.975796704101562,-1.848323681640625,3.095702746582031,14.351145038167939,48.83969465648855,14.381679389312977,0.0
11.87000060081482,-3.881000891113281,-1.7262193969726563,-2.5234885498046875,-25.022900763358777,-0.48854961832061067,12.564885496183207,-10.563217724609375,-1.0821791503906248,0.55545478515625,25.46564885496183,38.85496183206107,12.83969465648855,0.0
11.880000352859497,-2.31758720703125,-3.0526071166992184,-4.144363073730468,-22.65648854961832,13.129770992366412,11.312977099236642,-13.297396020507811,-3.3494881225585935,4.211400720214844,32.87022900763359,43.908396946564885,14.916030534351146,0.0
11.890000820159912,-3.9887399658203124,-1.0366893188476562,-2.808398547363281,-29.984732824427482,33.05343511450382,4.931297709923665,-10.845733520507812,-0.8786720092773437,0.229843359375,39.038167938931295,32.76335877862596,12.274809160305344,0.0
11.90000057220459,-2.147598889160156,-1.6017209106445311,-3.612850305175781,-29.129770992366414,45.29770992366412,4.396946564885496,-13.180080139160156,-1.8363526733398436,3.299209887695312,26.946564885496183,42.656488549618324,12.961832061068701,0.0
11.910000562667847,-3.9983167724609374,0.016759411621093748,-1.9895815795898437,-40.74809160305343,56.595419847328245,-0.5801526717557252,-10.579977136230468,0.6344634399414062,0.46686932373046874,26.99236641221374,32.06106870229008,14.274809160305344,0.0
11.920000553131104,-2.760514514160156,-0.6775590698242188,-1.446097802734375,-36.93129770992366,69.43511450381679,-0.6870229007633588,-12.763489050292968,-2.288856787109375,3.5601778686523438,25.374045801526716,36.961832061068705,19.72519083969466,0.0
11.93000054359436,-2.9185318237304685,-1.0678139404296874,0.24899697265624998,-27.954198473282442,87.12977099236642,-4.351145038167939,-9.442731347656249,-2.3295582153320313,0.565031591796875,42.30534351145038,19.61832061068702,19.14503816793893,0.0
11.940000534057617,-2.767697119140625,-0.5817910034179687,1.7405846069335937,-17.923664122137403,98.01526717557252,-6.9465648854961835,-10.060435375976562,-0.7254431030273437,0.16280571289062498,38.29007633587786,21.755725190839694,15.145038167938932,0.0
11.950000524520874,-3.2800562744140622,0.7062894897460937,4.170699291992188,0.0916030534351145,115.70992366412214,-4.33587786259542,-8.243236315917969,1.0510545288085937,-1.1875240234375,21.938931297709924,25.480916030534353,12.595419847328245,0.0
11.96000051498413,-5.080495922851562,2.77727392578125,8.796296899414061,14.778625954198473,126.56488549618321,3.099236641221374,-8.779537487792968,1.5873557006835937,-0.5410895751953124,2.549618320610687,37.00763358778626,13.099236641221374,0.0
11.970000743865967,-6.325480786132812,2.5378537597656248,13.716381311035155,31.450381679389313,126.19847328244275,14.82442748091603,-11.640608471679688,-2.935291235351562,3.337517114257812,16.50381679389313,41.00763358778626,20.778625954198475,0.0
11.980000734329224,-8.640673791503906,4.728548278808593,17.757793713378906,40.74809160305343,116.07633587786259,17.709923664122137,-9.567229833984374,-0.9504980590820312,0.29927520751953124,18.900763358778626,38.961832061068705,14.900763358778626,0.0
11.990000486373901,-13.984531896972655,8.291120349121094,19.706673864746094,-2.015267175572519,85.19083969465649,7.572519083969466,-8.990227233886719,-0.4213794921875,1.1109095703125,6.595419847328245,39.954198473282446,9.32824427480916,0.0
12.000000715255737,-10.04846436767578,-1.4820108276367188,16.211139440917968,-22.35114503816794,58.16793893129771,8.122137404580153,-9.964667309570311,2.365471240234375,0.45968671875,5.00763358778626,39.64885496183206,7.450381679389313,0.0
12.010000944137573,-12.880804931640624,1.7836802368164062,15.040374829101562,-28.015267175572518,38.80916030534351,-3.450381679389313,-10.077194787597655,2.35589443359375,0.9911994873046874,-22.564885496183205,38.229007633587784,9.038167938931299,0.0
12.020000696182251,-11.611878051757811,1.3239935180664062,12.19366905517578,-29.389312977099237,12.244274809160306,-2.3969465648854964,-11.113884106445312,2.408566870117187,2.6192566162109374,-39.63358778625954,39.25190839694657,17.66412213740458,0.0
12.030000686645508,-6.694187841796874,-0.9576806640625,7.879317663574218,10.320610687022901,10.854961832061068,2.9923664122137406,-9.852139831542969,0.016759411621093748,2.3511060302734372,-51.52671755725191,34.62595419847328,22.564885496183205,0.0
12.040000438690186,-5.336675500488281,-0.05985504150390625,2.89219560546875,43.80152671755725,19.46564885496183,6.564885496183206,-11.463437548828125,-1.8507178833007811,1.8363526733398436,-47.64885496183206,28.213740458015266,25.358778625954198,0.0
12.050000667572021,-8.17859287109375,1.3024457031249999,0.033518823242187495,53.770992366412216,39.49618320610687,7.465648854961832,-12.07874737548828,-2.3918074584960936,0.7852981445312499,-51.770992366412216,25.862595419847327,24.80916030534351,0.0
12.060000658035278,-12.325350146484375,0.2920926025390625,3.9360675292968748,52.6412213740458,52.97709923664122,10.992366412213741,-12.887987536621093,-4.010287780761718,1.1109095703125,-46.38167938931298,19.66412213740458,25.221374045801525,0.0
12.070000886917114,-11.654973681640625,-4.077325427246094,11.590330236816406,67.06870229007633,49.25190839694657,14.366412213740459,-13.417106103515625,-3.6104561035156246,1.3766659545898436,-44.0,11.435114503816793,21.19083969465649,0.0
12.080000638961792,-14.207192651367187,-6.4356140625,16.881515905761717,108.99236641221374,47.267175572519086,10.580152671755725,-14.015656518554687,-3.7014357666015623,2.2649147705078123,-38.76335877862596,0.8702290076335878,19.52671755725191,0.0
12.090001106262207,-18.0427037109375,-1.4317325927734375,15.77539473876953,115.6030534351145,33.98473282442748,-1.8473282442748091,-13.134590307617186,-1.7501614135742187,2.384624853515625,-39.02290076335878,-5.465648854961832,14.396946564885496,0.0
12.100000619888306,-17.547103967285157,3.727771984863281,6.191405493164062,93.26717557251908,11.511450381679388,-12.13740458015267,-13.61103643798828,0.033518823242187495,1.6017209106445311,-32.0763358778626,-15.221374045801527,9.251908396946565,0.0
12.110000848770142,-15.720328100585936,6.907271789550781,-2.24097275390625,55.48091603053435,-11.725190839694656,-15.282442748091603,-15.643713647460936,1.455674609375,0.5913678100585937,-31.236641221374047,-23.64885496183206,7.740458015267175,0.0
12.12000060081482,-5.671863732910156,-2.068590234375,-7.690175732421874,38.900763358778626,-15.17557251908397,-0.366412213740458,-16.50323204345703,2.224213342285156,-0.4955997436523437,-24.977099236641223,-35.66412213740458,13.541984732824428,0.0
12.130000591278076,-1.5370774658203123,-5.588066674804687,-6.4284314575195305,35.19083969465649,9.954198473282442,-6.33587786259542,-15.571887597656248,2.499546533203125,-1.1707646118164061,-12.106870229007633,-44.12213740458015,21.69465648854962,0.0
12.140000343322754,-2.2074539306640624,-1.5370774658203123,-5.444414575195312,32.33587786259542,30.396946564885496,-19.16030534351145,-13.022062829589842,4.2137949218749995,-2.8993782104492185,-3.984732824427481,-54.900763358778626,23.236641221374047,0.0
12.15000057220459,-7.635109094238281,4.855440966796874,-5.360617517089843,26.3206106870229,57.083969465648856,-20.33587786259542,-11.686098303222655,4.5585599609375,-3.775656018066406,-10.625954198473282,-54.35114503816794,25.450381679389313,0.0
12.160000562667847,-9.72285294189453,5.580884069824219,-3.9312791259765625,3.877862595419847,67.8473282442748,-16.778625954198475,-11.341333264160156,3.4093431640625,-4.383783239746093,-13.938931297709924,-48.732824427480914,26.870229007633586,0.0
12.170000314712524,-8.875305554199219,1.675941162109375,-3.6200329101562496,-9.770992366412214,75.81679389312977,-15.022900763358779,-11.37006368408203,1.024718310546875,-3.5410242553710933,-12.854961832061068,-43.282442748091604,27.541984732824428,0.0
12.18000054359436,-8.659827404785156,-2.2074539306640624,-4.469974499511719,-5.603053435114504,90.35114503816794,-19.129770992366414,-9.746794958496093,-0.4908113403320312,-5.628768103027343,-10.900763358778626,-41.969465648854964,22.65648854961832,0.0
12.190000534057617,-10.927136376953124,-0.737414111328125,-2.6048914062499997,-4.885496183206107,101.41984732824427,-29.72519083969466,-8.549694128417968,1.7166425903320313,-7.884106066894531,-13.923664122137405,-34.595419847328245,13.755725190839694,0.0
12.200000524520874,-6.823474731445312,-1.9943699829101562,-3.9145197143554684,1.1145038167938932,101.72519083969466,-30.931297709923665,-8.552088330078124,1.9728221679687499,-7.022193469238281,-22.580152671755727,-25.14503816793893,7.450381679389313,0.0
12.21000051498413,-10.465055456542968,-1.599326708984375,-0.6607996582031249,16.3206106870229,117.14503816793894,-38.87022900763359,-11.104307299804686,-0.5051765502929687,-3.7301661865234372,-10.183206106870228,-18.427480916030536,6.916030534351145,0.0
12.220000267028809,-10.560823522949217,-0.8834604125976562,0.3854664672851562,11.053435114503817,113.22137404580153,-46.33587786259542,-10.292672937011718,-0.3950432739257812,-2.389413256835937,-1.0687022900763359,-17.16030534351145,5.740458015267175,0.0
12.230000495910645,-13.108254089355468,1.0678139404296874,2.020706201171875,0.9007633587786259,108.03053435114504,-49.66412213740458,-8.851363537597656,-0.08379705810546874,-1.388636962890625,5.022900763358779,-20.977099236641223,2.3969465648854964,0.0
12.240000247955322,-12.811373083496093,0.5482721801757812,2.094926452636719,-7.557251908396947,95.89312977099236,-48.38167938931298,-8.674192614746094,-0.5530605834960938,0.354341845703125,9.786259541984732,-23.374045801526716,-0.2748091603053435,0.0
12.250000476837158,-11.540052001953125,0.5315127685546874,1.7693150268554687,-9.022900763358779,87.29770992366412,-44.778625954198475,-8.161833459472655,-1.697488977050781,1.4508862060546874,24.15267175572519,-32.97709923664122,-3.053435114503817,0.0
12.260000944137573,-10.465055456542968,0.16998831787109375,1.2425906616210938,-1.2213740458015268,80.73282442748092,-40.62595419847328,-9.160215551757812,-1.3072341064453123,1.89620771484375,39.343511450381676,-42.732824427480914,-6.778625954198473,0.0
12.270000457763672,-10.62307276611328,1.946485949707031,1.9536685546875,-4.213740458015267,73.72519083969466,-37.63358778625954,-8.935160595703124,-0.15562310791015624,1.9680337646484374,47.083969465648856,-49.847328244274806,-12.198473282442748,0.0
12.280000686645508,-10.625466967773438,3.1842882080078123,3.162740393066406,-10.534351145038167,68.4885496183206,-34.274809160305345,-7.963114721679687,0.9744400756835937,1.5753846923828123,43.847328244274806,-57.16030534351145,-15.725190839694656,0.0
12.290000915527344,-10.275913525390624,1.9943699829101562,2.952050646972656,-14.122137404580153,60.29007633587786,-28.045801526717558,-8.987833032226561,-0.21068974609375,2.3223756103515623,48.213740458015266,-63.770992366412216,-14.67175572519084,0.0
12.300000429153442,-8.52335791015625,0.7781155395507812,2.0733786376953125,-2.931297709923664,56.70229007633588,-23.83206106870229,-8.054094384765625,1.3623007446289062,0.9552864624023437,41.29770992366412,-70.83969465648855,-19.34351145038168,0.0
12.310000658035278,-10.735600244140624,4.790797521972656,3.555389465332031,-13.954198473282442,53.80152671755725,-24.65648854961832,-9.107543115234375,0.13646949462890623,1.8555062866210936,33.12977099236641,-66.36641221374046,-17.96946564885496,0.0
12.320000648498535,-9.871293444824218,2.7964275390625,2.8467057739257813,-30.793893129770993,42.6412213740458,-20.47328244274809,-9.102754711914063,-0.2442085693359375,1.2976572998046874,40.961832061068705,-75.12977099236642,-19.572519083969464,0.0
12.330000638961792,-11.073182678222656,2.482787121582031,3.6583401367187496,-29.14503816793893,36.93129770992366,-15.053435114503817,-8.552088330078124,1.180341418457031,0.679953271484375,34.38167938931298,-79.16030534351145,-21.83206106870229,0.0
12.340000629425049,-13.80975517578125,3.8953661010742184,5.963956335449218,-33.267175572519086,32.396946564885496,-10.931297709923664,-9.9215716796875,0.7254431030273437,1.4413093994140624,37.11450381679389,-78.87022900763358,-19.17557251908397,0.0
12.350000381469727,-11.082759484863281,0.1771709228515625,3.919308117675781,-21.221374045801525,26.244274809160306,-5.206106870229007,-8.571241943359375,1.9105729248046874,0.05027823486328125,33.49618320610687,-85.8473282442748,-22.091603053435115,0.0
12.360000610351562,-9.782707983398437,0.45489831542968745,2.6695348510742187,-11.603053435114504,23.282442748091604,-2.366412213740458,-9.629479077148437,2.099714855957031,0.1388636962890625,32.30534351145038,-85.80152671755725,-20.27480916030534,0.0
12.37000060081482,-11.097124694824219,2.272097375488281,2.5665841796874997,-17.17557251908397,18.702290076335878,-5.099236641221374,-8.777143286132812,2.9568390502929685,-0.15322890625,21.84732824427481,-84.73282442748092,-21.51145038167939,0.0
12.380000352859497,-11.597512841796874,3.785232824707031,3.0430303100585934,-26.38167938931298,19.404580152671755,-7.343511450381679,-9.758765966796874,1.1348515869140625,0.35673604736328124,19.96946564885496,-81.2824427480916,-18.0,0.0
12.390000820159912,-8.288726147460936,-0.17477672119140625,0.24660277099609373,-28.641221374045802,13.725190839694656,-4.8396946564885495,-9.337386474609374,2.2098481323242187,-0.9361328491210937,15.19083969465649,-85.48091603053435,-20.9618320610687,0.0
12.40000033378601,-12.35408056640625,5.360617517089843,2.205059729003906,-35.14503816793893,13.786259541984732,-8.274809160305344,-10.374075793457031,0.9145850341796874,0.6967126831054687,12.045801526717558,-77.32824427480917,-17.251908396946565,0.0
12.410000562667847,-10.455478649902343,3.3686417358398435,0.9888052856445312,-56.97709923664122,2.732824427480916,-6.641221374045801,-10.414777221679687,1.2306196533203124,-0.05027823486328125,19.114503816793892,-81.70992366412214,-18.3206106870229,0.0
12.420000553131104,-8.851363537597656,-0.4213794921875,-0.3591302490234375,-43.61832061068702,4.030534351145038,0.16793893129770993,-9.56962403564453,1.429338391113281,0.2154781494140625,10.992366412213741,-79.46564885496183,-19.84732824427481,0.0
12.43000054359436,-8.920795385742187,0.44053310546874996,0.852335791015625,-31.938931297709924,14.80916030534351,-3.435114503816794,-10.467449658203124,-0.26336218261718747,0.928950244140625,20.38167938931298,-75.69465648854961,-17.0381679389313,0.0
12.440000534057617,-10.369287390136718,1.199495031738281,1.8052280517578123,-34.030534351145036,15.801526717557252,-11.32824427480916,-9.634267480468749,1.5801730957031248,-0.8403647827148437,22.412213740458014,-79.22137404580153,-22.35114503816794,0.0
12.450000762939453,-9.813832604980469,0.4213794921875,1.3934253662109375,-24.076335877862597,16.564885496183205,-9.740458015267176,-9.830592016601562,0.5602431884765625,0.4740519287109375,19.64885496183206,-72.30534351145039,-20.870229007633586,0.0
12.460000991821289,-9.289502441406249,0.3232172241210937,1.4796166259765624,-19.862595419847327,17.954198473282442,-9.98473282442748,-9.418789331054686,1.4939818359375,0.04548983154296875,23.267175572519083,-75.37404580152672,-23.14503816793893,0.0
12.470000505447388,-10.989385620117186,3.536235852050781,2.7341782958984373,-19.16030534351145,22.85496183206107,-13.86259541984733,-8.418013037109375,2.1021090576171875,0.08379705810546874,12.977099236641221,-68.44274809160305,-23.51145038167939,0.0
12.480000734329224,-8.611943371582031,1.3455413330078123,1.2880804931640624,-20.85496183206107,18.3206106870229,-10.045801526717558,-9.447519750976562,1.4915876342773438,1.024718310546875,9.618320610687023,-61.603053435114504,-20.061068702290076,0.0
12.490000247955322,-10.374075793457031,2.674323254394531,1.7860744384765623,-25.297709923664122,18.396946564885496,-10.717557251908397,-9.686939916992188,1.0199299072265624,0.21787235107421873,9.954198473282442,-61.465648854961835,-19.450381679389313,0.0
12.500000715255737,-9.533711010742186,0.8667010009765624,0.6847416748046875,-22.931297709923665,16.763358778625953,-7.480916030534351,-8.379705810546875,1.8818425048828125,0.45489831542968745,7.9541984732824424,-56.732824427480914,-20.091603053435115,0.0
12.510000467300415,-9.368511096191405,0.1484405029296875,0.09576806640624999,-11.297709923664122,24.83969465648855,-6.702290076335878,-9.674968908691406,1.2928688964843749,0.9959878906249999,9.633587786259541,-49.17557251908397,-17.49618320610687,0.0
12.520000457763672,-8.422801440429687,-0.13168109130859373,-0.7852981445312499,-5.648854961832061,28.3206106870229,-10.091603053435115,-8.576030346679687,1.0989385620117187,0.46686932373046874,16.65648854961832,-52.44274809160305,-18.366412213740457,0.0
12.530000686645508,-9.26316622314453,0.7565677246093749,-0.7326257080078125,-4.244274809160306,31.374045801526716,-14.50381679389313,-8.959102612304687,1.3766659545898436,1.5011644409179687,18.595419847328245,-48.152671755725194,-18.65648854961832,0.0
12.540000677108765,-9.380482104492186,0.93852705078125,-0.44532150878906246,-2.900763358778626,34.44274809160305,-16.137404580152673,-7.098807922363281,3.066972326660156,-0.0383072265625,11.221374045801527,-47.969465648854964,-21.908396946564885,0.0
12.550000429153442,-9.459490759277344,1.1635820068359375,0.16041151123046873,-5.190839694656488,37.954198473282446,-16.83969465648855,-8.743624462890624,2.3127988037109373,1.8435352783203125,-1.1755725190839694,-32.25954198473283,-18.412213740458014,0.0
12.560000658035278,-9.967061511230469,1.9536685546875,0.9792284790039062,-13.587786259541986,37.81679389312977,-17.755725190839694,-7.60398447265625,2.384624853515625,0.8882488159179687,-15.374045801526718,-25.87786259541985,-17.770992366412212,0.0
12.570000410079956,-10.398017810058594,1.1420341918945311,1.3551181396484375,-16.68702290076336,35.221374045801525,-16.870229007633586,-8.36294639892578,1.0965443603515623,1.0271125122070313,-18.106870229007633,-20.259541984732824,-15.954198473282442,0.0
12.580000638961792,-10.220846887207031,1.0007762939453124,2.0063409912109376,-12.290076335877863,35.51145038167939,-16.778625954198475,-6.904877587890625,0.8834604125976562,0.2657563842773437,-21.52671755725191,-16.82442748091603,-17.374045801526716,0.0
12.590000629425049,-9.504980590820312,1.0462661254882812,2.4947581298828125,-8.916030534351146,31.72519083969466,-16.076335877862597,-7.395688928222656,0.3495534423828125,0.7254431030273437,-16.65648854961832,-11.938931297709924,-16.12213740458015,0.0
12.600000381469727,-10.474632263183594,2.0087351928710935,2.923320227050781,-7.526717557251908,26.82442748091603,-17.51145038167939,-6.507440112304687,0.507570751953125,0.9337386474609375,-16.412213740458014,-8.580152671755725,-16.671755725190838,0.0
12.610000848770142,-9.782707983398437,1.2617442749023438,3.2441432495117186,-12.80916030534351,18.229007633587788,-15.725190839694656,-7.611167077636718,-0.17477672119140625,1.7932570434570312,-11.725190839694656,-4.580152671755725,-15.679389312977099,0.0
12.62000060081482,-11.508927380371093,4.007893579101562,5.0206408813476555,-18.778625954198475,12.946564885496183,-18.076335877862597,-6.133944653320312,0.4381389038085937,1.2617442749023438,-14.16793893129771,-2.381679389312977,-17.251908396946565,0.0
12.630000591278076,-10.050858569335936,1.675941162109375,5.190629199218749,-22.85496183206107,2.33587786259542,-14.595419847328245,-6.148309863281249,0.01915361328125,2.085349645996094,-19.358778625954198,7.175572519083969,-15.938931297709924,0.0
12.640000581741333,-10.366893188476562,1.5035586425781249,6.347028601074219,-21.0381679389313,-3.099236641221374,-13.374045801526718,-5.691017346191406,-0.09337386474609374,1.0630255371093749,-14.549618320610687,4.931297709923665,-16.3206106870229,0.0
12.65000057220459,-9.567229833984374,0.9888052856445312,7.041347082519531,-11.801526717557252,-11.83206106870229,-14.091603053435115,-5.6215854980468745,-0.7254431030273437,1.5610194824218748,-11.374045801526718,12.381679389312977,-17.282442748091604,0.0
12.660000562667847,-10.627861169433594,2.549824768066406,8.650250598144531,-11.908396946564885,-22.106870229007633,-15.312977099236642,-4.920084411621094,-0.2753331909179687,0.6105214233398437,-5.465648854961832,13.022900763358779,-19.358778625954198,0.0
12.670000314712524,-10.735600244140624,4.053383410644531,9.852139831542969,-21.633587786259543,-42.68702290076336,-13.633587786259541,-5.415684155273437,-0.1197100830078125,0.5913678100585937,-6.183206106870229,22.106870229007633,-18.076335877862597,0.0
12.68000078201294,-12.093112585449218,4.2329485351562495,11.413159313964844,-24.396946564885496,-61.25190839694657,-8.061068702290076,-5.410895751953125,0.430956298828125,0.7278373046875,-7.511450381679389,25.66412213740458,-17.19083969465649,0.0
12.690000295639038,-12.23915888671875,3.3877953491210935,11.88721124267578,-20.412213740458014,-82.10687022900764,-1.2213740458015268,-5.324704492187499,0.5865794067382812,0.08858546142578125,-12.351145038167939,34.88549618320611,-14.50381679389313,0.0
12.700000524520874,-13.338097448730467,3.21780703125,12.291831323242187,-14.916030534351146,-100.97709923664122,2.8702290076335877,-9.069235888671875,-0.6871358764648438,-0.6057330200195312,-0.8244274809160306,42.94656488549618,-9.145038167938932,0.0
12.71000051498413,-12.818555688476561,1.4724340209960938,12.205640063476562,-4.641221374045801,-124.12213740458016,4.702290076335878,-12.782642663574219,-0.2705447875976562,-0.8762778076171874,20.564885496183205,47.51145038167939,-13.32824427480916,0.0
12.720000505447388,-14.470554833984375,1.4053963745117186,12.598289135742187,13.938931297709924,-143.38931297709922,3.3282442748091605,-16.38831036376953,1.6232687255859375,0.8786720092773437,30.625954198473284,53.37404580152672,-18.091603053435115,0.0
12.730000495910645,-15.765817932128906,1.4796166259765624,12.030863342285155,23.6793893129771,-165.22137404580153,3.5877862595419847,-19.09615244140625,2.4444798950195312,3.5793314819335937,42.717557251908396,52.0763358778626,-12.625954198473282,0.0
12.74000072479248,-18.318036901855468,1.8052280517578123,10.204087475585936,32.458015267175576,-184.38167938931298,3.49618320610687,-17.063475231933595,4.678270043945313,2.592920397949219,39.9236641221374,44.94656488549618,-8.763358778625955,0.0
12.750000476837158,-20.132841760253903,-1.0223241088867188,10.172962854003906,41.603053435114504,-202.18320610687022,8.763358778625955,-13.94861887207031,4.010287780761718,1.5682020874023437,25.6793893129771,43.66412213740458,0.1984732824427481,0.0
12.760001182556152,-21.686678637695312,-0.4477157104492187,8.70771143798828,63.20610687022901,-212.29007633587787,19.6793893129771,-10.613495959472656,4.046200805664062,-1.1037269653320312,12.595419847328245,36.36641221374046,8.67175572519084,0.0
12.77000093460083,-20.36747352294922,0.9169792358398436,5.046977099609375,84.19847328244275,-222.15267175572518,32.70229007633588,-8.504204296874999,5.353434912109375,-3.0071172851562498,-9.282442748091603,38.595419847328245,15.618320610687023,0.0
12.780000686645508,-18.502390429687498,1.350329736328125,1.4963760375976562,81.3587786259542,-222.45801526717557,43.64885496183206,-7.161057165527343,3.806780639648437,-4.534617944335937,-32.79389312977099,48.74809160305343,22.80916030534351,0.0
12.790000915527344,-13.80257257080078,-1.9488801513671874,-4.151545678710937,85.22137404580153,-213.7709923664122,53.267175572519086,-8.537723120117187,-1.0319009155273438,-4.2880151733398435,-52.16793893129771,65.20610687022901,23.358778625954198,0.0
12.800000667572021,-9.258377819824219,-3.440467785644531,-7.6470801025390625,80.3969465648855,-190.15267175572518,57.099236641221374,-7.838616235351562,-2.4444798950195312,-6.287173559570312,-54.045801526717554,65.92366412213741,14.793893129770993,0.0
12.810000658035278,-8.480262280273436,-4.000710974121094,-7.618349682617187,63.89312977099237,-156.10687022900763,55.465648854961835,-9.74200655517578,-4.2521021484374995,-3.220201232910156,-65.46564885496183,86.82442748091603,10.977099236641221,0.0
12.820000648498535,-9.526528405761718,-4.039018200683594,-3.4428619873046875,49.19083969465649,-125.80152671755725,54.67175572519084,-8.200140686035155,-4.024652990722656,-3.897760302734375,-59.43511450381679,85.92366412213741,10.030534351145038,0.0
12.830000638961792,-10.874463940429687,0.09816226806640624,1.8459294799804686,58.229007633587784,-103.7557251908397,51.16030534351145,-9.813832604980469,-3.229778039550781,-3.0693665283203124,-54.56488549618321,88.12213740458016,11.664122137404581,0.0
12.84000039100647,-8.856151940917968,1.4987702392578124,4.659116430664063,64.1526717557252,-90.16793893129771,49.98473282442748,-8.190563879394531,-0.7852981445312499,-4.333505004882812,-59.51145038167939,85.77099236641222,9.465648854961833,0.0
12.850000381469727,-8.157045056152343,1.218648645019531,4.062960217285156,48.396946564885496,-79.20610687022901,42.2442748091603,-9.78031378173828,0.03591302490234375,-2.712630480957031,-72.7175572519084,96.83969465648855,11.022900763358779,0.0
12.860000371932983,-6.924031201171875,-0.40222587890625,1.01514150390625,24.65648854961832,-79.1145038167939,36.19847328244275,-7.821856823730468,2.3056161987304686,-4.13718046875,-66.90076335877863,83.57251908396947,13.267175572519085,0.0
12.870000839233398,-9.184157568359375,0.30885201416015623,-0.2753331909179687,4.320610687022901,-75.5114503816794,30.061068702290076,-10.723629235839843,-0.2346317626953125,0.5793968017578125,-85.22137404580153,97.93893129770993,17.068702290076335,0.0
12.880000591278076,-9.117119921875,-0.5913678100585937,-1.13006318359375,-9.251908396946565,-76.50381679389314,30.595419847328245,-9.79946739501953,0.033518823242187495,0.8188169677734375,-77.3587786259542,93.48091603053435,19.236641221374047,0.0
12.890000820159912,-10.297461340332031,1.2976572998046874,0.42377369384765623,-25.87786259541985,-76.91603053435115,28.091603053435115,-10.723629235839843,-1.7788918334960937,2.01112939453125,-60.42748091603053,84.38167938931298,21.69465648854962,0.0
12.90000057220459,-7.335833886718749,-0.076614453125,-0.699106884765625,-33.55725190839695,-81.52671755725191,31.297709923664122,-7.886500268554687,-0.12689268798828124,-1.9225439331054686,-56.01526717557252,76.0,19.328244274809162,0.0
12.910000801086426,-7.572859851074218,1.9847931762695312,-0.5315127685546874,-47.404580152671755,-76.58015267175573,27.64885496183206,-10.366893188476562,-1.9752163696289062,0.7637503295898437,-51.70992366412214,79.1145038167939,19.297709923664122,0.0
12.920000553131104,-3.342305517578125,-1.0726023437499999,-2.8945898071289062,-47.93893129770992,-77.7557251908397,27.786259541984734,-7.742848168945312,0.842758984375,-2.1547814941406247,-46.99236641221374,73.3587786259542,16.65648854961832,0.0
12.93000054359436,-4.498704919433593,-0.4477157104492187,-2.7940333374023436,-48.74809160305343,-63.64885496183206,22.458015267175572,-10.350133776855468,-1.407790576171875,0.8307879760742187,-51.32824427480916,79.41984732824427,18.366412213740457,0.0
12.940000534057617,-1.697488977050781,-2.932897033691406,-4.946420629882812,-41.908396946564885,-54.18320610687023,22.244274809160306,-10.151415039062499,-2.3151930053710936,1.7549498168945312,-24.03053435114504,70.38167938931298,21.954198473282442,0.0
12.950000286102295,-2.863465185546875,-1.5634136840820312,-4.335899206542969,-35.86259541984733,-33.603053435114504,16.83969465648855,-9.253589416503905,-0.9433154541015625,0.2920926025390625,-17.404580152671755,65.63358778625954,21.251908396946565,0.0
12.960000276565552,-2.1356278808593747,-2.808398547363281,-5.580884069824219,-36.16793893129771,-18.396946564885496,16.717557251908396,-10.9175595703125,-3.4524387939453125,3.402160559082031,-7.190839694656488,69.0381679389313,23.419847328244273,0.0
12.970000267028809,-3.5027170288085934,-1.3120225097656248,-4.225765930175781,-38.67175572519084,6.717557251908397,12.778625954198473,-9.502586389160156,-1.7501614135742187,0.7398083129882812,19.450381679389313,52.61068702290076,21.633587786259543,0.0
12.980000257492065,-2.511517541503906,-1.158793603515625,-4.503493322753906,-47.267175572519086,18.625954198473284,11.908396946564885,-12.543222497558594,-2.7844565307617186,3.289633081054687,32.62595419847328,52.93129770992366,22.946564885496183,0.0
12.99000072479248,-3.5003228271484375,0.22505495605468748,-2.6958710693359373,-62.01526717557252,34.50381679389313,9.877862595419847,-11.3389390625,-1.005564697265625,0.70868369140625,21.022900763358777,49.786259541984734,17.557251908396946,0.0
13.000000715255737,-2.1883003173828124,-1.1659762084960936,-2.231395947265625,-65.34351145038168,48.56488549618321,10.549618320610687,-11.468225952148437,-1.3958195678710936,2.0638018310546875,24.99236641221374,47.06870229007634,17.755725190839694,0.0
13.010000705718994,-1.917755529785156,-2.195482922363281,-0.6775590698242188,-65.86259541984732,59.45038167938932,6.9465648854961835,-11.434707128906249,-0.5746083984375,1.3646949462890625,16.213740458015266,47.099236641221374,18.35114503816794,0.0
13.02000093460083,-1.3144167114257812,-2.9831752685546875,0.13407529296874998,-51.49618320610687,71.20610687022901,4.106870229007634,-12.018892333984374,-2.3127988037109373,3.038241906738281,23.709923664122137,46.412213740458014,22.641221374045802,0.0
13.030000448226929,-2.473210314941406,-3.3255461059570313,2.4492682983398435,-29.34351145038168,90.06106870229007,-2.9618320610687023,-11.461043347167967,-1.22583125,1.5298948608398437,37.343511450381676,35.23664122137404,22.85496183206107,0.0
13.040000438690186,-4.113238452148437,-2.4253262817382812,5.578489868164062,-10.198473282442748,100.79389312977099,-6.900763358778626,-11.884817041015625,-2.7078420776367187,2.7054478759765623,40.19847328244275,33.63358778625954,22.03053435114504,0.0
13.050000667572021,-5.025429284667968,-1.8028338500976562,9.358934289550781,22.595419847328245,111.26717557251908,-1.099236641221374,-10.421959826660157,-0.4477157104492187,1.4604630126953124,38.36641221374046,32.213740458015266,19.435114503816795,0.0
13.060000658035278,-7.359775903320312,0.39983167724609375,14.937424157714842,57.19083969465649,115.31297709923665,7.847328244274809,-12.794613671875,-2.310404602050781,5.159504577636718,24.977099236641223,40.67175572519084,20.16793893129771,0.0
13.070000648498535,-9.852139831542969,6.279990954589843,18.085799340820312,66.99236641221374,99.78625954198473,11.770992366412214,-10.254365710449218,-0.8978256225585937,2.3367408203125,31.61832061068702,28.061068702290076,17.206106870229007,0.0
13.080000877380371,-13.623007446289062,9.100360510253905,18.14326018066406,28.213740458015266,70.73282442748092,6.305343511450381,-10.1131078125,-1.5562310791015623,3.545812658691406,23.068702290076335,32.2442748091603,14.396946564885496,0.0
13.090000629425049,-8.67658681640625,-0.34237083740234375,13.187262744140623,-1.4809160305343512,41.587786259541986,9.84732824427481,-8.844180932617187,1.2617442749023438,0.6584054565429687,22.442748091603054,20.47328244274809,11.221374045801527,0.0
13.100000619888306,-11.875240234375,1.3335703247070312,13.876792822265624,-6.977099236641221,31.954198473282442,1.8473282442748091,-10.991779821777342,1.3646949462890625,2.310404602050781,0.4122137404580153,28.30534351145038,13.114503816793894,0.0
13.110000848770142,-9.756371765136718,1.8219874633789062,12.794613671875,11.526717557251908,16.427480916030536,1.2213740458015268,-8.667010009765624,4.005499377441406,-0.1197100830078125,-22.076335877862597,24.427480916030536,16.106870229007633,0.0
13.12000060081482,-6.131550451660156,1.2617442749023438,9.732429748535155,37.69465648854962,5.145038167938932,9.603053435114504,-9.53131680908203,2.528276953125,-0.2154781494140625,-49.19083969465649,27.328244274809162,25.297709923664122,0.0
13.130000829696655,-11.741164941406248,4.778826513671874,7.345410693359375,48.88549618320611,9.34351145038168,9.358778625954198,-11.334150659179686,-3.0550013183593747,1.426944189453125,-48.50381679389313,31.709923664122137,35.70992366412214,0.0
13.140000581741333,-10.809820495605468,-2.408566870117187,-0.047884033203124995,50.19847328244275,15.969465648854962,23.66412213740458,-11.777077966308592,-4.513070129394531,-0.201112939453125,-32.87022900763359,22.9618320610687,33.038167938931295,0.0
13.15000057220459,-16.883910107421872,-6.021417175292968,11.860875024414062,69.69465648854961,33.465648854961835,19.96946564885496,-14.094665173339843,-4.747701892089843,0.316034619140625,-34.61068702290076,19.96946564885496,22.610687022900763,0.0
13.160000562667847,-20.09692873535156,-5.590460876464843,16.63012473144531,99.02290076335878,14.687022900763358,6.67175572519084,-15.495273144531248,-4.091690637207031,0.5602431884765625,-27.435114503816795,8.580152671755725,18.748091603053435,0.0
13.170000553131104,-20.81758343505859,-0.6703764648437499,13.012486022949219,106.47328244274809,-6.687022900763359,-3.435114503816794,-15.739481713867187,-3.2800562744140622,0.7852981445312499,-14.412213740458014,-6.916030534351145,18.290076335877863,0.0
13.18000054359436,-13.816937780761718,2.9568390502929685,1.1133037719726562,103.87786259541984,-22.53435114503817,-3.145038167938931,-15.014038610839842,0.2705447875976562,-0.24899697265624998,-17.69465648854962,-19.068702290076335,12.51908396946565,0.0
13.190000772476196,-7.053318090820312,1.886630908203125,-7.228094812011718,88.0,-27.206106870229007,-1.9083969465648856,-16.73307540283203,2.133233679199219,0.14125789794921875,-12.106870229007633,-27.893129770992367,14.885496183206106,0.0
13.200000524520874,-1.0678139404296874,-1.6065093139648436,-8.382100012207031,73.78625954198473,-7.969465648854962,-6.152671755725191,-16.364368347167968,2.250549560546875,0.30406361083984373,-1.282442748091603,-39.282442748091604,21.16030534351145,0.0
13.21000051498413,-3.9408559326171875,2.3678654418945313,-6.490680700683593,28.85496183206107,10.564885496183207,-18.80916030534351,-15.282189196777344,4.857835168457031,-1.4939818359375,6.259541984732825,-53.17557251908397,22.045801526717558,0.0
13.220000982284546,-6.172251879882812,5.374982727050781,-7.505822204589843,-0.9770992366412213,31.419847328244273,-11.938931297709924,-14.326902734374999,4.649539624023437,-1.7860744384765623,4.290076335877862,-56.656488549618324,24.68702290076336,0.0
13.230000734329224,-7.127538342285156,2.8993782104492185,-6.584054565429687,-11.465648854961833,50.778625954198475,-4.061068702290076,-12.694057202148437,3.189076611328125,-2.104503259277344,10.534351145038167,-59.63358778625954,23.14503816793893,0.0
13.24000072479248,-5.568913061523437,-2.133233679199219,-5.6215854980468745,-1.5877862595419847,69.08396946564885,-3.66412213740458,-10.09395419921875,3.6391865234374996,-4.292803576660156,0.15267175572519084,-58.6412213740458,17.114503816793892,0.0
13.250000476837158,-9.054870678710937,0.32082302246093747,-3.287238879394531,7.099236641221374,97.29770992366412,-15.297709923664122,-9.576806640625,2.6695348510742187,-4.611232397460937,-16.045801526717558,-47.786259541984734,11.84732824427481,0.0
13.260000944137573,-9.792284790039062,1.2808978881835937,-3.31357509765625,-8.351145038167939,100.42748091603053,-23.251908396946565,-9.6151138671875,-0.7852981445312499,-4.7381250854492185,-21.0381679389313,-40.38167938931298,7.251908396946565,0.0
13.270000696182251,-12.083535778808592,1.68551796875,-1.7429788085937499,-20.106870229007633,107.92366412213741,-29.129770992366414,-9.926360083007811,0.24181436767578124,-7.37414111328125,-20.778625954198475,-33.725190839694655,0.015267175572519083,0.0
13.280000448226929,-13.390769885253906,2.365471240234375,-0.055066638183593745,-37.66412213740458,106.13740458015268,-33.41984732824427,-9.995791931152343,3.7014357666015623,-7.788338000488281,-31.49618320610687,-21.66412213740458,-5.419847328244275,0.0
13.290000438690186,-8.836998327636719,-2.418143676757812,-0.7278373046875,-40.88549618320611,98.79389312977099,-29.801526717557252,-11.853692419433592,1.2138602416992186,-3.4668040039062498,-30.748091603053435,-13.435114503816793,1.0687022900763359,0.0
13.300000667572021,-8.161833459472655,-5.236119030761718,0.19632453613281248,-17.16030534351145,107.34351145038168,-35.603053435114504,-11.128249316406249,-0.9050082275390624,-1.8435352783203125,-15.893129770992367,-17.282442748091604,2.1068702290076335,0.0
13.310000658035278,-9.83777462158203,-3.0597897216796874,0.689530078125,3.5114503816793894,112.8854961832061,-46.778625954198475,-9.540893615722656,-1.0199299072265624,-0.8810662109374999,-5.206106870229007,-22.229007633587788,-2.427480916030534,0.0
13.320000648498535,-10.007762939453125,-1.218648645019531,-0.016759411621093748,10.870229007633588,112.07633587786259,-49.52671755725191,-9.988609326171874,-3.162740393066406,1.8411410766601561,9.19083969465649,-22.748091603053435,-4.916030534351145,0.0
13.330000638961792,-11.571176623535155,-0.3758896606445312,0.7948749511718749,16.3206106870229,112.35114503816794,-50.61068702290076,-8.985438830566405,-3.5721488769531247,2.023100402832031,31.374045801526716,-37.89312977099237,-14.335877862595419,0.0
13.340000629425049,-12.148179223632813,2.8012159423828122,0.9169792358398436,4.809160305343512,105.81679389312977,-52.18320610687023,-9.121908325195312,-2.2481553588867187,2.061407629394531,48.99236641221374,-47.80152671755725,-20.35114503816794,0.0
13.350000858306885,-10.556035119628906,3.2800562744140622,1.3215993164062498,-4.870229007633588,99.7557251908397,-44.30534351145038,-8.394071020507813,0.2920926025390625,1.3838485595703125,55.48091603053435,-59.19083969465649,-27.862595419847327,0.0
13.360000610351562,-11.0707884765625,4.347870214843749,2.35589443359375,-20.68702290076336,94.3969465648855,-39.770992366412216,-8.966285217285156,0.6200982299804687,2.2385785522460937,47.038167938931295,-61.64885496183206,-26.748091603053435,0.0
13.370000839233398,-9.014169250488282,1.659181750488281,1.4963760375976562,-33.61832061068702,86.51908396946565,-32.79389312977099,-9.066841687011719,1.4891934326171874,1.5418658691406248,51.38931297709924,-70.91603053435115,-26.946564885496183,0.0
13.380000829696655,-8.238447912597655,0.5027823486328125,0.9576806640625,-33.099236641221374,83.25190839694656,-28.99236641221374,-8.104372619628906,1.7669208251953124,1.2856862915039062,38.229007633587784,-72.38167938931298,-26.763358778625953,0.0
13.390000581741333,-9.119514123535156,0.35194764404296874,1.5849614990234373,-32.961832061068705,81.89312977099236,-26.610687022900763,-9.710881933593749,0.4525041137695312,2.080561242675781,38.76335877862596,-71.43511450381679,-22.671755725190838,0.0
13.40000057220459,-10.788272680664061,2.128445275878906,2.8036101440429686,-36.62595419847328,80.19847328244275,-31.49618320610687,-8.226476904296874,1.4891934326171874,1.35990654296875,35.29770992366412,-77.72519083969466,-25.282442748091604,0.0
13.410000324249268,-11.111489904785156,0.9097966308593749,2.825157958984375,-47.86259541984733,70.1526717557252,-23.908396946564885,-9.222464794921875,1.9129671264648436,0.8212111694335937,30.442748091603054,-80.25954198473282,-24.12213740458015,0.0
13.420000553131104,-9.706093530273437,-1.8004396484374998,2.068590234375,-28.778625954198475,68.62595419847328,-18.732824427480917,-7.632714892578124,2.7365724975585937,-0.0526724365234375,19.52671755725191,-83.98473282442748,-25.435114503816795,0.0
13.43000054359436,-15.325284826660155,4.431667272949219,5.645527514648437,-32.2442748091603,71.83206106870229,-24.106870229007633,-9.495403784179686,0.9552864624023437,1.7501614135742187,14.183206106870228,-77.20610687022901,-18.641221374045802,0.0
13.440000534057617,-12.540828295898438,1.93451494140625,4.57771357421875,-59.11450381679389,46.0763358778626,-22.18320610687023,-9.622296472167967,1.4628572143554686,0.14125789794921875,20.290076335877863,-87.32824427480917,-19.603053435114504,0.0
13.450000286102295,-10.541669909667968,-0.34715924072265625,2.7940333374023436,-38.83969465648855,38.80916030534351,-14.16793893129771,-9.732429748535155,1.1875240234375,0.507570751953125,11.053435114503817,-86.36641221374046,-19.099236641221374,0.0
13.460000276565552,-9.718064538574218,-0.12449848632812499,2.518700146484375,-25.46564885496183,38.36641221374046,-11.022900763358779,-9.706093530273437,0.948103857421875,-0.1867477294921875,15.206106870229007,-89.72519083969466,-20.641221374045802,0.0
13.470000505447388,-13.711592907714843,4.690241052246093,4.199429711914062,-31.66412213740458,34.030534351145036,-14.473282442748092,-10.529698901367187,-0.258573779296875,1.1468225952148436,17.587786259541986,-85.12977099236642,-18.732824427480917,0.0
13.480000734329224,-10.941501586914061,1.6208745239257811,2.2002713256835937,-34.458015267175576,27.770992366412212,-9.98473282442748,-9.883264453125,0.6057330200195312,0.00239420166015625,25.236641221374047,-92.4885496183206,-21.435114503816795,0.0
13.490000247955322,-9.809044201660155,0.6536170532226562,0.6200982299804687,-30.366412213740457,20.244274809160306,-4.931297709923665,-10.206481677246094,0.18914193115234373,0.9840168823242187,23.770992366412212,-87.45038167938931,-21.435114503816795,0.0
13.500000953674316,-9.102754711914063,0.2442085693359375,0.8882488159179687,-17.450381679389313,26.290076335877863,-5.526717557251908,-9.162609753417968,0.7900865478515624,0.016759411621093748,27.984732824427482,-89.58778625954199,-23.328244274809162,0.0
13.510000705718994,-12.27746611328125,4.553771557617187,2.5737667846679684,-26.82442748091603,26.442748091603054,-10.488549618320612,-10.098742602539062,0.8307879760742187,0.3064578125,24.229007633587788,-82.4885496183206,-22.671755725190838,0.0
13.520000457763672,-11.504138977050781,3.1172505615234374,2.0925322509765625,-43.55725190839695,16.35114503816794,-7.7251908396946565,-10.50815108642578,1.5418658691406248,-0.2442085693359375,29.267175572519083,-83.86259541984732,-23.557251908396946,0.0
13.530000686645508,-8.647856396484375,-0.19871873779296872,0.6655880615234374,-31.053435114503817,11.679389312977099,-0.4580152671755725,-9.610325463867188,1.6424223388671875,-0.4525041137695312,19.31297709923664,-77.93893129770993,-24.732824427480917,0.0
13.540000438690186,-8.010998754882811,-1.9632453613281249,0.7302315063476562,-13.541984732824428,17.221374045801525,1.8015267175572518,-10.160991845703125,0.5195417602539062,0.17956512451171874,23.267175572519083,-73.74045801526718,-22.366412213740457,0.0
13.5500009059906,-9.562441430664062,-0.41898529052734373,1.8363526733398436,1.3129770992366412,22.793893129770993,-6.076335877862595,-9.083601098632812,1.2641384765625,0.07900865478515624,29.251908396946565,-75.16030534351145,-23.251908396946565,0.0
13.560000658035278,-9.97903251953125,2.8323405639648436,2.1068974609374997,7.66412213740458,21.603053435114504,-11.297709923664122,-7.596801867675781,2.980781066894531,-0.9241618408203125,21.81679389312977,-68.97709923664122,-24.702290076335878,0.0
13.570000648498535,-11.149797131347656,2.300827795410156,2.4875755249023435,-4.198473282442748,14.961832061068701,-11.267175572519085,-9.131485131835937,1.9991583862304687,0.8882488159179687,21.52671755725191,-57.465648854961835,-18.748091603053435,0.0
13.580000638961792,-8.552088330078124,-0.74699091796875,1.1827356201171875,9.954198473282442,13.297709923664122,-6.244274809160306,-7.867346655273437,2.1068974609374997,-0.3232172241210937,17.96946564885496,-58.3206106870229,-20.137404580152673,0.0
13.590000629425049,-8.377311608886718,0.20829554443359374,1.4437036010742186,21.64885496183206,17.923664122137403,-7.465648854961832,-7.639897497558593,1.6711527587890624,0.4165910888671875,13.129770992366412,-50.961832061068705,-19.46564885496183,0.0
13.600000858306885,-8.882488159179687,1.2737152832031249,0.6344634399414062,23.69465648854962,16.229007633587788,-8.396946564885496,-9.30147344970703,1.3814543579101561,0.9552864624023437,13.068702290076336,-45.16030534351145,-17.52671755725191,0.0
13.610000610351562,-10.084377392578125,2.4157494750976563,0.8451531860351562,23.435114503816795,17.770992366412212,-7.755725190839694,-6.835445739746094,2.729389892578125,-0.229843359375,5.862595419847328,-41.14503816793893,-18.671755725190838,0.0
13.62000060081482,-11.396399902343749,2.683900061035156,1.6543933471679686,13.664122137404581,17.84732824427481,-7.129770992366412,-8.21690009765625,1.2282254516601563,1.2856862915039062,1.282442748091603,-30.290076335877863,-13.98473282442748,0.0
13.630001068115234,-8.559270935058594,0.9935936889648437,0.4261678955078125,12.183206106870228,11.022900763358779,-4.977099236641221,-8.281543542480469,1.0007762939453124,1.1827356201171875,3.404580152671756,-28.229007633587788,-13.740458015267176,0.0
13.640000581741333,-8.619125976562499,0.1388636962890625,0.8212111694335937,16.48854961832061,13.84732824427481,-6.885496183206107,-8.192958081054687,0.38307226562499996,1.3168109130859373,3.618320610687023,-24.442748091603054,-14.80916030534351,0.0
13.65000033378601,-10.87206973876953,1.6112977172851561,2.051830822753906,12.564885496183207,13.969465648854962,-12.045801526717558,-6.964732629394531,0.6536170532226562,0.6751648681640625,4.015267175572519,-22.3206106870229,-18.091603053435115,0.0
13.660000324249268,-10.673351000976561,2.375048046875,2.6384102294921874,0.6106870229007634,5.450381679389313,-13.664122137404581,-7.592013464355468,0.7996633544921875,1.1133037719726562,7.862595419847328,-17.984732824427482,-17.206106870229007,0.0
13.670000553131104,-9.41639512939453,0.30406361083984373,2.4396914916992185,1.251908396946565,-1.8015267175572518,-11.770992366412214,-7.1586629638671875,0.8762778076171874,1.2856862915039062,5.114503816793893,-14.870229007633588,-16.732824427480917,0.0
13.68000054359436,-10.01733974609375,0.9002198242187499,3.5122938354492184,5.343511450381679,-3.4198473282442747,-13.145038167938932,-5.480327600097656,1.7669208251953124,0.016759411621093748,-3.068702290076336,-10.961832061068701,-16.671755725190838,0.0
13.690000534057617,-8.43956085205078,0.0383072265625,3.373430139160156,12.381679389312977,-8.458015267175572,-13.022900763358779,-5.432443566894531,0.7038952880859375,0.4908113403320312,-6.854961832061068,-2.8702290076335877,-13.893129770992367,0.0
13.700000286102295,-9.5001921875,1.1372457885742187,4.242525341796875,15.038167938931299,-12.183206106870228,-14.641221374045802,-7.587225061035156,-1.4867992309570313,1.1420341918945311,3.145038167938931,-1.1755725190839694,-10.381679389312977,0.0
13.71000051498413,-9.888052856445311,1.924938134765625,4.8889597900390624,22.702290076335878,-16.946564885496183,-16.458015267175572,-5.566518859863281,-0.6775590698242188,0.6200982299804687,6.458015267175573,-1.5572519083969465,-16.3206106870229,0.0
13.720000267028809,-9.871293444824218,3.0142998901367184,5.6383449096679685,22.671755725190838,-23.83206106870229,-14.198473282442748,-5.533000036621093,-0.26336218261718747,0.3495534423828125,9.664122137404581,2.0610687022900764,-17.022900763358777,0.0
13.730000495910645,-9.631873278808593,3.9169139160156248,6.358999609374999,8.641221374045802,-37.37404580152672,-11.312977099236642,-5.559336254882812,0.5578489868164063,0.6296750366210937,4.824427480916031,11.526717557251908,-16.12213740458015,0.0
13.74000072479248,-12.689268798828124,5.887341882324218,9.485826977539062,-8.702290076335878,-45.29770992366412,-10.259541984732824,-4.697423657226563,0.7781155395507812,0.239420166015625,0.7480916030534351,15.312977099236642,-14.274809160305344,0.0
13.750000238418579,-11.109095703125,4.316745593261719,9.370905297851563,-23.083969465648856,-69.83206106870229,-4.030534351145038,-5.272032055664062,0.296881005859375,0.15562310791015624,-5.00763358778626,24.091603053435115,-13.099236641221374,0.0
13.760001182556152,-9.667786303710937,1.5514426757812498,9.18655177001953,-16.12213740458015,-87.86259541984732,5.709923664122138,-5.698199951171874,-0.10773907470703124,0.19871873779296872,-8.732824427480915,29.87786259541985,-13.938931297709924,0.0
13.77000093460083,-10.328585961914062,2.829946362304687,9.938331091308592,-7.938931297709924,-93.93893129770993,5.770992366412214,-6.845022546386718,-1.6328455322265625,0.27293898925781246,-1.7557251908396947,36.58015267175573,-12.595419847328245,0.0
13.780000925064087,-11.643002673339844,2.925714428710937,9.746794958496093,-15.038167938931299,-112.01526717557252,3.7099236641221376,-9.816226806640625,-1.180341418457031,-1.0438719238281249,16.82442748091603,40.30534351145038,-14.610687022900763,0.0
13.790001153945923,-12.320561743164061,1.6352397338867186,9.356540087890625,-6.030534351145038,-126.61068702290076,5.267175572519084,-14.796166259765624,1.149216796875,-0.6679822631835937,31.84732824427481,43.221374045801525,-23.374045801526716,0.0
13.8000009059906,-15.547945581054687,3.871424084472656,10.714052429199219,0.33587786259541985,-133.6793893129771,1.3282442748091603,-19.706673864746094,2.882618798828125,3.0837317382812497,33.93893129770992,46.94656488549618,-25.083969465648856,0.0
13.8100004196167,-17.85835018310547,3.1076737548828124,10.838550915527343,4.351145038167939,-154.2290076335878,2.6564885496183206,-22.069750903320312,4.034229797363281,4.996698864746094,40.97709923664122,39.69465648854962,-18.671755725190838,0.0
13.820000648498535,-19.148824877929687,0.9792284790039062,8.779537487792968,27.16030534351145,-170.67175572519085,7.893129770992366,-18.696320764160156,6.6343328002929685,2.712630480957031,31.374045801526716,28.83969465648855,-11.618320610687023,0.0
13.830000638961792,-21.576545361328122,0.1149216796875,8.580818749999999,36.595419847328245,-177.12977099236642,10.961832061068701,-14.46097802734375,6.246472131347656,1.13006318359375,13.938931297709924,26.641221374045802,0.32061068702290074,0.0
13.840000629425049,-22.634782495117186,0.09337386474609374,6.907271789550781,52.900763358778626,-185.72519083969465,22.458015267175572,-9.217676391601563,5.966350537109375,-2.408566870117187,-9.297709923664122,23.557251908396946,11.84732824427481,0.0
13.850000858306885,-20.69787335205078,1.4939818359375,3.545812658691406,69.22137404580153,-190.12213740458014,41.603053435114504,-5.645527514648437,4.149151477050781,-6.160280871582031,-40.85496183206107,38.916030534351144,25.51145038167939,0.0
13.860000371932983,-17.67160245361328,0.05985504150390625,0.6105214233398437,58.900763358778626,-187.9083969465649,52.68702290076336,-4.450820886230469,0.4572925170898437,-8.846575134277343,-57.02290076335878,45.541984732824424,30.045801526717558,0.0
13.87000060081482,-11.37006368408203,-2.2074539306640624,-3.900154504394531,49.541984732824424,-179.81679389312978,57.05343511450382,-0.08379705810546874,1.7860744384765623,-13.40034669189453,-104.4885496183206,68.07633587786259,17.84732824427481,0.0
13.880000591278076,-8.317456567382813,-3.0980969482421874,-4.991910461425781,26.977099236641223,-160.27480916030535,55.05343511450382,-5.786785412597656,-0.7924807495117187,-9.220070593261719,-161.86259541984734,124.54961832061069,17.69465648854962,0.0
13.890000820159912,-7.52737001953125,-3.6559459350585937,-4.199429711914062,15.16030534351145,-135.3587786259542,52.274809160305345,-11.824961999511718,-7.3669585083007805,-4.402936853027343,-150.9618320610687,145.31297709923663,27.358778625954198,0.0
13.90000057220459,-8.863334545898438,-4.1563340820312495,-1.3479355346679687,36.35114503816794,-110.22900763358778,48.87022900763359,-12.433089221191405,-7.766790185546874,-4.199429711914062,-113.19083969465649,136.4885496183206,23.69465648854962,0.0
13.910000324249268,-9.330203869628905,-0.6967126831054687,2.422932080078125,67.83206106870229,-87.29770992366412,46.33587786259542,-12.521674682617187,-6.366182214355469,-1.5275006591796874,-77.17557251908397,129.54198473282443,18.259541984732824,0.0
13.920000553131104,-7.939172705078125,0.13407529296874998,4.479551306152343,72.07633587786259,-77.34351145038168,41.404580152671755,-10.031704956054687,-3.6080619018554687,-1.5897499023437498,-37.17557251908397,106.68702290076335,17.053435114503817,0.0
13.93000054359436,-8.547299926757812,1.8076222534179687,4.197035510253906,51.48091603053435,-71.16030534351145,34.68702290076336,-9.890447058105469,-1.6639701538085936,-0.23223756103515625,-40.778625954198475,107.93893129770993,17.00763358778626,0.0
13.940000534057617,-7.64229169921875,-0.1005564697265625,0.12210428466796874,25.923664122137403,-76.01526717557252,36.19847328244275,-10.192116467285155,-0.41898529052734373,1.0534487304687499,-28.12213740458015,88.30534351145039,17.083969465648856,0.0
13.950000762939453,-8.947131604003905,0.4955997436523437,-0.06464344482421874,-0.7786259541984732,-74.61068702290076,31.908396946564885,-11.44667813720703,-1.0869675537109373,3.5051112304687497,-30.82442748091603,82.8854961832061,19.022900763358777,0.0
13.96000051498413,-7.101202124023437,-0.6943184814453125,-0.8882488159179687,-14.65648854961832,-81.2824427480916,34.534351145038165,-11.298237634277344,-1.9680337646484374,4.503493322753906,-12.625954198473282,69.08396946564885,21.87786259541985,0.0
13.970000505447388,-8.884882360839843,0.9935936889648437,0.40462008056640625,-25.603053435114504,-77.66412213740458,29.068702290076335,-11.688492504882811,-1.924938134765625,3.21780703125,2.0763358778625953,58.0,23.297709923664122,0.0
13.980000734329224,-6.1842228881835934,0.0383072265625,-0.4429273071289062,-27.083969465648856,-83.19083969465649,28.65648854961832,-10.647014782714843,-0.047884033203124995,1.350329736328125,-2.427480916030534,52.152671755725194,17.83206106870229,0.0
13.990000486373901,-6.572083557128906,0.82360537109375,-0.6847416748046875,-34.50381679389313,-77.6030534351145,24.244274809160306,-9.622296472167967,0.258573779296875,1.3479355346679687,-8.274809160305344,49.43511450381679,15.282442748091603,0.0
14.000000715255737,-4.158728283691406,-1.6160861206054686,-3.1076737548828124,-34.458015267175576,-76.44274809160305,23.755725190839694,-10.32379755859375,0.7158662963867187,1.6543933471679686,-8.900763358778626,49.74045801526717,15.923664122137405,0.0
14.010000467300415,-5.102043737792968,-0.6631938598632812,-2.7341782958984373,-32.19847328244275,-61.20610687022901,19.17557251908397,-9.603142858886718,0.3854664672851562,1.7286135986328124,-11.709923664122137,47.267175572519086,16.47328244274809,0.0
14.020000696182251,-3.6918589599609373,-2.3223756103515623,-4.714183068847656,-27.083969465648856,-52.732824427480914,19.236641221374047,-10.59194814453125,0.3136404174804687,1.924938134765625,-9.893129770992367,49.541984732824424,17.19083969465649,0.0
14.030000686645508,-3.9935283691406247,-0.5267243652343749,-4.237736938476562,-26.27480916030534,-31.14503816793893,17.801526717557252,-9.89523546142578,-0.7781155395507812,1.149216796875,-11.511450381679388,47.3587786259542,17.17557251908397,0.0
14.040000677108765,-3.0142998901367184,0.07422025146484375,-4.429273071289062,-34.85496183206107,-16.33587786259542,17.221374045801525,-10.517727893066406,-0.7493851196289062,0.7541735229492187,-6.763358778625954,45.3587786259542,18.244274809160306,0.0
14.050000667572021,-4.874594580078124,0.7038952880859375,-3.5913024902343746,-48.58015267175573,3.450381679389313,15.725190839694656,-10.019733947753906,-1.4413093994140624,0.28730419921875,-5.083969465648855,43.908396946564885,20.198473282442748,0.0
14.060000658035278,-2.0159177978515626,-1.2689268798828124,-4.829104748535156,-55.786259541984734,16.259541984732824,18.076335877862597,-10.958260998535156,-2.9089550170898435,1.2617442749023438,3.786259541984733,46.152671755725194,22.900763358778626,0.0
14.070000410079956,-3.9169139160156248,0.45010991210937495,-2.3032219970703123,-63.64885496183206,42.67175572519084,12.366412213740459,-9.095572106933593,-0.6105214233398437,-1.7405846069335937,6.030534351145038,41.57251908396947,20.977099236641223,0.0
14.080000400543213,-3.9791631591796874,0.28012159423828126,-1.5035586425781249,-74.85496183206106,49.80152671755725,9.465648854961833,-10.364498986816406,-1.1851298217773436,-0.00239420166015625,5.404580152671755,43.19083969465649,21.908396946564885,0.0
14.090000629425049,-2.9472622436523435,-1.3814543579101561,-0.8762778076171874,-77.81679389312977,56.6412213740458,9.022900763358779,-13.620613244628906,-3.5506010620117183,3.3973721557617185,16.0,47.20610687022901,25.908396946564885,0.0
14.100000619888306,-2.6599580444335937,-3.038241906738281,0.7350199096679687,-58.10687022900763,80.03053435114504,5.877862595419847,-11.786654772949218,-5.035006091308594,3.124433166503906,36.62595419847328,34.42748091603053,24.442748091603054,0.0
14.110000848770142,-2.3127988037109373,-2.2744915771484373,2.1212626708984375,-45.63358778625954,92.47328244274809,0.3816793893129771,-9.437942944335937,-1.2425906616210938,-0.6631938598632812,44.79389312977099,24.763358778625953,17.557251908396946,0.0
14.12000060081482,-1.4963760375976562,-2.499546533203125,4.355052819824219,-24.595419847328245,105.0381679389313,1.7709923664122138,-12.224793676757812,-2.5450363647460934,2.7820623291015623,34.54961832061068,34.83969465648855,16.671755725190838,0.0
14.130000591278076,-3.2824504760742186,-1.8459294799804686,10.237606298828124,11.694656488549619,125.6030534351145,4.3816793893129775,-10.249577307128906,-0.8667010009765624,1.917755529785156,44.01526717557252,27.31297709923664,16.65648854961832,0.0
14.140000581741333,-6.3709706176757805,2.023100402832031,16.206351037597656,34.30534351145038,122.50381679389314,3.3435114503816794,-10.218452685546874,-1.218648645019531,2.1715409057617188,37.83206106870229,26.732824427480917,14.977099236641221,0.0
14.15000057220459,-9.279925634765624,6.816292126464844,17.975666064453122,24.38167938931298,103.83206106870229,3.480916030534351,-8.961496813964843,2.2768857788085937,0.97683427734375,20.946564885496183,29.099236641221374,11.129770992366412,0.0
14.160000801086426,-13.828908789062499,7.860164050292968,17.515979345703123,-20.045801526717558,73.80152671755725,4.244274809160306,-8.307879760742187,2.473210314941406,0.8714894042968749,15.053435114503817,20.213740458015266,11.19083969465649,0.0
14.170000314712524,-11.439495532226562,1.2617442749023438,15.643713647460936,-22.35114503816794,56.44274809160305,8.51908396946565,-10.077194787597655,2.1619640991210938,3.0310593017578125,-12.335877862595419,37.770992366412216,16.38167938931298,0.0
14.18000054359436,-11.33175645751953,0.105344873046875,15.854403393554687,-19.908396946564885,29.84732824427481,5.32824427480916,-8.214505895996094,4.319139794921875,1.7453730102539062,-29.64885496183206,37.00763358778626,18.625954198473284,0.0
14.190000534057617,-10.357316381835936,0.8020575561523438,14.86320390625,12.274809160305344,11.145038167938932,5.526717557251908,-10.472238061523436,3.907337109375,1.8626888916015625,-49.083969465648856,37.603053435114504,28.396946564885496,0.0
14.200000286102295,-10.802637890625,-1.0606313354492187,7.915230688476562,44.88549618320611,-6.183206106870229,12.274809160305344,-11.252747802734374,1.7357962036132812,2.8323405639648436,-61.14503816793893,38.88549618320611,37.908396946564885,0.0
14.210000276565552,-18.033126904296875,0.8499415893554687,3.5242648437499997,54.85496183206107,8.992366412213741,18.3206106870229,-11.884817041015625,-1.2593500732421874,2.5163059448242184,-66.67175572519083,34.091603053435115,39.93893129770992,0.0
14.220031023025513,-21.765687292480468,-5.949591125488281,13.101071484375,76.56488549618321,12.213740458015268,21.938931297709924,-14.745888024902342,-3.84987626953125,2.31758720703125,-70.16793893129771,26.99236641221374,33.221374045801525,0.0
14.230000495910645,-23.824700720214842,-5.9208607055664055,17.010802795410154,116.91603053435115,-8.793893129770993,5.847328244274809,-16.6636435546875,-6.691793640136718,3.3327287109375,-59.66412213740458,12.213740458015268,31.435114503816795,0.0
14.24000096321106,-18.255787658691403,0.6943184814453125,9.80665,134.45801526717557,-33.89312977099237,-0.48854961832061067,-16.49604943847656,-6.737283471679687,2.2385785522460937,-36.35114503816794,-12.15267175572519,25.435114503816795,0.0
14.250000238418579,-6.356605407714843,2.418143676757812,-3.8857892944335934,135.64885496183206,-44.13740458015267,6.9465648854961835,-14.815319873046874,-2.482787121582031,0.36152445068359373,-31.51145038167939,-25.419847328244273,14.15267175572519,0.0
14.260000944137573,2.1595698974609374,-2.7054478759765623,-9.533711010742186,124.25954198473282,-28.885496183206108,0.48854961832061067,-15.25824718017578,-0.011971008300781249,0.06943184814453125,-16.53435114503817,-31.541984732824428,7.603053435114504,0.0
14.270000457763672,0.354341845703125,0.02633621826171875,-9.849745629882811,71.90839694656489,-10.458015267175572,-19.740458015267176,-16.19677423095703,2.7533319091796873,-0.9959878906249999,-2.8091603053435112,-37.343511450381676,5.312977099236641,0.0
14.280000686645508,-3.5434184570312497,4.165910888671875,-9.13627353515625,39.69465648854962,14.717557251908397,-17.84732824427481,-15.77539473876953,3.5793314819335937,-1.5418658691406248,7.679389312977099,-43.61832061068702,10.351145038167939,0.0
14.290000915527344,-11.118672509765624,10.20169327392578,-5.104437939453125,12.748091603053435,39.404580152671755,-8.030534351145038,-13.443442321777344,4.429273071289062,-3.3399113159179685,18.076335877862597,-52.88549618320611,14.030534351145038,0.0
14.300000429153442,-11.058817468261719,6.387730029296875,-3.4859576171874997,-5.648854961832061,48.534351145038165,3.984732824427481,-13.350068457031249,4.517858532714843,-2.3630770385742186,16.946564885496183,-49.05343511450382,17.34351145038168,0.0
14.3100004196167,-10.402806213378906,2.4396914916992185,-2.7150246826171873,-14.717557251908397,63.770992366412216,3.312977099236641,-10.266336718749999,4.467580297851562,-3.833116857910156,4.763358778625954,-48.80916030534351,16.82442748091603,0.0
14.320000410079956,-10.09395419921875,-0.17956512451171874,-2.8730419921875,-32.458015267175576,72.16793893129771,-1.9236641221374047,-8.659827404785156,2.4253262817382812,-4.319139794921875,-10.916030534351146,-39.51145038167939,17.633587786259543,0.0
14.330000638961792,-10.87925234375,-1.4125789794921875,-2.3295582153320313,-40.80916030534351,84.09160305343511,-11.679389312977099,-10.005368737792969,0.40462008056640625,-3.7038299682617186,-15.679389312977099,-30.50381679389313,13.221374045801527,0.0
14.34000039100647,-7.156268762207031,-5.3390697021484375,-2.952050646972656,-33.29770992366412,84.62595419847328,-17.206106870229007,-8.511386901855468,-0.6153098266601562,-5.576095666503906,-15.770992366412214,-29.87786259541985,5.908396946564886,0.0
14.350000381469727,-8.413224633789062,-4.548983154296875,-0.6679822631835937,-10.229007633587786,101.57251908396947,-30.442748091603054,-8.647856396484375,1.2473790649414063,-6.986280444335937,-15.511450381679388,-22.80916030534351,-2.381679389312977,0.0
14.360000848770142,-11.851298217773437,-1.1444283935546875,1.7812860351562498,-12.534351145038167,101.7557251908397,-42.732824427480914,-11.614272253417967,2.2649147705078123,-5.006275671386718,-13.633587786259541,-14.900763358778626,-5.435114503816794,0.0
14.370000839233398,-9.7683427734375,-2.2266075439453124,0.7829039428710937,-10.641221374045802,95.48091603053435,-43.23664122137404,-11.631031665039062,2.3367408203125,-2.940079638671875,-9.572519083969466,-16.458015267175572,-5.038167938931298,0.0
14.380000829696655,-8.528146313476562,-4.1563340820312495,-0.5458779785156249,3.8931297709923665,99.54198473282443,-44.900763358778626,-10.984597216796875,0.7996633544921875,-0.8020575561523438,-4.99236641221374,-18.442748091603054,-1.3893129770992367,0.0
14.390000820159912,-9.373299499511718,-1.905784521484375,-0.009576806640625,18.885496183206108,104.9618320610687,-52.030534351145036,-9.859322436523437,0.6368576416015624,-0.11731588134765625,-3.3435114503816794,-21.87786259541985,-3.0229007633587788,0.0
14.40000057220459,-6.9527616210937495,-2.729389892578125,-1.9704279663085937,32.656488549618324,104.35114503816794,-50.48854961832061,-8.564059338378906,-0.39743747558593745,1.1851298217773436,-6.824427480916031,-20.30534351145038,-4.305343511450381,0.0
14.410000562667847,-7.963114721679687,-1.3479355346679687,-0.34715924072265625,47.81679389312977,114.19847328244275,-51.89312977099237,-8.540117321777343,-2.2960393920898436,2.0087351928710935,12.51908396946565,-26.27480916030534,-8.51908396946565,0.0
14.420000553131104,-11.987767712402343,3.555389465332031,2.032677209472656,39.12977099236641,113.78625954198473,-57.908396946564885,-7.903259680175781,-2.5857377929687497,1.4604630126953124,29.282442748091604,-35.083969465648856,-15.694656488549619,0.0
14.43000054359436,-12.00213292236328,2.8562825805664063,2.2098481323242187,18.061068702290076,100.1526717557252,-53.25190839694657,-9.473855969238281,-1.47482822265625,0.6727706665039062,44.87022900763359,-42.68702290076336,-21.64885496183206,0.0
14.440000534057617,-10.893617553710937,3.0310593017578125,2.549824768066406,1.0076335877862594,90.7175572519084,-48.82442748091603,-9.272743029785156,-0.09576806640624999,1.1875240234375,47.587786259541986,-48.06106870229008,-26.259541984732824,0.0
14.450000524520874,-9.636661682128906,2.5953145996093747,2.5761609863281247,-15.679389312977099,81.45038167938931,-43.31297709923664,-8.276755139160155,0.9600748657226562,1.0534487304687499,43.05343511450382,-53.16030534351145,-25.572519083969464,0.0
14.46000051498413,-9.306261853027344,1.656787548828125,2.29843359375,-23.908396946564885,75.6030534351145,-40.79389312977099,-8.999804040527343,0.02633621826171875,1.62805712890625,46.778625954198475,-56.80916030534351,-22.50381679389313,0.0
14.470000505447388,-11.192892761230468,3.749319799804687,3.1292215698242187,-26.076335877862597,73.58778625954199,-37.847328244274806,-8.877699755859375,0.5817910034179687,1.9105729248046874,50.18320610687023,-61.11450381679389,-22.35114503816794,0.0
14.480000734329224,-10.730811840820312,3.6248213134765623,3.5577836669921874,-35.587786259541986,63.11450381679389,-31.053435114503817,-8.51617530517578,1.0965443603515623,1.6472107421875,47.083969465648856,-63.541984732824424,-22.595419847328245,0.0
14.490000486373901,-10.556035119628906,1.369483349609375,3.114856359863281,-34.61068702290076,57.02290076335878,-23.61832061068702,-8.8489693359375,1.5275006591796874,1.0965443603515623,48.717557251908396,-70.99236641221374,-22.870229007633586,0.0
14.500000953674316,-15.677232470703125,5.791573815917968,6.078878015136718,-36.229007633587784,60.0763358778626,-24.045801526717558,-9.138667736816405,2.0278888061523435,1.0462661254882812,37.06870229007634,-70.79389312977099,-23.46564885496183,0.0
14.510000705718994,-9.840168823242188,0.8307879760742187,3.0262708984374997,-51.20610687022901,38.534351145038165,-14.106870229007633,-9.440337145996093,2.310404602050781,0.59376201171875,40.88549618320611,-77.31297709923665,-22.610687022900763,0.0
14.520000457763672,-11.899182250976562,2.2170307373046874,3.852270471191406,-41.11450381679389,34.213740458015266,-9.923664122137405,-9.672574707031249,2.39420166015625,0.948103857421875,30.198473282442748,-76.91603053435115,-22.076335877862597,0.0
14.530000686645508,-9.272743029785156,-0.51714755859375,2.2361843505859373,-27.450381679389313,35.23664122137404,-7.175572519083969,-9.725247143554688,1.8698714965820311,0.8547299926757812,33.32824427480916,-79.92366412213741,-20.244274809160306,0.0
14.540000915527344,-12.54561669921875,2.8131869506835936,3.4859576171874997,-34.396946564885496,25.83206106870229,-9.145038167938932,-9.641450085449218,1.8124106567382812,0.9145850341796874,26.717557251908396,-77.78625954198473,-21.00763358778626,0.0
14.550000667572021,-11.54244620361328,2.4253262817382812,3.047818713378906,-38.93129770992366,22.641221374045802,-8.595419847328245,-10.16338604736328,1.0702081420898437,0.05985504150390625,28.396946564885496,-77.78625954198473,-19.954198473282442,0.0
14.560000658035278,-8.413224633789062,-1.1540052001953125,1.2306196533203124,-26.946564885496183,18.519083969465647,-3.633587786259542,-8.71489404296875,1.8028338500976562,-0.6847416748046875,21.83206106870229,-77.3587786259542,-22.244274809160306,0.0
14.570000648498535,-12.339715356445312,2.81558115234375,3.2920272827148436,-26.763358778625953,19.96946564885496,-6.152671755725191,-10.587159741210938,0.316034619140625,0.5674257934570313,24.33587786259542,-67.98473282442748,-18.564885496183205,0.0
14.580000638961792,-13.007697619628905,2.616862414550781,3.517082238769531,-34.74809160305343,10.793893129770993,-7.129770992366412,-10.36210478515625,0.6105214233398437,0.201112939453125,33.31297709923664,-72.61068702290076,-20.198473282442748,0.0
14.590000629425049,-10.433930834960936,-0.33039982910156246,1.3072341064453123,-18.03053435114504,5.404580152671755,-0.4732824427480916,-9.287108239746093,1.70467158203125,-0.7900865478515624,28.625954198473284,-71.63358778625954,-22.977099236641223,0.0
14.600000381469727,-8.762778076171875,-1.6208745239257811,0.11731588134765625,-1.1603053435114503,10.13740458015267,0.9312977099236641,-10.122684619140625,1.0630255371093749,0.21308394775390624,30.53435114503817,-65.40458015267176,-20.244274809160306,0.0
14.610000848770142,-11.470620153808593,1.4101847778320311,1.5131354492187499,3.053435114503817,16.244274809160306,-7.3893129770992365,-10.218452685546874,1.5682020874023437,0.062249243164062495,37.603053435114504,-68.01526717557252,-20.549618320610687,0.0
14.62000060081482,-10.618284362792968,1.0726023437499999,0.8092401611328125,6.244274809160306,16.03053435114504,-10.564885496183207,-7.7763669921875,3.7804444213867185,-0.5386953735351562,24.213740458015266,-65.23664122137404,-22.900763358778626,0.0
14.630001068115234,-10.022128149414062,1.3335703247070312,0.6177040283203125,2.50381679389313,15.83206106870229,-8.763358778625955,-9.234435803222656,2.636016027832031,1.0845733520507812,17.068702290076335,-54.229007633587784,-16.30534351145038,0.0
14.640000343322754,-10.352527978515624,0.70868369140625,0.967257470703125,-1.9236641221374047,15.236641221374045,-9.083969465648854,-8.525752111816406,2.877830395507812,0.18914193115234373,10.732824427480915,-52.74809160305343,-15.725190839694656,0.0
14.65000057220459,-8.978256225585938,-0.8882488159179687,0.2920926025390625,11.526717557251908,18.091603053435115,-9.17557251908397,-9.459490759277344,2.2266075439453124,0.7158662963867187,1.099236641221374,-47.343511450381676,-13.938931297709924,0.0
14.660000324249268,-11.477802758789062,1.5370774658203123,1.6519991455078125,3.3740458015267176,18.229007633587788,-13.908396946564885,-10.105925207519531,1.1324573852539062,0.9792284790039062,5.633587786259542,-49.38931297709924,-12.442748091603054,0.0
14.670000553131104,-10.146626635742187,0.3806780639648437,0.258573779296875,8.13740458015267,12.183206106870228,-13.816793893129772,-8.645462194824217,2.3367408203125,0.8283937744140625,7.32824427480916,-53.587786259541986,-16.244274809160306,0.0
14.68000054359436,-10.43153663330078,0.9840168823242187,0.622492431640625,17.206106870229007,19.114503816793892,-15.511450381679388,-8.372523205566406,3.4739866088867184,0.5003881469726562,-2.6259541984732824,-47.89312977099237,-17.61832061068702,0.0
14.690000772476196,-11.022904443359375,1.9297265380859374,1.3431471313476562,10.961832061068701,21.61832061068702,-18.900763358778626,-9.533711010742186,1.7717092285156248,1.4963760375976562,-8.351145038167939,-40.62595419847328,-14.687022900763358,0.0
14.700000524520874,-8.559270935058594,0.8116343627929687,-0.2609679809570312,10.931297709923664,16.137404580152673,-16.717557251908396,-8.690952026367187,0.411802685546875,1.2808978881835937,-8.65648854961832,-41.48091603053435,-14.13740458015267,0.0
14.71000051498413,-10.50815108642578,0.8762778076171874,0.22505495605468748,12.748091603053435,19.603053435114504,-17.893129770992367,-8.106766821289062,1.426944189453125,-0.3806780639648437,-5.175572519083969,-46.88549618320611,-17.603053435114504,0.0
14.720000267028809,-12.330138549804687,2.6958710693359373,1.4413093994140624,2.885496183206107,22.35114503816794,-20.748091603053435,-7.42441934814453,1.659181750488281,0.316034619140625,-11.206106870229007,-35.969465648854964,-18.549618320610687,0.0
14.730000257492065,-9.962273107910155,1.5729904907226562,0.30885201416015623,-9.221374045801527,14.67175572519084,-17.14503816793893,-7.204152795410156,1.1348515869140625,0.7852981445312499,-12.229007633587786,-31.603053435114504,-17.114503816793892,0.0
14.74000072479248,-10.556035119628906,1.8052280517578123,0.9169792358398436,-19.404580152671755,12.396946564885496,-15.923664122137405,-7.455543969726562,1.1731588134765625,-0.08379705810546874,-11.618320610687023,-31.786259541984734,-16.0,0.0
14.750000238418579,-10.500968481445312,1.936909143066406,1.4173673828125,-20.0,13.694656488549619,-16.198473282442748,-8.070853796386718,-0.12449848632812499,1.9201497314453124,-20.229007633587788,-18.198473282442748,-14.83969465648855,0.0
14.760000944137573,-9.804255798339844,1.139639990234375,1.5873557006835937,-30.061068702290076,10.0,-14.488549618320612,-6.801926916503906,0.3399766357421875,0.7015010864257812,-17.297709923664122,-19.450381679389313,-15.068702290076336,0.0
14.77000093460083,-9.64623848876953,1.199495031738281,1.5777788940429687,-22.198473282442748,8.80916030534351,-13.34351145038168,-7.931990100097655,-0.718260498046875,2.01112939453125,-12.473282442748092,-16.83969465648855,-13.893129770992367,0.0
