timestamp,Thigh_L_Acc_X,Thigh_L_Acc_Y,Thigh_L_Acc_Z,Thigh_L_Gyr_X,Thigh_L_Gyr_Y,Thigh_L_Gyr_Z,Thigh_R_Acc_X,Thigh_R_Acc_Y,Thigh_R_Acc_Z,Thigh_R_Gyr_X,Thigh_R_Gyr_Y,Thigh_R_Gyr_Z,gpio_output
10.000000476837158,-2.1260510742187497,-0.47884033203125,-0.0718260498046875,-24.16793893129771,46.88549618320611,-20.091603053435115,-9.282319836425781,0.229843359375,-0.6296750366210937,48.961832061068705,59.099236641221374,5.0534351145038165,0.0
10.010001182556152,-2.269703173828125,-1.649604943847656,1.20667763671875,5.786259541984733,60.35114503816794,-17.31297709923664,-12.030863342285155,-0.9217676391601562,0.488417138671875,57.465648854961835,56.99236641221374,7.465648854961832,1.0
10.02000093460083,-4.141968872070312,0.3064578125,3.9552211425781247,38.50381679389313,77.31297709923665,-16.778625954198475,-11.844115612792969,-0.028730419921875,0.9313444458007812,51.20610687022901,52.6412213740458,4.961832061068702,1.0
10.030000925064087,-4.752490295410156,2.6623522460937497,4.242525341796875,50.83969465648855,83.22137404580153,-12.305343511450381,-11.116278308105468,-0.00718260498046875,0.9169792358398436,47.16030534351145,47.465648854961835,4.198473282442748,1.0
10.040000677108765,-6.349422802734375,4.685452648925781,5.817910034179687,56.61068702290076,88.9618320610687,-6.580152671755725,-10.134655627441406,2.104503259277344,-0.086191259765625,41.63358778625954,44.045801526717554,2.7786259541984735,1.0
10.05000114440918,-8.137891442871092,5.53539423828125,8.781931689453124,43.37404580152672,84.6412213740458,0.2748091603053435,-9.86411083984375,1.9393033447265624,1.8052280517578123,31.17557251908397,48.25954198473283,8.458015267175572,1.0
10.060000658035278,-9.976638317871092,4.163516687011718,12.586318127441405,19.17557251908397,76.2442748091603,3.267175572519084,-8.84178673095703,2.3415292236328122,-0.30406361083984373,32.42748091603053,45.343511450381676,6.6106870229007635,1.0
10.070000886917114,-10.970232006835937,3.296815686035156,12.708422412109375,-7.00763358778626,54.0763358778626,0.44274809160305345,-9.205705383300781,1.4604630126953124,-0.6368576416015624,12.534351145038167,45.770992366412216,7.0534351145038165,1.0
10.080000400543213,-12.275071911621094,2.999934680175781,14.803348864746093,-11.358778625954198,42.62595419847328,-2.5343511450381677,-10.70686982421875,2.6240450195312497,-0.7517793212890624,-1.9083969465648856,49.770992366412216,6.67175572519084,1.0
10.090000629425049,-14.49928525390625,5.530605834960937,15.2845833984375,-23.801526717557252,20.198473282442748,-4.091603053435114,-10.824185705566405,0.8379705810546875,-0.4165910888671875,-23.358778625954198,51.51145038167939,9.725190839694656,1.0
10.100000858306885,-11.597512841796874,2.7341782958984373,13.541604589843748,-8.229007633587786,11.267175572519085,5.4961832061068705,-10.635043774414061,0.181959326171875,-0.16519991455078123,-41.69465648854962,47.05343511450382,12.366412213740459,1.0
10.110000848770142,-10.022128149414062,0.82360537109375,10.934318981933593,10.030534351145038,-1.7099236641221374,9.618320610687023,-12.061987963867187,-4.2521021484374995,2.094926452636719,-30.763358778625953,43.14503816793893,16.366412213740457,1.0
10.12000060081482,-11.875240234375,4.077325427246094,12.105083593749999,43.45038167938932,-2.687022900763359,19.129770992366414,-10.639832177734375,-1.6136919189453125,-0.24899697265624998,-27.61832061068702,28.53435114503817,10.793893129770993,1.0
10.130000591278076,-8.068459594726562,4.9823336547851556,7.582436657714843,92.27480916030534,-1.0076335877862594,44.656488549618324,-11.765106958007811,-2.0781670410156248,0.6440402465820312,-39.55725190839695,25.114503816793892,8.732824427480915,1.0
10.140000581741333,-4.541800549316406,4.218583325195312,-0.3758896606445312,56.87022900763359,11.221374045801527,45.954198473282446,-11.482591162109374,-1.1324573852539062,-0.28012159423828126,-36.68702290076336,14.717557251908397,3.3893129770992365,1.0
10.150000810623169,-2.5641899780273434,-2.9089550170898435,-4.489128112792969,17.404580152671755,24.549618320610687,37.70992366412214,-12.571952917480468,1.4149731811523436,-0.4070142822265625,-49.786259541984734,8.534351145038167,2.885496183206107,1.0
10.160001277923584,-10.500968481445312,-4.278438366699218,5.193023400878906,11.099236641221374,36.42748091603053,27.893129770992367,-14.049175341796873,-0.316034619140625,0.8643067993164062,-51.786259541984734,2.7786259541984735,7.587786259541985,1.0
10.170000791549683,-16.934188342285154,-4.290409374999999,14.410699792480468,55.847328244274806,43.83206106870229,37.541984732824424,-14.104241979980468,-1.0486603271484374,1.254561669921875,-56.656488549618324,-11.068702290076336,7.450381679389313,1.0
10.18000078201294,-19.914969409179687,-1.1851298217773436,13.17050333251953,75.12977099236642,34.82442748091603,31.297709923664122,-13.000515014648437,0.6392518432617187,1.3431471313476562,-64.47328244274809,-26.16793893129771,5.908396946564886,1.0
10.190000534057617,-19.110517651367186,0.38786066894531246,4.613626599121093,29.51145038167939,6.549618320610687,6.916030534351145,-10.89840595703125,2.4875755249023435,0.612915625,-77.77099236641222,-33.98473282442748,6.687022900763359,1.0
10.200001001358032,-17.83680236816406,-0.8116343627929687,0.9696516723632812,-9.038167938931299,1.3587786259541985,-6.412213740458015,-9.892841259765625,2.4349030883789062,-0.5913678100585937,-94.29007633587786,-35.25190839694657,9.48091603053435,1.0
10.21000051498413,-8.350975390624999,-4.905719201660156,-7.81467421875,-11.709923664122137,2.595419847328244,-7.526717557251908,-11.84890401611328,-2.6216508178710938,-2.288856787109375,-81.37404580152672,-39.37404580152672,12.366412213740459,0.0
10.220000982284546,-6.9168485961914055,-1.1923124267578125,-7.783549597167968,17.00763358778626,24.83969465648855,-11.114503816793894,-13.290213415527344,-5.8083332275390624,-5.437231970214843,-46.29007633587786,-50.778625954198475,8.992366412213741,0.0
10.230000495910645,-4.668693237304687,0.16998831787109375,-8.75320126953125,27.34351145038168,40.091603053435115,-6.534351145038168,-12.097900988769531,-0.5889736083984375,-9.018957653808593,-16.442748091603054,-57.23664122137404,2.2442748091603053,0.0
10.24000072479248,-6.45476767578125,2.185906115722656,-4.163516687011718,28.564885496183205,61.587786259541986,-4.8396946564885495,-12.466608044433594,-1.465251416015625,-10.079588989257813,18.9618320610687,-57.80152671755725,4.99236641221374,0.0
10.250000476837158,-8.834604125976561,3.670311145019531,-3.421314172363281,11.86259541984733,66.41221374045801,-7.1603053435114505,-11.066000073242186,2.418143676757812,-11.575965026855467,20.610687022900763,-45.49618320610687,4.33587786259542,0.0
10.260000944137573,-10.824185705566405,3.6104561035156246,-2.578555187988281,-12.961832061068701,68.4885496183206,-6.900763358778626,-10.330980163574218,3.864241479492187,-10.75714805908203,12.778625954198473,-27.328244274809162,8.320610687022901,0.0
10.270001411437988,-12.586318127441405,2.2074539306640624,-2.3511060302734372,-30.16793893129771,69.7557251908397,-9.98473282442748,-9.320627062988281,1.6065093139648436,-10.096348400878906,5.740458015267175,-10.51908396946565,12.610687022900763,0.0
10.280000925064087,-11.477802758789062,-0.3495534423828125,-2.1906945190429687,-32.51908396946565,69.66412213740458,-13.312977099236642,-9.488221179199218,1.254561669921875,-10.220846887207031,0.33587786259541985,2.030534351145038,9.603053435114504,0.0
10.290001153945923,-12.72997022705078,0.4572925170898437,-0.49799394531249996,-32.62595419847328,69.78625954198473,-17.14503816793893,-12.682086193847656,-3.670311145019531,-5.827486840820312,17.068702290076335,8.274809160305344,7.358778625954199,0.0
10.300000667572021,-9.789890588378906,-0.18914193115234373,-1.3838485595703125,-25.0381679389313,67.98473282442748,-17.6793893129771,-10.678139404296875,-0.1867477294921875,-3.9145197143554684,31.450381679389313,-1.4198473282442747,0.9312977099236641,0.0
10.310000896453857,-11.133037719726563,3.5027170288085934,1.4987702392578124,-26.931297709923665,70.90076335877863,-20.244274809160306,-10.685322009277343,0.6655880615234374,-0.8858546142578124,36.06106870229008,-3.3435114503816794,-0.48854961832061067,0.0
10.320000886917114,-8.441955053710936,1.1659762084960936,-0.0909796630859375,-44.61068702290076,64.85496183206106,-19.46564885496183,-10.139444030761718,1.0606313354492187,0.2537853759765625,38.0763358778626,-16.03053435114504,-4.900763358778626,0.0
10.330000638961792,-7.800309008789062,-0.16998831787109375,0.18435352783203124,-39.61832061068702,64.87022900763358,-18.717557251908396,-8.992621435546875,4.821922143554687,-0.047884033203124995,21.84732824427481,-25.541984732824428,-9.86259541984733,0.0
10.340000867843628,-8.949525805664061,0.7015010864257812,1.0438719238281249,-49.541984732824424,66.8854961832061,-21.633587786259543,-8.597578161621094,4.7572786987304685,1.1013327636718748,-4.3816793893129775,-29.6793893129771,-8.534351145038167,0.0
10.350000619888306,-8.604760766601562,-0.8810662109374999,1.0606313354492187,-45.6793893129771,68.53435114503817,-20.3206106870229,-9.212887988281249,2.1021090576171875,2.7581203125,-13.312977099236642,-39.89312977099237,-7.969465648854962,0.0
10.360000610351562,-8.291120349121094,-2.2026655273437497,2.1404162841796874,-19.984732824427482,74.73282442748092,-19.801526717557252,-9.165003955078124,0.9361328491210937,3.3686417358398435,-12.091603053435115,-53.43511450381679,-11.587786259541986,0.0
10.370000839233398,-9.02135185546875,0.33039982910156246,2.583343591308594,-11.358778625954198,76.93129770992367,-22.595419847328245,-7.184999182128906,2.940079638671875,1.2785036865234374,-25.69465648854962,-61.083969465648856,-16.763358778625953,0.0
10.380000591278076,-9.897629663085937,2.195482922363281,3.019088293457031,-19.16030534351145,76.53435114503817,-22.82442748091603,-9.054870678710937,0.46208092041015625,1.6065093139648436,-35.55725190839695,-61.55725190839695,-12.793893129770993,0.0
10.390000343322754,-11.621454858398437,4.1946413085937495,5.111620544433594,-37.29770992366412,71.89312977099236,-24.259541984732824,-9.258377819824219,-0.1484405029296875,1.0007762939453124,-34.274809160305345,-69.93893129770993,-15.877862595419847,0.0
10.400000810623169,-9.641450085449218,2.5761609863281247,2.597708801269531,-54.10687022900763,60.213740458015266,-19.6793893129771,-8.116343627929687,0.13407529296874998,-0.33518823242187495,-45.14503816793893,-71.72519083969466,-18.580152671755727,0.0
10.410000562667847,-9.162609753417968,1.7884686401367187,3.3351229125976563,-60.88549618320611,54.152671755725194,-14.67175572519084,-10.194510668945313,-2.2577321655273437,0.6631938598632812,-32.656488549618324,-75.34351145038168,-16.18320610687023,0.0
10.420001029968262,-8.875305554199219,-0.6248866333007812,2.4061726684570313,-55.31297709923664,48.35114503816794,-11.648854961832061,-8.78432589111328,-0.5961562133789062,-0.9935936889648437,-24.091603053435115,-83.32824427480917,-21.49618320610687,0.0
10.43000078201294,-8.90643017578125,-1.1156979736328125,2.952050646972656,-35.587786259541986,51.3587786259542,-9.34351145038168,-9.636661682128906,-1.6352397338867186,-0.34237083740234375,-10.717557251908397,-81.52671755725191,-21.053435114503817,0.0
10.440001010894775,-11.33175645751953,1.4508862060546874,4.074931225585937,-30.595419847328245,50.25954198473283,-13.053435114503817,-8.365340600585936,-0.59376201171875,-1.5873557006835937,3.648854961832061,-85.8473282442748,-21.83206106870229,0.0
10.450000762939453,-9.658209497070311,1.189918225097656,1.8459294799804686,-41.20610687022901,38.2442748091603,-11.099236641221374,-9.009380847167968,-0.9600748657226562,-1.1563994018554686,15.48091603053435,-84.27480916030534,-19.801526717557252,0.0
10.460000276565552,-8.238447912597655,-1.944091748046875,1.024718310546875,-28.48854961832061,39.725190839694655,-7.3893129770992365,-8.204929089355469,0.277727392578125,-2.906560815429687,21.14503816793893,-86.41221374045801,-22.12213740458015,0.0
10.470000505447388,-10.01733974609375,1.1180921752929687,1.886630908203125,-14.50381679389313,43.725190839694655,-10.259541984732824,-8.963891015625,-1.1731588134765625,-2.0350714111328125,17.801526717557252,-75.77099236641222,-18.82442748091603,0.0
10.480000495910645,-10.587159741210938,0.6727706665039062,0.8403647827148437,-23.984732824427482,38.88549618320611,-12.931297709923664,-9.835380419921874,-1.448492004394531,-1.9847931762695312,34.68702290076336,-80.73282442748092,-21.34351145038168,0.0
10.490000486373901,-11.326968054199218,1.886630908203125,1.01514150390625,-9.099236641221374,43.969465648854964,-10.732824427480915,-8.686163623046875,0.24660277099609373,-1.3479355346679687,35.19083969465649,-75.43511450381679,-23.740458015267176,0.0
10.500000476837158,-10.658985791015624,2.2266075439453124,0.8595183959960937,-19.34351145038168,39.57251908396947,-11.038167938931299,-11.870451831054687,-1.2928688964843749,-0.679953271484375,48.87022900763359,-75.74045801526718,-21.0381679389313,0.0
10.510001182556152,-8.8489693359375,-0.076614453125,-0.5051765502929687,-5.267175572519084,41.00763358778626,-9.17557251908397,-11.252747802734374,-0.718260498046875,-1.37906015625,61.51145038167939,-80.99236641221374,-26.610687022900763,0.0
10.52000093460083,-11.741164941406248,2.0302830078125,1.7741034301757812,-6.366412213740458,46.50381679389313,-13.374045801526718,-10.836156713867187,-0.02154781494140625,-0.9313444458007812,66.61068702290076,-78.3206106870229,-25.938931297709924,0.0
10.530001401901245,-10.194510668945313,0.9313444458007812,0.2346317626953125,-7.038167938931298,41.343511450381676,-11.786259541984732,-11.863269226074218,0.3495534423828125,-1.0678139404296874,75.05343511450381,-85.45038167938931,-23.206106870229007,0.0
10.540000677108765,-9.60793126220703,0.8068459594726562,0.36152445068359373,6.198473282442748,43.847328244274806,-11.129770992366412,-9.809044201660155,2.5163059448242184,-1.5418658691406248,69.19083969465649,-81.37404580152672,-24.076335877862597,0.0
10.5500009059906,-10.137049829101562,0.8858546142578124,0.4165910888671875,5.145038167938932,43.74045801526717,-11.877862595419847,-11.228805786132812,2.1906945190429687,-0.9217676391601562,70.58015267175573,-80.35114503816794,-18.778625954198475,0.0
10.560000896453857,-10.189722265624999,1.2713210815429687,0.13646949462890623,10.625954198473282,44.213740458015266,-12.900763358778626,-7.841010437011718,3.725377783203125,-1.9105729248046874,60.030534351145036,-76.3969465648855,-20.03053435114504,0.0
10.570001125335693,-9.878476049804688,1.5275006591796874,-0.24899697265624998,0.6870229007633588,43.11450381679389,-12.366412213740459,-10.273519323730468,1.8746598999023436,-0.603338818359375,54.152671755725194,-70.91603053435115,-12.992366412213741,0.0
10.580000877380371,-9.926360083007811,0.28969840087890625,-0.6607996582031249,2.763358778625954,45.57251908396947,-12.51908396946565,-8.303091357421874,2.858676782226562,-2.233790148925781,47.31297709923664,-70.74809160305344,-13.801526717557252,0.0
10.590001106262207,-9.315838659667968,0.6847416748046875,-0.9050082275390624,3.7557251908396947,46.916030534351144,-12.687022900763358,-8.796296899414061,2.961627453613281,-1.1731588134765625,32.99236641221374,-60.88549618320611,-9.923664122137405,0.0
10.600000619888306,-8.858546142578124,0.3687070556640625,-1.2234370483398436,-6.763358778625954,48.01526717557252,-14.305343511450381,-10.635043774414061,1.1061211669921875,-0.0526724365234375,30.16793893129771,-61.55725190839695,-6.473282442748092,0.0
10.61000108718872,-9.399635717773437,0.44532150878906246,-0.45010991210937495,-3.877862595419847,50.82442748091603,-15.603053435114504,-9.196128576660156,1.66636435546875,-1.1276689819335937,28.38167938931298,-62.51908396946565,-10.427480916030534,0.0
10.62000036239624,-9.787496386718749,0.41898529052734373,0.086191259765625,-1.83206106870229,52.83969465648855,-17.00763358778626,-9.203311181640624,2.480392919921875,0.22026655273437498,13.419847328244275,-56.595419847328245,-6.351145038167939,0.0
10.630000352859497,-9.327809667968749,0.9121908325195311,0.040701428222656245,-7.282442748091603,53.43511450381679,-17.297709923664122,-10.443507641601562,1.4341267944335936,0.40940848388671874,11.801526717557252,-58.595419847328245,-0.6870229007633588,0.0
10.64000129699707,-9.447519750976562,0.1580173095703125,0.34237083740234375,1.633587786259542,56.3206106870229,-16.900763358778626,-7.884106066894531,2.940079638671875,-0.2561795776367187,7.465648854961832,-57.48091603053435,-3.7251908396946565,0.0
10.65000057220459,-10.869675537109375,2.530671154785156,1.1707646118164061,-1.6030534351145038,55.80152671755725,-18.671755725190838,-7.9104422851562495,2.980781066894531,0.45010991210937495,-9.053435114503817,-46.93129770992366,0.3511450381679389,0.0
10.660000801086426,-10.263942517089843,2.013523596191406,0.5961562133789062,-20.85496183206107,51.45038167938932,-17.51145038167939,-8.717288244628906,1.1635820068359375,0.6200982299804687,-17.114503816793892,-48.70229007633588,3.8473282442748094,0.0
10.670000553131104,-9.356540087890625,0.7206546997070312,0.6919242797851562,-16.458015267175572,51.83206106870229,-15.236641221374045,-7.580042456054687,1.4149731811523436,0.51714755859375,-19.0381679389313,-48.045801526717554,0.3511450381679389,0.0
10.68000078201294,-9.935936889648437,0.9457096557617187,1.3407529296874998,-15.648854961832061,50.74809160305343,-16.564885496183205,-7.4411787597656245,1.8842367065429686,1.4149731811523436,-28.03053435114504,-38.68702290076336,1.0687022900763359,0.0
10.690000534057617,-9.950302099609374,2.224213342285156,1.4820108276367188,-21.740458015267176,49.69465648854962,-16.580152671755727,-8.410830432128906,-0.11731588134765625,0.8403647827148437,-35.770992366412216,-34.87022900763359,4.5038167938931295,0.0
10.700001239776611,-10.01733974609375,2.6958710693359373,1.905784521484375,-28.625954198473284,47.465648854961835,-15.267175572519085,-7.331045483398437,-1.458068811035156,0.7422025146484375,-38.045801526717554,-32.80916030534351,2.2748091603053435,0.0
10.71000051498413,-9.481038574218749,0.737414111328125,1.879448303222656,-24.442748091603054,45.05343511450382,-11.938931297709924,-8.968679418945312,-1.7645266235351562,0.5482721801757812,-18.80916030534351,-30.625954198473284,0.7175572519083969,0.0
10.720000743865967,-9.775525378417969,-0.3854664672851562,2.1164742675781247,-6.656488549618321,45.20610687022901,-11.312977099236642,-9.169792358398437,-2.7724855224609373,-0.023942016601562498,-8.65648854961832,-28.259541984732824,-0.8244274809160306,0.0
10.730000972747803,-10.517727893066406,1.1109095703125,2.9281086303710935,-2.549618320610687,42.33587786259542,-13.206106870229007,-7.390900524902343,-0.51714755859375,-1.1276689819335937,1.099236641221374,-26.03053435114504,-4.351145038167939,0.0
10.740000486373901,-10.845733520507812,2.8107927490234372,3.009511486816406,-7.00763358778626,35.16030534351145,-12.351145038167939,-6.998251452636718,0.6655880615234374,-0.24899697265624998,-8.717557251908397,-12.274809160305344,-1.8015267175572518,0.0
10.750000476837158,-10.565611926269531,2.8107927490234372,3.9647979492187497,-18.0,26.53435114503817,-7.862595419847328,-8.027758166503906,-0.7230489013671875,-0.00239420166015625,-4.900763358778626,-10.091603053435115,1.0229007633587786,0.0
10.760000705718994,-11.966219897460936,0.5793968017578125,5.0014872680664055,-7.587786259541985,18.900763358778626,-5.847328244274809,-7.8553756469726554,-1.9201497314453124,0.16759411621093748,6.2748091603053435,-3.801526717557252,-2.122137404580153,0.0
10.77000093460083,-12.579135522460938,1.1563994018554686,5.798756420898437,-0.24427480916030533,7.1603053435114505,-5.648854961832061,-7.1395093505859375,-1.5490484741210937,0.12210428466796874,13.297709923664122,-2.1374045801526718,-4.824427480916031,0.0
10.780000686645508,-12.67250938720703,1.369483349609375,6.234501123046875,12.061068702290076,-4.091603053435114,-4.595419847328245,-8.415618835449218,-1.905784521484375,0.062249243164062495,24.48854961832061,3.1755725190839694,-4.1679389312977095,0.0
10.790001392364502,-11.475408557128906,0.354341845703125,5.813121630859374,24.748091603053435,-15.908396946564885,-0.13740458015267176,-7.40526573486328,-1.0749965454101562,-0.5770026000976562,28.50381679389313,5.984732824427481,-8.274809160305344,0.0
10.800000667572021,-11.089942089843749,0.37828386230468747,6.172251879882812,45.969465648854964,-22.778625954198475,2.4732824427480917,-7.376535314941406,-0.4381389038085937,-0.08379705810546874,26.045801526717558,14.793893129770993,-8.244274809160306,0.0
10.810001611709595,-12.167332836914062,2.96881005859375,7.48906279296875,43.69465648854962,-31.801526717557252,0.9007633587786259,-7.0078282592773435,0.699106884765625,-0.12210428466796874,21.984732824427482,18.671755725190838,-7.984732824427481,0.0
10.820001125335693,-14.030021728515624,5.5641246582031245,8.702923034667968,18.778625954198475,-53.81679389312977,3.145038167938931,-7.352593298339843,1.5753846923828123,-0.11013327636718749,16.213740458015266,30.80916030534351,-8.16793893129771,0.0
10.83000111579895,-14.935029956054686,6.030993981933594,10.304643945312499,8.534351145038167,-75.19083969465649,14.229007633587786,-6.234501123046875,2.607285607910156,-1.7980454467773437,-8.442748091603054,40.18320610687023,-8.106870229007633,0.0
10.840000629425049,-14.915876342773437,3.469198205566406,11.549628808593749,5.312977099236641,-97.52671755725191,25.984732824427482,-7.996633544921875,0.4740519287109375,-0.7852981445312499,-14.488549618320612,53.17557251908397,-2.6412213740458017,0.0
10.850000619888306,-14.918270544433593,1.6903063720703124,12.799402075195312,13.893129770992367,-115.77099236641222,29.770992366412212,-7.594407666015624,-0.43574470214843747,-2.070984436035156,-8.961832061068701,52.152671755725194,-4.778625954198473,0.0
10.8600013256073,-15.435418103027343,0.02154781494140625,12.014103930664062,12.687022900763358,-140.6259541984733,28.519083969465647,-8.360552197265624,-2.7174188842773437,-0.9576806640625,-1.1297709923664123,59.11450381679389,-6.595419847328245,0.0
10.87000060081482,-16.850391284179686,-0.5817910034179687,13.4458365234375,6.885496183206107,-165.2824427480916,24.091603053435115,-7.568071447753906,-3.1124621582031247,-1.7262193969726563,12.076335877862595,52.79389312977099,-10.122137404580153,0.0
10.880000591278076,-17.44894169921875,-2.5617957763671875,14.918270544433593,7.557251908396947,-197.87786259541986,19.755725190839694,-7.050923889160156,-2.085349645996094,-1.8124106567382812,22.931297709923665,57.603053435114504,-11.86259541984733,0.0
10.890000581741333,-17.19276212158203,-4.235342736816406,15.519215161132811,22.80916030534351,-225.54198473282443,16.458015267175572,-9.100360510253905,0.4477157104492187,-0.51714755859375,37.43511450381679,54.229007633587784,-14.335877862595419,0.0
10.900001287460327,-15.715539697265624,-5.2648494506835934,13.089100476074218,64.91603053435115,-246.8854961832061,19.587786259541986,-9.222464794921875,5.559336254882812,1.944091748046875,30.68702290076336,54.0763358778626,-17.389312977099237,0.0
10.910000801086426,-13.02445703125,-3.383006945800781,5.973533142089844,96.87022900763358,-258.35114503816794,24.366412213740457,-12.184092248535155,8.777143286132812,5.6191912963867185,20.83969465648855,49.29770992366412,-9.755725190839694,0.0
10.920001029968262,-10.594342346191405,-1.1851298217773436,-3.0262708984374997,84.12213740458016,-264.25954198473283,24.946564885496183,-14.118607189941406,9.26316622314453,5.753266589355468,3.2213740458015265,38.82442748091603,0.916030534351145,0.0
10.93000054359436,-9.26316622314453,-0.07422025146484375,-6.89530078125,63.89312977099237,-258.85496183206106,20.50381679389313,-10.75714805908203,9.773131176757811,1.7836802368164062,-44.50381679389313,37.41984732824427,0.1984732824427481,0.0
10.940000772476196,-7.975085729980468,1.1827356201171875,-9.852139831542969,51.69465648854962,-243.75572519083968,24.610687022900763,-13.713987109375,2.446874096679687,2.4301146850585935,-90.13740458015268,51.45038167938932,7.694656488549619,0.0
10.950000524520874,-10.067617980957031,-0.28490999755859375,-9.088389501953124,48.458015267175576,-227.1908396946565,24.732824427480917,-14.034810131835936,-2.9185318237304685,2.205059729003906,-112.10687022900764,46.79389312977099,11.618320610687023,0.0
10.96000075340271,-12.208034265136718,-0.8164227661132812,-7.678204724121093,70.77862595419847,-208.04580152671755,22.610687022900763,-12.344503759765624,-3.1172505615234374,3.6056677001953124,-118.80916030534351,52.19847328244275,12.229007633587786,0.0
10.970000505447388,-15.739481713867187,0.13646949462890623,-5.386953735351562,76.03053435114504,-188.68702290076337,18.48854961832061,-5.7843912109375,-2.2577321655273437,-3.2537200561523436,-92.42748091603053,45.23664122137404,12.091603053435115,0.0
10.980000734329224,-16.263811877441405,2.5258827514648434,-3.268085266113281,72.85496183206106,-159.54198473282443,22.458015267175572,-10.065223779296874,-8.228871105957031,-2.0781670410156248,-86.35114503816794,59.16030534351145,12.259541984732824,0.0
10.990000486373901,-14.037204333496092,2.0542250244140625,-3.0454245117187497,63.51145038167939,-139.9083969465649,27.17557251908397,-9.718064538574218,-10.022128149414062,-0.8690952026367187,-55.038167938931295,62.19847328244275,11.664122137404581,0.0
11.000000476837158,-10.304643945312499,1.5777788940429687,-4.027047192382812,46.18320610687023,-123.6030534351145,28.458015267175572,-8.054094384765625,-8.528146313476562,-2.9759926635742184,-13.98473282442748,64.97709923664122,7.465648854961832,0.0
11.010000705718994,-7.829039428710937,0.28490999755859375,-4.015076184082031,22.229007633587788,-103.6030534351145,25.954198473282442,-9.991003527832031,-5.760449194335937,-2.7916391357421872,31.87786259541985,61.87786259541985,6.977099236641221,0.0
11.02000093460083,-5.449202978515625,-1.8267758666992187,-4.529829541015625,12.305343511450381,-84.36641221374046,22.83969465648855,-11.061211669921875,-2.559401574707031,-3.0597897216796874,54.35114503816794,68.83969465648855,8.916030534351146,0.0
11.030000925064087,-5.193023400878906,-2.6958710693359373,-4.000710974121094,5.893129770992366,-65.02290076335878,17.572519083969464,-9.773131176757811,0.6919242797851562,-4.206612316894531,69.55725190839695,66.56488549618321,6.473282442748092,0.0
11.040000677108765,-5.080495922851562,-1.4532804077148436,-4.110844250488281,-1.8015267175572518,-49.404580152671755,11.557251908396946,-9.97184991455078,1.426944189453125,-4.2305543334960936,64.29007633587786,73.6030534351145,9.053435114503817,0.0
11.05000114440918,-3.727771984863281,-1.7573440185546874,-5.066130712890625,-12.641221374045802,-33.87786259541985,7.480916030534351,-9.121908325195312,3.3159692993164063,-4.809951135253906,59.343511450381676,77.00763358778626,9.83206106870229,0.0
11.060000896453857,-3.5506010620117183,-1.254561669921875,-5.456385583496093,-15.618320610687023,-15.679389312977099,1.9389312977099236,-9.215282189941405,2.1978771240234374,-3.687070556640625,51.32824427480916,81.89312977099236,12.854961832061068,0.0
11.070000886917114,-3.172317199707031,-0.38307226562499996,-6.5601125488281244,-30.68702290076336,-3.572519083969466,-0.549618320610687,-8.643067993164061,2.4564509033203126,-3.42849677734375,49.81679389312977,86.06106870229007,14.290076335877863,0.0
11.080000400543213,-1.43652099609375,-2.068590234375,-6.830657336425781,-33.099236641221374,18.85496183206107,-0.10687022900763359,-8.40843623046875,2.6384102294921874,-2.2864625854492187,38.01526717557252,88.01526717557252,16.9618320610687,0.0
11.090000867843628,-0.12210428466796874,-3.366247534179687,-6.1459156616210935,-36.87022900763359,37.603053435114504,-3.8931297709923665,-10.412383020019531,-0.5482721801757812,-1.254561669921875,42.717557251908396,87.95419847328245,19.114503816793892,0.0
11.100000858306885,-1.9584569580078124,-3.5625720703124997,-2.1164742675781247,-29.84732824427481,63.61832061068702,-14.335877862595419,-8.710105639648438,1.8938135131835936,-1.1947066284179686,44.48854961832061,81.1145038167939,13.786259541984732,0.0
11.110000610351562,-2.4756045166015626,-2.061407629394531,2.1835119140624997,-18.595419847328245,75.52671755725191,-21.00763358778626,-9.030928662109375,2.8467057739257813,-0.28012159423828126,22.47328244274809,82.3206106870229,14.473282442748092,0.0
11.120000839233398,-4.6639048339843745,0.8858546142578124,7.410054138183593,-2.6259541984732824,83.58778625954199,-23.31297709923664,-9.516951599121093,0.09576806640624999,-0.5195417602539062,19.96946564885496,82.90076335877863,15.32824427480916,0.0
11.130000591278076,-4.5585599609375,2.1404162841796874,7.577648254394531,33.267175572519086,85.86259541984732,-16.442748091603054,-11.82975040283203,-3.1004911499023438,1.0295067138671874,36.732824427480914,76.82442748091603,18.366412213740457,0.0
11.140000581741333,-6.907271789550781,4.970362646484375,7.285555651855469,58.25954198473283,89.19083969465649,-8.580152671755725,-10.812214697265624,-3.986345764160156,-1.0749965454101562,57.587786259541986,62.87022900763359,11.053435114503817,0.0
11.15000057220459,-6.900089184570312,5.250484240722656,7.321468676757812,69.66412213740458,87.23664122137404,3.83206106870229,-10.97502041015625,-2.6144682128906247,0.055066638183593745,59.81679389312977,58.47328244274809,8.702290076335878,0.0
11.160000801086426,-8.911218579101561,6.205770703124999,10.819397302246093,63.099236641221374,83.6793893129771,8.396946564885496,-10.050858569335936,0.47644613037109373,0.4381389038085937,58.29007633587786,55.87786259541985,5.022900763358779,0.0
11.170000791549683,-12.246341491699217,8.904035974121093,13.388375683593749,20.3206106870229,59.05343511450382,7.435114503816794,-9.835380419921874,0.8188169677734375,1.0558429321289062,41.969465648854964,61.12977099236641,5.145038167938932,0.0
11.180001020431519,-11.314997045898437,4.486733911132812,13.747505932617187,-7.358778625954199,41.099236641221374,12.229007633587786,-9.797073193359374,2.47081611328125,1.3575123413085937,24.885496183206108,63.00763358778626,5.206106870229007,0.0
11.190000772476196,-13.855245007324218,6.299144567871093,14.793772058105468,-46.458015267175576,12.15267175572519,3.8931297709923665,-10.333374365234375,3.8379052612304685,1.944091748046875,11.358778625954198,62.50381679389313,4.641221374045801,0.0
11.200001001358032,-11.473014355468749,3.0741549316406247,12.818555688476561,-50.458015267175576,-5.587786259541985,11.145038167938932,-9.9981861328125,3.883395092773437,-0.36391865234375,-14.51908396946565,62.29007633587786,4.473282442748092,0.0
11.21000075340271,-11.089942089843749,4.407725256347656,12.528857287597656,-24.82442748091603,-16.427480916030536,17.389312977099237,-11.33175645751953,2.070984436035156,0.8547299926757812,-41.69465648854962,63.17557251908397,11.511450381679388,0.0
11.220000743865967,-10.254365710449218,4.994304663085937,11.190498559570312,-0.22900763358778625,-18.396946564885496,26.977099236641223,-11.192892761230468,-2.2266075439453124,0.5195417602539062,-46.412213740458014,54.396946564885496,13.389312977099237,0.0
11.230000495910645,-7.3478048950195305,3.9145197143554684,5.446808776855469,23.51145038167939,-10.259541984732824,41.770992366412216,-11.860875024414062,-3.047818713378906,0.679953271484375,-44.58015267175573,44.54961832061068,12.610687022900763,0.0
11.240000486373901,-5.559336254882812,2.375048046875,0.12689268798828124,5.969465648854962,1.251908396946565,42.38167938931298,-11.506533178710937,-0.699106884765625,-0.718260498046875,-42.58015267175573,33.282442748091604,8.13740458015267,0.0
11.250001192092896,-8.667010009765624,-2.2744915771484373,1.4939818359375,-17.00763358778626,5.679389312977099,35.20610687022901,-14.046781140136718,-1.1851298217773436,-1.0558429321289062,-48.48854961832061,31.404580152671755,9.618320610687023,0.0
11.260000944137573,-15.777788940429687,-2.442085693359375,9.739612353515625,4.015267175572519,19.00763358778626,34.44274809160305,-14.525621472167968,-2.511517541503906,-0.4261678955078125,-45.63358778625954,23.541984732824428,11.419847328244275,0.0
11.270000457763672,-17.688361865234373,-4.580107775878906,10.20887587890625,18.702290076335878,6.213740458015267,36.656488549618324,-15.37316885986328,-2.422932080078125,-1.2737152832031249,-37.9236641221374,14.641221374045802,10.427480916030534,0.0
11.280000686645508,-16.397887170410154,-3.2537200561523436,6.392518432617187,37.89312977099237,5.374045801526718,23.81679389312977,-14.290989709472655,0.3950432739257812,-1.35990654296875,-38.48854961832061,7.969465648854962,10.396946564885496,0.0
11.290000915527344,-12.059593762207031,-2.128445275878906,-0.5267243652343749,33.25190839694657,0.16793893129770993,12.885496183206106,-11.937489477539062,3.6463691284179687,-1.177947216796875,-45.12977099236641,6.015267175572519,12.549618320610687,0.0
11.30000114440918,-8.125920434570313,-1.5705962890624998,-4.395754248046875,30.229007633587788,17.984732824427482,3.2061068702290076,-11.240776794433593,4.534617944335937,-0.8882488159179687,-60.51908396946565,5.175572519083969,17.450381679389313,0.0
11.310001134872437,-2.1164742675781247,-4.647145422363281,-9.495403784179686,28.717557251908396,28.50381679389313,1.0534351145038168,-11.834538806152343,4.101267443847656,-1.0630255371093749,-71.80152671755725,1.9541984732824427,22.641221374045802,0.0
11.320000410079956,-3.9719805541992184,-2.616862414550781,-6.038176586914062,36.29007633587786,56.85496183206107,-8.106870229007633,-12.035651745605469,4.1563340820312495,-2.291250988769531,-86.76335877862596,-3.145038167938931,25.34351145038168,0.0
11.330000638961792,-4.201823913574218,-2.920926025390625,-6.830657336425781,39.06870229007634,74.85496183206106,-9.48091603053435,-12.679691992187498,1.5849614990234373,-2.5809493896484375,-88.38167938931298,-5.206106870229007,28.3206106870229,0.0
11.340000867843628,-9.540893615722656,-0.6823474731445313,-3.7995980346679685,54.51908396946565,99.17557251908397,-16.091603053435115,-12.758700646972656,-1.7238251953125,-2.6958710693359373,-80.67175572519083,-12.946564885496183,28.412213740458014,0.0
11.350000619888306,-11.628637463378906,2.039859814453125,-2.6599580444335937,50.80916030534351,102.01526717557252,-21.66412213740458,-12.181698046874999,-3.9264907226562498,-2.549824768066406,-65.16030534351145,-18.83969465648855,26.3206106870229,0.0
11.360000610351562,-14.334085339355468,2.7198130859375,-0.5410895751953124,31.19083969465649,106.06106870229007,-25.64885496183206,-12.69884560546875,-5.135562561035156,-4.627991809082031,-44.25954198473283,-28.47328244274809,23.068702290076335,0.0
11.37000036239624,-14.209586853027343,1.4867992309570313,-0.6057330200195312,1.6946564885496183,96.76335877862596,-29.14503816793893,-10.728417639160156,-4.762067102050781,-2.626439221191406,-18.80916030534351,-29.69465648854962,16.15267175572519,0.0
11.380001306533813,-13.64934366455078,0.8834604125976562,1.1061211669921875,-18.18320610687023,89.5114503816794,-31.862595419847327,-10.529698901367187,-5.887341882324218,-4.759672900390624,7.633587786259542,-34.85496183206107,9.679389312977099,0.0
11.390000581741333,-12.667720983886719,1.01514150390625,0.8786720092773437,-35.099236641221374,75.83206106870229,-34.70229007633588,-9.380482104492186,-2.786850732421875,-5.832275244140624,31.480916030534353,-38.35114503816794,2.4885496183206106,0.0
11.400000810623169,-9.849745629882811,-0.08140285644531249,0.5770026000976562,-34.33587786259542,70.6412213740458,-33.05343511450382,-8.113949426269532,0.9576806640625,-7.369352709960937,32.396946564885496,-29.52671755725191,-1.5419847328244274,0.0
11.410000562667847,-10.448296044921875,0.8475473876953125,1.8531120849609375,-34.19847328244275,68.9618320610687,-34.67175572519084,-10.120290417480469,-1.0749965454101562,-6.53138212890625,42.16793893129771,-15.893129770992367,-2.1374045801526718,0.0
11.42000150680542,-6.995857250976562,-1.867477294921875,-0.7733271362304687,-26.793893129770993,61.31297709923664,-33.465648854961835,-9.87608184814453,2.626439221191406,-6.813897924804687,47.3587786259542,-17.404580152671755,-8.045801526717558,0.0
11.43000054359436,-9.775525378417969,0.6296750366210937,1.1372457885742187,-14.16793893129771,67.32824427480917,-34.900763358778626,-9.425971936035156,6.004657763671875,-4.467580297851562,33.343511450381676,-11.221374045801527,-6.0,0.0
11.440001010894775,-8.453926062011718,1.8339584716796873,0.3758896606445312,-12.564885496183207,67.70992366412214,-33.23664122137404,-8.66940421142578,3.727771984863281,-2.482787121582031,18.763358778625953,-3.5267175572519083,3.0076335877862594,0.0
11.450000524520874,-11.276689819335937,2.868253588867187,1.0630255371093749,-9.755725190839694,70.30534351145039,-32.87022900763359,-9.643844287109374,1.2928688964843749,-1.2378022583007813,22.244274809160306,-2.4885496183206106,4.824427480916031,0.0
11.46000051498413,-8.475473876953124,0.565031591796875,-0.9552864624023437,-2.2900763358778624,70.45801526717557,-27.66412213740458,-8.683769421386717,0.3327940307617187,0.47165772705078124,23.022900763358777,-3.618320610687023,2.0916030534351147,0.0
11.470000505447388,-9.93354268798828,2.9496564453125,0.7302315063476562,10.51908396946565,79.2824427480916,-26.580152671755727,-8.75320126953125,0.12210428466796874,1.707065783691406,27.251908396946565,-12.427480916030534,-1.9236641221374047,0.0
11.480000495910645,-9.7683427734375,3.5122938354492184,0.7924807495117187,-0.9007633587786259,75.2824427480916,-25.00763358778626,-9.718064538574218,0.13407529296874998,2.636016027832031,33.48091603053435,-25.61832061068702,-6.122137404580153,0.0
11.490000486373901,-11.314997045898437,5.216965417480468,2.9759926635742184,-13.129770992366412,75.37404580152672,-24.53435114503817,-8.619125976562499,1.4508862060546874,0.17238251953125,20.931297709923665,-40.29007633587786,-11.312977099236642,0.0
11.500000476837158,-9.26316622314453,3.8235400512695312,2.50912333984375,-38.656488549618324,66.90076335877863,-22.68702290076336,-8.781931689453124,2.147598889160156,0.9888052856445312,-3.4656488549618323,-43.404580152671755,-9.450381679389313,0.0
11.510000705718994,-9.22485899658203,3.327940307617187,2.786850732421875,-53.19083969465649,63.57251908396947,-21.221374045801525,-10.014945544433592,0.0,1.2306196533203124,-7.603053435114504,-50.51908396946565,-8.351145038167939,0.0
11.520000696182251,-8.40843623046875,1.0726023437499999,1.7932570434570312,-55.69465648854962,61.12977099236641,-20.33587786259542,-9.129090930175781,0.63206923828125,0.7110778930664062,-5.297709923664122,-60.152671755725194,-14.183206106870228,0.0
11.530000925064087,-8.93755479736328,2.473210314941406,2.1787235107421874,-53.63358778625954,62.36641221374046,-19.053435114503817,-8.655039001464843,0.8595183959960937,1.1468225952148436,-15.374045801526718,-63.908396946564885,-16.12213740458015,0.0
11.540000677108765,-9.524134204101562,3.1076737548828124,1.7429788085937499,-72.79389312977099,54.83969465648855,-15.801526717557252,-9.859322436523437,-1.889025109863281,1.3814543579101561,-14.702290076335878,-70.91603053435115,-14.732824427480915,0.0
11.5500009059906,-10.733206042480468,2.6527754394531247,2.2385785522460937,-68.42748091603053,57.6793893129771,-13.282442748091603,-9.299079248046874,-1.7118541870117185,-0.8283937744140625,-7.862595419847328,-80.7175572519084,-20.03053435114504,0.0
11.560000658035278,-9.622296472167967,0.21308394775390624,0.8571241943359375,-72.3206106870229,54.01526717557252,-10.549618320610687,-8.90643017578125,-2.1116858642578125,-0.8571241943359375,-2.8091603053435112,-80.74809160305344,-22.793893129770993,0.0
11.570000648498535,-10.433930834960936,-0.5434837768554687,1.467645617675781,-69.93893129770993,55.969465648854964,-11.022900763358779,-10.108319409179687,-2.530671154785156,-1.1348515869140625,10.335877862595419,-89.26717557251908,-24.15267175572519,0.0
11.580000638961792,-8.25520732421875,-2.5354595581054684,-0.41898529052734373,-53.3587786259542,55.49618320610687,-10.625954198473282,-9.469067565917967,-1.5897499023437498,-1.465251416015625,15.435114503816793,-86.54961832061069,-28.412213740458014,0.0
11.590001344680786,-10.560823522949217,-1.4939818359375,1.0558429321289062,-43.17557251908397,61.51145038167939,-14.335877862595419,-11.056423266601563,-0.7230489013671875,-0.9504980590820312,26.412213740458014,-91.16030534351145,-29.893129770992367,0.0
11.600000619888306,-9.660603698730467,-0.8092401611328125,-1.005564697265625,-43.12977099236641,58.50381679389313,-18.12213740458015,-8.954314208984375,1.438915197753906,-1.0390835205078124,26.16793893129771,-86.47328244274809,-31.31297709923664,0.0
11.610000610351562,-9.955090502929687,-0.9193734375,-1.39821376953125,-40.030534351145036,62.045801526717554,-17.6793893129771,-9.900023864746093,1.9201497314453124,-1.5777788940429687,29.129770992366414,-89.93893129770993,-29.00763358778626,0.0
11.62000060081482,-9.229647399902344,-1.7573440185546874,-1.5203180541992187,-18.198473282442748,66.67175572519083,-17.69465648854962,-8.578424548339843,2.6695348510742187,-1.5634136840820312,25.923664122137403,-79.7557251908397,-26.99236641221374,0.0
11.630000829696655,-10.66856259765625,0.16280571289062498,0.05746083984375,-10.916030534351146,71.25190839694656,-19.893129770992367,-9.765948571777344,2.4109610717773435,-2.212242333984375,31.64885496183206,-82.03053435114504,-23.389312977099237,0.0
11.640000343322754,-10.524910498046875,0.28969840087890625,-0.28730419921875,-3.3435114503816794,69.02290076335878,-19.908396946564885,-9.466673364257812,1.9823989746093749,-2.0350714111328125,28.3206106870229,-70.8854961832061,-19.49618320610687,0.0
11.650000810623169,-11.693280908203125,1.9009961181640624,1.149216796875,-13.145038167938932,67.06870229007633,-21.0381679389313,-11.104307299804686,0.7924807495117187,-2.099714855957031,34.458015267175576,-73.08396946564885,-16.68702290076336,0.0
11.660000801086426,-10.759542260742187,0.8882488159179687,0.6344634399414062,-16.625954198473284,62.42748091603053,-22.38167938931298,-8.82263311767578,1.216254443359375,-3.191470812988281,25.984732824427482,-65.98473282442748,-18.732824427480917,0.0
11.670000553131104,-10.050858569335936,0.6775590698242188,0.9576806640625,-20.763358778625953,60.18320610687023,-21.251908396946565,-11.386823095703125,-0.023942016601562498,-1.4149731811523436,30.625954198473284,-63.786259541984734,-14.244274809160306,0.0
11.68000078201294,-10.012551342773437,0.59376201171875,1.235408056640625,-15.49618320610687,57.343511450381676,-20.83969465648855,-9.878476049804688,0.8379705810546875,-2.308010400390625,37.267175572519086,-64.2442748091603,-18.259541984732824,0.0
11.690000534057617,-10.637437976074217,1.1659762084960936,1.6400281372070311,-3.648854961832061,55.3587786259542,-19.083969465648856,-10.582371337890624,0.38786066894531246,-1.0606313354492187,37.7557251908397,-55.587786259541986,-14.580152671755725,0.0
11.700000762939453,-10.807426293945312,1.2617442749023438,1.9033903198242186,1.465648854961832,52.274809160305345,-18.625954198473284,-10.75714805908203,-0.6488286499023437,-1.484405029296875,47.37404580152672,-61.847328244274806,-14.732824427480915,0.0
11.71000051498413,-10.963049401855468,1.35990654296875,1.8243816650390623,15.572519083969466,49.37404580152672,-17.419847328244273,-8.568847741699217,2.0733786376953125,-0.17956512451171874,45.282442748091604,-57.7557251908397,-17.541984732824428,0.0
11.720000505447388,-11.8369330078125,3.0214824951171875,2.0063409912109376,10.351145038167939,42.25954198473283,-17.64885496183206,-9.9215716796875,1.1755530151367186,0.07900865478515624,35.908396946564885,-51.20610687022901,-13.19083969465649,0.0
11.730000257492065,-11.348515869140625,1.599326708984375,1.5227122558593749,4.916030534351145,35.038167938931295,-14.50381679389313,-10.213664282226562,1.1228805786132812,1.3359645263671873,39.81679389312977,-53.74045801526717,-12.122137404580153,0.0
11.74000072479248,-11.173739147949219,0.28490999755859375,1.35990654296875,13.801526717557252,31.251908396946565,-12.717557251908397,-9.239224206542968,2.3822306518554686,0.22744915771484372,35.86259541984733,-52.94656488549618,-15.114503816793894,0.0
11.750000715255737,-10.900800158691405,1.6160861206054686,1.4437036010742186,16.65648854961832,25.954198473282442,-12.854961832061068,-7.9846625366210935,1.6136919189453125,-0.4860229370117187,16.3206106870229,-46.51908396946565,-11.877862595419847,0.0
11.760000467300415,-9.157821350097656,0.19153613281249998,0.08379705810546874,6.137404580152672,19.114503816793892,-10.83969465648855,-10.874463940429687,0.7852981445312499,0.33039982910156246,19.206106870229007,-46.61068702290076,-9.587786259541986,0.0
11.77000093460083,-9.72285294189453,0.3950432739257812,0.19393033447265623,11.19083969465649,16.15267175572519,-10.427480916030534,-9.14824454345703,1.2761094848632812,0.05985504150390625,25.61832061068702,-46.85496183206107,-14.030534351145038,0.0
11.780001163482666,-9.459490759277344,-0.4213794921875,-0.03591302490234375,24.412213740458014,17.221374045801525,-11.099236641221374,-7.7979148071289055,1.5155296508789062,-1.0773907470703123,9.358778625954198,-39.9236641221374,-14.442748091603054,0.0
11.790001392364502,-10.759542260742187,2.849099975585937,0.8164227661132812,8.076335877862595,13.435114503816793,-12.13740458015267,-9.100360510253905,1.2497732666015624,-0.5458779785156249,2.4885496183206106,-29.49618320610687,-10.992366412213741,0.0
11.8000009059906,-10.187328063964843,1.8219874633789062,0.8212111694335937,4.67175572519084,12.580152671755725,-8.610687022900763,-9.191340173339842,0.28730419921875,0.1197100830078125,5.267175572519084,-23.923664122137403,-10.13740458015267,0.0
11.810000658035278,-9.900023864746093,1.0486603271484374,1.1540052001953125,5.282442748091603,9.221374045801527,-5.603053435114504,-7.920019091796875,0.5363011718749999,-0.2154781494140625,10.351145038167939,-26.946564885496183,-13.297709923664122,0.0
11.820001363754272,-10.261548315429687,0.6871358764648438,1.2808978881835937,13.557251908396946,8.183206106870228,-5.862595419847328,-7.029376074218749,1.2378022583007813,0.6440402465820312,4.625954198473282,-22.85496183206107,-12.641221374045802,0.0
11.830000638961792,-10.383652600097655,1.4700398193359374,1.697488977050781,5.4961832061068705,5.206106870229007,-6.152671755725191,-7.170633972167968,1.3311761230468748,1.0869675537109373,-5.068702290076335,-13.633587786259541,-11.16030534351145,0.0
11.840001106262207,-9.888052856445311,1.5059528442382812,2.3295582153320313,-1.6793893129770991,2.7786259541984735,-5.908396946564886,-6.766013891601562,1.0438719238281249,0.6751648681640625,-14.793893129770993,-9.282442748091603,-11.267175572519085,0.0
11.850001096725464,-9.773131176757811,0.8906430175781249,3.0358477050781247,-5.633587786259542,-1.9083969465648856,-5.374045801526718,-7.975085729980468,-1.139639990234375,0.4477157104492187,-15.618320610687023,-6.534351145038168,-11.83206106870229,0.0
11.860000371932983,-10.072406384277343,0.3232172241210937,3.816357446289062,1.7099236641221374,-7.32824427480916,-6.091603053435114,-8.106766821289062,-1.6711527587890624,0.3064578125,-11.465648854961833,-5.236641221374046,-14.16793893129771,0.0
11.870001077651978,-11.008539233398437,0.7805097412109374,4.781220715332031,5.068702290076335,-13.86259541984733,-7.374045801526718,-7.7596075805664055,-1.8650830932617186,-0.16519991455078123,-7.908396946564886,-2.7480916030534353,-16.3206106870229,0.0
11.880001306533813,-11.022904443359375,0.5482721801757812,5.691017346191406,14.488549618320612,-21.068702290076335,-6.488549618320611,-8.532934716796875,-2.0302830078125,0.30406361083984373,2.9770992366412212,-0.44274809160305345,-15.114503816793894,0.0
11.890000343322754,-11.750741748046874,1.1133037719726562,7.271190441894531,24.778625954198475,-30.38167938931298,-5.312977099236641,-6.962338427734375,-0.63206923828125,-0.1005564697265625,4.763358778625954,-0.6717557251908397,-17.786259541984734,0.0
11.900000810623169,-13.134590307617186,3.4356793823242184,9.610325463867188,28.83969465648855,-42.51908396946565,-2.3206106870229006,-7.115567333984375,0.7278373046875,0.5913678100585937,-1.0687022900763359,10.412213740458014,-14.992366412213741,0.0
11.910000801086426,-15.275006591796874,5.925649108886718,11.774683764648437,10.67175572519084,-63.52671755725191,3.7709923664122136,-6.488286499023437,0.4165910888671875,-0.5195417602539062,-14.15267175572519,9.664122137404581,-11.572519083969466,0.0
11.920000791549683,-15.330073229980467,4.491522314453125,12.842497705078124,2.9618320610687023,-94.2442748091603,17.81679389312977,-6.806715319824218,1.4700398193359374,0.9840168823242187,-16.931297709923665,18.458015267175572,-9.572519083969466,0.0
11.930000305175781,-16.299724902343748,3.450044592285156,14.712369201660156,-7.1603053435114505,-121.72519083969466,26.137404580152673,-4.1754876953124995,3.287238879394531,-1.1851298217773436,-37.86259541984733,21.801526717557252,-10.458015267175572,0.0
11.940001010894775,-15.397110876464843,-0.5386953735351562,14.76025323486328,-19.358778625954198,-153.46564885496184,28.30534351145038,-5.9376201171875,2.080561242675781,1.189918225097656,-49.51145038167939,38.152671755725194,-0.24427480916030533,0.0
11.950000524520874,-15.128960290527344,-3.859453076171875,16.098611962890622,-21.633587786259543,-183.66412213740458,22.9618320610687,-6.1459156616210935,2.1835119140624997,-0.5363011718749999,-48.54961832061068,34.091603053435115,4.8396946564885495,0.0
11.96000051498413,-14.918270544433593,-7.668627917480468,15.969325073242187,17.755725190839694,-213.25190839694656,16.85496183206107,-6.866570361328125,0.5746083984375,-1.8339584716796873,-45.86259541984733,47.41984732824427,8.244274809160306,0.0
11.970000743865967,-14.173673828124999,-8.89924757080078,14.226346264648436,75.6793893129771,-227.38931297709922,16.16793893129771,-9.057264880371093,-0.229843359375,-3.782838623046875,-27.770992366412212,47.32824427480916,6.656488549618321,0.0
11.980000495910645,-11.465831750488281,-7.316680273437499,3.7900212280273435,116.3969465648855,-238.24427480916032,14.854961832061068,-11.786654772949218,-0.8690952026367187,-3.323151904296875,-10.610687022900763,54.88549618320611,3.648854961832061,0.0
11.990000486373901,-12.69166300048828,-1.6352397338867186,-2.607285607910156,116.2442748091603,-243.05343511450383,3.618320610687023,-16.218322045898436,-3.0310593017578125,-1.216254443359375,19.374045801526716,50.19847328244275,-1.5572519083969465,0.0
12.000000715255737,-13.105859887695312,1.4341267944335936,-8.149862451171874,112.50381679389314,-241.87786259541986,7.6183206106870225,-17.228675146484374,-4.280832568359375,1.9919757812499999,38.25954198473283,44.16793893129771,-4.33587786259542,0.0
12.010000467300415,-14.348450549316405,2.5378537597656248,-8.626308581542968,107.61832061068702,-231.23664122137404,13.435114503816793,-14.618995336914061,-1.8602946899414061,0.612915625,46.74809160305343,36.595419847328245,-9.48091603053435,0.0
12.020000696182251,-15.521609362792967,1.2880804931640624,-8.86812294921875,102.1526717557252,-220.9770992366412,17.49618320610687,-11.719617126464843,3.2609026611328122,-1.6041151123046875,38.213740458015266,37.17557251908397,-5.6183206106870225,0.0
12.030000925064087,-17.226280944824218,3.775656018066406,-5.092466931152344,99.48091603053435,-209.87786259541986,16.259541984732824,-7.333439685058593,8.844180932617187,-2.2361843505859373,-9.251908396946565,45.725190839694655,0.7175572519083969,0.0
12.040000677108765,-17.2765591796875,7.398083129882812,-2.9975404785156248,76.67175572519083,-199.98473282442748,24.33587786259542,-7.9655089233398435,5.674257934570313,-3.6439749267578123,-64.33587786259542,70.44274809160305,15.297709923664122,0.0
12.05000114440918,-16.472107421875,6.53138212890625,-1.158793603515625,47.343511450381676,-184.94656488549617,38.83969465648855,-9.179369165039063,0.41419688720703124,-4.96078583984375,-83.00763358778626,80.58015267175573,24.259541984732824,0.0
12.060000896453857,-13.699621899414062,2.422932080078125,-2.070984436035156,38.3206106870229,-168.6412213740458,50.274809160305345,-11.824961999511718,-4.8506525634765625,-2.528276953125,-74.94656488549619,96.97709923664122,28.106870229007633,0.0
12.070000648498535,-10.426748229980468,-0.239420166015625,-1.6998831787109374,29.96946564885496,-150.6412213740458,52.13740458015267,-11.63821427001953,-8.583212951660157,-3.900154504394531,-35.05343511450382,96.67175572519083,24.48854961832061,0.0
12.080000400543213,-7.773972790527344,-1.3623007446289062,-1.9895815795898437,31.236641221374047,-129.9083969465649,47.05343511450382,-12.222399475097655,-8.2360537109375,-3.4332851806640625,-0.5038167938931297,102.18320610687023,23.61832061068702,0.0
12.090000629425049,-5.849034655761718,-1.3670891479492187,-2.9831752685546875,24.30534351145038,-115.80152671755725,41.49618320610687,-8.001421948242188,-3.1028853515624997,-4.247313745117188,35.14503816793893,93.1145038167939,20.290076335877863,0.0
12.100000858306885,-4.678270043945313,-1.2330138549804688,-2.8227637573242186,27.740458015267176,-91.09923664122137,35.51145038167939,-7.031770275878906,0.5985504150390625,-5.7317187744140625,44.30534351145038,92.19847328244275,15.404580152671755,0.0
12.110000610351562,-4.060566015625,-0.5123591552734374,-3.071760729980469,21.00763358778626,-74.09160305343511,32.412213740458014,-7.920019091796875,3.5410242553710933,-3.5194764404296874,46.44274809160305,93.31297709923665,15.251908396946565,0.0
12.120001316070557,-6.224924316406249,2.250549560546875,-1.898601916503906,5.374045801526718,-54.68702290076336,25.69465648854962,-9.083601098632812,4.434061474609375,-2.3678654418945313,11.755725190839694,103.90839694656489,16.717557251908396,0.0
12.130001068115234,-3.9145197143554684,1.3072341064453123,-3.076549133300781,-12.183206106870228,-45.908396946564885,27.755725190839694,-8.583212951660157,4.838681555175781,-0.8595183959960937,-12.045801526717558,107.7557251908397,17.557251908396946,0.0
12.14000129699707,-3.296815686035156,0.5865794067382812,-3.5697546752929687,-26.778625954198475,-32.79389312977099,26.519083969465647,-8.662221606445312,2.9664158569335934,-1.5418658691406248,-17.31297709923664,97.37404580152672,18.625954198473284,0.0
12.15000057220459,-1.4437036010742186,-0.411802685546875,-4.031835595703125,-32.42748091603053,-17.389312977099237,26.610687022900763,-10.357316381835936,-1.6519991455078125,0.3136404174804687,-18.412213740458014,92.83969465648855,21.84732824427481,0.0
12.160000801086426,-2.2936451904296873,-0.17477672119140625,-3.919308117675781,-45.847328244274806,-6.488549618320611,23.87786259541985,-8.046911779785155,-1.695094775390625,-1.4341267944335936,-6.015267175572519,79.74045801526718,17.0381679389313,0.0
12.170000553131104,-1.2138602416992186,-0.612915625,-4.201823913574218,-45.51145038167939,12.213740458015268,22.30534351145038,-9.330203869628905,-3.4428619873046875,1.0917559570312498,-1.0381679389312977,74.10687022900764,17.6793893129771,0.0
12.18000078201294,-2.288856787109375,1.0534487304687499,-3.9935283691406247,-60.67175572519084,22.366412213740457,18.198473282442748,-9.665392102050781,-3.227383837890625,0.32561142578124996,19.282442748091604,62.29007633587786,13.297709923664122,0.0
12.190000772476196,-1.3215993164062498,1.1755530151367186,-2.8730419921875,-63.083969465648856,36.12213740458015,18.03053435114504,-10.12507882080078,-4.065354418945312,0.143652099609375,21.022900763358777,55.7557251908397,9.603053435114504,0.0
12.200000762939453,-4.139574670410156,4.338293408203125,1.3335703247070312,-79.0381679389313,44.3206106870229,13.34351145038168,-8.870517150878905,0.7230489013671875,-0.17238251953125,13.694656488549619,52.33587786259542,4.290076335877862,0.0
12.21000051498413,-3.21780703125,1.7022773803710936,3.6631285400390623,-79.38931297709924,46.50381679389313,18.671755725190838,-9.629479077148437,0.7422025146484375,-0.5195417602539062,8.335877862595419,54.79389312977099,3.984732824427481,0.0
12.220000505447388,-2.6096798095703124,-0.38307226562499996,5.980715747070312,-48.47328244274809,58.33587786259542,20.946564885496183,-10.273519323730468,0.3184288208007812,-0.9097966308593749,-0.9465648854961832,56.595419847328245,4.3816793893129775,0.0
12.230000495910645,-3.749319799804687,-0.41898529052734373,6.438008264160156,-19.221374045801525,63.786259541984734,22.045801526717558,-11.319785449218749,-1.0414777221679687,-0.28969840087890625,8.15267175572519,57.74045801526717,4.854961832061068,0.0
12.240000486373901,-5.7700260009765625,0.6200982299804687,8.520963708496094,-3.1603053435114505,69.46564885496183,20.458015267175572,-10.666168395996094,-1.8459294799804686,-1.0390835205078124,14.580152671755725,55.74045801526717,4.015267175572519,0.0
12.250000238418579,-6.804321118164062,-0.1149216796875,9.919177478027343,-5.877862595419847,64.4885496183206,19.908396946564885,-11.073182678222656,-0.7829039428710937,0.8906430175781249,15.740458015267176,59.725190839694655,3.9236641221374047,0.0
12.260000705718994,-9.421183532714844,0.47644613037109373,13.812149377441406,-21.17557251908397,53.87786259541985,12.732824427480915,-10.493785876464843,1.6136919189453125,1.1875240234375,4.396946564885496,55.541984732824424,2.381679389312977,0.0
12.270001411437988,-11.573570825195311,2.461239306640625,15.581464404296874,-39.847328244274806,30.15267175572519,2.7480916030534353,-10.568006127929687,1.9943699829101562,2.901772412109375,-10.488549618320612,62.36641221374046,4.595419847328245,0.0
12.280000686645508,-10.924742175292968,1.3000515014648437,14.437036010742187,-31.862595419847327,10.15267175572519,8.916030534351146,-10.211270080566406,0.5003881469726562,4.786009118652344,-30.47328244274809,56.12213740458015,7.0534351145038165,0.0
12.290001153945923,-11.81777939453125,0.5386953735351562,14.432247607421875,1.0534351145038168,-2.4122137404580153,17.84732824427481,-12.184092248535155,-2.959233251953125,5.746083984375,-32.97709923664122,46.56488549618321,7.374045801526718,0.0
12.3000009059906,-11.516109985351562,0.8667010009765624,12.363657373046875,40.152671755725194,-16.091603053435115,31.022900763358777,-12.828132495117186,-3.3542765258789062,4.376600634765625,-42.42748091603053,30.27480916030534,4.320610687022901,0.0
12.310000896453857,-10.465055456542968,2.8754361938476563,10.50815108642578,68.36641221374046,-7.190839694656488,39.343511450381676,-13.922282653808592,-2.2864625854492187,4.153939880371094,-53.16030534351145,16.106870229007633,0.5038167938931297,0.0
12.320000648498535,-6.792350109863281,4.802768530273437,4.225765930175781,58.54961832061068,-4.366412213740458,43.57251908396947,-13.340491650390625,-1.7669208251953124,3.6008792968749996,-67.7557251908397,7.343511450381679,-1.4045801526717556,0.0
12.33000111579895,-5.913678100585937,3.4739866088867184,0.47644613037109373,20.48854961832061,3.5114503816793894,37.954198473282446,-12.66053837890625,-1.3144167114257812,2.6527754394531247,-65.54198473282443,-5.8320610687022905,-2.5801526717557253,0.0
12.340000629425049,-10.139444030761718,1.2497732666015624,3.1771056030273437,10.213740458015268,17.053435114503817,32.06106870229008,-12.46900224609375,-0.82360537109375,0.3112462158203125,-71.93893129770993,-17.16030534351145,-1.7557251908396947,0.0
12.350000858306885,-15.796942553710936,-0.8834604125976562,8.63109698486328,11.068702290076336,17.221374045801525,40.13740458015267,-13.110648291015623,-0.7852981445312499,-0.5674257934570313,-75.95419847328245,-25.572519083969464,0.3053435114503817,0.0
12.360000610351562,-17.84398497314453,-0.6440402465820312,10.223241088867187,38.732824427480914,25.83206106870229,40.44274809160305,-13.939042065429687,-3.323151904296875,-1.1109095703125,-75.3587786259542,-33.74045801526717,4.290076335877862,0.0
12.37000060081482,-15.052345837402342,-0.5386953735351562,4.058171813964844,26.38167938931298,19.862595419847327,26.48854961832061,-13.546392993164062,-2.24097275390625,0.3399766357421875,-63.69465648854962,-39.083969465648856,4.870229007633588,0.0
12.380001068115234,-13.374010473632811,-0.8212111694335937,-0.1149216796875,2.8091603053435112,27.267175572519083,11.129770992366412,-11.65736788330078,1.7980454467773437,-2.085349645996094,-61.282442748091604,-45.49618320610687,5.312977099236641,0.0
12.390000581741333,-6.265625744628906,-4.072537023925781,-6.48589229736328,-12.854961832061068,31.389312977099237,4.076335877862595,-11.805808386230469,4.0222587890625,-2.6144682128906247,-66.6412213740458,-46.0,10.83969465648855,0.0
12.400000810623169,-5.846640454101562,-4.678270043945313,-5.9974751586914055,-3.6793893129770994,53.083969465648856,-0.6717557251908397,-12.952630981445312,4.934449621582031,-5.990292553710937,-59.786259541984734,-50.85496183206107,14.488549618320612,0.0
12.410000324249268,-3.418919970703125,-8.480262280273436,-8.420407238769531,10.793893129770993,66.01526717557252,-2.9770992366412212,-13.939042065429687,3.679887951660156,-6.8593877563476555,-57.49618320610687,-51.63358778625954,19.31297709923664,0.0
12.420000791549683,-8.63109698486328,-4.723759875488281,-3.6942531616210936,42.99236641221374,92.62595419847328,-14.702290076335878,-15.081076257324218,0.411802685546875,-8.441955053710936,-43.11450381679389,-56.229007633587784,21.221374045801525,0.0
12.430143117904663,-12.052411157226562,0.062249243164062495,-3.208230224609375,59.02290076335878,98.22900763358778,-21.435114503816795,-13.433865515136718,-0.3854664672851562,-9.86411083984375,-44.412213740458014,-54.10687022900763,21.52671755725191,0.0
12.440001010894775,-15.452177514648437,5.288791467285156,-1.4604630126953124,44.36641221374046,99.34351145038168,-24.458015267175572,-11.899182250976562,-0.5147533569335937,-9.926360083007811,-35.404580152671755,-44.79389312977099,17.374045801526716,0.0
12.450000286102295,-14.618995336914061,4.575319372558593,-1.3407529296874998,7.6183206106870225,91.61832061068702,-26.564885496183205,-10.156203442382813,-1.2761094848632812,-9.488221179199218,-23.404580152671755,-36.30534351145038,13.526717557251908,0.0
12.46000051498413,-13.24711778564453,3.0023288818359375,-0.3854664672851562,-14.83969465648855,85.43511450381679,-28.015267175572518,-8.839392529296875,1.4939818359375,-9.342174877929686,-16.778625954198475,-28.53435114503817,10.030534351145038,0.0
12.470000505447388,-11.736376538085937,3.1555577880859373,-0.430956298828125,-31.633587786259543,79.55725190839695,-29.31297709923664,-8.482656481933594,2.7461493041992187,-8.197746484375,-17.984732824427482,-10.564885496183207,11.86259541984733,0.0
12.480000495910645,-10.697293017578124,2.2936451904296873,-1.0007762939453124,-41.099236641221374,77.0381679389313,-28.885496183206108,-9.227253198242186,0.6967126831054687,-8.664615808105468,-21.480916030534353,1.5877862595419847,10.778625954198473,0.0
12.49000072479248,-9.631873278808593,1.6831237670898436,-0.9792284790039062,-36.900763358778626,75.90839694656489,-26.83969465648855,-12.322955944824217,-4.484339709472656,-7.4962453979492185,3.8931297709923665,2.519083969465649,5.068702290076335,0.0
12.500000953674316,-8.640673791503906,0.45489831542968745,-1.5107412475585937,-23.51145038167939,80.59541984732824,-24.15267175572519,-11.398794104003905,-4.220977526855468,-4.438849877929687,36.79389312977099,-3.3893129770992365,-1.4961832061068703,0.0
12.510000705718994,-8.319850769042969,0.8068459594726562,-0.1197100830078125,-8.045801526717558,87.6030534351145,-23.46564885496183,-10.216058483886718,-1.3096283081054687,-3.421314172363281,56.36641221374046,-11.206106870229007,-5.923664122137405,0.0
12.520000696182251,-11.310208642578125,4.180276098632812,2.0973206542968748,-18.412213740458014,88.74809160305344,-29.87786259541985,-8.683769421386717,3.555389465332031,-1.6112977172851561,59.23664122137404,-17.19083969465649,-9.648854961832061,0.0
12.530001401901245,-10.79545528564453,4.510675927734375,1.2808978881835937,-50.68702290076336,79.41984732824427,-29.96946564885496,-7.417236743164062,6.203376501464843,-0.3495534423828125,37.41984732824427,-17.389312977099237,-9.526717557251908,0.0
12.540000677108765,-10.412383020019531,2.5570073730468748,2.281674182128906,-74.45801526717557,76.35114503816794,-27.69465648854962,-7.4579381713867186,5.260061047363281,1.1324573852539062,13.435114503816793,-17.236641221374047,-7.694656488549619,0.0
12.5500009059906,-8.621520178222656,-0.9337386474609375,1.9105729248046874,-62.56488549618321,77.57251908396947,-24.68702290076336,-9.045293872070312,1.6424223388671875,0.9864110839843749,6.412213740458015,-20.198473282442748,-6.091603053435114,0.0
12.560000658035278,-8.456320263671875,-3.2034418212890623,2.2098481323242187,-33.6793893129771,82.03053435114504,-25.450381679389313,-8.690952026367187,1.7645266235351562,1.5370774658203123,3.3282442748091605,-31.633587786259543,-8.961832061068701,0.0
12.570000886917114,-9.217676391601563,-0.7254431030273437,2.8706477905273435,-16.458015267175572,85.64885496183206,-30.458015267175572,-8.010998754882811,3.1555577880859373,1.8650830932617186,-4.442748091603053,-35.29770992366412,-10.992366412213741,0.0
12.580000877380371,-9.643844287109374,1.714248388671875,1.9728221679687499,-28.625954198473284,81.41984732824427,-34.06106870229008,-8.43956085205078,1.6232687255859375,1.7310078002929687,-22.442748091603054,-37.64885496183206,-7.419847328244275,0.0
12.590000629425049,-11.824961999511718,3.2561142578125,4.043806604003906,-47.93893129770992,78.65648854961832,-36.56488549618321,-9.641450085449218,-0.20829554443359374,2.858676782226562,-10.51908396946565,-43.64885496183206,-6.99236641221374,0.0
12.600000858306885,-9.392453112792968,1.0342951171875,1.1013327636718748,-57.725190839694655,68.1526717557252,-32.62595419847328,-7.9846625366210935,1.3168109130859373,0.8307879760742187,-11.83206106870229,-56.10687022900763,-14.244274809160306,0.0
12.610000371932983,-8.992621435546875,2.233790148925781,1.3814543579101561,-54.458015267175576,68.13740458015268,-28.53435114503817,-8.463502868652343,-0.22744915771484372,2.152387292480469,-21.96946564885496,-55.49618320610687,-10.610687022900763,0.0
12.62000060081482,-7.721300354003906,0.7757213378906249,0.3447650390625,-60.152671755725194,63.16030534351145,-24.412213740458014,-9.176974963378905,-1.197100830078125,0.6584054565429687,-14.580152671755725,-66.18320610687023,-13.709923664122137,0.0
12.630000591278076,-9.995791931152343,2.6240450195312497,2.070984436035156,-48.458015267175576,66.3206106870229,-23.236641221374047,-8.508992700195313,-0.9409212524414062,0.33758243408203126,-19.572519083969464,-67.08396946564885,-18.412213740458014,0.0
12.640000581741333,-11.061211669921875,3.0142998901367184,1.8459294799804686,-70.94656488549619,57.64885496183206,-21.053435114503817,-9.165003955078124,-2.473210314941406,-0.13407529296874998,-12.351145038167939,-71.89312977099236,-17.587786259541986,0.0
12.65000057220459,-11.341333264160156,1.9201497314453124,2.5641899780273434,-59.43511450381679,59.6793893129771,-18.702290076335878,-8.384494213867187,-1.7118541870117185,-0.7110778930664062,-9.679389312977099,-74.70229007633588,-21.862595419847327,0.0
12.660001039505005,-9.85692823486328,0.4381389038085937,1.668758557128906,-56.42748091603053,54.0763358778626,-14.687022900763358,-10.129867224121092,-1.9512743530273435,0.22505495605468748,5.526717557251908,-75.98473282442748,-21.251908396946565,0.0
12.670000553131104,-9.830592016601562,-0.7230489013671875,1.4796166259765624,-37.38931297709924,56.732824427480914,-14.045801526717558,-8.480262280273436,-0.411802685546875,-0.5243301635742187,10.274809160305344,-78.73282442748092,-24.793893129770993,0.0
12.680001020431519,-8.963891015625,-0.718260498046875,0.9026140258789062,-23.96946564885496,55.38931297709924,-12.992366412213741,-10.66856259765625,-1.8219874633789062,-0.23223756103515625,27.755725190839694,-80.12213740458016,-22.48854961832061,0.0
12.690000772476196,-9.904812268066406,-0.26336218261718747,1.5586252807617187,-11.34351145038168,57.9236641221374,-15.908396946564885,-9.107543115234375,-0.6248866333007812,-1.3407529296874998,31.358778625954198,-82.12213740458016,-26.106870229007633,0.0
12.700001001358032,-10.158597644042969,0.1388636962890625,1.1156979736328125,-9.786259541984732,56.595419847328245,-16.366412213740457,-10.62307276611328,-1.6304513305664061,-1.1372457885742187,45.61832061068702,-79.80152671755725,-23.66412213740458,0.0
12.71000051498413,-9.045293872070312,1.005564697265625,0.4572925170898437,-12.748091603053435,49.603053435114504,-16.885496183206108,-8.135497241210937,1.1875240234375,-2.1835119140624997,45.41984732824427,-80.1526717557252,-27.328244274809162,0.0
12.720000505447388,-10.050858569335936,1.1947066284179686,0.8930372192382812,-27.6793893129771,44.68702290076336,-14.885496183206106,-10.436325036621094,0.08379705810546874,-1.3215993164062498,48.50381679389313,-75.43511450381679,-21.66412213740458,0.0
12.730000495910645,-8.951920007324219,-0.5913678100585937,1.5538368774414062,-7.877862595419847,46.961832061068705,-11.16030534351145,-9.313444458007812,2.231395947265625,-2.674323254394531,49.969465648854964,-76.36641221374046,-23.419847328244273,0.0
12.740000247955322,-10.115502014160155,1.2832920898437499,2.655169641113281,7.4961832061068705,47.83206106870229,-10.641221374045802,-10.64222637939453,0.4381389038085937,-1.1755530151367186,49.908396946564885,-68.01526717557252,-18.259541984732824,0.0
12.750000476837158,-10.328585961914062,2.042254016113281,2.2673089721679687,11.312977099236642,45.770992366412216,-9.786259541984732,-10.979808813476561,0.23223756103515625,-1.8267758666992187,60.06106870229008,-74.21374045801527,-16.580152671755727,0.0
12.760000705718994,-10.876858142089842,2.674323254394531,1.6304513305664061,13.389312977099237,43.05343511450382,-7.679389312977099,-9.382876306152344,2.50912333984375,0.00239420166015625,54.06106870229008,-66.67175572519083,-15.725190839694656,0.0
12.770000457763672,-10.24718310546875,2.1452046874999997,0.7422025146484375,1.1603053435114503,38.732824427480914,-5.679389312977099,-11.226411584472656,0.5865794067382812,0.6919242797851562,53.221374045801525,-68.18320610687023,-10.778625954198473,0.0
12.780000686645508,-9.588777648925781,0.4525041137695312,0.00718260498046875,-1.7251908396946565,36.83969465648855,-6.305343511450381,-9.337386474609374,1.5418658691406248,-0.9600748657226562,48.25954198473283,-72.01526717557252,-14.381679389312977,0.0
12.790000915527344,-10.259154113769531,0.7302315063476562,0.44053310546874996,-0.22900763358778625,35.37404580152672,-8.366412213740459,-9.763554370117188,2.042254016113281,-0.37828386230468747,30.641221374045802,-62.51908396946565,-10.870229007633588,0.0
12.800000667572021,-9.564835632324218,0.30406361083984373,-0.19871873779296872,-13.648854961832061,31.099236641221374,-10.030534351145038,-12.011709729003906,0.82360537109375,0.9648632690429687,30.12213740458015,-66.59541984732824,-7.969465648854962,0.0
12.810000896453857,-10.292672937011718,0.3447650390625,0.7302315063476562,-4.595419847328245,33.267175572519086,-11.129770992366412,-10.014945544433592,2.461239306640625,-0.0143652099609375,28.38167938931298,-69.34351145038168,-13.709923664122137,0.0
12.820000648498535,-10.931924780273437,0.5291185668945312,0.8595183959960937,3.2213740458015265,33.52671755725191,-11.251908396946565,-9.993397729492187,1.9393033447265624,1.1707646118164061,16.213740458015266,-61.45038167938932,-9.83206106870229,0.0
12.830000400543213,-10.228029492187499,1.4341267944335936,0.06464344482421874,-2.030534351145038,30.47328244274809,-10.122137404580153,-10.685322009277343,0.4572925170898437,0.5482721801757812,16.65648854961832,-66.80916030534351,-8.564885496183207,0.0
12.840000867843628,-8.738836059570312,0.9696516723632812,-0.9552864624023437,1.6488549618320612,28.68702290076336,-8.213740458015268,-8.683769421386717,1.6903063720703124,-0.1867477294921875,6.625954198473282,-62.412213740458014,-12.366412213740459,0.0
12.850000619888306,-8.678981018066406,1.6735469604492186,-0.86191259765625,-3.7557251908396947,29.435114503816795,-7.099236641221374,-8.79150849609375,1.838746875,0.9433154541015625,-2.4122137404580153,-56.13740458015267,-8.595419847328245,0.0
12.860000610351562,-8.501810095214843,1.2521674682617188,-0.74699091796875,-10.793893129770993,29.541984732824428,-6.122137404580153,-9.847351428222655,0.1771709228515625,0.18435352783203124,4.961832061068702,-55.87786259541985,-6.396946564885496,0.0
12.87000060081482,-9.555258825683593,1.3910311645507811,0.14604630126953125,-4.259541984732825,34.656488549618324,-7.068702290076335,-7.726088757324218,2.013523596191406,-0.622492431640625,-1.5267175572519085,-52.0,-10.030534351145038,0.0
12.880000591278076,-10.742782849121093,2.3415292236328122,0.19153613281249998,-11.938931297709924,32.25954198473283,-6.961832061068702,-7.52737001953125,1.8171990600585937,0.37828386230468747,-11.068702290076336,-40.56488549618321,-6.213740458015267,0.0
12.890000581741333,-9.294290844726563,1.7214309936523438,-0.14604630126953125,-19.923664122137403,30.68702290076336,-5.068702290076335,-7.915230688476562,0.9888052856445312,0.3495534423828125,-14.442748091603054,-39.267175572519086,-4.564885496183206,0.0
12.900000810623169,-8.741230261230468,0.4525041137695312,0.5243301635742187,-19.083969465648856,30.16793893129771,-4.778625954198473,-8.959102612304687,-0.5770026000976562,0.6751648681640625,-1.816793893129771,-31.236641221374047,-3.7099236641221376,0.0
12.910000801086426,-10.924742175292968,0.6488286499023437,1.9919757812499999,-15.786259541984732,30.519083969465647,-6.473282442748092,-8.33182177734375,-2.2577321655273437,-0.507570751953125,-4.427480916030534,-34.18320610687023,-4.931297709923665,0.0
12.920000791549683,-10.436325036621094,-0.19393033447265623,1.467645617675781,-10.106870229007633,25.633587786259543,-5.526717557251908,-7.860164050292968,-1.838746875,-0.3854664672851562,-0.6106870229007634,-33.02290076335878,-7.206106870229007,0.0
12.93000078201294,-9.631873278808593,0.5817910034179687,2.6671406494140624,-6.427480916030534,24.778625954198475,-7.00763358778626,-6.404489440917969,0.699106884765625,0.05985504150390625,-0.13740458015267176,-29.61832061068702,-9.801526717557252,0.0
12.940000772476196,-10.927136376953124,2.051830822753906,4.359841223144531,-11.84732824427481,21.603053435114504,-8.80916030534351,-7.702146740722656,-0.42377369384765623,1.4820108276367188,-2.564885496183206,-14.50381679389313,-6.244274809160306,0.0
12.950000762939453,-11.037269653320312,1.3192051147460937,4.390965844726562,-16.35114503816794,12.793893129770993,-6.9465648854961835,-6.9360022094726554,-0.928950244140625,0.36631285400390623,1.297709923664122,-19.114503816793892,-7.908396946564886,0.0
12.96000051498413,-11.286266625976562,1.668758557128906,4.781220715332031,-10.106870229007633,-0.07633587786259542,-3.4656488549618323,-8.195352282714843,-1.6136919189453125,1.4963760375976562,13.938931297709924,-13.877862595419847,-8.259541984732824,0.0
12.970000505447388,-11.228805786132812,0.2059013427734375,5.442020373535156,7.679389312977099,-3.49618320610687,-1.251908396946565,-7.232883215332031,-1.0965443603515623,1.7334020019531249,18.412213740458014,-12.717557251908397,-9.557251908396946,0.0
12.980000495910645,-10.249577307128906,-0.30406361083984373,5.070919116210937,7.877862595419847,-15.541984732824428,2.122137404580153,-7.728482958984374,-1.7525556152343749,2.0877438476562498,28.30534351145038,-11.297709923664122,-9.358778625954198,0.0
12.990000486373901,-11.003750830078124,0.41898529052734373,5.343858105468749,23.84732824427481,-22.732824427480917,3.0381679389312977,-6.660669018554687,-1.3215993164062498,1.6831237670898436,29.557251908396946,-9.48091603053435,-10.65648854961832,0.0
13.000000476837158,-11.022904443359375,-0.00718260498046875,6.064512805175781,41.00763358778626,-29.435114503816795,4.961832061068702,-6.332663391113281,-0.3327940307617187,1.458068811035156,28.106870229007633,-4.076335877862595,-11.297709923664122,0.0
13.010000705718994,-12.279860314941406,1.5514426757812498,7.340622290039062,46.79389312977099,-39.19083969465649,5.587786259541985,-5.329492895507812,0.086191259765625,1.1563994018554686,15.48091603053435,-0.9923664122137404,-11.801526717557252,0.0
13.020000696182251,-13.429077111816406,3.4955344238281247,9.605537060546874,46.25954198473283,-53.038167938931295,7.694656488549619,-6.938396411132812,0.086191259765625,2.2553379638671873,11.740458015267176,10.030534351145038,-10.534351145038167,0.0
13.030001163482666,-15.31570802001953,3.1124621582031247,11.458649145507811,42.18320610687023,-74.58015267175573,13.694656488549619,-6.155492468261718,0.34715924072265625,0.3854664672851562,1.5572519083969465,13.709923664122137,-13.206106870229007,0.0
13.040001153945923,-15.904681628417968,2.114080065917969,13.682862487792969,44.33587786259542,-98.62595419847328,21.633587786259543,-5.647921716308593,1.5298948608398437,-0.28012159423828126,-11.969465648854962,28.30534351145038,-13.49618320610687,0.0
13.0500009059906,-16.699556579589842,0.8595183959960937,15.291766003417967,32.68702290076336,-128.18320610687022,24.82442748091603,-7.879317663574218,0.5410895751953124,-2.1978771240234374,-10.305343511450381,38.458015267175576,-7.66412213740458,0.0
13.060000658035278,-17.044321618652344,-3.5242648437499997,16.524779858398436,34.900763358778626,-162.70229007633588,17.908396946564885,-8.015787158203125,3.5673604736328124,-3.957615344238281,-1.0534351145038168,43.282442748091604,-9.114503816793894,0.0
13.070000648498535,-16.91264052734375,-5.856217260742187,16.737863806152344,57.87786259541985,-191.3587786259542,9.954198473282442,-11.125855114746093,4.390965844726562,-1.8914193115234375,-2.0916030534351147,56.3206106870229,-5.8320610687022905,0.0
13.080000877380371,-16.021997509765622,-8.633491186523438,13.479355346679686,90.41221374045801,-218.44274809160305,4.595419847328245,-13.606248034667967,4.7884033203125,-1.1061211669921875,-1.282442748091603,53.05343511450382,-3.49618320610687,0.0
13.09000039100647,-14.484920043945312,-5.786785412597656,6.040570788574218,122.70229007633588,-234.06106870229007,0.21374045801526717,-14.999673400878905,3.114856359863281,1.47482822265625,-7.541984732824427,54.274809160305345,0.549618320610687,0.0
13.100000858306885,-13.443442321777344,-1.2976572998046874,-1.8507178833007811,105.17557251908397,-243.0381679389313,-5.709923664122138,-14.966154577636718,0.689530078125,1.0271125122070313,-8.320610687022901,42.87022900763359,1.5572519083969465,0.0
13.110000371932983,-13.761871142578125,0.9193734375,-6.528987927246093,89.37404580152672,-240.54961832061068,-6.9465648854961835,-11.875240234375,1.2904746948242187,-1.216254443359375,-8.83969465648855,36.6412213740458,2.7022900763358777,0.0
13.12000060081482,-12.433089221191405,1.7310078002929687,-9.866505041503906,86.70229007633588,-227.78625954198472,3.6793893129770994,-11.298237634277344,2.6503812377929687,0.316034619140625,-17.053435114503817,45.81679389312977,8.381679389312977,0.0
13.130001068115234,-12.59589493408203,1.2497732666015624,-9.969455712890625,75.23664122137404,-207.54198473282443,11.282442748091603,-7.793126403808594,4.508281726074219,-2.8227637573242186,-48.76335877862596,41.45038167938932,10.259541984732824,0.0
13.140000581741333,-14.64533155517578,1.0582371337890624,-6.993463049316406,72.87022900763358,-194.38167938931298,9.877862595419847,-10.735600244140624,0.1867477294921875,-1.419761584472656,-67.86259541984732,56.25954198473283,17.51145038167939,0.0
13.15000057220459,-14.786589453125,0.10773907470703124,-4.611232397460937,75.80152671755725,-177.7709923664122,8.366412213740459,-7.575254052734374,0.11013327636718749,-4.237736938476562,-81.58778625954199,56.74809160305343,14.458015267175572,0.0
13.160000801086426,-14.791377856445312,2.901772412109375,-2.123656872558594,74.62595419847328,-159.8320610687023,9.435114503816793,-9.81862100830078,-5.604826086425781,-3.440467785644531,-78.10687022900764,75.09923664122137,19.81679389312977,0.0
13.170000314712524,-14.027627526855468,2.9831752685546875,-1.2976572998046874,58.56488549618321,-143.25190839694656,13.740458015267176,-9.34696328125,-7.170633972167968,-3.047818713378906,-56.42748091603053,82.82442748091603,20.717557251908396,0.0
13.18000054359436,-11.982979309082031,2.221819140625,-1.4963760375976562,45.770992366412216,-129.17557251908397,19.83206106870229,-8.999804040527343,-8.001421948242188,-4.302380383300781,-26.977099236641223,89.31297709923665,19.954198473282442,0.0
13.190000534057617,-10.129867224121092,2.1499930908203124,-2.221819140625,33.11450381679389,-118.61068702290076,22.99236641221374,-8.238447912597655,-4.228160131835938,-6.373364819335937,11.938931297709924,85.5114503816794,17.00763358778626,0.0
13.200001001358032,-9.358934289550781,2.5474305664062498,-2.5426421630859375,14.045801526717558,-106.61068702290076,25.66412213740458,-9.481038574218749,-2.3487118286132813,-3.6463691284179687,29.114503816793892,96.10687022900764,19.709923664122137,0.0
13.21000075340271,-5.293579870605469,-0.8571241943359375,-3.7134067749023436,5.6183206106870225,-92.54961832061069,30.763358778625953,-10.496180078124999,-0.411802685546875,-1.7597382202148437,40.85496183206107,102.99236641221374,19.66412213740458,0.0
13.220000505447388,-5.039794494628906,-0.9792284790039062,-3.0621839233398433,2.2290076335877864,-75.06870229007633,25.297709923664122,-9.299079248046874,1.7118541870117185,-2.3367408203125,40.61068702290076,105.80152671755725,19.068702290076335,0.0
13.230000495910645,-3.27526787109375,-2.4349030883789062,-4.3813890380859375,4.580152671755725,-68.07633587786259,23.81679389312977,-8.489839086914062,2.789244934082031,-3.383006945800781,44.213740458015266,98.65648854961832,20.198473282442748,0.0
13.24000072479248,-5.5449710449218745,0.8307879760742187,-2.319981408691406,4.442748091603053,-46.961832061068705,17.587786259541986,-11.257536206054686,0.9528922607421875,-1.4891934326171874,36.48854961832061,102.99236641221374,24.763358778625953,0.0
13.250000715255737,-1.8914193115234375,-1.0103531005859374,-4.57771357421875,6.824427480916031,-33.81679389312977,22.30534351145038,-9.885658654785155,1.9416975463867185,0.277727392578125,26.213740458015266,105.77099236641222,26.27480916030534,0.0
13.260000944137573,-3.574543078613281,0.5051765502929687,-3.9049429077148434,-2.6564885496183206,-20.15267175572519,18.82442748091603,-9.7683427734375,1.2808978881835937,-0.30885201416015623,31.84732824427481,92.83969465648855,25.984732824427482,0.0
13.27000117301941,-2.8036101440429686,0.7062894897460937,-3.83072265625,-11.206106870229007,-1.0076335877862594,20.671755725190838,-9.945513696289062,0.7350199096679687,-0.4525041137695312,15.877862595419847,90.41221374045801,25.022900763358777,0.0
13.280000686645508,-1.898601916503906,0.3950432739257812,-3.785232824707031,-25.099236641221374,13.053435114503817,21.404580152671755,-10.761936462402343,-2.1068974609374997,0.4285620971679687,23.740458015267176,84.36641221374046,22.717557251908396,0.0
13.290000915527344,-3.327940307617187,0.9864110839843749,-1.5825672973632812,-42.97709923664122,23.34351145038168,15.84732824427481,-9.93354268798828,-1.8339584716796873,-0.19393033447265623,28.80916030534351,75.61832061068702,17.374045801526716,0.0
13.300000667572021,-3.0502129150390624,0.7517793212890624,1.16837041015625,-50.0763358778626,31.083969465648856,10.244274809160306,-9.79946739501953,0.17956512451171874,0.5027823486328125,19.923664122137403,68.1526717557252,13.49618320610687,0.0
13.310000896453857,-2.3127988037109373,-0.699106884765625,3.9647979492187497,-48.2442748091603,33.603053435114504,5.541984732824427,-11.5304751953125,-3.8043864379882812,1.608903515625,25.96946564885496,69.3587786259542,13.557251908396946,0.0
13.320000648498535,-4.6351744140625,0.201112939453125,6.720524060058593,-35.64885496183206,36.51908396946565,-0.061068702290076333,-9.849745629882811,-0.7517793212890624,0.2154781494140625,32.42748091603053,56.88549618320611,7.648854961832061,0.0
13.330000638961792,-3.038241906738281,-1.3144167114257812,5.66946953125,1.1755725190839694,41.343511450381676,5.908396946564886,-11.722011328125,-0.9648632690429687,1.2401964599609374,26.015267175572518,52.80916030534351,9.618320610687023,0.0
13.340000629425049,-5.272032055664062,1.3670891479492187,6.313509777832031,22.885496183206108,52.3206106870229,5.4961832061068705,-10.86009873046875,-0.5985504150390625,0.8643067993164062,25.786259541984734,50.88549618320611,6.412213740458015,0.0
13.350000858306885,-6.888118176269531,3.9336733276367184,7.323862878417969,27.83206106870229,52.47328244274809,6.961832061068702,-10.927136376953124,-0.14604630126953125,1.6112977172851561,19.69465648854962,46.412213740458014,5.694656488549619,0.0
13.360000610351562,-7.829039428710937,3.9145197143554684,9.200916979980468,18.83969465648855,49.14503816793893,11.16030534351145,-10.66856259765625,-0.10295067138671875,1.2114660400390624,18.47328244274809,43.37404580152672,5.450381679389313,0.0
13.370000839233398,-10.041281762695311,4.364629626464843,11.262324609375,-2.549618320610687,39.404580152671755,10.625954198473282,-9.849745629882811,1.8722656982421875,0.28012159423828126,11.282442748091603,41.93893129770992,3.5267175572519083,0.0
13.380000591278076,-10.180145458984374,4.393360046386719,11.089942089843749,-22.47328244274809,24.595419847328245,9.893129770992367,-9.739612353515625,1.1827356201171875,1.22583125,-7.908396946564886,45.55725190839695,6.229007633587786,0.0
13.390000820159912,-10.9941740234375,4.278438366699218,11.173739147949219,-28.412213740458014,12.748091603053435,12.01526717557252,-10.539275708007812,1.4341267944335936,1.3551181396484375,-8.763358778625955,46.42748091603053,7.908396946564886,0.0
13.400000810623169,-10.462661254882812,3.632003918457031,10.156203442382813,-21.236641221374047,-0.7480916030534351,20.38167938931298,-12.246341491699217,1.3742717529296875,1.6232687255859375,-20.870229007633586,50.61068702290076,10.244274809160306,0.0
13.410000801086426,-10.369287390136718,4.979939453125,11.671733093261718,8.748091603053435,-1.2213740458015268,35.38931297709924,-11.061211669921875,0.5051765502929687,-0.7541735229492187,-42.50381679389313,45.51145038167939,9.770992366412214,0.0
13.420000791549683,-5.793968017578124,3.6559459350585937,7.041347082519531,34.229007633587784,0.6564885496183206,46.48854961832061,-10.89122335205078,-1.4125789794921875,-0.5386953735351562,-57.45038167938932,40.18320610687023,11.954198473282442,0.0
13.43000078201294,-3.744531396484375,2.540247961425781,3.162740393066406,38.656488549618324,19.72519083969466,48.732824427480914,-12.076353173828124,-2.4947581298828125,1.4125789794921875,-44.70229007633588,38.38167938931298,12.900763358778626,0.0
13.440001010894775,-3.306392492675781,1.0390835205078124,-0.7589619262695312,14.213740458015268,29.740458015267176,37.80152671755725,-12.033257543945313,-2.051830822753906,0.3136404174804687,-38.10687022900763,30.53435114503817,8.885496183206106,0.0
13.450000524520874,-7.742848168945312,-1.5418658691406248,-0.05985504150390625,-22.85496183206107,38.3206106870229,28.702290076335878,-11.504138977050781,0.8978256225585937,0.22744915771484372,-54.900763358778626,21.435114503816795,5.343511450381679,0.0
13.46000051498413,-15.385139868164062,-4.515464331054687,8.078036401367187,-19.893129770992367,51.29770992366412,26.870229007633586,-13.096283081054686,-0.05027823486328125,0.22505495605468748,-62.0763358778626,11.648854961832061,6.320610687022901,0.0
13.470000505447388,-21.610064184570312,-3.4356793823242184,11.03248125,-26.778625954198475,28.763358778625953,17.84732824427481,-13.335703247070311,0.2705447875976562,0.45968671875,-78.12213740458016,0.1984732824427481,5.1603053435114505,0.0
13.480000495910645,-18.13847177734375,-5.346252307128906,7.0844427124023435,-6.198473282442748,24.38167938931298,9.404580152671755,-13.529633581542967,0.6655880615234374,0.5674257934570313,-92.62595419847328,-10.01526717557252,4.67175572519084,0.0
13.490000486373901,-9.560047229003906,-7.501033801269531,-2.50912333984375,-15.572519083969466,13.877862595419847,-4.152671755725191,-12.720393420410156,0.24181436767578124,1.7884686401367187,-99.63358778625954,-16.458015267175572,2.4122137404580153,0.0
13.500000476837158,-9.514557397460937,-2.1883003173828124,-5.137956762695312,4.961832061068702,35.83206106870229,-20.80916030534351,-13.486537951660155,0.04548983154296875,1.889025109863281,-96.59541984732824,-24.900763358778626,1.2366412213740459,0.0
13.510001182556152,-7.220912207031249,2.221819140625,-8.116343627929687,4.6106870229007635,48.38167938931298,-21.14503816793893,-13.460201733398437,-0.469263525390625,0.13168109130859373,-85.32824427480917,-37.465648854961835,1.7557251908396947,0.0
13.520000696182251,-5.408501550292969,-0.26336218261718747,-6.4643444824218745,-10.13740458015267,57.603053435114504,-14.564885496183207,-14.334085339355468,-0.8667010009765624,-1.4628572143554686,-56.16793893129771,-53.221374045801525,3.572519083969466,0.0
13.530000925064087,-7.790732202148437,0.7589619262695312,-3.1196447631835937,4.854961832061068,80.97709923664122,-13.48091603053435,-13.05558165283203,2.166752502441406,-3.9743747558593747,-50.33587786259542,-62.47328244274809,5.862595419847328,0.0
13.540000677108765,-9.923965881347655,2.602497204589844,-3.4428619873046875,1.8015267175572518,84.22900763358778,-11.618320610687023,-12.94065997314453,2.0566192260742184,-5.370194323730469,-42.13740458015267,-59.908396946564885,7.557251908396947,0.0
13.550000667572021,-12.344503759765624,2.770091320800781,-0.373495458984375,5.435114503816794,90.0,-10.045801526717558,-12.823344091796875,0.6440402465820312,-5.9591679321289055,-48.38167938931298,-53.37404580152672,11.068702290076336,0.0
13.560000896453857,-9.150638745117186,-1.0486603271484374,-1.5849614990234373,9.297709923664122,88.80916030534351,-9.725190839694656,-11.980585107421874,0.201112939453125,-5.882553479003906,-38.74809160305343,-43.6793893129771,8.351145038167939,0.0
13.570000648498535,-10.826579907226561,-0.5003881469726562,0.4381389038085937,27.114503816793892,96.22900763358778,-15.404580152671755,-10.402806213378906,-0.28730419921875,-7.003039855957031,-32.36641221374046,-35.70992366412214,1.83206106870229,0.0
13.580000877380371,-8.700528833007812,0.44532150878906246,-1.4820108276367188,27.52671755725191,90.83969465648855,-17.984732824427482,-10.199299072265624,-0.22505495605468748,-7.548917834472656,-20.458015267175572,-23.51145038167939,-4.763358778625954,0.0
13.590000629425049,-10.788272680664061,3.871424084472656,1.4891934326171874,27.251908396946565,98.01526717557252,-20.885496183206108,-10.912771166992187,-3.1962592163085937,-5.57370146484375,-15.022900763358779,-12.488549618320612,-8.13740458015267,0.0
13.600000381469727,-11.496956372070311,4.76924970703125,2.360682836914062,-0.07633587786259542,90.80916030534351,-22.595419847328245,-12.62223115234375,-7.714117749023437,-3.265691064453125,18.198473282442748,-11.572519083969466,-10.030534351145038,0.0
13.61000108718872,-9.888052856445311,1.2497732666015624,0.4955997436523437,-22.15267175572519,82.61068702290076,-21.251908396946565,-9.6917283203125,-1.637633935546875,-2.8227637573242186,46.595419847328245,-20.702290076335878,-17.206106870229007,0.0
13.620001316070557,-11.707646118164062,2.142810485839844,2.3367408203125,-40.717557251908396,76.35114503816794,-23.49618320610687,-9.141061938476563,1.3862427612304686,-1.915361328125,54.94656488549618,-22.12213740458015,-19.358778625954198,0.0
13.630000591278076,-10.000580334472655,0.06464344482421874,1.62805712890625,-55.282442748091604,68.91603053435115,-24.99236641221374,-8.765172277832031,2.5426421630859375,-0.6416460449218749,48.25954198473283,-22.50381679389313,-17.603053435114504,0.0
13.640001058578491,-10.94868419189453,-1.4006079711914061,3.1172505615234374,-51.14503816793893,65.87786259541984,-26.015267175572518,-9.619902270507811,2.693476867675781,-0.03591302490234375,45.63358778625954,-23.099236641221374,-18.015267175572518,0.0
13.65000057220459,-8.415618835449218,-3.2345664428710936,0.967257470703125,-36.48854961832061,62.06106870229008,-25.84732824427481,-8.09479581298828,2.157175695800781,-0.277727392578125,30.198473282442748,-29.603053435114504,-18.519083969465647,0.0
13.660000801086426,-9.696516723632811,-1.3120225097656248,2.138022082519531,-17.954198473282442,64.38167938931298,-27.0381679389313,-9.576806640625,-0.6177040283203125,1.7836802368164062,33.17557251908397,-34.36641221374046,-15.755725190839694,0.0
13.670001029968262,-9.03332286376953,-1.5442600708007812,1.2904746948242187,-11.236641221374045,63.267175572519086,-27.572519083969464,-8.736441857910156,0.32082302246093747,0.6871358764648438,39.87786259541985,-49.465648854961835,-20.137404580152673,0.0
13.680001258850098,-10.625466967773438,2.068590234375,2.4349030883789062,-9.297709923664122,63.05343511450382,-28.198473282442748,-7.68059892578125,3.1196447631835937,0.26815058593749996,28.65648854961832,-52.778625954198475,-19.34351145038168,0.0
13.690000772476196,-9.215282189941405,1.7094599853515624,1.1324573852539062,-22.076335877862597,60.595419847328245,-25.129770992366414,-9.296685046386719,1.4796166259765624,0.9600748657226562,19.755725190839694,-56.656488549618324,-13.48091603053435,0.0
13.700000762939453,-8.48505068359375,1.7597382202148437,0.7565677246093749,-12.946564885496183,63.847328244274806,-22.732824427480917,-8.640673791503906,2.8275521606445313,1.3431471313476562,14.320610687022901,-62.30534351145038,-15.34351145038168,0.0
13.71000075340271,-9.473855969238281,2.932897033691406,0.8762778076171874,-18.396946564885496,63.267175572519086,-20.427480916030536,-8.93755479736328,1.4101847778320311,1.426944189453125,0.8854961832061069,-64.09160305343511,-12.793893129770993,0.0
13.720000505447388,-11.379640490722656,5.549759448242187,1.8914193115234375,-37.32824427480916,59.49618320610687,-19.0381679389313,-9.78031378173828,0.7398083129882812,1.2138602416992186,2.5801526717557253,-74.8854961832061,-11.923664122137405,0.0
13.730000495910645,-8.470685473632813,2.114080065917969,0.5410895751953124,-62.97709923664122,47.221374045801525,-14.83969465648855,-9.167398156738281,1.0414777221679687,1.3000515014648437,-6.290076335877862,-75.64885496183206,-13.206106870229007,0.0
13.740000247955322,-11.054029064941405,2.152387292480469,3.0933085449218747,-68.76335877862596,49.55725190839695,-12.946564885496183,-11.374852087402344,0.19632453613281248,1.6328455322265625,-4.152671755725191,-82.13740458015268,-11.49618320610687,0.0
13.750000476837158,-9.083601098632812,-1.5562310791015623,0.814028564453125,-69.92366412213741,39.80152671755725,-11.801526717557252,-9.744400756835937,1.4173673828125,1.24498486328125,-3.954198473282443,-87.64885496183206,-15.221374045801527,0.0
13.760000705718994,-10.371681591796875,-1.3192051147460937,1.3239935180664062,-58.35114503816794,37.908396946564885,-11.16030534351145,-12.282254516601562,-0.06703764648437499,1.0773907470703123,3.7251908396946565,-95.80152671755725,-14.076335877862595,0.0
13.770001411437988,-10.572794531249999,-1.254561669921875,1.5370774658203123,-34.274809160305345,41.541984732824424,-14.290076335877863,-11.956643090820311,-0.7350199096679687,0.34237083740234375,9.603053435114504,-100.74809160305344,-15.770992366412214,0.0
13.780000686645508,-10.965443603515624,0.7062894897460937,1.5059528442382812,-33.81679389312977,36.656488549618324,-16.015267175572518,-10.802637890625,0.5219359619140624,0.689530078125,11.099236641221374,-106.12213740458016,-17.31297709923664,0.0
13.790000915527344,-9.974244116210937,0.8954314208984374,0.5746083984375,-22.763358778625953,38.2442748091603,-15.236641221374045,-10.261548315429687,0.4644751220703125,-1.1707646118164061,10.473282442748092,-113.31297709923665,-18.045801526717558,0.0
13.8000009059906,-10.077194787597655,3.1387983764648437,0.4836287353515625,-29.72519083969466,36.091603053435115,-15.465648854961833,-10.465055456542968,1.7381904052734374,-0.3280056274414062,18.82442748091603,-109.70992366412214,-16.259541984732824,0.0
13.810000896453857,-9.023746057128905,2.2744915771484373,0.09576806640624999,-29.709923664122137,38.0,-13.816793893129772,-10.998962426757812,2.2266075439453124,-0.22266075439453123,14.65648854961832,-108.10687022900764,-15.221374045801527,0.0
13.820000648498535,-7.821856823730468,0.9050082275390624,-0.258573779296875,-22.9618320610687,40.87022900763359,-9.419847328244275,-9.605537060546874,2.0302830078125,-1.4604630126953124,8.290076335877863,-103.66412213740458,-15.694656488549619,0.0
13.830000638961792,-9.641450085449218,4.783614916992187,1.4125789794921875,-40.19847328244275,34.88549618320611,-9.893129770992367,-9.639055883789062,1.8507178833007811,-2.2194249389648437,12.534351145038167,-99.38931297709924,-12.748091603053435,0.0
13.84000039100647,-9.397241516113281,1.6927005737304686,0.011971008300781249,-44.2442748091603,33.64885496183206,-5.709923664122138,-9.425971936035156,0.9576806640625,-0.82360537109375,4.931297709923665,-85.58778625954199,-8.900763358778626,0.0
13.850000858306885,-8.013392956542969,-0.9792284790039062,0.51714755859375,-25.450381679389313,43.267175572519086,-2.2595419847328246,-8.310273962402343,1.1085153686523437,-2.123656872558594,4.030534351145038,-87.14503816793894,-11.282442748091603,0.0
13.860000610351562,-9.598354455566406,0.20829554443359374,0.6871358764648438,-14.854961832061068,48.030534351145036,-8.351145038167939,-8.63109698486328,-0.04548983154296875,0.15562310791015624,2.3053435114503817,-70.51908396946565,-10.961832061068701,0.0
13.870000839233398,-9.938331091308592,0.2561795776367187,0.06703764648437499,-14.82442748091603,49.37404580152672,-10.229007633587786,-10.149020837402343,-1.0534487304687499,0.28012159423828126,16.15267175572519,-74.79389312977099,-10.83969465648855,0.0
13.880000591278076,-10.175357055664062,0.25139117431640623,-0.17477672119140625,-3.0839694656488548,52.091603053435115,-10.473282442748092,-8.312668164062499,-0.033518823242187495,-0.26815058593749996,15.801526717557252,-69.48091603053435,-14.732824427480915,0.0
13.890000581741333,-9.892841259765625,0.8259995727539062,-0.1484405029296875,-8.412213740458014,52.19847328244275,-12.351145038167939,-9.665392102050781,0.16041151123046873,0.1867477294921875,15.618320610687023,-62.152671755725194,-12.442748091603054,0.0
13.900035858154297,-10.137049829101562,1.47482822265625,0.16041151123046873,-16.916030534351144,51.52671755725191,-12.702290076335878,-10.216058483886718,-0.8858546142578124,0.04548983154296875,22.580152671755727,-63.93893129770992,-12.793893129770993,0.0
13.910000801086426,-9.792284790039062,0.143652099609375,-0.2059013427734375,-18.641221374045802,47.23664122137404,-11.34351145038168,-8.513781103515624,0.59376201171875,-0.565031591796875,29.328244274809162,-61.86259541984733,-15.541984732824428,0.0
13.920000791549683,-9.586383447265625,-0.3950432739257812,0.36152445068359373,-8.534351145038167,46.83969465648855,-10.610687022900763,-7.369352709960937,2.913743420410156,-0.3495534423828125,17.603053435114504,-52.97709923664122,-13.633587786259541,0.0
13.93000078201294,-10.31661495361328,0.7637503295898437,1.1875240234375,-15.557251908396946,43.267175572519086,-11.877862595419847,-8.734047656249999,1.5753846923828123,0.033518823242187495,14.305343511450381,-45.61832061068702,-8.045801526717558,0.0
13.940000772476196,-10.55364091796875,0.229843359375,1.3814543579101561,-7.4961832061068705,41.02290076335878,-10.564885496183207,-7.920019091796875,1.0271125122070313,0.59376201171875,20.549618320610687,-42.38167938931298,-8.01526717557252,0.0
13.950000762939453,-10.965443603515624,0.28969840087890625,1.5586252807617187,3.969465648854962,38.44274809160305,-11.083969465648854,-8.355763793945313,0.47644613037109373,0.9888052856445312,18.99236641221374,-34.67175572519084,-6.427480916030534,0.0
13.960000276565552,-10.024522351074218,1.2856862915039062,0.842758984375,3.49618320610687,32.2442748091603,-10.335877862595419,-7.524975817871093,2.133233679199219,-0.01915361328125,12.793893129770993,-28.213740458015266,-6.1679389312977095,0.0
13.970000743865967,-8.772354882812499,0.5123591552734374,-0.6847416748046875,-0.1984732824427481,28.091603053435115,-6.748091603053435,-7.513004809570312,1.8052280517578123,0.51714755859375,-4.519083969465649,-16.48854961832061,-2.7022900763358777,0.0
13.980000495910645,-8.192958081054687,0.19871873779296872,-0.5291185668945312,0.8549618320610687,28.458015267175572,-5.419847328244275,-8.259995727539062,0.9097966308593749,1.2401964599609374,-6.198473282442748,-15.374045801526718,-0.4122137404580153,0.0
13.99000072479248,-7.685387329101562,-0.7062894897460937,-1.16837041015625,5.938931297709924,27.893129770992367,-6.67175572519084,-8.008604553222655,-0.239420166015625,1.426944189453125,-5.770992366412214,-7.984732824427481,-1.8473282442748091,0.0
14.000000476837158,-8.549694128417968,0.16041151123046873,-0.18435352783203124,13.297709923664122,33.52671755725191,-9.16030534351145,-8.037334973144532,-0.8355763793945312,1.24498486328125,-5.419847328244275,-8.213740458015268,-2.6564885496183206,0.0
14.010000705718994,-9.631873278808593,0.3854664672851562,-0.12210428466796874,13.129770992366412,34.213740458015266,-9.969465648854962,-8.36294639892578,-0.852335791015625,2.0302830078125,2.717557251908397,-7.175572519083969,-4.198473282442748,0.0
14.020000457763672,-10.160991845703125,1.455674609375,1.4125789794921875,11.17557251908397,35.25190839694657,-12.01526717557252,-8.197746484375,-0.6560112548828124,2.0925322509765625,4.67175572519084,-6.3816793893129775,-6.900763358778626,0.0
14.030000925064087,-9.006986645507812,0.7829039428710937,0.5530605834960938,5.7251908396946565,29.52671755725191,-11.389312977099237,-8.499415893554687,-0.43574470214843747,2.4899697265625,10.320610687022901,-7.709923664122138,-7.877862595419847,0.0
14.040000677108765,-11.039663854980468,2.4756045166015626,2.5450363647460934,4.564885496183206,30.68702290076336,-13.206106870229007,-7.773972790527344,-0.39743747558593745,2.5139117431640625,10.0,-6.732824427480916,-8.702290076335878,0.0
14.05000114440918,-10.977414611816405,2.9664158569335934,2.8371289672851563,-6.198473282442748,25.404580152671755,-12.229007633587786,-8.257601525878906,-0.5770026000976562,2.863465185546875,15.511450381679388,-7.908396946564886,-8.01526717557252,0.0
14.060000658035278,-10.058041174316406,2.059013427734375,2.27927998046875,-6.412213740458015,19.87786259541985,-8.870229007633588,-7.407659936523437,-0.6847416748046875,2.5258827514648434,14.549618320610687,-7.923664122137405,-9.404580152671755,0.0
14.070000886917114,-10.180145458984374,2.3032219970703123,2.8562825805664063,-17.51145038167939,11.816793893129772,-7.251908396946565,-7.898471276855468,-0.9624690673828125,2.7054478759765623,20.48854961832061,-8.580152671755725,-8.320610687022901,0.0
14.080000400543213,-10.785878479003905,1.5035586425781249,3.0430303100585934,-10.793893129770993,7.145038167938932,-5.8320610687022905,-7.738059765625,-1.2018892333984375,2.6623522460937497,23.87786259541985,-7.801526717557252,-8.16793893129771,0.0
14.090000629425049,-10.194510668945313,0.8307879760742187,3.6679169433593746,-1.3435114503816794,2.931297709923664,-4.305343511450381,-6.900089184570312,-0.7158662963867187,2.1883003173828124,21.282442748091604,-7.480916030534351,-10.061068702290076,0.0
14.100000619888306,-10.32379755859375,0.4333505004882812,3.9312791259765625,1.9694656488549618,-2.946564885496183,-4.656488549618321,-7.194575988769531,-0.8451531860351562,2.4157494750976563,22.061068702290076,-3.099236641221374,-10.473282442748092,0.0
14.110000610351562,-10.465055456542968,0.5746083984375,5.109226342773437,8.366412213740459,-8.702290076335878,-4.625954198473282,-6.687005236816406,-1.0726023437499999,2.1116858642578125,21.6793893129771,-1.0381679389312977,-11.389312977099237,0.0
14.120000839233398,-10.929530578613281,0.02633621826171875,6.356605407714843,17.297709923664122,-16.229007633587788,-4.183206106870229,-6.751648681640624,-2.0302830078125,2.269703173828125,17.51145038167939,5.00763358778626,-13.19083969465649,0.0
14.130000591278076,-10.972626208496093,-1.158793603515625,8.585607153320312,33.51145038167939,-27.480916030534353,-3.404580152671756,-7.788338000488281,-2.6719290527343746,1.0845733520507812,29.84732824427481,5.404580152671755,-14.870229007633588,0.0
14.140001058578491,-12.246341491699217,-0.7541735229492187,10.704475622558594,58.732824427480914,-40.396946564885496,-1.83206106870229,-5.233724829101562,-0.7709329345703124,-0.11252747802734374,31.6793893129771,11.541984732824428,-21.206106870229007,0.0
14.150000810623169,-14.058752148437499,1.5945383056640625,13.795389965820311,76.19847328244275,-56.82442748091603,0.7938931297709924,-7.024587670898437,0.055066638183593745,-1.5801730957031248,34.83969465648855,27.954198473282442,-19.954198473282442,0.0
14.160000801086426,-17.085023046874998,3.801992236328125,16.282965490722656,68.58015267175573,-88.44274809160305,5.938931297709924,-6.979097839355468,1.9009961181640624,-3.0980969482421874,33.7557251908397,35.69465648854962,-21.61832061068702,0.0
14.170000791549683,-18.0810109375,3.5529952636718747,16.606182714843747,67.19083969465649,-123.98473282442748,14.045801526717558,-9.440337145996093,5.042188696289062,-1.5514426757812498,23.862595419847327,46.091603053435115,-21.480916030534353,0.0
14.180001020431519,-18.66759034423828,2.3678654418945313,16.94376514892578,59.66412213740458,-160.94656488549617,17.541984732824428,-11.106701501464842,7.3549875,1.7262193969726563,-2.015267175572519,55.89312977099237,-16.30534351145038,0.0
14.190000534057617,-18.82800185546875,-1.1875240234375,15.509638354492187,46.44274809160305,-199.8320610687023,19.00763358778626,-15.193603735351562,5.334281298828125,4.8650177734375,-12.106870229007633,56.44274809160305,-5.343511450381679,0.0
14.200000762939453,-17.95890665283203,-3.086125939941406,13.498508959960937,73.32824427480917,-226.76335877862596,21.297709923664122,-14.171279626464843,3.373430139160156,3.7995980346679685,-23.770992366412212,45.587786259541986,-4.549618320610687,0.0
14.21000075340271,-15.219939953613281,-4.508281726074219,3.938461730957031,97.63358778625954,-241.84732824427482,25.61832061068702,-13.505691564941406,2.4492682983398435,3.1747114013671873,-41.725190839694655,48.13740458015267,-2.519083969465649,0.0
14.220000505447388,-14.094665173339843,-1.37906015625,-3.4093431640625,79.6793893129771,-248.27480916030535,21.908396946564885,-12.871228125,0.28969840087890625,1.4101847778320311,-41.541984732824424,33.43511450381679,4.519083969465649,0.0
14.230000495910645,-14.556746093749998,-1.9871873779296874,-8.999804040527343,70.59541984732824,-240.91603053435114,24.106870229007633,-8.90643017578125,1.8507178833007811,-0.7589619262695312,-47.29770992366412,33.74045801526717,5.969465648854962,0.0
14.24000072479248,-13.175291735839844,-1.599326708984375,-10.884040747070312,70.25954198473282,-220.7175572519084,29.96946564885496,-8.872911352539061,0.4740519287109375,-2.3870190551757813,-53.51145038167939,31.87786259541985,8.595419847328245,0.0
14.250000476837158,-13.338097448730467,-2.442085693359375,-11.432312927246093,69.16030534351145,-198.83969465648855,31.938931297709924,-8.813056311035156,0.009576806640625,-2.195482922363281,-63.64885496183206,36.67175572519084,7.877862595419847,0.0
14.260000705718994,-14.267047692871094,-0.3232172241210937,-5.686228942871093,61.87786259541985,-182.91603053435114,21.61832061068702,-7.654262707519531,-2.971204260253906,-2.7629087158203123,-77.19083969465649,40.94656488549618,6.99236641221374,0.0
14.27000093460083,-14.563928698730468,2.882618798828125,-1.678335363769531,59.52671755725191,-167.49618320610688,20.290076335877863,-8.578424548339843,-3.8379052612304685,-3.4739866088867184,-77.98473282442748,48.961832061068705,8.0,0.0
14.280000925064087,-14.57589970703125,2.4660277099609376,-0.9457096557617187,50.01526717557252,-152.61068702290078,26.900763358778626,-9.543287817382812,-6.323086584472656,-3.9624037475585934,-68.53435114503817,57.57251908396947,8.458015267175572,0.0
14.290000915527344,-13.658920471191406,2.360682836914062,-0.22505495605468748,39.74045801526717,-133.7709923664122,30.3206106870229,-8.32463917236328,-4.369418029785156,-3.77326181640625,-47.969465648854964,69.29770992366412,9.358778625954198,0.0
14.3000009059906,-10.658985791015624,0.07422025146484375,-1.5753846923828123,32.80916030534351,-124.70229007633588,34.88549618320611,-10.805032092285156,-5.942408520507812,-4.060566015625,-14.778625954198473,72.13740458015268,11.48091603053435,0.0
14.310000896453857,-9.488221179199218,-0.48123453369140623,-1.7669208251953124,28.68702290076336,-109.34351145038168,32.717557251908396,-11.355698474121093,-5.485116003417969,-3.1268273681640624,15.816793893129772,80.54961832061069,13.648854961832061,0.0
14.320000886917114,-9.682151513671874,0.12689268798828124,-2.118868469238281,17.206106870229007,-101.49618320610686,33.41984732824427,-7.886500268554687,-1.5801730957031248,-4.575319372558593,37.64885496183206,78.42748091603053,12.13740458015267,0.0
14.330000638961792,-9.095572106933593,0.3447650390625,-1.6927005737304686,5.511450381679389,-97.41984732824427,34.79389312977099,-9.105148913574219,-0.6536170532226562,-2.8275521606445313,40.0,87.46564885496183,15.755725190839694,0.0
14.340000629425049,-6.138733056640625,-2.2840683837890623,-2.8419173706054686,-2.9160305343511452,-93.00763358778626,35.31297709923664,-11.226411584472656,0.7158662963867187,-1.9656395629882812,31.786259541984734,98.94656488549619,17.81679389312977,0.0
14.350000381469727,-7.0844427124023435,-1.5011644409179687,-1.8722656982421875,-4.778625954198473,-82.70229007633588,27.603053435114504,-9.746794958496093,2.461239306640625,-2.0254946044921875,33.282442748091604,96.83969465648855,17.17557251908397,0.0
14.360000610351562,-5.080495922851562,-2.262520568847656,-2.89219560546875,-4.549618320610687,-74.22900763358778,26.213740458015266,-11.209652172851563,0.833182177734375,-2.1499930908203124,34.82442748091603,97.48091603053435,21.81679389312977,0.0
14.37000060081482,-4.7764323120117185,-1.8124106567382812,-2.664746447753906,-9.679389312977099,-61.48091603053435,21.96946564885496,-9.011775048828124,2.2290017456054687,-1.2641384765625,33.847328244274806,98.42748091603053,22.48854961832061,0.0
14.380000591278076,-3.6918589599609373,-2.5354595581054684,-4.505887524414062,-12.320610687022901,-48.656488549618324,20.671755725190838,-11.231199987792968,0.5099649536132812,-0.7206546997070312,36.93129770992366,95.92366412213741,25.374045801526716,0.0
14.390000581741333,-2.693476867675781,-2.2290017456054687,-4.355052819824219,-11.007633587786259,-28.793893129770993,16.65648854961832,-8.487444885253906,1.8004396484374998,-1.235408056640625,30.65648854961832,90.74809160305344,23.14503816793893,0.0
14.400000810623169,-1.1133037719726562,-1.905784521484375,-5.250484240722656,-10.274809160305344,-12.01526717557252,14.854961832061068,-9.792284790039062,0.3327940307617187,0.16759411621093748,29.282442748091604,89.06870229007633,24.38167938931298,0.0
14.410000801086426,-1.7381904052734374,-1.3096283081054687,-3.181894006347656,-15.938931297709924,11.450381679389313,6.442748091603053,-9.023746057128905,-0.49320554199218747,0.25139117431640623,36.94656488549618,81.58778625954199,21.908396946564885,0.0
14.420001029968262,-2.023100402832031,-0.6248866333007812,-1.5107412475585937,-25.69465648854962,17.709923664122137,-2.7938931297709924,-10.299855541992187,0.5602431884765625,-0.4285620971679687,33.954198473282446,79.74045801526718,19.923664122137403,0.0
14.43000054359436,-3.679887951660156,1.4772224243164063,2.741360900878906,-27.267175572519083,30.717557251908396,-10.0,-9.490615380859374,1.9680337646484374,0.33039982910156246,23.61832061068702,78.73282442748092,17.221374045801525,0.0
14.440000772476196,-3.2800562744140622,1.1109095703125,4.043806604003906,-25.480916030534353,33.52671755725191,-8.83969465648855,-10.697293017578124,-1.1037269653320312,2.104503259277344,20.625954198473284,76.07633587786259,18.259541984732824,0.0
14.450000524520874,-4.786009118652344,2.360682836914062,4.398148449707031,-15.48091603053435,36.2442748091603,-5.893129770992366,-11.051634863281249,-1.5969325073242187,2.31758720703125,28.35114503816794,68.97709923664122,14.961832061068701,0.0
14.460000276565552,-3.948038537597656,1.6615759521484375,2.616862414550781,1.5725190839694656,40.94656488549618,2.3206106870229006,-10.867281335449219,-0.8571241943359375,1.4724340209960938,28.778625954198475,59.465648854961835,12.427480916030534,0.0
14.470000743865967,-5.085284326171875,3.2824504760742186,4.359841223144531,8.259541984732824,49.74045801526717,6.854961832061068,-9.473855969238281,0.6009446166992187,1.879448303222656,16.442748091603054,56.900763358778626,12.702290076335878,0.0
14.480000495910645,-7.132326745605468,3.342305517578125,7.110778930664062,1.984732824427481,55.343511450381676,11.954198473282442,-10.290278735351562,-0.9409212524414062,1.5011644409179687,18.610687022900763,55.282442748091604,12.961832061068701,0.0
14.49000072479248,-7.941566906738281,3.201047619628906,8.84178673095703,-3.5114503816793894,52.458015267175576,11.511450381679388,-10.560823522949217,-0.5434837768554687,2.094926452636719,16.9618320610687,53.57251908396947,13.419847328244275,0.0
14.500000715255737,-8.628702783203124,4.333505004882812,9.390058911132812,-8.946564885496183,44.0,9.694656488549619,-11.334150659179686,1.5921441040039062,2.2385785522460937,11.770992366412214,56.79389312977099,13.603053435114504,0.0
14.510000467300415,-8.63827958984375,5.743689782714843,9.208099584960937,-20.885496183206108,32.97709923664122,10.13740458015267,-8.741230261230468,1.4173673828125,0.430956298828125,-14.916030534351146,51.55725190839695,12.0,0.0
14.520000696182251,-9.797073193359374,7.089231115722656,9.943119494628906,-27.099236641221374,25.908396946564885,15.114503816793894,-9.821015209960937,0.9720458740234375,1.1061211669921875,-29.755725190839694,56.030534351145036,15.923664122137405,0.0
14.530000686645508,-9.10993731689453,5.7891796142578125,9.89523546142578,-29.083969465648856,16.870229007633586,25.755725190839694,-10.831368310546875,-0.5003881469726562,0.9121908325195311,-36.16793893129771,55.06870229007634,15.893129770992367,0.0
14.540000915527344,-8.092401611328125,3.5434184570312497,8.458714465332031,-24.48854961832061,12.030534351145038,36.10687022900763,-11.884817041015625,-4.039018200683594,1.9776105712890624,-27.87786259541985,51.20610687022901,14.488549618320612,0.0
14.5500009059906,-4.503493322753906,-1.16837041015625,5.758054992675781,4.595419847328245,24.47328244274809,42.42748091603053,-10.658985791015624,0.055066638183593745,0.6368576416015624,-18.580152671755727,35.80152671755725,7.847328244274809,0.0
14.560000896453857,-3.5984850952148437,-1.9416975463867185,0.82360537109375,9.32824427480916,34.38167938931298,34.152671755725194,-12.564770312499999,0.74699091796875,2.473210314941406,-31.66412213740458,34.85496183206107,10.122137404580153,0.0
14.570000886917114,-9.593566052246093,-1.3335703247070312,2.147598889160156,-24.366412213740457,39.29770992366412,18.778625954198475,-11.654973681640625,2.221819140625,2.4516625,-50.18320610687023,28.27480916030534,9.419847328244275,0.0
14.580000877380371,-17.33402001953125,-3.5769372802734374,8.793902697753905,-19.068702290076335,35.17557251908397,24.580152671755727,-13.235146777343749,1.20667763671875,2.365471240234375,-70.62595419847328,14.549618320610687,12.946564885496183,0.0
14.590000629425049,-19.78568251953125,-6.701370446777343,13.91031164550781,39.267175572519086,37.587786259541986,31.923664122137403,-14.724340209960937,-1.0295067138671874,4.216189123535156,-82.50381679389314,5.190839694656488,14.595419847328245,0.0
14.600000858306885,-19.543868151855467,-2.3582886352539063,10.675745202636719,60.97709923664122,25.49618320610687,13.694656488549619,-14.470554833984375,-3.296815686035156,4.256890551757812,-80.2442748091603,-7.893129770992366,10.106870229007633,0.0
14.610000610351562,-12.593500732421875,-2.2936451904296873,2.166752502441406,49.89312977099237,17.801526717557252,0.8702290076335878,-11.89439384765625,-1.5035586425781249,4.163516687011718,-80.87022900763358,-20.35114503816794,3.5877862595419847,0.0
14.62000060081482,-8.47786807861328,1.6041151123046875,-3.1555577880859373,30.33587786259542,17.206106870229007,-7.923664122137405,-12.619836950683593,-1.7597382202148437,4.165910888671875,-68.18320610687023,-29.786259541984734,1.7251908396946565,0.0
14.630000829696655,-6.347028601074219,3.6942531616210936,-7.709329345703124,11.86259541984733,22.16793893129771,-7.022900763358779,-12.667720983886719,-0.8044517578125,1.7669208251953124,-79.37404580152672,-38.61068702290076,5.648854961832061,0.0
14.640000581741333,-3.459621398925781,-1.01514150390625,-6.8569935546875,-3.5419847328244276,35.74045801526717,0.5190839694656488,-13.271059802246093,1.1923124267578125,-0.6512228515624999,-55.847328244274806,-49.02290076335878,7.145038167938932,0.0
14.65000057220459,-6.675034228515624,-1.2952630981445312,-3.6296097167968746,6.229007633587786,57.87786259541985,0.15267175572519084,-12.026074938964843,2.205059729003906,-3.5146880371093747,-45.45038167938932,-53.954198473282446,8.229007633587786,0.0
14.660000324249268,-8.334215979003906,-1.22583125,-5.130774157714844,11.603053435114504,63.05343511450382,-1.251908396946565,-12.67250938720703,0.2609679809570312,-5.061342309570312,-33.267175572519086,-51.099236641221374,10.564885496183207,0.0
14.670000553131104,-11.281478222656249,-0.47884033203125,-3.1387983764648437,32.595419847328245,79.72519083969466,-5.236641221374046,-11.554417211914062,0.47644613037109373,-7.0078282592773435,-25.267175572519083,-55.6793893129771,7.343511450381679,0.0
14.68000078201294,-11.10191309814453,-0.6248866333007812,-4.070142822265625,36.0,83.1145038167939,-8.717557251908397,-13.718775512695311,1.4341267944335936,-5.025429284667968,-8.67175572519084,-42.030534351145036,5.7251908396946565,0.0
14.690000772476196,-12.404358801269531,1.3958195678710936,-0.06464344482421874,37.49618320610687,91.00763358778626,-14.778625954198473,-10.857704528808593,1.1276689819335937,-6.476315490722656,-25.984732824427482,-35.38931297709924,3.5572519083969465,0.0
14.700001001358032,-9.662997900390625,0.14604630126953125,-0.21787235107421873,29.572519083969464,90.58015267175573,-16.732824427480917,-11.614272253417967,-0.23223756103515625,-6.4667386840820305,-17.00763358778626,-22.549618320610687,4.122137404580153,0.0
14.71000051498413,-10.733206042480468,1.0534487304687499,0.316034619140625,34.80916030534351,94.67175572519083,-19.96946564885496,-10.467449658203124,-3.038241906738281,-6.976703637695312,0.7175572519083969,-23.83206106870229,-1.3740458015267176,0.0
14.720000743865967,-11.06360587158203,3.057395520019531,-0.2537853759765625,21.908396946564885,89.08396946564885,-23.557251908396946,-13.077129467773437,-3.2154128295898436,-4.745307690429687,25.6793893129771,-15.83206106870229,-5.572519083969466,0.0
14.730000495910645,-10.716446630859375,3.6655227416992187,0.3806780639648437,3.6946564885496183,86.33587786259542,-24.106870229007633,-12.150573425292968,-1.1372457885742187,-3.854664672851562,37.45038167938932,-18.229007633587788,-11.267175572519085,0.0
14.74000072479248,-11.142614526367186,4.862623571777344,0.8403647827148437,-28.99236641221374,78.68702290076335,-26.763358778625953,-10.903194360351561,1.5490484741210937,-2.35589443359375,41.19083969465649,-17.297709923664122,-11.404580152671755,0.0
14.750000476837158,-9.80665,1.93451494140625,-0.2657563842773437,-53.38931297709924,72.10687022900764,-24.885496183206108,-10.311826550292968,1.0582371337890624,-1.89620771484375,49.6793893129771,-23.69465648854962,-12.290076335877863,0.0
14.760000705718994,-10.302249743652343,1.4891934326171874,0.7589619262695312,-51.00763358778626,68.77862595419847,-23.34351145038168,-10.072406384277343,3.105279553222656,-0.8643067993164062,45.969465648854964,-24.12213740458015,-13.48091603053435,0.0
14.77000117301941,-10.740388647460938,1.3144167114257812,1.5035586425781249,-57.7557251908397,65.6793893129771,-21.236641221374047,-7.649474304199218,2.980781066894531,-1.4963760375976562,24.931297709923665,-28.35114503816794,-12.977099236641221,0.0
14.780000925064087,-7.7596075805664055,-1.4053963745117186,0.6655880615234374,-47.45038167938932,62.656488549618324,-16.259541984732824,-8.66940421142578,2.8898014038085935,0.6344634399414062,16.931297709923665,-29.572519083969464,-9.129770992366412,0.0
