timestamp,Thigh_L_Acc_X,Thigh_L_Acc_Y,Thigh_L_Acc_Z,Thigh_L_Gyr_X,Thigh_L_Gyr_Y,Thigh_L_Gyr_Z,Thigh_R_Acc_X,Thigh_R_Acc_Y,Thigh_R_Acc_Z,Thigh_R_Gyr_X,Thigh_R_Gyr_Y,Thigh_R_Gyr_Z,gpio_output
10.000000476837158,0.5363011718749999,-7.704540942382812,-1.5897499023437498,-27.435114503816795,35.221374045801525,29.419847328244273,-16.42901179199219,-11.563994018554688,6.007051965332031,-27.72519083969466,138.41221374045801,65.14503816793894,0.0
10.010000705718994,-1.1851298217773436,-10.639832177734375,0.9959878906249999,13.83206106870229,54.56488549618321,13.526717557251908,-10.601524951171875,-8.441955053710936,2.2361843505859373,87.2824427480916,92.19847328244275,59.37404580152672,1.0
10.020000696182251,-1.7693150268554687,-11.415553515625,2.511517541503906,70.3206106870229,69.90839694656489,-5.419847328244275,-13.385981481933593,-13.512874169921874,4.266467358398438,115.34351145038168,81.0381679389313,42.48854961832061,1.0
10.030001163482666,-3.5098996337890624,-8.221688500976562,5.614402893066406,110.13740458015268,85.31297709923665,-22.30534351145038,-8.765172277832031,-3.1938650146484373,-0.22744915771484372,149.206106870229,46.48854961832061,22.50381679389313,1.0
10.040000915527344,-5.013458276367187,-0.5698199951171875,4.544194750976562,118.21374045801527,83.74045801526718,-34.56488549618321,-11.051634863281249,0.12689268798828124,2.24097275390625,115.57251908396947,43.70992366412214,14.641221374045802,1.0
10.0500009059906,-7.668627917480468,8.013392956542969,5.298368273925781,86.47328244274809,84.04580152671755,-36.25954198473283,-9.528922607421874,6.069301208496094,1.5682020874023437,99.78625954198473,35.12977099236641,9.145038167938932,1.0
10.060001373291016,-9.220070593261719,11.56159981689453,6.189011291503906,48.68702290076336,75.06870229007633,-24.015267175572518,-13.393164086914062,4.989516259765625,2.578555187988281,65.41984732824427,39.969465648854964,18.83969465648855,1.0
10.070000886917114,-10.421959826660157,10.139444030761718,9.983820922851562,32.229007633587784,73.6793893129771,-3.9389312977099236,-11.295843432617186,3.153163586425781,0.9265560424804687,35.17557251908397,35.23664122137404,18.83969465648855,1.0
10.08000111579895,-10.024522351074218,6.45476767578125,11.06360587158203,6.213740458015267,59.7557251908397,8.748091603053435,-11.480196960449218,2.061407629394531,1.01514150390625,15.129770992366412,38.6412213740458,19.358778625954198,1.0
10.090000867843628,-9.634267480468749,2.7437551025390623,12.114660400390624,-7.908396946564886,53.23664122137404,13.129770992366412,-10.742782849121093,1.3359645263671873,0.16280571289062498,-3.312977099236641,38.916030534351144,16.48854961832061,1.0
10.100001096725464,-8.214505895996094,1.1444283935546875,11.40837091064453,-12.748091603053435,42.0,11.526717557251908,-11.133037719726563,1.2330138549804688,0.8667010009765624,-9.572519083969466,41.63358778625954,15.618320610687023,1.0
10.110000848770142,-8.298302954101562,1.4006079711914061,10.9175595703125,-10.854961832061068,31.862595419847327,7.190839694656488,-13.115436694335937,-1.5825672973632812,-0.7948749511718749,-15.709923664122137,44.091603053435115,16.458015267175572,1.0
10.120000839233398,-8.252813122558594,3.4428619873046875,11.171344946289063,2.7022900763358777,22.53435114503817,9.969465648854962,-11.307814440917968,3.450044592285156,1.0342951171875,-35.954198473282446,40.18320610687023,13.786259541984732,1.0
10.130001068115234,-9.212887988281249,6.605602380371093,12.497732666015624,7.709923664122138,15.083969465648854,20.885496183206108,-9.93354268798828,3.181894006347656,0.5961562133789062,-72.97709923664122,43.55725190839695,15.022900763358779,1.0
10.140000581741333,-6.385335827636719,3.9169139160156248,6.924031201171875,13.740458015267176,15.297709923664122,38.0763358778626,-11.233594189453123,-1.6256629272460936,1.2114660400390624,-77.37404580152672,43.98473282442748,20.015267175572518,1.0
10.15000057220459,-4.153939880371094,-0.30406361083984373,-0.737414111328125,20.717557251908396,35.847328244274806,43.55725190839695,-13.261482995605467,-4.513070129394531,0.031124621582031248,-55.70992366412214,32.717557251908396,18.137404580152673,1.0
10.160000562667847,-5.925649108886718,-4.086902233886718,-2.118868469238281,-3.2519083969465647,42.79389312977099,29.114503816793892,-12.85207451171875,-4.7931917236328125,-0.8068459594726562,-41.587786259541986,19.541984732824428,10.50381679389313,1.0
10.170000553131104,-9.018957653808593,-9.904812268066406,3.7612908081054686,23.81679389312977,48.916030534351144,24.717557251908396,-13.625401647949218,-3.5314474487304683,-0.5913678100585937,-24.580152671755727,8.702290076335878,4.824427480916031,1.0
10.18000078201294,-16.30690750732422,-8.087613208007811,14.353238952636717,98.79389312977099,57.74045801526717,27.66412213740458,-13.781024755859374,-0.0430956298828125,-1.01514150390625,-15.358778625954198,-0.8244274809160306,2.0916030534351147,1.0
10.190000534057617,-22.380997119140623,-0.4070142822265625,15.648502050781248,130.21374045801528,52.97709923664122,24.748091603053435,-13.922282653808592,1.944091748046875,-0.7733271362304687,-11.969465648854962,-5.4961832061068705,6.885496183206107,1.0
10.200000524520874,-22.32593048095703,3.2321722412109373,8.793902697753905,72.83969465648855,22.80916030534351,6.458015267175573,-12.433089221191405,4.534617944335937,-1.3407529296874998,-15.17557251908397,-7.603053435114504,13.32824427480916,1.0
10.21000075340271,-19.69470285644531,3.0071172851562498,3.440467785644531,13.267175572519085,1.4809160305343512,-4.396946564885496,-11.367669482421874,5.193023400878906,-1.7477672119140624,-29.0381679389313,-5.694656488549619,19.236641221374047,0.0
10.220000505447388,-8.621520178222656,-4.144363073730468,-5.7125651611328125,1.2061068702290076,-8.961832061068701,1.2671755725190839,-12.569558715820312,2.7150246826171873,-1.714248388671875,-40.3206106870229,-8.549618320610687,24.045801526717558,0.0
10.230000734329224,-6.222530114746093,-2.7820623291015623,-5.482721801757812,26.946564885496183,10.748091603053435,0.10687022900763359,-14.008473913574218,3.3303345092773435,-3.3494881225585935,-42.229007633587784,-17.51145038167939,25.297709923664122,0.0
10.240000486373901,-2.272097375488281,-2.068590234375,-7.3549875,35.61832061068702,25.435114503816795,-1.5725190839694656,-9.313444458007812,2.6048914062499997,-2.779668127441406,-64.1526717557252,-27.84732824427481,25.022900763358777,0.0
10.250000953674316,-2.7150246826171873,-1.458068811035156,-5.4707507934570305,52.82442748091603,49.48091603053435,-3.1755725190839694,-12.72997022705078,-1.024718310546875,-4.527435339355469,-34.045801526717554,-28.564885496183205,28.595419847328245,0.0
10.260000705718994,-5.710170959472656,1.5155296508789062,-4.977545251464844,60.67175572519084,70.90076335877863,-7.572519083969466,-12.643778967285156,-4.513070129394531,1.9919757812499999,-12.748091603053435,-29.19083969465649,30.229007633587788,0.0
10.27000093460083,-9.006986645507812,4.017470385742187,-3.88818349609375,46.900763358778626,85.25190839694656,-9.083969465648854,-9.131485131835937,1.7525556152343749,-3.845087866210937,14.335877862595419,-46.13740458015267,14.763358778625955,0.0
10.280000925064087,-11.231199987792968,5.487510205078125,-2.4157494750976563,8.045801526717558,87.92366412213741,-8.687022900763358,-9.950302099609374,2.559401574707031,-4.467580297851562,-11.938931297709924,-43.06870229007634,15.526717557251908,0.0
10.290000677108765,-12.148179223632813,2.5665841796874997,-0.1005564697265625,-30.65648854961832,91.54198473282443,-14.183206106870228,-10.120290417480469,-1.3072341064453123,-3.6248213134765623,-7.526717557251908,-41.86259541984733,16.885496183206108,0.0
10.3000009059906,-11.343727465820312,-1.9776105712890624,-1.5945383056640625,-36.396946564885496,90.53435114503817,-18.595419847328245,-10.098742602539062,-0.9097966308593749,-4.402936853027343,-2.3053435114503817,-50.152671755725194,14.717557251908397,0.0
10.310000896453857,-11.724405529785155,-1.2617442749023438,0.11013327636718749,-33.00763358778626,93.86259541984732,-22.763358778625953,-7.8529814453124995,1.2785036865234374,-4.836287353515624,-7.572519083969466,-49.48091603053435,8.977099236641221,0.0
10.320000886917114,-10.275913525390624,-1.7477672119140624,-0.011971008300781249,-38.412213740458014,89.32824427480917,-27.16030534351145,-8.257601525878906,0.25139117431640623,-3.2537200561523436,-8.625954198473282,-40.656488549618324,4.625954198473282,0.0
10.330000400543213,-10.223241088867187,-1.6927005737304686,0.51714755859375,-25.31297709923664,90.3206106870229,-30.229007633587788,-9.710881933593749,-4.460397692871093,-3.028665100097656,9.526717557251908,-40.274809160305345,-3.9083969465648853,0.0
10.340001106262207,-10.146626635742187,-2.5043349365234375,-0.814028564453125,-17.69465648854962,87.02290076335878,-33.45038167938932,-10.182539660644531,-2.4971523315429685,-3.612850305175781,40.51908396946565,-47.725190839694655,-13.572519083969466,0.0
10.350000858306885,-10.263942517089843,-0.33758243408203126,0.4955997436523437,-13.526717557251908,84.67175572519083,-35.74045801526717,-8.911218579101561,4.402936853027343,-5.2624552490234375,40.01526717557252,-48.961832061068705,-22.870229007633586,0.0
10.36000108718872,-10.244788903808594,1.1037269653320312,0.4070142822265625,-29.14503816793893,76.68702290076335,-36.01526717557252,-8.786720092773438,5.985504150390625,-2.6312276245117188,27.66412213740458,-39.282442748091604,-19.83206106870229,0.0
10.37000060081482,-8.84178673095703,0.1867477294921875,-0.4955997436523437,-26.3206106870229,73.72519083969466,-33.48091603053435,-9.811438403320311,4.833893151855468,-0.9816226806640624,27.251908396946565,-37.93893129770992,-17.572519083969464,0.0
10.380001068115234,-8.990227233886719,0.062249243164062495,0.2537853759765625,-13.49618320610687,71.70992366412214,-29.587786259541986,-7.888894470214844,5.875370874023437,-3.3446997192382812,10.67175572519084,-42.091603053435115,-19.572519083969464,0.0
10.390000343322754,-9.145850341796875,0.86191259765625,0.7565677246093749,-7.816793893129771,70.68702290076335,-24.549618320610687,-7.4603323730468745,6.4475850708007805,-1.8555062866210936,-12.106870229007633,-35.11450381679389,-17.251908396946565,0.0
10.40000057220459,-10.448296044921875,2.094926452636719,2.2744915771484373,-3.9083969465648853,70.4885496183206,-21.84732824427481,-9.258377819824219,2.1715409057617188,-0.6655880615234374,-15.908396946564885,-30.763358778625953,-13.022900763358779,0.0
10.410000801086426,-8.801085302734375,0.488417138671875,0.5027823486328125,0.1984732824427481,64.42748091603053,-20.106870229007633,-9.057264880371093,0.5889736083984375,-0.8499415893554687,1.984732824427481,-37.099236641221374,-16.763358778625953,0.0
10.420000553131104,-10.127473022460936,2.099714855957031,1.8435352783203125,9.19083969465649,67.54198473282443,-20.137404580152673,-7.977479931640625,1.2665326782226562,-1.7812860351562498,4.33587786259542,-45.02290076335878,-21.16030534351145,0.0
10.43000078201294,-10.773907470703124,3.806780639648437,1.7381904052734374,-18.83969465648855,59.57251908396947,-21.236641221374047,-8.786720092773438,2.81558115234375,-0.5817910034179687,-0.8854961832061069,-44.16793893129771,-19.31297709923664,0.0
10.44010591506958,-10.43871923828125,3.2800562744140622,3.1364041748046874,-39.48091603053435,57.404580152671755,-20.53435114503817,-10.716446630859375,0.3687070556640625,1.2138602416992186,8.01526717557252,-48.99236641221374,-17.801526717557252,0.0
10.450001001358032,-7.819462622070312,-0.63206923828125,1.2928688964843749,-28.641221374045802,54.99236641221374,-17.328244274809162,-8.722076647949219,2.8467057739257813,-0.8643067993164062,10.076335877862595,-60.97709923664122,-25.16030534351145,0.0
10.46000075340271,-10.740388647460938,3.919308117675781,3.584119885253906,-29.00763358778626,54.54961832061068,-19.404580152671755,-10.766724865722656,1.7357962036132812,1.1755530151367186,6.290076335877862,-55.465648854961835,-21.480916030534353,0.0
10.470000982284546,-11.252747802734374,3.7900212280273435,3.284844677734375,-63.587786259541986,41.603053435114504,-21.206106870229007,-11.152191333007812,0.8690952026367187,-0.2442085693359375,15.435114503816793,-69.52671755725191,-23.541984732824428,0.0
10.480000734329224,-10.340556970214843,1.0773907470703123,0.9504980590820312,-55.343511450381676,38.82442748091603,-14.564885496183207,-9.3852705078125,2.080561242675781,0.00239420166015625,2.763358778625954,-66.94656488549619,-26.931297709923665,0.0
10.490000486373901,-9.488221179199218,-0.38786066894531246,2.2744915771484373,-40.67175572519084,41.541984732824424,-10.106870229007633,-11.824961999511718,0.15322890625,0.612915625,12.13740458015267,-74.74809160305344,-25.72519083969466,0.0
10.500000715255737,-8.973467822265624,-0.8643067993164062,0.33758243408203126,-30.671755725190838,36.79389312977099,-11.893129770992367,-8.192958081054687,2.365471240234375,-0.4740519287109375,3.053435114503817,-75.86259541984732,-32.83969465648855,0.0
10.510001182556152,-12.835315100097656,4.455609289550781,2.674323254394531,-38.16793893129771,37.3587786259542,-13.770992366412214,-11.803414184570311,-1.5275006591796874,-0.0718260498046875,12.595419847328245,-78.44274809160305,-28.717557251908396,0.0
10.520000696182251,-10.565611926269531,0.9840168823242187,0.6272808349609375,-43.86259541984733,28.916030534351144,-11.893129770992367,-7.587225061035156,1.2138602416992186,-1.4724340209960938,5.938931297709924,-78.7175572519084,-36.030534351145036,0.0
10.530000448226929,-10.685322009277343,0.9864110839843749,1.6304513305664061,-39.17557251908397,28.778625954198475,-5.786259541984733,-11.681309899902343,-1.3359645263671873,-1.6232687255859375,18.38167938931298,-79.95419847328245,-34.51908396946565,0.0
10.540000915527344,-11.774683764648437,2.1739351074218747,2.4301146850585935,-34.61068702290076,26.38167938931298,-8.931297709923664,-8.228871105957031,0.814028564453125,-0.47644613037109373,15.022900763358779,-72.04580152671755,-37.16030534351145,0.0
10.55000114440918,-9.955090502929687,-1.0821791503906248,1.2569558715820313,-33.52671755725191,23.374045801526716,-3.954198473282443,-10.436325036621094,0.0383072265625,-1.7094599853515624,28.38167938931298,-80.09160305343511,-36.94656488549618,0.0
10.560000658035278,-11.429918725585937,1.3024457031249999,2.128445275878906,-25.755725190839694,20.946564885496183,-4.580152671755725,-7.4028715332031245,0.7517793212890624,-1.005564697265625,22.137404580152673,-69.34351145038168,-38.76335877862596,0.0
10.570000886917114,-10.046070166015625,-0.5027823486328125,0.5386953735351562,-33.343511450381676,20.763358778625953,-4.9465648854961835,-9.555258825683593,0.9409212524414062,-1.3335703247070312,28.53435114503817,-74.36641221374046,-37.45038167938932,0.0
10.580000877380371,-10.182539660644531,0.7781155395507812,-0.143652099609375,-27.267175572519083,23.46564885496183,-6.351145038167939,-6.6702458251953125,2.7916391357421872,-0.7158662963867187,20.793893129770993,-60.56488549618321,-37.20610687022901,0.0
10.590000629425049,-9.852139831542969,0.38307226562499996,-0.16759411621093748,-42.732824427480914,23.022900763358777,-8.473282442748092,-9.706093530273437,0.7350199096679687,-0.8451531860351562,25.893129770992367,-61.57251908396947,-32.79389312977099,0.0
10.600000619888306,-9.885658654785155,0.5482721801757812,0.16280571289062498,-39.45038167938932,24.9618320610687,-9.526717557251908,-6.675034228515624,3.928884924316406,-1.2976572998046874,16.702290076335878,-52.93129770992366,-34.33587786259542,0.0
10.610000848770142,-9.315838659667968,0.15322890625,0.689530078125,-44.900763358778626,24.641221374045802,-8.778625954198473,-8.84178673095703,1.9680337646484374,-0.16998831787109375,12.625954198473282,-43.17557251908397,-25.801526717557252,0.0
10.620001077651978,-9.399635717773437,-0.59376201171875,1.16837041015625,-45.786259541984734,23.068702290076335,-8.610687022900763,-8.12113203125,1.7429788085937499,-0.181959326171875,20.33587786259542,-42.213740458015266,-25.251908396946565,0.0
10.630000591278076,-9.540893615722656,-1.43652099609375,1.6136919189453125,-20.931297709923665,31.14503816793893,-8.412213740458014,-7.295132458496093,2.370259643554687,-1.1540052001953125,20.213740458015266,-36.94656488549618,-25.893129770992367,0.0
10.640000581741333,-9.871293444824218,1.6208745239257811,2.0278888061523435,-29.69465648854962,22.916030534351144,-11.099236641221374,-7.41244833984375,2.231395947265625,-0.7829039428710937,12.534351145038167,-24.641221374045802,-19.709923664122137,0.0
10.65000057220459,-10.149020837402343,0.8786720092773437,1.8219874633789062,-39.61832061068702,18.793893129770993,-9.709923664122137,-8.798691101074219,-0.028730419921875,0.055066638183593745,11.954198473282442,-19.984732824427482,-14.366412213740459,0.0
10.660000801086426,-9.145850341796875,-1.8315642700195311,1.5729904907226562,-20.47328244274809,19.740458015267176,-4.687022900763359,-8.425195642089843,-0.5722141967773438,0.8044517578125,17.923664122137403,-18.65648854961832,-15.465648854961833,0.0
10.670000553131104,-8.0828248046875,-3.1603461914062496,1.8602946899414061,16.900763358778626,25.19083969465649,-6.900763358778626,-7.651868505859374,0.033518823242187495,2.090138049316406,25.72519083969466,-20.198473282442748,-16.732824427480917,0.0
10.68000054359436,-9.770736975097655,-1.0845733520507812,3.0071172851562498,28.15267175572519,27.068702290076335,-15.419847328244275,-6.718129858398437,-0.30885201416015623,1.0127473022460938,23.740458015267176,-20.580152671755727,-18.3206106870229,0.0
10.690001010894775,-10.709264025878905,1.2689268798828124,3.555389465332031,24.091603053435115,23.083969465648856,-17.236641221374047,-7.407659936523437,0.584185205078125,1.0989385620117187,21.083969465648856,-17.236641221374047,-16.763358778625953,0.0
10.700000524520874,-10.687716210937499,2.6791116577148437,4.723759875488281,15.053435114503817,18.931297709923665,-13.801526717557252,-8.267178332519531,0.3327940307617187,2.080561242675781,10.763358778625955,-7.541984732824427,-12.961832061068701,0.0
10.71000075340271,-10.335768566894531,1.7908628417968748,6.064512805175781,6.458015267175573,10.67175572519084,-9.206106870229007,-7.105990527343749,1.2210428466796874,1.2234370483398436,11.786259541984732,-13.648854961832061,-14.290076335877863,0.0
10.720000743865967,-10.75714805908203,2.01112939453125,6.962338427734375,10.82442748091603,0.21374045801526717,-6.763358778625954,-7.060500695800781,0.833182177734375,1.0630255371093749,9.786259541984732,-9.374045801526718,-13.435114503816793,0.0
10.730000972747803,-12.418724011230468,2.480392919921875,8.920795385742187,3.2213740458015265,-12.83969465648855,-5.312977099236641,-7.029376074218749,1.120486376953125,0.6248866333007812,6.198473282442748,-9.374045801526718,-11.938931297709924,0.0
10.740000486373901,-11.279084020996093,-0.062249243164062495,8.013392956542969,-0.366412213740458,-35.25190839694657,2.0916030534351147,-6.296750366210937,0.35673604736328124,-0.3184288208007812,1.2213740458015268,-7.114503816793893,-11.282442748091603,0.0
10.750000953674316,-12.267889306640624,0.181959326171875,9.576806640625,19.755725190839694,-45.23664122137404,6.534351145038168,-6.710947253417968,0.7350199096679687,-0.21308394775390624,-1.282442748091603,-5.0534351145038165,-10.01526717557252,0.0
10.760000705718994,-9.631873278808593,-3.4261025756835934,10.314220751953124,50.6412213740458,-56.42748091603053,8.961832061068701,-5.643133312988281,-0.3232172241210937,-0.44532150878906246,-0.2595419847328244,-0.3511450381679389,-10.351145038167939,0.0
10.770000696182251,-13.175291735839844,0.9121908325195311,12.643778967285156,37.87786259541985,-76.74809160305344,2.6259541984732824,-6.4475850708007805,-0.6943184814453125,-0.16998831787109375,11.114503816793894,0.5801526717557252,-9.526717557251908,0.0
10.780000686645508,-16.321272717285154,2.971204260253906,13.314155432128905,20.748091603053435,-105.57251908396947,0.8549618320610687,-6.263231542968749,-0.44532150878906246,-1.5107412475585937,11.038167938931299,-0.015267175572519083,-9.801526717557252,0.0
10.790000677108765,-15.907075830078124,1.6472107421875,11.384428894042967,-7.068702290076335,-134.33587786259542,2.183206106870229,-5.528211633300781,2.370259643554687,-3.1842882080078123,6.702290076335878,6.931297709923665,-14.045801526717558,0.0
10.800000667572021,-17.113753466796872,1.608903515625,12.061987963867187,-32.091603053435115,-162.73282442748092,0.22900763358778625,-9.464279162597656,1.936909143066406,-3.105279553222656,0.16793893129770993,20.931297709923665,-12.763358778625955,0.0
10.810000896453857,-17.156849096679686,-0.7445967163085937,14.022839123535155,-26.671755725190838,-190.45801526717557,1.9389312977099236,-11.597512841796874,3.303998291015625,-1.1923124267578125,-5.755725190839694,26.702290076335878,-12.412213740458014,0.0
10.820000886917114,-14.429853405761717,-5.295974072265625,12.457031237792968,20.259541984732824,-203.6793893129771,5.511450381679389,-12.164938635253906,6.924031201171875,-0.2442085693359375,-23.87786259541985,33.847328244274806,-12.030534351145038,0.0
10.830000638961792,-13.122619299316405,-1.7693150268554687,7.237671618652343,30.99236641221374,-230.4885496183206,0.3816793893129771,-16.132130786132812,3.8690298828125,2.9831752685546875,-29.587786259541986,44.76335877862596,-2.6564885496183206,0.0
10.840000867843628,-12.911929553222656,-4.350264416503906,0.277727392578125,51.87786259541985,-232.5648854961832,-2.1374045801526718,-12.97178459472656,5.2073886108398435,0.74699091796875,-37.847328244274806,35.61832061068702,2.4732824427480917,0.0
10.850000858306885,-12.39238779296875,-4.412513659667969,-5.193023400878906,66.18320610687023,-226.8854961832061,-3.8931297709923665,-12.81376728515625,2.693476867675781,1.66636435546875,-32.79389312977099,40.87022900763359,10.351145038167939,0.0
10.8600013256073,-12.921506359863281,-4.891353991699218,-7.357381701660156,77.81679389312977,-213.9083969465649,-5.267175572519084,-10.896011755371093,3.038241906738281,0.5051765502929687,-39.847328244274806,35.55725190839695,14.82442748091603,0.0
10.870000839233398,-12.84489190673828,-3.737348791503906,-9.969455712890625,94.47328244274809,-192.2290076335878,1.251908396946565,-11.650185278320311,-0.6464344482421874,0.20829554443359374,-36.10687022900763,37.17557251908397,19.16030534351145,0.0
10.880000829696655,-14.013262316894531,-2.2457611572265623,-8.892064965820312,94.56488549618321,-174.67175572519085,-2.3053435114503817,-9.892841259765625,-0.105344873046875,-2.4851813232421875,-36.534351145038165,29.587786259541986,16.778625954198475,0.0
10.890000581741333,-14.106636181640624,2.2026655273437497,-7.137115148925781,84.58015267175573,-163.6030534351145,-7.236641221374046,-9.622296472167967,-0.5099649536132812,-3.2154128295898436,-44.33587786259542,43.57251908396947,18.30534351145038,0.0
10.900000810623169,-15.394716674804686,4.881777185058594,-4.3071687866210935,53.7557251908397,-151.70992366412213,-7.8320610687022905,-10.575188732910156,-4.220977526855468,-4.594472985839843,-33.31297709923664,46.213740458015266,18.916030534351144,0.0
10.910000562667847,-14.197615844726561,4.201823913574218,-2.9568390502929685,49.12977099236641,-138.8091603053435,2.9923664122137406,-11.520898388671874,-5.6383449096679685,-5.286397265624999,-8.961832061068701,46.70229007633588,16.564885496183205,0.0
10.920000553131104,-12.119448803710936,2.27927998046875,-2.741360900878906,45.31297709923664,-123.2824427480916,11.648854961832061,-11.8369330078125,-6.172251879882812,-4.3430818115234375,17.954198473282442,55.49618320610687,10.687022900763358,0.0
10.93000054359436,-9.066841687011719,2.990357873535156,-2.099714855957031,28.198473282442748,-109.20610687022901,11.709923664122137,-9.710881933593749,-2.901772412109375,-2.863465185546875,30.48854961832061,55.81679389312977,10.534351145038167,0.0
10.940000534057617,-7.364564306640625,2.5641899780273434,-2.7461493041992187,0.7480916030534351,-100.73282442748092,12.305343511450381,-8.571241943359375,0.49320554199218747,-3.327940307617187,35.954198473282446,66.68702290076335,14.992366412213741,0.0
10.950000524520874,-5.212177014160156,0.59376201171875,-3.105279553222656,-16.977099236641223,-87.81679389312977,13.603053435114504,-10.175357055664062,-0.9097966308593749,-1.177947216796875,47.12977099236641,75.0381679389313,20.580152671755727,0.0
10.96000051498413,-3.900154504394531,-1.8938135131835936,-3.6487633300781246,-14.091603053435115,-70.0,10.473282442748092,-9.981426721191406,1.3120225097656248,-2.04943662109375,61.343511450381676,68.91603053435115,20.763358778625953,0.0
10.970000743865967,-3.3638533325195312,-0.8475473876953125,-3.342305517578125,-10.885496183206106,-55.954198473282446,5.984732824427481,-8.870517150878905,4.620809204101562,-1.1444283935546875,51.343511450381676,78.73282442748092,21.14503816793893,0.0
10.980000495910645,-3.066972326660156,-0.21068974609375,-3.3255461059570313,-22.076335877862597,-42.36641221374046,4.916030534351145,-9.677363110351562,2.2457611572265623,0.05746083984375,46.732824427480914,81.22137404580153,27.022900763358777,0.0
10.99000072479248,-2.4875755249023435,-0.6919242797851562,-3.787627026367187,-19.374045801526716,-28.47328244274809,3.8931297709923665,-8.719682446289061,3.7612908081054686,-0.6344634399414062,36.38167938931298,75.98473282442748,27.908396946564885,0.0
11.000000476837158,-4.6255976074218745,0.8595183959960937,-2.0302830078125,-27.267175572519083,-11.435114503816793,-0.6106870229007634,-6.8593877563476555,4.1946413085937495,-1.0438719238281249,13.98473282442748,72.44274809160305,25.053435114503817,0.0
11.010000944137573,-4.493916516113281,1.4820108276367188,-1.9129671264648436,-40.85496183206107,-0.9618320610687023,-1.0229007633587786,-3.8690298828125,8.17859287109375,-2.6048914062499997,-15.038167938931299,76.47328244274809,23.129770992366414,0.0
11.020000696182251,-4.975151049804687,3.337517114257812,-0.7445967163085937,-65.58778625954199,9.34351145038168,0.5648854961832062,-1.0103531005859374,8.858546142578124,-5.552153649902343,-72.9618320610687,84.36641221374046,25.022900763358777,0.0
11.030000925064087,-2.5761609863281247,1.838746875,0.023942016601562498,-76.03053435114504,19.709923664122137,6.091603053435114,-8.609549169921875,4.019864587402344,-1.149216796875,-110.44274809160305,116.62595419847328,43.20610687022901,0.0
11.040000677108765,-3.5051112304687497,2.288856787109375,2.7581203125,-92.56488549618321,26.717557251908396,9.572519083969466,-5.116408947753906,6.076483813476562,-3.239354846191406,-120.38167938931298,118.44274809160305,44.29007633587786,0.0
11.0500009059906,-5.4515971801757805,3.3710359375,5.377376928710937,-92.3206106870229,25.297709923664122,16.458015267175572,-11.434707128906249,-0.17956512451171874,-2.3535002319335936,-147.54198473282443,139.0381679389313,55.17557251908397,0.0
11.060001134872437,-1.5107412475585937,-3.5122938354492184,4.6064439941406246,-48.44274809160305,33.37404580152672,33.465648854961835,-13.843273999023436,-8.990227233886719,2.741360900878906,-91.61832061068702,132.24427480916032,62.10687022900763,0.0
11.070000648498535,-1.22583125,-7.580042456054687,5.430049365234375,18.580152671755727,52.61068702290076,30.946564885496183,-12.425906616210936,-14.532804077148437,-0.07422025146484375,12.534351145038167,102.7175572519084,57.465648854961835,0.0
11.080000877380371,-2.243366955566406,-9.588777648925781,4.350264416503906,85.46564885496183,66.80916030534351,22.931297709923665,-16.56787548828125,-21.660342419433594,3.2225954345703123,80.97709923664122,91.12977099236642,40.35114503816794,0.0
11.090000629425049,-3.7229835815429686,-7.501033801269531,5.518634826660156,148.41221374045801,92.82442748091603,13.633587786259541,-10.340556970214843,-10.041281762695311,-0.5386953735351562,153.6030534351145,49.25190839694657,14.717557251908397,0.0
11.100000858306885,-8.853757739257812,1.5346832641601562,7.754819177246094,144.54961832061068,95.46564885496183,-0.8091603053435115,-9.545682019042967,-1.180341418457031,-0.5291185668945312,139.74045801526717,39.05343511450382,3.969465648854962,0.0
11.110000371932983,-9.038111267089842,6.76122548828125,10.050858569335936,99.5114503816794,82.61068702290076,1.1297709923664123,-10.66137999267578,0.8906430175781249,0.5410895751953124,123.8473282442748,40.79389312977099,8.198473282442748,0.0
11.120000839233398,-10.302249743652343,8.113949426269532,12.555193505859375,62.85496183206107,71.08396946564885,2.7022900763358777,-9.133879333496093,3.414131567382812,1.3024457031249999,112.0,35.87786259541985,9.267175572519085,0.0
11.130000829696655,-12.322955944824217,8.441955053710936,13.7522943359375,12.900763358778626,49.32824427480916,2.351145038167939,-9.80665,6.900089184570312,0.8188169677734375,71.37404580152672,34.70229007633588,8.244274809160306,0.0
11.140000581741333,-12.35408056640625,4.80755693359375,14.88714592285156,-40.213740458015266,24.229007633587788,4.687022900763359,-13.01727442626953,2.5570073730468748,2.2577321655273437,44.56488549618321,40.76335877862596,11.511450381679388,0.0
11.150000810623169,-6.976703637695312,-1.7310078002929687,11.097124694824219,-36.82442748091603,5.3893129770992365,12.717557251908397,-10.87925234375,6.5601125488281244,1.7166425903320313,22.564885496183205,32.48854961832061,6.3816793893129775,0.0
11.160000562667847,-8.506598498535157,1.5442600708007812,10.965443603515624,-8.16793893129771,4.809160305343512,10.458015267175572,-11.039663854980468,5.327098693847656,0.4644751220703125,-24.427480916030536,28.27480916030534,9.16030534351145,0.0
11.170000553131104,-6.675034228515624,1.2737152832031249,7.764395983886718,10.625954198473282,5.32824427480916,17.053435114503817,-11.104307299804686,5.240907434082031,0.1292868896484375,-46.87022900763359,27.419847328244273,12.0,0.0
11.18000078201294,-8.267178332519531,3.758896606445312,8.245630517578125,22.870229007633586,8.625954198473282,23.251908396946565,-12.531251489257812,1.5921441040039062,0.5243301635742187,-64.82442748091603,25.801526717557252,16.595419847328245,0.0
11.190000534057617,-9.677363110351562,7.448361364746093,7.917624890136718,37.38931297709924,8.305343511450381,39.725190839694655,-11.846509814453125,1.5035586425781249,-0.7158662963867187,-78.99236641221374,19.52671755725191,16.549618320610687,0.0
11.200000524520874,-8.032546569824218,7.436390356445312,3.0047230834960934,33.603053435114504,10.916030534351146,55.98473282442748,-12.933477368164061,-0.9169792358398436,-0.9792284790039062,-87.00763358778626,14.702290076335878,18.259541984732824,0.0
11.21000075340271,-9.184157568359375,7.117961535644531,0.7757213378906249,-13.893129770992367,18.83969465648855,56.10687022900763,-13.467384338378906,-1.898601916503906,-1.0773907470703123,-79.41984732824427,8.702290076335878,18.65648854961832,0.0
11.220000505447388,-12.215216870117187,3.5506010620117183,4.060566015625,-48.44274809160305,17.83206106870229,56.229007633587784,-13.587094421386718,-2.1452046874999997,-1.0917559570312498,-80.51908396946565,6.580152671755725,19.19083969465649,0.0
11.230000734329224,-18.485631018066407,-1.7597382202148437,14.60702432861328,-49.221374045801525,11.969465648854962,59.603053435114504,-15.844826586914062,-2.300827795410156,-0.9217676391601562,-66.51908396946565,2.198473282442748,19.64885496183206,0.0
11.240000486373901,-16.08185255126953,-13.608642236328125,16.72589279785156,-13.664122137404581,1.816793893129771,56.412213740458014,-14.178462231445312,-1.1109095703125,-1.0223241088867188,-51.74045801526717,-10.50381679389313,18.106870229007633,0.0
11.250000953674316,-17.006014392089842,-15.105018273925781,13.761871142578125,27.0381679389313,-3.3435114503816794,23.404580152671755,-12.555193505859375,2.4660277099609376,-2.138022082519531,-35.55725190839695,-16.549618320610687,16.33587786259542,0.0
11.260001420974731,-14.523227270507812,-9.504980590820312,1.1540052001953125,27.31297709923664,-13.358778625954198,-7.1603053435114505,-12.023680737304687,2.93050283203125,-0.6607996582031249,-31.19083969465649,-11.022900763358779,20.50381679389313,0.0
11.270000696182251,-11.573570825195311,-3.246537451171875,-4.589684582519531,52.74809160305343,3.2977099236641223,-6.885496183206107,-10.445901843261717,6.038176586914062,-3.2513258544921873,-42.06106870229008,-14.625954198473282,18.549618320610687,0.0
11.280000925064087,-4.436455676269531,-1.5634136840820312,-10.194510668945313,61.404580152671755,9.557251908396946,2.213740458015267,-13.108254089355468,5.894524487304687,-4.053383410644531,-53.19083969465649,-13.083969465648854,23.114503816793892,0.0
11.290000677108765,-1.7836802368164062,0.18435352783203124,-8.394071020507813,79.80152671755725,37.89312977099237,3.1908396946564888,-13.220781567382812,2.959233251953125,-4.76924970703125,-69.19083969465649,-10.65648854961832,29.908396946564885,0.0
11.300000667572021,-0.6488286499023437,0.25139117431640623,-7.278373046874999,80.21374045801527,56.67175572519084,1.7099236641221374,-13.642161059570311,-0.35673604736328124,-4.604049792480469,-51.786259541984734,-21.480916030534353,31.358778625954198,0.0
11.310000658035278,-6.68461103515625,6.189011291503906,-4.857835168457031,88.87022900763358,85.25190839694656,-1.7404580152671756,-14.449007019042968,-3.6439749267578123,-4.5968671875,-1.3740458015267176,-32.74809160305343,36.97709923664122,0.0
11.320000886917114,-10.230423693847655,11.159373937988281,-5.276820458984375,59.603053435114504,91.49618320610686,1.0229007633587786,-10.721235034179687,1.3910311645507811,-3.9791631591796874,-14.061068702290076,-42.87022900763359,27.450381679389313,0.0
11.330000877380371,-12.387599389648436,10.785878479003905,-2.250549560546875,-10.16793893129771,94.19847328244275,6.244274809160306,-9.267954626464844,0.6296750366210937,-3.5410242553710933,-31.801526717557252,-37.23664122137404,23.587786259541986,0.0
11.340000867843628,-10.647014782714843,3.057395520019531,-2.1691467041015624,-59.70992366412214,89.98473282442748,6.8396946564885495,-9.045293872070312,-1.4508862060546874,-2.370259643554687,-38.48854961832061,-33.57251908396947,20.229007633587788,0.0
11.350000858306885,-11.79144317626953,-1.1755530151367186,0.055066638183593745,-59.038167938931295,97.09923664122137,4.122137404580153,-9.325415466308593,-4.017470385742187,-3.1196447631835937,-31.557251908396946,-39.81679389312977,15.16030534351145,0.0
11.36000108718872,-10.857704528808593,-2.932897033691406,0.9121908325195311,-48.717557251908396,98.04580152671755,-3.053435114503817,-10.070012182617187,-2.779668127441406,-6.143521459960938,-13.34351145038168,-43.02290076335878,8.259541984732824,0.0
11.37000060081482,-11.427524523925781,-2.6910826660156246,3.057395520019531,-40.29007633587786,100.01526717557252,-11.374045801526718,-10.87206973876953,-3.5960908935546874,-4.129997863769531,11.908396946564885,-43.282442748091604,-3.1603053435114505,0.0
11.380000591278076,-10.307038146972655,-3.9145197143554684,2.262520568847656,-28.83969465648855,96.30534351145039,-18.259541984732824,-16.180014819335938,-9.287108239746093,1.3239935180664062,30.580152671755727,-43.87786259541985,-13.511450381679388,0.0
11.390000581741333,-10.386046801757812,-5.566518859863281,1.9752163696289062,-9.969465648854962,94.56488549618321,-24.9618320610687,-8.90643017578125,3.318363500976562,-5.5090580200195305,55.11450381679389,-57.81679389312977,-23.358778625954198,0.0
11.40000057220459,-10.927136376953124,-2.1811177124023438,3.4261025756835934,-19.740458015267176,86.80916030534351,-33.11450381679389,-8.659827404785156,7.807491613769531,-5.0014872680664055,33.43511450381679,-50.36641221374046,-28.442748091603054,0.0
11.410000562667847,-10.275913525390624,-2.1619640991210938,1.695094775390625,-35.52671755725191,74.90076335877863,-40.83969465648855,-9.045293872070312,8.647856396484375,-3.4644098022460934,22.061068702290076,-46.56488549618321,-28.625954198473284,0.0
11.420000553131104,-9.030928662109375,-2.2553379638671873,-0.3806780639648437,-21.572519083969464,75.02290076335878,-40.595419847328245,-8.14028564453125,9.974244116210937,-3.4644098022460934,-19.374045801526716,-39.3587786259542,-19.480916030534353,0.0
11.43000054359436,-9.406818322753905,-0.3064578125,0.1580173095703125,-14.83969465648855,74.21374045801527,-40.13740458015267,-8.106766821289062,6.294356164550781,-2.9496564453125,-36.656488549618324,-31.64885496183206,-13.236641221374045,0.0
11.440000534057617,-9.68454571533203,0.22026655273437498,-1.1228805786132812,4.641221374045801,74.97709923664122,-37.221374045801525,-9.311050256347656,1.1755530151367186,-2.3151930053710936,-36.18320610687023,-30.35114503816794,-11.755725190839694,0.0
11.450001001358032,-10.24718310546875,0.3950432739257812,-0.5243301635742187,18.38167938931298,79.09923664122137,-34.88549618320611,-7.967903124999999,2.9544448486328125,-2.142810485839844,-29.068702290076335,-36.19847328244275,-18.30534351145038,0.0
11.46000051498413,-11.125855114746093,4.3813890380859375,0.7110778930664062,16.519083969465647,81.66412213740458,-35.404580152671755,-7.783549597167968,4.050989208984375,-1.7501614135742187,-35.69465648854962,-31.84732824427481,-17.114503816793892,0.0
11.470000743865967,-9.804255798339844,5.415684155273437,0.7565677246093749,-21.251908396946565,74.1526717557252,-36.3206106870229,-8.801085302734375,1.7669208251953124,-0.5267243652343749,-32.534351145038165,-31.053435114503817,-12.290076335877863,0.0
11.480000495910645,-9.473855969238281,2.7629087158203123,-0.086191259765625,-33.61832061068702,71.63358778625954,-32.82442748091603,-11.006145031738281,-0.2537853759765625,-0.2657563842773437,-10.793893129770993,-39.00763358778626,-14.732824427480915,0.0
11.490000486373901,-8.90643017578125,1.3000515014648437,0.02633621826171875,-25.114503816793892,75.89312977099236,-29.587786259541986,-8.662221606445312,2.8993782104492185,-2.446874096679687,-15.068702290076336,-47.404580152671755,-22.595419847328245,0.0
11.500000476837158,-10.304643945312499,4.647145422363281,1.3670891479492187,-32.83969465648855,76.30534351145039,-28.53435114503817,-9.349357482910156,1.9321207397460936,-0.8188169677734375,-24.290076335877863,-42.18320610687023,-18.99236641221374,0.0
11.510000705718994,-9.964667309570311,3.7612908081054686,-0.05985504150390625,-51.343511450381676,70.45801526717557,-26.229007633587788,-10.989385620117186,-0.15322890625,-0.6392518432617187,-9.938931297709924,-53.908396946564885,-19.64885496183206,0.0
11.520000696182251,-10.831368310546875,3.766079211425781,1.2808978881835937,-52.229007633587784,70.9618320610687,-24.65648854961832,-8.635885388183594,3.1866824096679687,-0.5482721801757812,-16.717557251908396,-60.16793893129771,-27.358778625954198,0.0
11.530000686645508,-9.679757312011718,2.5043349365234375,0.6153098266601562,-78.8854961832061,57.969465648854964,-21.938931297709924,-9.935936889648437,0.45010991210937495,0.35673604736328124,-21.557251908396946,-58.83969465648855,-24.9618320610687,0.0
11.540000915527344,-12.476184851074217,3.404554760742187,2.877830395507812,-93.7557251908397,55.48091603053435,-24.15267175572519,-10.345345373535155,-0.7350199096679687,-1.0989385620117187,-8.396946564885496,-71.54198473282443,-29.053435114503817,0.0
11.550000667572021,-10.496180078124999,-0.1771709228515625,0.3184288208007812,-89.54198473282443,47.16030534351145,-18.27480916030534,-8.499415893554687,-0.08858546142578125,-0.8116343627929687,-14.473282442748092,-67.92366412213741,-33.954198473282446,0.0
11.560000658035278,-11.379640490722656,-0.4285620971679687,1.9704279663085937,-67.78625954198473,52.82442748091603,-13.251908396946565,-10.603919152832031,-1.6112977172851561,-0.20829554443359374,6.809160305343512,-76.04580152671755,-34.56488549618321,0.0
11.570000886917114,-10.601524951171875,-0.9217676391601562,1.2832920898437499,-61.14503816793893,44.48854961832061,-16.18320610687023,-9.5001921875,-0.5123591552734374,-0.02633621826171875,10.030534351145038,-74.94656488549619,-41.17557251908397,0.0
11.580000400543213,-11.269507214355468,-0.5578489868164063,1.867477294921875,-52.58015267175573,44.25954198473283,-13.618320610687023,-8.95670841064453,0.488417138671875,-1.9584569580078124,15.17557251908397,-82.29007633587786,-45.41984732824427,0.0
11.590000629425049,-11.21683477783203,0.7805097412109374,2.109291662597656,-44.80916030534351,39.16030534351145,-13.129770992366412,-9.662997900390625,0.7398083129882812,-0.70868369140625,22.442748091603054,-77.20610687022901,-43.847328244274806,0.0
11.600001096725464,-10.817003100585938,0.5506663818359374,2.482787121582031,-50.01526717557252,33.786259541984734,-12.0,-8.111555224609374,2.2074539306640624,-1.7214309936523438,18.015267175572518,-75.38931297709924,-43.74045801526717,0.0
11.610000610351562,-9.916783276367187,-0.30885201416015623,1.9728221679687499,-40.79389312977099,32.80916030534351,-7.648854961832061,-9.375693701171874,2.3032219970703123,-1.5466542724609373,29.801526717557252,-73.63358778625954,-38.778625954198475,0.0
11.620000839233398,-10.01733974609375,0.29448680419921874,1.695094775390625,-30.045801526717558,31.114503816793892,-6.8396946564885495,-8.125920434570313,2.4851813232421875,-0.7422025146484375,20.33587786259542,-61.587786259541986,-35.70992366412214,0.0
11.630000829696655,-9.363722692871093,-0.7062894897460937,0.9193734375,-28.641221374045802,29.450381679389313,-6.091603053435114,-10.084377392578125,0.7230489013671875,-1.0127473022460938,25.450381679389313,-65.08396946564885,-32.0,0.0
11.640000581741333,-9.737218151855469,-0.5482721801757812,0.22505495605468748,-7.145038167938932,31.358778625954198,-5.709923664122138,-7.228094812011718,2.4684219116210935,-1.2713210815429687,15.938931297709924,-55.343511450381676,-33.725190839694655,0.0
11.65000057220459,-10.620678564453124,0.8092401611328125,0.948103857421875,-4.67175572519084,32.0763358778626,-7.3893129770992365,-10.419565624999999,-0.43574470214843747,0.5602431884765625,22.30534351145038,-50.51908396946565,-29.022900763358777,0.0
11.660000801086426,-10.577582934570312,0.4477157104492187,0.30885201416015623,-0.13740458015267176,31.404580152671755,-9.32824427480916,-8.748412866210938,1.0175357055664063,-0.5793968017578125,34.412213740458014,-55.55725190839695,-36.0,0.0
11.670000553131104,-10.261548315429687,1.3623007446289062,-0.16759411621093748,8.992366412213741,32.091603053435115,-9.267175572519085,-7.924807495117187,1.68551796875,-0.5315127685546874,30.671755725190838,-49.541984732824424,-35.02290076335878,0.0
11.68000054359436,-10.723629235839843,3.0334535034179684,0.6943184814453125,-6.6106870229007635,31.389312977099237,-9.770992366412214,-11.52329259033203,-1.0606313354492187,0.16041151123046873,39.64885496183206,-49.80152671755725,-30.366412213740457,0.0
11.690001010894775,-9.710881933593749,1.0893617553710937,-1.4724340209960938,-21.267175572519083,24.091603053435115,-5.480916030534351,-9.196128576660156,2.319981408691406,-0.18435352783203124,49.86259541984733,-58.412213740458014,-36.091603053435115,0.0
11.700000524520874,-10.266336718749999,1.2306196533203124,-1.0486603271484374,-3.282442748091603,32.6412213740458,-2.9923664122137406,-7.893682873535155,2.492363928222656,0.39743747558593745,36.38167938931298,-47.404580152671755,-29.709923664122137,0.0
11.71000075340271,-9.883264453125,0.44053310546874996,-0.9050082275390624,-15.251908396946565,34.97709923664122,-5.068702290076335,-9.909600671386718,1.0917559570312498,0.7996633544921875,46.25954198473283,-46.916030534351144,-27.17557251908397,0.0
11.720000505447388,-8.0828248046875,-0.7326257080078125,-1.216254443359375,-4.488549618320611,36.38167938931298,-6.458015267175573,-7.474697583007812,2.4109610717773435,-1.2138602416992186,41.45038167938932,-45.55725190839695,-31.099236641221374,0.0
11.730000972747803,-9.088389501953124,-0.41419688720703124,-0.13646949462890623,0.42748091603053434,39.17557251908397,-8.961832061068701,-6.138733056640625,3.660734338378906,-0.201112939453125,26.549618320610687,-35.603053435114504,-25.87786259541985,0.0
11.740000486373901,-9.356540087890625,0.33518823242187495,0.86191259765625,-4.67175572519084,40.51908396946565,-11.16030534351145,-9.325415466308593,0.5506663818359374,1.1468225952148436,23.938931297709924,-31.435114503816795,-20.38167938931298,0.0
11.750000715255737,-9.665392102050781,-0.07422025146484375,1.426944189453125,-0.3816793893129771,39.83206106870229,-11.954198473282442,-9.349357482910156,-0.07900865478515624,1.0989385620117187,34.458015267175576,-31.435114503816795,-22.763358778625953,0.0
11.760000705718994,-9.437942944335937,-0.13646949462890623,1.9416975463867185,14.183206106870228,38.38167938931298,-12.16793893129771,-6.584054565429687,1.3958195678710936,0.8834604125976562,27.740458015267176,-30.793893129770993,-26.68702290076336,0.0
11.77000093460083,-9.90241806640625,1.2808978881835937,2.9496564453125,9.572519083969466,35.16030534351145,-12.595419847328245,-6.957550024414062,3.0502129150390624,1.5610194824218748,11.511450381679388,-20.931297709923665,-24.519083969465647,0.0
11.780000686645508,-10.644620581054687,3.0621839233398433,4.402936853027343,-7.083969465648855,28.259541984732824,-12.076335877862595,-7.860164050292968,0.5458779785156249,2.109291662597656,0.7480916030534351,-8.900763358778626,-20.3206106870229,0.0
11.790000915527344,-10.536881506347656,1.3311761230468748,5.817910034179687,-7.00763358778626,20.595419847328245,-9.083969465648854,-8.343792785644531,0.5626373901367188,3.028665100097656,-0.42748091603053434,-9.633587786259541,-21.419847328244273,0.0
11.800000667572021,-11.18571015625,0.5817910034179687,8.027758166503906,8.244274809160306,12.549618320610687,-6.778625954198473,-7.8170684204101555,0.2657563842773437,3.8283284545898435,-3.816793893129771,-10.473282442748092,-22.83969465648855,0.0
11.810000658035278,-13.196839550781249,1.4963760375976562,10.20887587890625,4.961832061068702,-6.595419847328245,-7.8320610687022905,-7.912836486816405,0.7422025146484375,5.063736511230468,-10.961832061068701,-13.801526717557252,-22.702290076335878,0.0
11.820000886917114,-14.195221643066406,2.4349030883789062,12.43069501953125,9.282442748091603,-24.80916030534351,-4.0,-7.445967163085937,0.30885201416015623,3.323151904296875,-30.427480916030536,-14.381679389312977,-22.18320610687023,0.0
11.830000877380371,-12.548010900878905,-0.45489831542968745,13.433865515136718,29.083969465648856,-43.404580152671755,4.33587786259542,-6.754042883300781,0.2920926025390625,1.5394716674804687,-38.83969465648855,-14.488549618320612,-21.603053435114504,0.0
11.840000867843628,-14.915876342773437,2.5522189697265625,16.39549296875,32.38167938931298,-67.17557251908397,3.053435114503817,-5.777208605957031,-0.8499415893554687,-0.22505495605468748,-42.732824427480914,-14.351145038167939,-22.015267175572518,0.0
11.850000619888306,-18.18396160888672,0.4070142822265625,18.20072102050781,26.732824427480917,-94.53435114503817,0.5954198473282443,-6.306327172851562,-2.5354595581054684,-0.8355763793945312,-30.580152671755727,-12.183206106870228,-20.916030534351144,0.0
11.860000610351562,-15.6293484375,-0.6248866333007812,18.03552110595703,39.05343511450382,-121.5114503816794,3.6793893129770994,-4.141968872070312,-2.978386865234375,-2.4061726684570313,-18.48854961832061,-13.129770992366412,-23.221374045801525,0.0
11.87000060081482,-15.844826586914062,-0.9696516723632812,16.053122131347656,11.740458015267176,-159.96946564885496,-5.755725190839694,-2.3439234252929686,-0.9576806640625,-4.3454760131835934,-3.3435114503816794,-6.0,-23.480916030534353,0.0
11.880000591278076,-16.82884346923828,-1.3838485595703125,15.44978331298828,-19.114503816793892,-199.29770992366412,-12.122137404580153,-1.6041151123046875,0.316034619140625,-4.881777185058594,9.679389312977099,3.969465648854962,-18.48854961832061,0.0
11.890000581741333,-14.47294903564453,-5.511452221679687,15.057134240722656,5.770992366412214,-227.2824427480916,-8.335877862595419,-3.6367923217773437,1.7525556152343749,-4.75009609375,19.755725190839694,15.954198473282442,-11.618320610687023,0.0
11.90000057220459,-18.306065893554685,-2.0446482177734375,12.076353173828124,66.09160305343511,-227.49618320610688,0.7175572519083969,-7.48906279296875,6.430825659179687,-2.252943762207031,29.64885496183206,29.221374045801525,-6.748091603053435,0.0
11.910000562667847,-11.437101330566406,-4.220977526855468,-0.3112462158203125,51.221374045801525,-252.5648854961832,-2.9160305343511452,-9.483432775878907,10.568006127929687,1.8315642700195311,3.282442748091603,38.33587786259542,-3.1908396946564888,0.0
11.920000314712524,-10.749965454101561,-2.844311572265625,-5.434837768554687,46.94656488549618,-248.9770992366412,-3.66412213740458,-16.82166086425781,5.1690813842773435,5.1331683593749995,-16.137404580152673,46.80916030534351,5.740458015267175,0.0
11.93000054359436,-12.00213292236328,-3.892971899414062,-9.042899670410156,68.93129770992367,-239.7709923664122,1.2366412213740459,-20.21903302001953,0.8882488159179687,5.284003063964843,-30.900763358778626,41.43511450381679,3.786259541984733,0.0
11.940000534057617,-12.397176196289061,-3.423708374023437,-11.173739147949219,105.54198473282443,-213.0229007633588,13.83206106870229,-19.474436303710938,-2.703053674316406,4.024652990722656,-34.94656488549618,34.030534351145036,5.374045801526718,0.0
11.950000524520874,-14.43464180908203,2.0087351928710935,-11.621454858398437,109.37404580152672,-196.12213740458014,6.870229007633588,-15.181632727050781,-0.7685387329101562,2.3056161987304686,-28.732824427480917,24.82442748091603,12.335877862595419,0.0
11.96000051498413,-20.147206970214842,8.734047656249999,-4.790797521972656,95.52671755725191,-179.5114503816794,9.236641221374045,-12.033257543945313,-1.7262193969726563,-0.74699091796875,-30.83969465648855,19.66412213740458,21.786259541984734,0.0
11.970000743865967,-19.871873779296873,8.221688500976562,-1.2832920898437499,69.83206106870229,-169.6030534351145,23.770992366412212,-8.664615808105468,-0.1388636962890625,-4.074931225585937,-38.534351145038165,19.16030534351145,21.709923664122137,0.0
11.980000495910645,-20.676325537109374,6.701370446777343,0.8690952026367187,38.62595419847328,-157.9083969465649,32.16793893129771,-6.9144543945312495,-2.422932080078125,-4.695029455566406,-46.01526717557252,31.954198473282442,20.442748091603054,0.0
11.99000072479248,-17.992425476074217,2.925714428710937,-1.0414777221679687,8.870229007633588,-149.7709923664122,42.62595419847328,-9.651026892089844,-7.287949853515625,-4.8650177734375,-27.14503816793893,40.0,21.236641221374047,0.0
12.000000476837158,-13.692439294433592,-0.24181436767578124,-3.239354846191406,-6.122137404580153,-139.3740458015267,45.05343511450382,-9.945513696289062,-5.717353564453124,-6.672640026855468,4.259541984732825,40.213740458015266,17.84732824427481,0.0
12.010000705718994,-9.018957653808593,-0.07900865478515624,-4.414907861328125,-28.625954198473284,-130.4885496183206,39.49618320610687,-9.157821350097656,-1.0630255371093749,-8.14028564453125,15.893129770992367,56.10687022900763,13.297709923664122,0.0
12.020000696182251,-7.295132458496093,-0.33039982910156246,-3.289633081054687,-49.541984732824424,-114.13740458015268,33.41984732824427,-12.08592998046875,-1.5514426757812498,-5.9017070922851556,30.870229007633586,72.73282442748092,19.00763358778626,0.0
12.030000448226929,-3.7229835815429686,-4.546588952636719,-5.015852478027344,-39.9236641221374,-97.89312977099236,31.587786259541986,-12.471396447753905,-0.2346317626953125,-5.9017070922851556,55.38931297709924,72.74809160305344,22.27480916030534,0.0
12.040000677108765,-3.2154128295898436,-4.120421057128906,-4.996698864746094,-17.740458015267176,-74.87022900763358,22.977099236641223,-10.421959826660157,3.73495458984375,-4.407725256347656,59.6793893129771,80.9618320610687,22.213740458015266,0.0
12.050000667572021,-2.583343591308594,-2.729389892578125,-5.877765075683594,-13.374045801526718,-57.083969465648856,20.595419847328245,-10.735600244140624,2.607285607910156,-3.143586779785156,65.31297709923665,85.1145038167939,27.557251908396946,0.0
12.0600004196167,-3.1747114013671873,-1.4508862060546874,-5.293579870605469,-6.900763358778626,-31.984732824427482,15.129770992366412,-9.624690673828125,5.487510205078125,-2.3678654418945313,59.587786259541986,86.76335877862596,32.778625954198475,0.0
12.070000648498535,-2.4492682983398435,-0.32561142578124996,-6.153098266601562,-16.412213740458014,-17.34351145038168,13.801526717557252,-8.84178673095703,5.317521887207031,-1.2425906616210938,46.51908396946565,88.67175572519083,36.74809160305343,0.0
12.080000877380371,-3.9408559326171875,-0.05746083984375,-4.50109912109375,-27.572519083969464,4.778625954198473,11.679389312977099,-5.559336254882812,7.003039855957031,-1.254561669921875,18.38167938931298,85.48091603053435,34.900763358778626,0.0
12.090000629425049,-3.2728736694335936,1.0582371337890624,-4.608838195800781,-53.31297709923664,16.015267175572518,10.061068702290076,-9.97184991455078,8.872911352539061,0.2154781494140625,-30.15267175572519,113.87786259541984,41.37404580152672,0.0
12.100001096725464,-1.4341267944335936,0.5363011718749999,-3.801992236328125,-88.13740458015268,23.709923664122137,9.49618320610687,-2.7198130859375,12.54561669921875,-2.1619640991210938,-98.35114503816794,115.69465648854961,45.23664122137404,0.0
12.110000610351562,-2.6288334228515624,2.4061726684570313,1.0893617553710937,-91.54198473282443,42.38167938931298,2.946564885496183,-8.343792785644531,5.480327600097656,-1.1755530151367186,-155.55725190839695,147.4351145038168,58.732824427480914,0.0
12.120000839233398,-2.8898014038085935,1.2114660400390624,3.8953661010742184,-108.04580152671755,40.10687022900763,3.4198473282442747,-8.583212951660157,2.8514941772460936,-2.1021090576171875,-155.57251908396947,146.2290076335878,64.85496183206106,0.0
12.130000591278076,-1.4221557861328125,-2.6336218261718747,5.576095666503906,-58.06106870229008,51.282442748091604,13.893129770992367,-13.697227697753906,-3.81156904296875,-1.455674609375,-144.94656488549617,148.24427480916032,69.37404580152672,0.0
12.140000820159912,0.105344873046875,-6.643909606933593,6.358999609374999,10.732824427480915,64.65648854961832,16.732824427480917,-13.374010473632811,-13.026851232910156,3.086125939941406,-63.221374045801525,131.57251908396947,70.94656488549619,0.0
12.150000810623169,-2.3535002319335936,-6.698976245117187,6.806715319824218,92.80916030534351,84.10687022900764,11.129770992366412,-12.579135522460938,-13.5990654296875,2.683900061035156,47.00763358778626,96.76335877862596,59.02290076335878,0.0
12.160000324249268,-3.0837317382812497,-5.992686755371094,4.460397692871093,160.6412213740458,99.22137404580153,8.213740458015268,-14.72194600830078,-16.73307540283203,4.005499377441406,84.58015267175573,84.53435114503817,41.19083969465649,0.0
12.170000553131104,-5.837063647460937,-1.4006079711914061,6.9336080078124995,174.85496183206106,110.8854961832061,-0.5954198473282443,-8.738836059570312,-4.065354418945312,0.5817910034179687,124.50381679389314,50.961832061068705,19.14503816793893,0.0
12.18000054359436,-9.923965881347655,4.568136767578125,10.579977136230468,140.87022900763358,96.58015267175573,-12.916030534351146,-9.770736975097655,-0.5698199951171875,1.7381904052734374,113.54198473282443,48.62595419847328,17.46564885496183,0.0
12.190001010894775,-13.172897534179686,10.338162768554687,16.11297717285156,84.22900763358778,72.80916030534351,-15.938931297709924,-8.394071020507813,3.6104561035156246,1.8411410766601561,95.37404580152672,50.47328244274809,12.412213740458014,0.0
12.200000524520874,-15.66047305908203,14.7482822265625,17.563863378906248,18.9618320610687,34.79389312977099,-7.9541984732824424,-11.279084020996093,2.4301146850585935,2.9472622436523435,79.6793893129771,52.213740458015266,16.076335877862597,0.0
12.21000075340271,-11.762712756347655,7.105990527343749,15.368380456542967,-4.488549618320611,12.900763358778626,6.99236641221374,-10.673351000976561,3.9360675292968748,2.6767174560546874,45.89312977099237,50.76335877862596,14.458015267175572,0.0
12.220000743865967,-9.430760339355468,5.432443566894531,13.436259716796874,-21.83206106870229,-18.3206106870229,6.5038167938931295,-12.514492077636717,2.061407629394531,1.618480322265625,34.87022900763359,45.7557251908397,12.82442748091603,0.0
12.230000734329224,-10.8409451171875,6.600813977050781,13.654132067871092,-8.061068702290076,-34.534351145038165,15.068702290076336,-12.907141149902342,3.2513258544921873,2.109291662597656,16.061068702290076,42.656488549618324,15.374045801526718,0.0
12.240000486373901,-9.227253198242186,4.987122058105468,11.5304751953125,24.458015267175572,-38.82442748091603,37.7557251908397,-12.251129895019531,3.0047230834960934,3.265691064453125,-13.16030534351145,38.38167938931298,18.106870229007633,0.0
12.250000715255737,-5.461173986816406,2.7820623291015623,0.4381389038085937,39.93893129770992,-28.671755725190838,62.0763358778626,-11.156979736328124,4.8506525634765625,0.3136404174804687,-38.33587786259542,33.41984732824427,20.564885496183205,0.0
12.260000705718994,-4.062960217285156,-4.448426684570312,-5.044582897949218,2.030534351145038,-19.114503816793892,52.35114503816794,-10.785878479003905,5.195417602539062,0.9217676391601562,-59.954198473282446,30.48854961832061,20.946564885496183,0.0
12.270000696182251,-11.3389390625,-9.550470422363281,3.5051112304687497,-7.129770992366412,-11.893129770992367,34.18320610687023,-12.42351241455078,4.4196962646484375,1.9201497314453124,-86.21374045801527,26.641221374045802,22.061068702290076,0.0
12.280000448226929,-20.424934362792968,-7.184999182128906,15.16247911376953,41.17557251908397,-11.893129770992367,31.267175572519083,-13.587094421386718,0.086191259765625,2.1404162841796874,-111.05343511450381,15.145038167938932,21.72519083969466,0.0
12.290000677108765,-25.81188809814453,3.23696064453125,13.120225097656249,78.29007633587786,-8.641221374045802,31.450381679389313,-13.831302990722655,-2.068590234375,1.9608511596679685,-121.64885496183206,-0.8854961832061069,20.82442748091603,0.0
12.300000667572021,-20.36747352294922,3.421314172363281,0.8020575561523438,52.70229007633588,-16.015267175572518,29.709923664122137,-16.359579943847656,-4.2305543334960936,-0.8690952026367187,-110.33587786259542,-12.106870229007633,19.053435114503817,0.0
12.310000658035278,-14.551957690429687,0.07900865478515624,-2.5857377929687497,-0.6106870229007634,-22.27480916030534,12.442748091603054,-12.564770312499999,-3.3016040893554686,-0.7278373046875,-98.50381679389314,-23.00763358778626,16.18320610687023,0.0
12.320000886917114,-6.730100866699218,-6.591237170410156,-6.471527087402343,-2.2595419847328246,-6.717557251908397,9.511450381679388,-12.093112585449218,-3.2920272827148436,-0.4261678955078125,-75.80152671755725,-37.93893129770992,10.290076335877863,0.0
12.330000400543213,-5.456385583496093,-3.7301661865234372,-7.893682873535155,9.251908396946565,7.358778625954199,1.816793893129771,-15.552733984375,-4.84586416015625,0.2537853759765625,-34.99236641221374,-57.37404580152672,7.694656488549619,0.0
12.340000867843628,-2.999934680175781,-5.700594152832031,-8.506598498535157,32.900763358778626,28.748091603053435,-0.33587786259541985,-17.099388256835937,-4.1946413085937495,-2.291250988769531,5.908396946564886,-82.25954198473282,-1.3740458015267176,0.0
12.350000619888306,-6.775590698242187,-2.0733786376953125,-5.027823486328125,45.7557251908397,56.33587786259542,-15.007633587786259,-14.405911389160156,2.0661960327148434,-4.977545251464844,14.335877862595419,-93.05343511450381,-12.274809160305344,0.0
12.360000848770142,-9.469067565917967,1.2330138549804688,-6.279990954589843,32.85496183206107,63.83206106870229,-18.99236641221374,-11.985373510742187,5.485116003417969,-7.520187414550781,5.145038167938932,-89.38931297709924,-18.778625954198475,0.0
12.37000060081482,-13.68765089111328,3.749319799804687,-2.987963671875,23.083969465648856,78.44274809160305,-23.49618320610687,-12.63420216064453,1.0989385620117187,-6.981492041015625,0.7633587786259542,-90.45801526717557,-16.748091603053435,0.0
12.380000591278076,-15.344438439941406,4.537012145996093,-1.8124106567382812,0.1984732824427481,82.53435114503817,-27.083969465648856,-9.792284790039062,5.57370146484375,-9.074024291992187,-7.6183206106870225,-83.09923664122137,-20.580152671755727,0.0
12.390000581741333,-12.76827745361328,3.1292215698242187,-2.269703173828125,-33.98473282442748,77.72519083969466,-24.763358778625953,-9.074024291992187,4.328716601562499,-7.544129431152343,-25.52671755725191,-57.9236641221374,-13.954198473282442,0.0
12.400000810623169,-8.33182177734375,-2.6719290527343746,-2.7581203125,-24.82442748091603,86.12213740458016,-21.84732824427481,-11.537657800292967,-0.59376201171875,-6.026205578613281,-7.374045801526718,-45.9236641221374,-10.274809160305344,0.0
12.410000801086426,-9.758765966796874,-1.9704279663085937,-1.0342951171875,12.106870229007633,99.92366412213741,-26.519083969465647,-9.188945971679686,1.8938135131835936,-7.003039855957031,7.877862595419847,-46.56488549618321,-16.091603053435115,0.0
12.420000553131104,-8.590395556640624,0.6919242797851562,-2.020706201171875,25.87786259541985,103.17557251908397,-24.595419847328245,-8.221688500976562,3.787627026367187,-6.311115576171875,5.541984732824427,-34.51908396946565,-16.931297709923665,0.0
12.43000078201294,-9.179369165039063,2.6216508178710938,0.7613561279296874,33.41984732824427,113.90839694656489,-21.862595419847327,-10.103531005859374,2.7820623291015623,-4.237736938476562,19.404580152671755,-26.47328244274809,-15.404580152671755,0.0
12.440000534057617,-9.983820922851562,3.6391865234374996,1.7190367919921874,28.549618320610687,112.47328244274809,-20.35114503816794,-9.222464794921875,2.4947581298828125,-3.2249896362304686,24.595419847328245,-19.72519083969466,-15.694656488549619,0.0
12.450001001358032,-9.586383447265625,3.076549133300781,2.1906945190429687,3.282442748091603,101.74045801526718,-20.106870229007633,-8.389282617187499,2.123656872558594,-3.0621839233398433,29.541984732824428,-19.954198473282442,-17.81679389312977,0.0
12.46000051498413,-9.05965908203125,2.0302830078125,2.5737667846679684,-10.82442748091603,93.14503816793894,-19.66412213740458,-8.051700183105469,2.518700146484375,-2.3247698120117186,29.908396946564885,-19.00763358778626,-18.564885496183205,0.0
12.470001220703125,-8.135497241210937,0.2346317626953125,2.5857377929687497,-28.045801526717558,83.57251908396947,-19.282442748091604,-8.113949426269532,1.4006079711914061,-1.3096283081054687,30.870229007633586,-19.19083969465649,-17.633587786259543,0.0
12.480000734329224,-9.172186560058593,0.9792284790039062,3.1387983764648437,-25.419847328244273,79.57251908396947,-19.81679389312977,-9.191340173339842,1.189918225097656,-0.469263525390625,45.51145038167939,-24.458015267175572,-18.48854961832061,0.0
12.49000072479248,-9.809044201660155,0.6943184814453125,3.3542765258789062,-27.022900763358777,74.04580152671755,-19.984732824427482,-8.283937744140625,0.6631938598632812,0.07422025146484375,53.02290076335878,-37.7557251908397,-22.80916030534351,0.0
12.500000476837158,-9.497797985839844,1.024718310546875,2.664746447753906,-24.48854961832061,68.91603053435115,-16.65648854961832,-7.4579381713867186,3.1100679565429687,-0.7829039428710937,48.916030534351144,-47.57251908396947,-25.893129770992367,0.0
12.510000705718994,-9.447519750976562,3.0119056884765625,3.8857892944335934,-32.916030534351144,66.99236641221374,-16.763358778625953,-7.419630944824219,4.189852905273438,0.6512228515624999,33.32824427480916,-44.458015267175576,-21.450381679389313,0.0
12.520000696182251,-9.272743029785156,2.942473840332031,4.7884033203125,-39.267175572519086,66.93129770992367,-13.786259541984732,-9.114725720214842,1.9919757812499999,0.8690952026367187,32.80916030534351,-52.961832061068705,-17.52671755725191,0.0
12.530000686645508,-7.52737001953125,1.5179238525390624,2.7461493041992187,-33.64885496183206,65.40458015267176,-11.221374045801527,-6.833051538085937,5.228936425781249,0.2657563842773437,17.053435114503817,-56.229007633587784,-19.51145038167939,0.0
12.540000677108765,-8.169016064453125,2.3127988037109373,3.21780703125,-38.74809160305343,64.82442748091603,-10.030534351145038,-8.71489404296875,2.636016027832031,1.1827356201171875,2.9923664122137406,-51.29770992366412,-12.702290076335878,0.0
12.5500009059906,-9.641450085449218,2.157175695800781,3.3638533325195312,-43.32824427480916,62.900763358778626,-9.572519083969466,-8.793902697753905,2.8562825805664063,0.29448680419921874,3.9236641221374047,-61.14503816793893,-15.419847328244275,0.0
12.560001134872437,-9.660603698730467,0.8259995727539062,3.1651345947265623,-35.64885496183206,64.53435114503817,-8.091603053435115,-8.458714465332031,3.0166940917968748,0.37828386230468747,-11.648854961832061,-54.61068702290076,-15.709923664122137,0.0
12.570000648498535,-9.801861596679688,0.22505495605468748,2.73896669921875,-39.81679389312977,62.48854961832061,-8.763358778625955,-10.077194787597655,-0.3399766357421875,0.6584054565429687,-16.03053435114504,-59.847328244274806,-12.259541984732824,0.0
12.580000400543213,-13.685256689453125,4.2497079467773435,4.209006518554688,-50.778625954198475,58.152671755725194,-16.12213740458015,-11.465831750488281,-1.209071838378906,1.8052280517578123,0.1984732824427481,-68.38167938931298,-16.80916030534351,0.0
12.590000867843628,-11.985373510742187,1.9536685546875,2.013523596191406,-84.16793893129771,40.94656488549618,-18.198473282442748,-9.02135185546875,1.8770541015625,-0.7422025146484375,-8.213740458015268,-75.02290076335878,-24.091603053435115,0.0
12.600001096725464,-11.626243261718749,0.6775590698242188,1.43652099609375,-80.19847328244275,39.38931297709924,-13.16030534351145,-12.53843409423828,-1.2378022583007813,1.3575123413085937,-8.702290076335878,-74.50381679389314,-17.923664122137403,0.0
12.610000848770142,-9.344569079589844,-2.0781670410156248,0.47644613037109373,-72.1526717557252,33.083969465648856,-12.65648854961832,-10.436325036621094,0.39743747558593745,-0.39743747558593745,5.435114503816794,-91.83206106870229,-27.328244274809162,0.0
12.620000839233398,-12.81376728515625,2.1547814941406247,2.5067291381835934,-41.038167938931295,40.58015267175573,-13.022900763358779,-12.164938635253906,-1.2713210815429687,2.085349645996094,8.50381679389313,-82.68702290076335,-27.068702290076335,0.0
12.630000591278076,-9.916783276367187,-0.6607996582031249,1.2713210815429687,-45.32824427480916,32.74809160305343,-12.732824427480915,-9.674968908691406,0.7015010864257812,0.28490999755859375,9.114503816793894,-94.7175572519084,-33.48091603053435,0.0
12.640000820159912,-10.172962854003906,0.8738836059570312,0.15322890625,-38.25954198473283,29.129770992366414,-9.923664122137405,-11.690886706542969,0.21068974609375,0.22026655273437498,19.87786259541985,-97.77099236641222,-34.80916030534351,0.0
12.650000810623169,-10.002974536132811,1.5394716674804687,0.5865794067382812,-32.70229007633588,29.72519083969466,-11.557251908396946,-10.321403356933594,0.28490999755859375,0.7685387329101562,14.51908396946565,-93.93893129770993,-34.18320610687023,0.0
12.660000562667847,-10.151415039062499,2.133233679199219,0.16280571289062498,-46.3206106870229,26.68702290076336,-10.83969465648855,-8.719682446289061,2.080561242675781,-0.48123453369140623,10.977099236641221,-91.3587786259542,-35.32824427480916,0.0
12.670000791549683,-9.710881933593749,1.697488977050781,-0.6823474731445313,-44.70229007633588,29.572519083969464,-8.030534351145038,-10.388441003417968,1.2832920898437499,-0.9361328491210937,19.282442748091604,-87.12977099236642,-31.480916030534353,0.0
12.68000054359436,-10.455478649902343,2.770091320800781,-0.5291185668945312,-53.221374045801525,28.641221374045802,-8.641221374045802,-8.762778076171875,2.6599580444335937,0.5698199951171875,6.305343511450381,-70.1526717557252,-30.18320610687023,0.0
12.690000295639038,-9.639055883789062,1.005564697265625,-0.8834604125976562,-58.62595419847328,30.946564885496183,-5.374045801526718,-10.809820495605468,1.5729904907226562,-1.3168109130859373,8.748091603053435,-72.97709923664122,-27.755725190839694,0.0
12.700000524520874,-9.390058911132812,-0.04548983154296875,-1.5059528442382812,-51.3587786259542,31.572519083969464,-4.106870229007634,-7.4770917846679685,3.399766357421875,-1.0031704956054688,-4.870229007633588,-60.152671755725194,-27.755725190839694,0.0
12.710000276565552,-9.100360510253905,0.9409212524414062,0.0383072265625,-36.274809160305345,41.9236641221374,-4.809160305343512,-10.342951171874999,-0.14604630126953125,0.5578489868164063,-4.030534351145038,-50.50381679389313,-21.61832061068702,0.0
12.720000267028809,-10.213664282226562,-0.6943184814453125,-0.689530078125,-57.32824427480916,35.66412213740458,-11.465648854961833,-10.177751257324218,0.4860229370117187,-1.2306196533203124,6.519083969465649,-52.916030534351144,-25.69465648854962,0.0
12.730000734329224,-9.775525378417969,-3.289633081054687,-1.1851298217773436,-14.366412213740459,47.12977099236641,-7.572519083969466,-8.109161022949218,0.59376201171875,-1.3144167114257812,-1.1297709923664123,-49.20610687022901,-24.65648854961832,0.0
12.740000486373901,-8.499415893554687,-3.1842882080078123,-0.18914193115234373,4.641221374045801,55.23664122137404,-11.145038167938932,-9.476250170898437,-0.16759411621093748,0.38786066894531246,6.99236641221374,-37.86259541984733,-20.793893129770993,0.0
12.750000715255737,-9.430760339355468,-1.6711527587890624,0.10773907470703124,14.549618320610687,60.091603053435115,-17.938931297709924,-10.237606298828124,-1.139639990234375,1.388636962890625,24.82442748091603,-43.37404580152672,-20.38167938931298,0.0
12.760000705718994,-9.629479077148437,-1.0869675537109373,-0.5099649536132812,34.12213740458015,63.63358778625954,-19.49618320610687,-8.406042028808594,1.3000515014648437,0.7852981445312499,36.30534351145038,-46.961832061068705,-24.38167938931298,0.0
12.77000093460083,-10.670956799316405,1.0342951171875,-0.39983167724609375,35.20610687022901,65.64885496183206,-20.580152671755727,-7.501033801269531,2.4349030883789062,0.2705447875976562,22.68702290076336,-38.534351145038165,-23.480916030534353,0.0
12.780000925064087,-10.563217724609375,2.834734765625,0.0909796630859375,11.404580152671755,62.778625954198475,-20.82442748091603,-8.700528833007812,1.1516109985351561,0.3495534423828125,17.96946564885496,-32.58015267175573,-21.328244274809162,0.0
12.790000677108765,-9.89523546142578,2.068590234375,0.0909796630859375,3.3893129770992365,60.961832061068705,-18.427480916030536,-9.100360510253905,0.5506663818359374,1.37906015625,22.38167938931298,-31.6793893129771,-20.83969465648855,0.0
12.800001382827759,-9.794678991699218,0.9816226806640624,0.5674257934570313,7.9541984732824424,59.93893129770992,-17.389312977099237,-8.473079675292968,0.7230489013671875,0.699106884765625,23.770992366412212,-32.06106870229008,-19.938931297709924,0.0
12.810000896453857,-10.228029492187499,1.8698714965820311,0.86191259765625,7.236641221374046,56.70229007633588,-17.908396946564885,-7.46272657470703,2.3582886352539063,0.33039982910156246,13.618320610687023,-27.87786259541985,-19.587786259541986,0.0
12.820000886917114,-10.007762939453125,2.001552587890625,0.6344634399414062,-5.1603053435114505,52.19847328244275,-16.0,-6.880935571289062,2.384624853515625,0.34715924072265625,-2.8702290076335877,-17.633587786259543,-16.641221374045802,0.0
12.830000877380371,-9.957484704589843,2.9281086303710935,0.9624690673828125,-10.442748091603054,50.74809160305343,-14.030534351145038,-8.939948999023438,0.17956512451171874,1.3575123413085937,-5.435114503816794,-11.419847328244275,-12.244274809160306,0.0
12.840000629425049,-10.534487304687499,2.4588451049804685,1.3958195678710936,-15.84732824427481,47.14503816793893,-13.86259541984733,-7.769184387207031,0.6751648681640625,1.4413093994140624,-2.4122137404580153,-11.511450381679388,-13.068702290076336,0.0
12.850000619888306,-10.496180078124999,1.5059528442382812,1.1252747802734375,-15.34351145038168,41.786259541984734,-10.13740458015267,-8.334215979003906,-0.28730419921875,1.0965443603515623,0.6564885496183206,-9.770992366412214,-12.0,0.0
12.860000848770142,-11.094730493164063,1.3048399047851562,1.5155296508789062,-17.923664122137403,37.52671755725191,-8.091603053435115,-8.154650854492187,-0.4955997436523437,1.6424223388671875,5.541984732824427,-8.0,-11.923664122137405,0.0
12.87000060081482,-11.145008728027342,0.6344634399414062,2.2026655273437497,-19.17557251908397,35.3587786259542,-6.900763358778626,-9.82580361328125,-1.7357962036132812,1.4963760375976562,19.96946564885496,-11.969465648854962,-12.076335877862595,0.0
12.880000352859497,-10.199299072265624,0.354341845703125,1.9800047729492187,-6.519083969465649,30.671755725190838,-5.969465648854962,-8.348581188964843,-0.10295067138671875,1.5538368774414062,22.793893129770993,-10.793893129770993,-13.48091603053435,0.0
12.890000343322754,-10.479420666503906,-0.201112939453125,3.1747114013671873,-7.877862595419847,26.85496183206107,-6.9465648854961835,-7.592013464355468,-0.1484405029296875,0.6368576416015624,26.16793893129771,-15.358778625954198,-13.374045801526718,0.0
12.900000810623169,-12.368445776367187,1.369483349609375,4.8650177734375,-3.2213740458015265,20.9618320610687,-8.061068702290076,-9.066841687011719,-0.32561142578124996,0.8068459594726562,35.954198473282446,-8.259541984732824,-12.305343511450381,0.0
12.910000562667847,-11.405976708984374,-0.2154781494140625,4.218583325195312,-12.229007633587786,3.8931297709923665,-7.00763358778626,-7.762001782226562,-0.20829554443359374,0.16998831787109375,30.610687022900763,-6.442748091603053,-12.01526717557252,0.0
12.920000314712524,-11.283872424316405,-1.0438719238281249,4.848258361816406,8.51908396946565,-1.1603053435114503,-4.091603053435114,-5.367800122070312,1.3479355346679687,-0.3758896606445312,20.396946564885496,-5.557251908396947,-12.259541984732824,0.0
12.93000078201294,-10.800243688964843,-1.7573440185546874,5.6191912963867185,18.85496183206107,-6.412213740458015,-4.259541984732825,-6.299144567871093,0.3447650390625,-0.3447650390625,22.83969465648855,2.519083969465649,-8.702290076335878,0.0
12.940000534057617,-11.978190905761718,0.3806780639648437,7.378929516601562,25.328244274809162,-14.13740458015267,-7.435114503816794,-5.827486840820312,-0.13168109130859373,0.430956298828125,18.045801526717558,12.442748091603054,-5.450381679389313,0.0
12.950000524520874,-13.474566943359374,2.1787235107421874,9.105148913574219,10.900763358778626,-37.45038167938932,-5.603053435114504,-6.940790612792968,-1.2976572998046874,-0.23223756103515625,27.14503816793893,12.931297709923664,-4.152671755725191,0.0
12.96000051498413,-15.643713647460936,3.478775012207031,11.796231579589843,16.045801526717558,-56.83969465648855,1.984732824427481,-5.6958057495117185,-0.4572925170898437,-1.2593500732421874,27.068702290076335,16.213740458015266,-6.67175572519084,0.0
12.970000743865967,-16.270994482421873,3.447650390625,14.714763403320312,7.251908396946565,-84.16793893129771,11.770992366412214,-4.96078583984375,1.2114660400390624,-1.5921441040039062,15.84732824427481,28.885496183206108,-6.229007633587786,0.0
12.980000495910645,-16.876727502441405,2.1499930908203124,17.472883715820313,5.801526717557252,-118.07633587786259,20.65648854961832,-5.0757075195312495,1.7238251953125,-2.731784094238281,3.480916030534351,35.05343511450382,-2.885496183206107,0.0
12.99000072479248,-15.887922216796873,-0.02633621826171875,17.673996655273438,16.65648854961832,-150.76335877862596,25.49618320610687,-5.547365246582031,3.8570588745117185,-2.8850130004882812,-1.786259541984733,51.770992366412216,0.7786259541984732,0.0
13.000000476837158,-14.841656091308593,-1.668758557128906,16.17043801269531,18.47328244274809,-181.80152671755727,20.076335877862597,-8.173804467773436,1.6543933471679686,-0.928950244140625,-12.732824427480915,66.30534351145039,6.076335877862595,0.0
13.010000705718994,-12.945448376464842,-4.357447021484375,14.310143322753905,0.7480916030534351,-223.40458015267177,4.290076335877862,-9.732429748535155,0.47165772705078124,0.1867477294921875,-13.954198473282442,65.93893129770993,2.564885496183206,0.0
13.020000696182251,-14.238317272949217,-5.398924743652343,13.462595935058593,12.82442748091603,-253.81679389312978,-10.992366412213741,-9.5384994140625,0.11252747802734374,0.46208092041015625,-24.625954198473284,78.36641221374046,-1.8931297709923665,0.0
13.030000448226929,-14.355633154296875,-9.782707983398437,13.536816186523437,62.87022900763359,-270.7328244274809,-10.778625954198473,-10.0748005859375,2.0566192260742184,1.388636962890625,-22.061068702290076,74.38167938931298,-6.625954198473282,0.0
13.040000677108765,-12.744335437011719,-5.453991381835937,0.488417138671875,127.45038167938931,-272.1374045801527,4.061068702290076,-13.670891479492187,0.8834604125976562,4.759672900390624,-19.114503816793892,65.81679389312977,-2.8091603053435112,0.0
13.0500009059906,-12.088324182128906,-0.8690952026367187,-6.53138212890625,120.30534351145039,-265.64885496183206,6.0458015267175576,-15.344438439941406,1.4173673828125,8.597578161621094,-20.580152671755727,59.908396946564885,-3.3587786259541983,0.0
13.060001134872437,-13.55357559814453,1.7645266235351562,-11.439495532226562,106.97709923664122,-248.67175572519085,11.633587786259541,-16.39549296875,0.5219359619140624,7.8912886718749995,-26.03053435114504,42.732824427480914,-5.465648854961832,0.0
13.070000410079956,-14.889540124511718,-0.6919242797851562,-12.631807958984375,101.7557251908397,-220.70229007633588,18.412213740458014,-15.433023901367186,1.5538368774414062,6.83783994140625,-28.85496183206107,31.053435114503817,5.755725190839694,0.0
13.080000400543213,-16.278177087402344,-3.1483751831054687,-10.295067138671874,91.08396946564885,-198.5648854961832,12.396946564885496,-14.566322900390624,3.1555577880859373,3.057395520019531,-27.862595419847327,17.083969465648856,17.740458015267176,0.0
13.090000629425049,-17.453730102539062,-0.7134720947265625,-6.045359191894531,101.6030534351145,-182.5801526717557,-2.2595419847328246,-11.947066284179687,2.5546131713867184,-1.1947066284179686,-46.030534351145036,13.969465648854962,24.198473282442748,0.0
13.100000858306885,-18.217480432128905,3.0047230834960934,-0.8738836059570312,102.04580152671755,-165.5267175572519,-2.4580152671755724,-10.0748005859375,-2.4109610717773435,-5.140350964355468,-64.7175572519084,25.251908396946565,26.244274809160306,0.0
13.110000610351562,-18.411410766601563,4.601655590820312,2.4492682983398435,93.19083969465649,-149.25190839694656,13.206106870229007,-9.56962403564453,-7.0461354858398435,-6.481103894042969,-41.69465648854962,28.38167938931298,20.9618320610687,0.0
13.120000839233398,-15.385139868164062,4.113238452148437,1.6519991455078125,74.04580152671755,-147.05343511450383,23.0381679389313,-9.70369932861328,-7.917624890136718,-8.449137658691406,23.435114503816795,29.83206106870229,14.274809160305344,0.0
13.130000591278076,-13.318943835449218,3.632003918457031,0.21787235107421873,45.17557251908397,-143.93893129770993,24.427480916030536,-9.708487731933593,-8.147468249511718,-8.25520732421875,33.9236641221374,39.57251908396947,8.748091603053435,0.0
13.140000581741333,-10.77630167236328,2.578555187988281,-2.001552587890625,-0.5648854961832062,-145.74045801526717,21.923664122137403,-6.279990954589843,-0.42377369384765623,-8.305485559082031,44.274809160305345,53.038167938931295,3.0381679389312977,0.0
13.150000810623169,-8.12113203125,2.133233679199219,-2.9472622436523435,-31.14503816793893,-138.6412213740458,20.564885496183205,-9.639055883789062,2.3343466186523436,-5.521029028320312,38.3206106870229,89.25190839694656,20.35114503816794,0.0
13.160000801086426,-2.020706201171875,-1.1468225952148436,-4.920084411621094,-40.534351145038165,-126.25954198473282,21.83206106870229,-6.121973645019531,11.427524523925781,-3.919308117675781,28.85496183206107,120.58015267175573,20.99236641221374,0.0
13.170000553131104,-1.5346832641601562,-2.0278888061523435,-4.7931917236328125,-30.442748091603054,-100.51908396946565,17.221374045801525,-7.077260107421875,7.501033801269531,-7.295132458496093,-22.549618320610687,138.61068702290078,33.80152671755725,0.0
13.18000054359436,-1.0749965454101562,-4.13718046875,-5.473144995117187,-6.99236641221374,-73.55725190839695,16.0,-4.050989208984375,7.582436657714843,-7.8721350585937495,-44.82442748091603,154.41221374045801,43.61832061068702,0.0
13.190000295639038,-4.412513659667969,0.5889736083984375,-4.192247106933594,14.412213740458014,-37.6793893129771,12.030534351145038,-11.654973681640625,5.760449194335937,-4.491522314453125,-58.19847328244275,187.32824427480915,55.41984732824427,0.0
13.200000762939453,-5.305550878906249,1.6232687255859375,-5.054159704589844,-3.5572519083969465,-23.17557251908397,16.48854961832061,-10.40041201171875,0.9959878906249999,-1.3862427612304686,-61.37404580152672,184.0,68.16793893129771,0.0
13.21000075340271,-2.327164013671875,-1.898601916503906,-6.888118176269531,3.984732824427481,-7.786259541984733,28.137404580152673,-14.650119958496093,-0.28490999755859375,1.0941501586914062,-9.908396946564885,166.73282442748092,72.8854961832061,0.0
13.220000505447388,-1.7932570434570312,-4.467580297851562,-4.61602080078125,14.83969465648855,16.290076335877863,21.419847328244273,-11.75313594970703,-3.957615344238281,2.6144682128906247,7.938931297709924,146.99236641221373,66.07633587786259,0.0
13.230000734329224,-2.6671406494140624,-4.259284753417968,-1.6160861206054686,19.31297709923664,32.152671755725194,4.977099236641221,-9.188945971679686,-4.948814831542968,2.683900061035156,56.54961832061068,116.13740458015268,55.69465648854962,0.0
13.24000072479248,-4.374206433105469,-0.7852981445312499,2.9951462768554684,21.404580152671755,37.86259541984733,-7.786259541984733,-10.826579907226561,-4.412513659667969,4.599261389160156,66.10687022900764,89.19083969465649,47.725190839694655,0.0
13.250000715255737,-3.421314172363281,0.51714755859375,5.9017070922851556,29.557251908396946,41.32824427480916,-9.236641221374045,-14.662090966796875,-6.325480786132812,11.439495532226562,98.22900763358778,68.59541984732824,37.267175572519086,0.0
13.260000467300415,-4.017470385742187,5.006275671386718,5.288791467285156,53.14503816793893,48.80916030534351,-3.404580152671756,-11.877634436035155,-3.5242648437499997,4.958391638183594,88.35114503816794,39.25190839694657,23.572519083969464,0.0
13.270000457763672,-2.806004345703125,8.468291271972657,1.5370774658203123,36.44274809160305,46.29007633587786,6.3816793893129775,-9.452308154296874,3.900154504394531,2.0446482177734375,52.79389312977099,19.236641221374047,7.145038167938932,0.0
13.280000448226929,-2.070984436035156,8.74601866455078,2.8850130004882812,10.50381679389313,60.274809160305345,16.53435114503817,-13.728352319335936,-0.2442085693359375,5.643133312988281,25.83206106870229,21.450381679389313,8.259541984732824,0.0
13.290000677108765,-6.330269189453125,8.731653454589843,7.429207751464843,-57.70992366412214,54.10687022900763,14.748091603053435,-10.146626635742187,0.05985504150390625,4.04141240234375,38.0763358778626,1.7099236641221374,-0.2748091603053435,0.0
13.300000667572021,-4.639962817382812,2.7916391357421872,7.46272657470703,-76.73282442748092,51.969465648854964,19.129770992366414,-10.165780249023436,1.9608511596679685,2.2170307373046874,-1.7099236641221374,1.7251908396946565,-0.33587786259541985,0.0
13.310000658035278,-5.204994409179688,2.636016027832031,8.86812294921875,-83.69465648854961,50.33587786259542,15.801526717557252,-8.836998327636719,1.8411410766601561,1.678335363769531,-20.931297709923665,0.9312977099236641,-1.9541984732824427,0.0
13.320000886917114,-5.5832782714843745,3.821145849609375,8.86812294921875,-76.16793893129771,47.404580152671755,14.458015267175572,-8.896853369140624,3.105279553222656,0.6751648681640625,-45.61832061068702,9.603053435114504,2.6564885496183206,0.0
13.330000638961792,-5.444414575195312,4.4819455078125,8.997409838867187,-62.38167938931298,45.954198473282446,21.709923664122137,-7.3669585083007805,5.430049365234375,-0.8475473876953125,-77.22137404580153,13.603053435114504,6.427480916030534,0.0
13.340000629425049,-4.874594580078124,3.392583752441406,9.775525378417969,-31.46564885496183,52.0763358778626,32.35114503816794,-9.871293444824218,3.342305517578125,-0.86191259765625,-89.74045801526718,28.549618320610687,16.85496183206107,0.0
13.350000858306885,-5.341463903808593,0.25139117431640623,7.64229169921875,-7.297709923664122,56.534351145038165,42.35114503816794,-11.159373937988281,0.354341845703125,-1.5275006591796874,-77.43511450381679,33.17557251908397,21.419847328244273,0.0
13.360000848770142,-7.706935144042968,-3.9647979492187497,3.873818286132812,5.450381679389313,64.9618320610687,43.954198473282446,-13.105859887695312,-2.0087351928710935,2.798821740722656,-77.54198473282443,34.213740458015266,25.66412213740458,0.0
13.37000060081482,-15.6293484375,-7.589619262695312,8.755595471191405,8.381679389312977,58.82442748091603,31.34351145038168,-14.427459204101561,-0.46686932373046874,-1.0271125122070313,-51.6793893129771,37.74045801526717,24.702290076335878,0.0
13.380000591278076,-27.93075656738281,-5.209782812499999,18.746598999023437,39.31297709923664,40.778625954198475,28.717557251908396,-16.04354532470703,-2.212242333984375,-1.1635820068359375,-55.847328244274806,30.03053435114504,27.66412213740458,0.0
13.390000343322754,-31.000123095703124,-5.051765502929687,20.053833105468748,61.954198473282446,25.83206106870229,28.50381679389313,-17.60695900878906,-2.437297290039062,0.6967126831054687,-49.69465648854962,24.885496183206108,26.519083969465647,0.0
13.40000057220459,-23.906103576660154,-9.481038574218749,11.769895361328125,60.93129770992366,9.435114503816793,7.00763358778626,-13.702016101074218,-0.05027823486328125,2.233790148925781,-58.916030534351144,19.755725190839694,21.72519083969466,0.0
13.410000324249268,-14.020444921874999,-5.051765502929687,1.8459294799804686,45.45038167938932,-20.229007633587788,-17.87786259541985,-14.14733760986328,-1.43652099609375,-2.147598889160156,-42.030534351145036,18.885496183206108,23.282442748091604,0.0
13.420000553131104,-7.843404638671874,-1.838746875,-5.930437512207031,42.900763358778626,-17.603053435114504,-24.015267175572518,-15.593435412597655,-3.6152445068359373,3.775656018066406,-18.290076335877863,-1.7099236641221374,25.938931297709924,0.0
13.43000078201294,-3.4715924072265625,-0.7206546997070312,-9.253589416503905,57.51145038167939,2.045801526717557,-21.557251908396946,-14.094665173339843,-1.0199299072265624,2.291250988769531,-1.6641221374045803,-28.595419847328245,18.732824427480917,0.0
13.440000534057617,-1.8842367065429686,-1.2785036865234374,-8.0828248046875,60.229007633587784,23.419847328244273,-19.099236641221374,-13.443442321777344,2.051830822753906,0.24181436767578124,0.13740458015267176,-42.54961832061068,13.49618320610687,0.0
13.450000524520874,-6.0908490234374995,5.1331683593749995,-5.193023400878906,41.06870229007634,42.091603053435115,-26.412213740458014,-13.627795849609374,1.668758557128906,-0.023942016601562498,0.030534351145038167,-50.3206106870229,12.15267175572519,0.0
13.46000051498413,-10.405200415039062,9.18655177001953,-4.647145422363281,21.51145038167939,54.534351145038165,-18.763358778625953,-13.558364001464843,0.16519991455078123,-2.2864625854492187,-3.7404580152671754,-60.732824427480914,8.213740458015268,0.0
13.470000743865967,-9.509768994140625,5.303156677246093,-4.347870214843749,-2.0763358778625953,62.0,-8.916030534351146,-12.849680310058593,0.33039982910156246,-5.116408947753906,-10.15267175572519,-74.82442748091603,3.3282442748091605,0.0
13.480000495910645,-9.7683427734375,2.6695348510742187,-2.8514941772460936,-16.137404580152673,73.02290076335878,-10.290076335877863,-12.287042919921875,1.1133037719726562,-3.2704794677734372,-13.786259541984732,-76.73282442748092,0.6870229007633588,0.0
13.49000072479248,-10.615890161132812,1.6615759521484375,-1.407790576171875,-20.38167938931298,86.16793893129771,-15.633587786259541,-10.206481677246094,3.5529952636718747,-5.2624552490234375,-25.16030534351145,-74.74809160305344,-4.427480916030534,0.0
13.500000715255737,-11.67652149658203,3.392583752441406,0.30885201416015623,-32.091603053435115,90.70229007633588,-17.0381679389313,-9.545682019042967,1.9033903198242186,-5.288791467285156,-35.7557251908397,-62.97709923664122,-2.885496183206107,0.0
13.510000467300415,-8.827421520996094,-1.7022773803710936,-0.3711012573242187,-28.702290076335878,91.05343511450381,-11.694656488549619,-11.477802758789062,-0.8355763793945312,-6.260837341308593,-12.961832061068701,-57.52671755725191,-3.648854961832061,0.0
13.520000696182251,-8.633491186523438,-2.7629087158203123,0.5674257934570313,0.1984732824427481,102.97709923664122,-15.022900763358779,-9.469067565917967,1.5418658691406248,-5.985504150390625,4.1679389312977095,-53.66412213740458,-12.091603053435115,0.0
13.530000925064087,-10.498574279785156,0.7517793212890624,2.6312276245117188,-0.549618320610687,104.21374045801527,-25.572519083969464,-8.619125976562499,3.2130186279296873,-6.3709706176757805,0.5038167938931297,-39.70992366412214,-12.549618320610687,0.0
13.540000438690186,-7.570465649414062,-2.375048046875,-0.4165910888671875,0.1984732824427481,99.92366412213741,-21.770992366412212,-8.32463917236328,2.152387292480469,-4.853046765136718,4.198473282442748,-33.86259541984733,-9.83206106870229,0.0
13.550000667572021,-7.682993127441406,-3.3686417358398435,0.8499415893554687,43.603053435114504,116.07633587786259,-23.022900763358777,-9.289502441406249,0.19153613281249998,-2.8467057739257813,22.65648854961832,-28.106870229007633,-9.923664122137405,0.0
13.560001134872437,-10.046070166015625,-0.8116343627929687,2.2361843505859373,52.36641221374046,114.25954198473282,-34.19847328244275,-7.352593298339843,-0.13168109130859373,-3.028665100097656,30.977099236641223,-30.12213740458015,-14.16793893129771,0.0
13.570000648498535,-11.3772462890625,2.2481553588867187,1.407790576171875,41.25190839694657,107.87786259541984,-35.282442748091604,-7.433996154785156,3.4715924072265625,-1.8818425048828125,39.6793893129771,-29.083969465648856,-14.549618320610687,0.0
13.580000877380371,-10.04846436767578,2.0087351928710935,1.905784521484375,33.099236641221374,103.05343511450381,-29.267175572519083,-7.105990527343749,3.1747114013671873,-2.408566870117187,35.9236641221374,-26.595419847328245,-13.007633587786259,0.0
13.590000629425049,-9.193734375,3.057395520019531,2.4133552734375,21.129770992366414,96.27480916030534,-26.259541984732824,-6.830657336425781,4.860229370117187,-1.8148048583984373,16.33587786259542,-19.87786259541985,-7.923664122137405,0.0
13.600001096725464,-7.522581616210937,1.4867992309570313,1.5251064575195312,11.236641221374045,89.54198473282443,-22.412213740458014,-8.954314208984375,1.3383587280273437,0.44053310546874996,14.717557251908397,-16.213740458015266,-1.9236641221374047,0.0
13.610000848770142,-7.728482958984374,-0.0047884033203125,1.3048399047851562,36.50381679389313,93.7557251908397,-17.282442748091604,-8.947131604003905,1.9225439331054686,-0.047884033203124995,21.114503816793892,-21.954198473282442,-6.122137404580153,0.0
13.620001077651978,-8.334215979003906,2.0542250244140625,2.288856787109375,38.229007633587784,90.58015267175573,-16.65648854961832,-9.117119921875,1.0558429321289062,0.08858546142578125,14.488549618320612,-21.083969465648856,-5.00763358778626,0.0
13.630000352859497,-9.840168823242188,3.23696064453125,2.205059729003906,27.0381679389313,88.74809160305344,-17.69465648854962,-8.360552197265624,1.4245499877929686,-0.0383072265625,11.893129770992367,-32.16793893129771,-7.572519083969466,0.0
13.640000581741333,-10.843339318847656,4.209006518554688,2.932897033691406,2.717557251908397,81.64885496183206,-20.229007633587788,-8.750807067871094,-0.5865794067382812,0.93852705078125,14.977099236641221,-34.33587786259542,-8.748091603053435,0.0
13.65000057220459,-11.097124694824219,3.1794998046874996,3.1196447631835937,-15.603053435114504,73.57251908396947,-20.717557251908396,-9.095572106933593,-0.105344873046875,1.6807295654296874,12.83969465648855,-46.732824427480914,-11.206106870229007,0.0
13.660000562667847,-11.394005700683593,1.8507178833007811,2.4779987182617185,-32.01526717557252,65.78625954198473,-20.595419847328245,-9.787496386718749,-0.5985504150390625,1.3215993164062498,20.03053435114504,-55.12977099236641,-15.358778625954198,0.0
13.670000791549683,-10.963049401855468,0.8978256225585937,1.4030021728515625,-40.30534351145038,59.80152671755725,-20.30534351145038,-8.111555224609374,3.0885201416015624,-0.2442085693359375,6.396946564885496,-61.81679389312977,-20.03053435114504,0.0
13.68000054359436,-10.548852514648438,1.8818425048828125,1.8267758666992187,-40.54961832061068,60.900763358778626,-19.251908396946565,-9.267954626464844,2.104503259277344,1.4891934326171874,-12.931297709923664,-57.969465648854964,-16.519083969465647,0.0
13.690001010894775,-9.629479077148437,0.5339069702148437,0.93852705078125,-42.06106870229008,57.9236641221374,-20.03053435114504,-10.943895788574219,-0.2154781494140625,1.3646949462890625,-6.0,-66.7175572519084,-19.587786259541986,0.0
13.700000762939453,-10.924742175292968,1.005564697265625,0.852335791015625,-30.99236641221374,58.3206106870229,-20.076335877862597,-10.27830772705078,0.2537853759765625,0.6177040283203125,-0.5801526717557252,-76.50381679389314,-27.572519083969464,0.0
13.71000075340271,-10.022128149414062,0.7900865478515624,0.40462008056640625,-29.14503816793893,56.396946564885496,-18.198473282442748,-9.428366137695312,0.258573779296875,-0.25139117431640623,-11.969465648854962,-73.55725190839695,-29.083969465648856,0.0
13.720000743865967,-10.651803186035156,2.3127988037109373,1.1444283935546875,-46.87022900763359,52.2442748091603,-18.137404580152673,-10.40041201171875,-0.9792284790039062,-0.43574470214843747,-2.687022900763359,-82.77862595419847,-28.931297709923665,0.0
13.730000734329224,-10.149020837402343,1.0414777221679687,-1.1013327636718748,-56.80916030534351,47.63358778625954,-19.49618320610687,-8.413224633789062,2.2864625854492187,-1.5562310791015623,-7.480916030534351,-83.17557251908397,-35.847328244274806,0.0
13.740000486373901,-12.928688964843749,4.110844250488281,1.1276689819335937,-76.61068702290076,47.37404580152672,-19.480916030534353,-11.121066711425781,0.00239420166015625,-0.36152445068359373,-7.801526717557252,-76.45801526717557,-32.229007633587784,0.0
13.750000715255737,-9.80665,0.8714894042968749,-0.7230489013671875,-90.6412213740458,38.62595419847328,-19.251908396946565,-8.726865051269531,2.6479870361328124,-1.7956512451171873,-6.305343511450381,-85.00763358778626,-37.20610687022901,0.0
13.760000705718994,-9.974244116210937,1.0773907470703123,-1.01514150390625,-84.27480916030534,37.19083969465649,-14.381679389312977,-11.439495532226562,-0.9528922607421875,-0.4429273071289062,-6.427480916030534,-73.48091603053435,-32.6412213740458,0.0
13.770000696182251,-8.961496813964843,-1.9512743530273435,-0.19871873779296872,-67.6030534351145,39.02290076335878,-11.282442748091603,-8.238447912597655,1.3646949462890625,-2.2266075439453124,5.877862595419847,-88.09160305343511,-36.916030534351144,0.0
13.780000686645508,-11.942277880859374,1.8914193115234375,1.2665326782226562,-55.17557251908397,38.70229007633588,-11.84732824427481,-10.541669909667968,-1.1827356201171875,-0.16759411621093748,17.786259541984734,-76.38167938931298,-32.48854961832061,0.0
13.790000677108765,-8.738836059570312,-3.227383837890625,-0.5530605834960938,-51.05343511450382,35.31297709923664,-11.770992366412214,-7.68059892578125,2.0302830078125,-1.649604943847656,19.83206106870229,-85.70992366412214,-36.70229007633588,0.0
13.800000667572021,-11.674127294921874,1.5753846923828123,0.8068459594726562,-39.80152671755725,34.94656488549618,-11.969465648854962,-10.951078393554686,0.13646949462890623,-0.2346317626953125,37.908396946564885,-76.7175572519084,-32.51908396946565,0.0
13.810000896453857,-10.443507641601562,-0.5865794067382812,0.718260498046875,-31.83206106870229,36.595419847328245,-15.694656488549619,-8.259995727539062,1.1061211669921875,-0.3280056274414062,29.69465648854962,-70.62595419847328,-31.984732824427482,0.0
13.820000886917114,-10.747571252441405,1.0223241088867188,0.7134720947265625,-40.67175572519084,32.85496183206107,-12.366412213740459,-9.512163195800781,1.9129671264648436,-1.4341267944335936,36.0,-72.77862595419847,-33.31297709923664,0.0
13.830000877380371,-10.498574279785156,1.1085153686523437,0.24899697265624998,-25.46564885496183,33.587786259541986,-10.870229007633588,-9.074024291992187,0.5602431884765625,0.28969840087890625,24.366412213740457,-55.19083969465649,-28.076335877862597,0.0
13.840000867843628,-9.370905297851563,-0.031124621582031248,0.14125789794921875,-34.274809160305345,29.709923664122137,-8.732824427480915,-8.547299926757812,1.659181750488281,-0.8259995727539062,28.763358778625953,-59.786259541984734,-30.0,0.0
13.850000381469727,-10.144232434082031,-0.16280571289062498,0.47644613037109373,-2.0916030534351147,38.778625954198475,-6.99236641221374,-7.977479931640625,1.0845733520507812,-0.1388636962890625,15.679389312977099,-43.02290076335878,-25.908396946564885,0.0
13.860000848770142,-8.9255837890625,1.0271125122070313,0.430956298828125,-31.282442748091604,28.106870229007633,-10.244274809160306,-9.907206469726562,0.3184288208007812,1.5801730957031248,29.87786259541985,-42.80916030534351,-22.38167938931298,0.0
13.87000060081482,-9.318232861328125,-1.5370774658203123,-0.8762778076171874,-8.717557251908397,26.519083969465647,-6.0458015267175576,-8.305485559082031,0.7422025146484375,-0.09337386474609374,32.50381679389313,-45.786259541984734,-25.17557251908397,0.0
13.880000591278076,-8.073247998046874,-2.2960393920898436,-0.7302315063476562,28.80916030534351,36.68702290076336,-3.0839694656488548,-8.0062103515625,1.2425906616210938,0.35194764404296874,21.267175572519083,-34.88549618320611,-24.061068702290076,0.0
13.890000820159912,-8.74601866455078,-0.9600748657226562,0.08140285644531249,26.946564885496183,40.33587786259542,-10.916030534351146,-7.941566906738281,0.40940848388671874,0.948103857421875,22.99236641221374,-32.0,-22.595419847328245,0.0
13.90000057220459,-9.969455712890625,0.507570751953125,-0.47165772705078124,28.85496183206107,41.43511450381679,-15.007633587786259,-9.85692823486328,-1.1875240234375,1.0127473022460938,32.916030534351144,-32.10687022900763,-22.213740458015266,0.0
13.910000562667847,-9.739612353515625,0.9864110839843749,-0.6009446166992187,36.74809160305343,42.58015267175573,-14.732824427480915,-7.848193041992187,1.139639990234375,0.28730419921875,35.98473282442748,-34.42748091603053,-24.900763358778626,0.0
13.920000791549683,-10.647014782714843,2.1715409057617188,0.009576806640625,25.114503816793892,42.70229007633588,-14.732824427480915,-7.587225061035156,2.8802245971679685,0.09816226806640624,25.557251908396946,-23.053435114503817,-23.96946564885496,0.0
13.930000305175781,-10.230423693847655,2.729389892578125,0.031124621582031248,7.862595419847328,40.396946564885496,-12.641221374045802,-8.391676818847655,1.3215993164062498,0.9361328491210937,9.816793893129772,-12.244274809160306,-18.580152671755727,0.0
13.940000534057617,-9.270348828125,2.1811177124023438,0.4261678955078125,-0.13740458015267176,40.13740458015267,-9.694656488549619,-8.17141026611328,1.2042834350585936,0.9337386474609375,8.396946564885496,-11.877862595419847,-16.717557251908396,0.0
13.950001001358032,-10.168174450683592,1.9776105712890624,0.7254431030273437,2.381679389312977,39.404580152671755,-7.969465648854962,-8.59997236328125,0.5530605834960938,1.9728221679687499,9.541984732824428,-6.854961832061068,-15.312977099236642,0.0
13.96000051498413,-10.273519323730468,1.2521674682617188,0.6488286499023437,-0.12213740458015267,35.083969465648856,-7.3893129770992365,-8.176198669433592,0.13168109130859373,1.5610194824218748,8.763358778625955,-7.4961832061068705,-15.755725190839694,0.0
13.970000982284546,-10.149020837402343,1.4604630126953124,0.7062894897460937,-1.3587786259541985,32.916030534351144,-6.091603053435114,-8.872911352539061,-0.45010991210937495,1.8722656982421875,11.083969465648854,-7.572519083969466,-14.67175572519084,0.0
13.980000495910645,-10.955866796875,1.5251064575195312,2.0446482177734375,-6.702290076335878,31.587786259541986,-7.343511450381679,-7.884106066894531,0.6153098266601562,2.114080065917969,8.244274809160306,-8.290076335877863,-15.801526717557252,0.0
13.99000096321106,-11.18571015625,1.35990654296875,2.767697119140625,-14.67175572519084,25.72519083969466,-6.290076335877862,-9.452308154296874,-0.22744915771484372,2.31758720703125,7.114503816793893,-7.633587786259542,-15.32824427480916,0.0
14.000000476837158,-10.991779821777342,2.1787235107421874,3.4763808105468748,-16.3206106870229,18.793893129770993,-6.793893129770993,-8.087613208007811,1.0845733520507812,2.2074539306640624,-2.015267175572519,-7.755725190839694,-17.267175572519083,0.0
14.010000467300415,-12.263100903320312,3.2441432495117186,5.396530541992187,-26.53435114503817,10.946564885496183,-5.969465648854962,-8.66940421142578,1.3479355346679687,1.9943699829101562,-10.412213740458014,-5.694656488549619,-17.16030534351145,0.0
14.02000093460083,-11.757924353027343,1.7860744384765623,5.006275671386718,-40.47328244274809,-6.396946564885496,-3.3893129770992365,-9.169792358398437,0.6105214233398437,1.9919757812499999,-19.0381679389313,-1.8473282442748091,-16.137404580152673,0.0
14.030000925064087,-10.529698901367187,-1.1013327636718748,5.7700260009765625,-15.541984732824428,-9.679389312977099,-0.183206106870229,-8.954314208984375,-0.05746083984375,2.8850130004882812,-25.603053435114504,4.198473282442748,-14.717557251908397,0.0
14.040000677108765,-11.039663854980468,-0.3495534423828125,6.9144543945312495,-12.916030534351146,-20.442748091603054,-2.900763358778626,-7.874529260253905,-0.8714894042968749,2.0254946044921875,-26.061068702290076,1.9236641221374047,-17.51145038167939,0.0
14.0500009059906,-12.471396447753905,0.5123591552734374,8.28633194580078,4.0458015267175576,-33.41984732824427,-6.244274809160306,-8.135497241210937,-2.0446482177734375,1.8459294799804686,-25.709923664122137,8.213740458015268,-16.80916030534351,0.0
14.060000658035278,-13.084312072753905,2.118868469238281,10.637437976074217,3.312977099236641,-51.02290076335878,-1.5572519083969465,-6.629544396972656,-1.2497732666015624,-0.143652099609375,-22.9618320610687,4.137404580152672,-18.442748091603054,0.0
14.070000648498535,-15.088258862304686,3.0406361083984375,12.492944262695312,11.34351145038168,-72.29007633587786,5.465648854961832,-6.1842228881835934,-0.6105214233398437,-1.66636435546875,-31.49618320610687,13.603053435114504,-17.267175572519083,0.0
14.080000877380371,-15.011644409179686,3.265691064453125,12.84489190673828,2.564885496183206,-97.29770992366412,11.49618320610687,-4.453215087890625,1.8363526733398436,-3.6631285400390623,-38.717557251908396,23.49618320610687,-16.519083969465647,0.0
14.090000629425049,-14.427459204101561,2.0183119995117185,12.579135522460938,-21.389312977099237,-126.54961832061069,8.259541984732824,-6.440402465820312,0.3232172241210937,-2.4133552734375,-36.25954198473283,43.770992366412216,-8.106870229007633,0.0
14.100000858306885,-14.247894079589843,-2.1619640991210938,13.575123413085937,-29.236641221374047,-154.21374045801528,2.7022900763358777,-7.769184387207031,-0.05027823486328125,-2.3678654418945313,-15.297709923664122,41.847328244274806,-6.702290076335878,0.0
14.110000610351562,-13.860033410644531,-5.777208605957031,14.178462231445312,-9.34351145038168,-187.31297709923663,-3.2213740458015265,-7.144297753906249,1.2832920898437499,0.5099649536132812,-9.282442748091603,50.19847328244275,-7.984732824427481,0.0
14.120000839233398,-15.593435412597655,-7.163451367187499,15.423447094726562,12.717557251908397,-213.08396946564886,-9.541984732824428,-10.32379755859375,-0.258573779296875,3.555389465332031,-1.7404580152671756,43.9236641221374,-3.6793893129770994,0.0
14.130000829696655,-14.698003991699219,-8.951920007324219,14.700398193359375,55.57251908396947,-235.12977099236642,-15.16030534351145,-7.436390356445312,4.479551306152343,-0.21308394775390624,5.267175572519084,39.83206106870229,-5.526717557251908,0.0
14.140000581741333,-13.160926525878905,-5.592855078125,6.746860278320312,110.1526717557252,-244.21374045801528,-8.80916030534351,-10.211270080566406,5.856217260742187,-1.1923124267578125,9.84732824427481,50.900763358778626,3.1908396946564888,0.0
14.150000810623169,-13.038822241210937,-3.84987626953125,-4.2521021484374995,102.90076335877863,-258.8702290076336,-13.099236641221374,-13.807360974121092,6.442796667480469,1.7717092285156248,1.450381679389313,42.229007633587784,5.083969465648855,0.0
14.160000801086426,-13.603853833007811,0.1005564697265625,-8.109161022949218,100.44274809160305,-254.01526717557252,-10.870229007633588,-15.31570802001953,4.73094248046875,4.223371728515625,-31.0381679389313,46.091603053435115,2.8244274809160306,0.0
14.170000553131104,-14.958971972656249,0.39743747558593745,-10.17056865234375,95.41984732824427,-243.38931297709922,-0.5343511450381679,-17.324443212890625,4.479551306152343,5.118803149414062,-71.17557251908397,47.49618320610687,2.015267175572519,0.0
14.18000054359436,-15.3611978515625,2.176329309082031,-9.995791931152343,81.87786259541984,-227.08396946564886,7.541984732824427,-15.895104821777343,2.0542250244140625,1.9488801513671874,-107.45038167938931,46.80916030534351,14.610687022900763,0.0
14.190000534057617,-16.61336531982422,1.5442600708007812,-7.4603323730468745,73.92366412213741,-215.09923664122138,7.206106870229007,-13.084312072753905,1.5298948608398437,-0.39743747558593745,-112.67175572519083,36.13740458015267,26.48854961832061,0.0
14.200000524520874,-17.870321191406248,2.384624853515625,-4.240131140136718,80.50381679389314,-195.72519083969465,6.061068702290076,-11.786654772949218,-4.134786267089844,-1.0319009155273438,-108.50381679389314,30.931297709923665,34.29007633587786,0.0
14.21000075340271,-19.905392602539063,2.398990063476562,-1.3934253662109375,76.90076335877863,-177.93893129770993,9.419847328244275,-10.24718310546875,-7.192181787109375,-3.4261025756835934,-77.45038167938931,26.778625954198475,29.87786259541985,0.0
14.220000267028809,-18.55266866455078,3.5051112304687497,-0.27293898925781246,74.83969465648855,-159.64885496183206,20.549618320610687,-7.376535314941406,-5.643133312988281,-5.147533569335937,-54.58015267175573,25.404580152671755,20.18320610687023,0.0
14.230000734329224,-16.45055960693359,6.586448767089843,-1.6352397338867186,49.43511450381679,-148.3969465648855,29.923664122137403,-9.265560424804686,-7.867346655273437,-6.426037255859375,-39.786259541984734,44.534351145038165,20.82442748091603,0.0
14.240000486373901,-12.50012686767578,4.979939453125,-3.347093920898437,7.923664122137405,-140.13740458015266,39.64885496183206,-10.87206973876953,-8.724470849609375,-5.329492895507812,-4.687022900763359,50.47328244274809,19.572519083969464,0.0
14.250000715255737,-9.911994873046874,2.896984008789062,-3.725377783203125,-9.572519083969466,-123.5114503816794,42.85496183206107,-11.276689819335937,-5.382165332031249,-5.6311623046875,37.20610687022901,56.29007633587786,15.465648854961833,0.0
14.260000705718994,-5.729324572753906,-0.16041151123046873,-4.774038110351563,-18.0,-111.20610687022901,43.69465648854962,-7.062894897460937,0.5195417602539062,-8.054094384765625,45.7557251908397,65.86259541984732,17.129770992366414,0.0
14.270000696182251,-6.236895324707031,1.4149731811523436,-4.015076184082031,-31.251908396946565,-88.38167938931298,39.66412213740458,-9.672574707031249,0.8451531860351562,-5.664681127929687,36.93129770992366,89.37404580152672,25.84732824427481,0.0
14.280000686645508,-3.4356793823242184,-1.3958195678710936,-4.984727856445312,-34.091603053435115,-73.09923664122137,41.69465648854962,-10.87206973876953,3.5051112304687497,-4.975151049804687,31.709923664122137,108.41221374045801,35.587786259541986,0.0
14.290000915527344,-1.2904746948242187,-2.6048914062499997,-6.133944653320312,-20.38167938931298,-50.19847328244275,41.06870229007634,-7.362170104980469,5.9950809570312495,-5.238513232421875,12.67175572519084,118.06106870229007,39.221374045801525,0.0
14.300000667572021,-2.9496564453125,-0.6081272216796875,-5.334281298828125,-22.15267175572519,-23.923664122137403,34.51908396946565,-7.721300354003906,6.64630380859375,-4.414907861328125,8.82442748091603,123.95419847328245,43.70992366412214,0.0
14.310000658035278,-3.526659045410156,0.02633621826171875,-6.89530078125,-37.81679389312977,-13.893129770992367,32.76335877862596,-7.264007836914062,6.0908490234374995,-3.909731311035156,0.4122137404580153,124.61068702290076,48.152671755725194,0.0
14.320001125335693,-2.365471240234375,-1.1156979736328125,-8.037334973144532,-51.02290076335878,1.7099236641221374,35.465648854961835,-7.117961535644531,4.944026428222656,-4.704606262207031,-2.8396946564885495,117.8473282442748,49.55725190839695,0.0
14.330000638961792,-1.5921441040039062,-1.8650830932617186,-8.310273962402343,-57.57251908396947,24.99236641221374,33.16030534351145,-9.964667309570311,2.712630480957031,-0.5410895751953124,-4.183206106870229,119.6793893129771,54.01526717557252,0.0
14.340000867843628,0.047884033203124995,-3.744531396484375,-7.175422375488281,-67.25190839694656,41.89312977099237,28.03053435114504,-11.298237634277344,-1.5705962890624998,2.272097375488281,-0.7633587786259542,119.70992366412214,56.38167938931298,0.0
14.350000619888306,-1.2713210815429687,-4.53940634765625,-1.838746875,-55.83206106870229,65.52671755725191,18.9618320610687,-8.681375219726561,-1.4341267944335936,0.4213794921875,18.076335877862597,99.17557251908397,50.83969465648855,0.0
14.36000108718872,-0.5674257934570313,-4.465186096191406,2.0183119995117185,-30.702290076335878,78.73282442748092,11.038167938931299,-9.380482104492186,0.20829554443359374,1.8914193115234375,10.977099236641221,91.86259541984732,48.30534351145038,0.0
14.370000839233398,-2.1547814941406247,-2.4875755249023435,7.812280017089844,11.053435114503817,94.51908396946565,7.297709923664122,-8.810662109374999,-1.6112977172851561,2.8203695556640622,15.923664122137405,81.25190839694656,42.79389312977099,0.0
14.380000591278076,-3.268085266113281,0.814028564453125,9.244012609863281,45.31297709923664,96.80916030534351,5.435114503816794,-11.434707128906249,-4.266467358398438,4.496310717773437,29.34351145038168,77.96946564885496,40.656488549618324,0.0
14.390000581741333,-4.537012145996093,4.680664245605469,7.5153990112304685,48.3206106870229,94.42748091603053,6.656488549618321,-10.005368737792969,-0.8667010009765624,2.7557261108398436,35.16030534351145,62.54961832061068,30.80916030534351,0.0
14.40000057220459,-5.839457849121094,6.928819604492187,7.9655089233398435,31.0381679389313,88.38167938931298,13.938931297709924,-8.966285217285156,1.649604943847656,1.9895815795898437,20.748091603053435,57.7557251908397,25.893129770992367,0.0
14.410000562667847,-7.785943798828124,5.887341882324218,12.375628381347655,-6.732824427480916,78.06106870229007,18.610687022900763,-9.861716638183593,-0.028730419921875,1.2832920898437499,3.984732824427481,62.3206106870229,24.290076335877863,0.0
14.420000553131104,-8.106766821289062,2.35589443359375,14.161702819824217,-39.38931297709924,58.54961832061068,16.15267175572519,-9.466673364257812,2.1691467041015624,1.4101847778320311,-13.786259541984732,68.04580152671755,21.435114503816795,0.0
14.43000054359436,-9.165003955078124,2.7844565307617186,14.221557861328124,-51.45038167938932,36.534351145038165,9.587786259541986,-9.859322436523437,0.12449848632812499,2.085349645996094,-41.83206106870229,76.79389312977099,20.9618320610687,0.0
14.440000534057617,-9.4618849609375,2.2601263671875,13.850456604003906,-41.57251908396947,14.763358778625955,10.580152671755725,-10.989385620117186,-2.1021090576171875,3.9240965209960934,-31.267175572519083,75.29770992366412,22.53435114503817,0.0
14.450000524520874,-11.149797131347656,3.8283284545898435,15.026009619140623,0.9465648854961832,4.1679389312977095,16.748091603053435,-10.199299072265624,-0.3806780639648437,2.952050646972656,-39.43511450381679,69.80152671755725,18.091603053435115,0.0
14.46000051498413,-10.996568225097656,4.187458703613281,14.604630126953124,38.82442748091603,-9.648854961832061,29.083969465648856,-13.335703247070311,-3.9600095458984375,4.276044165039062,-26.99236641221374,64.36641221374046,20.198473282442748,0.0
14.470000743865967,-9.090783703613281,1.649604943847656,7.129932543945312,48.458015267175576,-17.053435114503817,38.274809160305345,-11.899182250976562,-1.5490484741210937,2.2768857788085937,-6.8396946564885495,49.31297709923664,16.38167938931298,0.0
14.480000495910645,-7.979874133300781,-4.005499377441406,-0.03591302490234375,75.61832061068702,3.114503816793893,47.3587786259542,-13.943830468749999,-0.16998831787109375,1.5370774658203123,-13.84732824427481,44.25954198473283,15.572519083969466,0.0
14.49000072479248,-16.601394311523435,-2.817975354003906,5.224148022460938,56.54961832061068,-0.9312977099236641,34.35114503816794,-15.260641381835937,-1.0989385620117187,0.3591302490234375,-14.82442748091603,33.69465648854962,14.259541984732824,0.0
14.500000715255737,-25.3976912109375,-3.3016040893554686,12.871228125,72.41221374045801,-10.580152671755725,44.79389312977099,-19.400216052246094,-6.969521032714844,4.297591979980469,-1.251908396946565,25.0381679389313,17.541984732824428,0.0
14.510000705718994,-21.918916198730468,-11.6070896484375,12.502521069335936,101.61832061068702,-16.68702290076336,45.66412213740458,-15.983690283203124,-1.4724340209960938,-0.086191259765625,8.854961832061068,-5.7251908396946565,7.877862595419847,0.0
14.520000696182251,-18.768146813964844,-2.1787235107421874,2.767697119140625,87.37404580152672,-35.64885496183206,6.396946564885496,-14.496891052246093,0.6943184814453125,1.180341418457031,-4.396946564885496,-14.83969465648855,8.442748091603054,0.0
14.530000686645508,-12.76827745361328,3.9264907226562498,-5.073313317871094,29.587786259541986,-43.25190839694657,-15.908396946564885,-11.827356201171874,3.4261025756835934,1.197100830078125,-12.427480916030534,-22.12213740458015,6.33587786259542,0.0
14.540000677108765,-7.513004809570312,2.4588451049804685,-7.074865905761718,6.366412213740458,-30.65648854961832,-10.381679389312977,-13.129801904296874,4.383783239746093,1.5370774658203123,-24.793893129770993,-30.53435114503817,9.48091603053435,0.0
14.5500009059906,-2.597708801269531,-2.7198130859375,-9.689334118652344,-6.122137404580153,-5.984732824427481,-5.221374045801527,-13.318943835449218,3.6822821533203123,0.7637503295898437,-39.17557251908397,-44.10687022900763,10.076335877862595,0.0
14.560000658035278,-2.786850732421875,-4.2688615600585935,-8.243236315917969,-5.511450381679389,19.770992366412212,-17.541984732824428,-15.184026928710937,-0.39983167724609375,1.3215993164062498,-20.244274809160306,-59.38931297709924,11.312977099236642,0.0
14.570000648498535,-6.962338427734375,-2.501940734863281,-7.991845141601562,-2.7480916030534353,44.213740458015266,-27.954198473282442,-11.487379565429686,3.6846763549804686,-4.458003491210937,-27.297709923664122,-77.6793893129771,4.580152671755725,0.0
14.58000111579895,-7.654262707519531,-1.0654197387695312,-6.648698010253906,5.801526717557252,63.23664122137404,-29.938931297709924,-12.876016528320312,2.2960393920898436,-4.541800549316406,-34.916030534351144,-84.90076335877863,0.549618320610687,0.0
14.590000629425049,-12.856862915039061,4.134786267089844,-1.39821376953125,-6.137404580152672,80.87022900763358,-41.41984732824427,-13.28542501220703,1.8291700683593748,-4.503493322753906,-44.88549618320611,-86.19847328244275,0.6106870229007634,0.0
14.600000858306885,-9.227253198242186,-0.488417138671875,-3.5482068603515624,14.351145038167939,95.61832061068702,-41.45038167938932,-11.88721124267578,2.2026655273437497,-6.217741711425781,-53.221374045801525,-88.6412213740458,-4.091603053435114,0.0
14.610000610351562,-11.544840405273437,3.0813375366210938,-0.7493851196289062,0.42748091603053434,106.2442748091603,-52.656488549618324,-10.934318981933593,1.8004396484374998,-6.792350109863281,-55.19083969465649,-81.23664122137404,-8.717557251908397,0.0
14.620000839233398,-12.964601989746093,5.367800122070312,-1.7022773803710936,-15.633587786259541,106.76335877862596,-47.80152671755725,-9.2320416015625,1.915361328125,-9.057264880371093,-57.00763358778626,-71.37404580152672,-10.412213740458014,0.0
14.630000591278076,-11.688492504882811,6.193799694824218,-1.1156979736328125,-27.755725190839694,108.07633587786259,-37.908396946564885,-9.730035546875,3.7014357666015623,-8.128314636230469,-42.06106870229008,-53.48091603053435,-9.32824427480916,0.0
14.640000820159912,-9.593566052246093,2.825157958984375,-1.455674609375,-41.099236641221374,103.49618320610686,-31.068702290076335,-10.577582934570312,3.327940307617187,-8.480262280273436,-28.717557251908396,-38.54961832061068,-5.923664122137405,0.0
14.65000057220459,-9.639055883789062,1.707065783691406,-0.277727392578125,-33.64885496183206,103.49618320610686,-27.00763358778626,-9.370905297851563,5.501875415039062,-7.242460021972656,-25.61832061068702,-29.19083969465649,-5.709923664122138,0.0
14.660000562667847,-6.907271789550781,-1.68551796875,-0.5003881469726562,-16.85496183206107,101.23664122137404,-20.65648854961832,-10.022128149414062,3.375824340820312,-4.774038110351563,-24.65648854961832,-10.625954198473282,4.427480916030534,0.0
14.670000553131104,-8.037334973144532,-1.2808978881835937,0.3064578125,11.679389312977099,106.91603053435115,-18.748091603053435,-7.44357296142578,1.2593500732421874,-5.329492895507812,-20.65648854961832,-8.122137404580153,7.358778625954199,0.0
14.680000305175781,-8.085219006347655,-0.5123591552734374,0.6536170532226562,25.14503816793893,105.06870229007633,-21.435114503816795,-6.9360022094726554,0.4477157104492187,-3.383006945800781,-2.198473282442748,-1.4961832061068703,6.442748091603053,0.0
14.690000534057617,-9.394847314453125,0.9624690673828125,1.4053963745117186,26.27480916030534,104.33587786259542,-22.244274809160306,-6.380547424316406,0.7733271362304687,-2.4516625,9.511450381679388,-3.145038167938931,4.732824427480916,0.0
14.700000524520874,-9.679757312011718,1.369483349609375,0.8690952026367187,18.427480916030536,98.12213740458016,-21.72519083969466,-6.904877587890625,0.7757213378906249,-1.0007762939453124,17.69465648854962,-1.8625954198473282,4.534351145038168,0.0
14.710000276565552,-9.6917283203125,2.176329309082031,2.5258827514648434,17.801526717557252,96.36641221374046,-16.50381679389313,-6.117185241699218,2.1308394775390624,-1.0678139404296874,18.580152671755727,-7.3893129770992365,1.6488549618320612,0.0
14.720000505447388,-9.227253198242186,2.327164013671875,2.7341782958984373,5.7251908396946565,89.69465648854961,-12.580152671755725,-7.242460021972656,1.5346832641601562,0.076614453125,12.305343511450381,-6.931297709923665,2.4732824427480917,0.0
14.730000734329224,-8.482656481933594,1.5825672973632812,3.0645781249999997,6.656488549618321,88.82442748091603,-9.435114503816793,-8.01818135986328,-0.16041151123046873,1.0295067138671874,8.931297709923664,-9.541984732824428,2.1526717557251906,0.0
14.740000247955322,-7.766790185546874,1.005564697265625,2.8012159423828122,2.8091603053435112,85.23664122137404,-9.465648854961833,-9.639055883789062,-2.6336218261718747,2.2577321655273437,17.389312977099237,-16.519083969465647,-0.5343511450381679,0.0
14.750000476837158,-8.030152368164062,1.35990654296875,2.2074539306640624,6.519083969465649,83.57251908396947,-9.419847328244275,-9.70369932861328,-2.549824768066406,2.3032219970703123,22.412213740458014,-23.603053435114504,-4.137404580152672,0.0
14.760000467300415,-8.667010009765624,2.461239306640625,1.5179238525390624,-1.1297709923664123,79.0381679389313,-7.00763358778626,-9.516951599121093,-2.7198130859375,2.5522189697265625,26.259541984732824,-34.152671755725194,-6.717557251908397,0.0
14.770000696182251,-9.198522778320312,2.2002713256835937,2.070984436035156,-1.2213740458015268,78.07633587786259,-3.4656488549618323,-8.856151940917968,-4.6639048339843745,3.1747114013671873,40.19847328244275,-46.458015267175576,-11.297709923664122,0.0
14.780000448226929,-10.275913525390624,3.0166940917968748,2.722207287597656,-2.717557251908397,76.21374045801527,0.5343511450381679,-7.879317663574218,-2.0470424194335934,2.221819140625,48.42748091603053,-57.603053435114504,-18.03053435114504,0.0
