timestamp,Thigh_L_Acc_X,Thigh_L_Acc_Y,Thigh_L_Acc_Z,Thigh_L_Gyr_X,Thigh_L_Gyr_Y,Thigh_L_Gyr_Z,Thigh_R_Acc_X,Thigh_R_Acc_Y,Thigh_R_Acc_Z,Thigh_R_Gyr_X,Thigh_R_Gyr_Y,Thigh_R_Gyr_Z,gpio_output
10.000000476837158,-11.6070896484375,2.5546131713867184,10.058041174316406,-17.64885496183206,49.43511450381679,7.8320610687022905,-8.075642199707032,-0.1867477294921875,2.195482922363281,-1.251908396946565,-5.0534351145038165,1.9389312977099236,0.0
10.010000467300415,-12.188880651855468,1.0510545288085937,10.855310327148437,-20.83969465648855,33.12977099236641,10.335877862595419,-11.173739147949219,-0.7254431030273437,2.2074539306640624,4.320610687022901,-4.0,4.564885496183206,1.0
10.020000457763672,-12.50730947265625,0.8307879760742187,11.853692419433592,3.786259541984733,24.763358778625953,14.885496183206106,-9.988609326171874,0.5578489868164063,2.269703173828125,5.0534351145038165,-6.6106870229007635,1.83206106870229,1.0
10.030000686645508,-13.41950030517578,1.3551181396484375,10.575188732910156,8.076335877862595,10.259541984732824,15.694656488549619,-10.64222637939453,0.488417138671875,3.191470812988281,0.5190839694656488,-6.778625954198473,3.2061068702290076,1.0
10.040000677108765,-11.738770739746093,-0.47644613037109373,4.987122058105468,8.946564885496183,-3.5877862595419847,14.778625954198473,-10.321403356933594,1.467645617675781,2.829946362304687,-7.66412213740458,-5.572519083969466,6.320610687022901,1.0
10.0500009059906,-11.801019982910155,-2.2098481323242187,1.13006318359375,34.35114503816794,4.015267175572519,23.755725190839694,-11.231199987792968,0.5530605834960938,3.306392492675781,-10.900763358778626,-6.152671755725191,13.19083969465649,1.0
10.060000896453857,-14.46097802734375,0.49799394531249996,4.185064501953125,51.12977099236641,3.480916030534351,32.68702290076336,-8.576030346679687,2.233790148925781,2.4061726684570313,-18.244274809160306,-10.778625954198473,15.969465648854962,1.0
10.070000648498535,-16.53675086669922,-2.0925322509765625,8.530540515136718,62.51908396946565,-9.358778625954198,42.83969465648855,-8.51617530517578,2.73896669921875,1.120486376953125,-34.50381679389313,-10.748091603053435,21.129770992366414,1.0
10.080000638961792,-16.49604943847656,-2.932897033691406,11.908759057617187,48.656488549618324,-29.480916030534353,33.41984732824427,-9.085995300292968,1.3479355346679687,0.41898529052734373,-41.83206106870229,-9.694656488549619,21.66412213740458,1.0
10.090000867843628,-12.169727038574218,-8.410830432128906,9.074024291992187,83.52671755725191,-29.908396946564885,19.17557251908397,-8.59278975830078,-0.32561142578124996,0.36631285400390623,-50.01526717557252,-4.473282442748092,25.587786259541986,1.0
10.100000619888306,-12.090718383789062,-6.064512805175781,6.4092778442382805,68.47328244274809,-39.786259541984734,-5.083969465648855,-10.110713610839843,-0.737414111328125,-0.011971008300781249,-38.534351145038165,-0.030534351145038167,26.641221374045802,1.0
10.110000610351562,-14.228740466308594,0.9097966308593749,0.9313444458007812,59.099236641221374,-47.37404580152672,-14.0,-12.464213842773436,-3.227383837890625,-1.5705962890624998,-26.595419847328245,0.6259541984732825,28.30534351145038,1.0
10.12000060081482,-9.82580361328125,2.0087351928710935,-4.374206433105469,65.80152671755725,-46.778625954198475,-6.259541984732825,-13.268665600585937,-3.265691064453125,-0.9552864624023437,-4.977099236641221,3.7404580152671754,24.916030534351144,1.0
10.130000591278076,-7.809885815429687,3.361459130859375,-4.726154077148437,67.20610687022901,-37.41984732824427,1.6488549618320612,-16.354791540527344,-5.839457849121094,0.16041151123046873,13.648854961832061,7.236641221374046,24.458015267175572,1.0
10.140000343322754,-7.951143713378905,4.592078784179687,-4.912901806640625,57.6793893129771,-30.366412213740457,1.4809160305343512,-11.417947717285156,0.06464344482421874,-2.2960393920898436,12.778625954198473,2.6412213740458017,13.786259541984732,1.0
10.15000057220459,-8.374917407226562,6.339845996093749,-3.0597897216796874,21.96946564885496,-22.061068702290076,0.7786259541984732,-13.503297363281249,-1.6328455322265625,-0.9193734375,15.282442748091603,10.625954198473282,17.099236641221374,1.0
10.160000562667847,-7.311891870117187,3.6200329101562496,-5.166687182617188,1.7099236641221374,-16.045801526717558,2.732824427480916,-12.945448376464842,-0.9193734375,-0.46686932373046874,23.87786259541985,9.49618320610687,13.419847328244275,1.0
10.170000314712524,-7.117961535644531,2.96881005859375,-5.5832782714843745,-2.0,-1.816793893129771,8.625954198473282,-12.129025610351562,-1.0079588989257813,-0.39743747558593745,25.984732824427482,12.732824427480915,11.48091603053435,1.0
10.18000054359436,-9.114725720214842,3.488351818847656,-4.3622354248046875,-5.099236641221374,12.320610687022901,8.625954198473282,-11.719617126464843,-0.9624690673828125,-0.3184288208007812,30.106870229007633,11.572519083969466,11.083969465648854,1.0
10.190000772476196,-10.855310327148437,4.2305543334960936,-2.7437551025390623,-22.641221374045802,21.068702290076335,9.404580152671755,-10.383652600097655,0.28969840087890625,-0.6703764648437499,30.748091603053435,10.82442748091603,9.557251908396946,1.0
10.200000524520874,-9.926360083007811,2.0254946044921875,-1.908178723144531,-37.48091603053435,26.137404580152673,12.351145038167939,-8.1594392578125,2.104503259277344,-0.7134720947265625,17.83206106870229,15.86259541984733,8.595419847328245,1.0
10.210000276565552,-11.499350573730467,1.7860744384765623,0.9935936889648437,-47.23664122137404,34.35114503816794,8.595419847328245,-9.981426721191406,0.17238251953125,0.06943184814453125,14.687022900763358,23.297709923664122,11.816793893129772,0.0
10.220000505447388,-10.20887587890625,-2.480392919921875,0.8786720092773437,-47.541984732824424,35.908396946564885,2.687022900763359,-9.9215716796875,1.7190367919921874,0.3399766357421875,15.404580152671755,26.702290076335878,7.3893129770992365,0.0
10.230000495910645,-9.56962403564453,-3.7995980346679685,1.7717092285156248,-36.76335877862596,39.6793893129771,-2.9618320610687023,-9.981426721191406,1.618480322265625,-0.8930372192382812,9.083969465648854,25.954198473282442,4.213740458015267,0.0
10.240000247955322,-8.884882360839843,-3.294421484375,1.0007762939453124,-25.893129770992367,41.099236641221374,-9.954198473282442,-8.190563879394531,1.3359645263671873,-1.4987702392578124,-1.9541984732824427,30.38167938931298,3.49618320610687,0.0
10.250000238418579,-10.129867224121092,-1.4053963745117186,1.0079588989257813,-28.427480916030536,41.7557251908397,-13.938931297709924,-8.568847741699217,2.233790148925781,-1.5586252807617187,-9.068702290076336,33.12977099236641,5.038167938931298,0.0
10.260000705718994,-9.33978067626953,-1.149216796875,-0.05746083984375,-17.984732824427482,42.79389312977099,-12.65648854961832,-9.555258825683593,1.668758557128906,0.8834604125976562,-6.564885496183206,39.29770992366412,8.763358778625955,0.0
10.270000696182251,-9.588777648925781,-0.9074024291992187,0.19153613281249998,-7.709923664122138,46.961832061068705,-12.916030534351146,-11.8369330078125,-0.29448680419921874,2.6886884643554687,8.198473282442748,36.595419847328245,8.80916030534351,0.0
10.280000925064087,-9.91438907470703,0.09576806640624999,-0.2920926025390625,3.2977099236641223,47.19083969465649,-12.82442748091603,-9.540893615722656,1.9321207397460936,1.9823989746093749,5.923664122137405,27.099236641221374,4.793893129770993,0.0
10.290000677108765,-10.603919152832031,3.660734338378906,0.13646949462890623,-8.0,44.70229007633588,-10.80916030534351,-10.304643945312499,1.2401964599609374,2.626439221191406,-2.3206106870229006,26.061068702290076,11.954198473282442,0.0
10.300000667572021,-11.585541833496093,4.620809204101562,0.11731588134765625,-34.6412213740458,38.35114503816794,-8.702290076335878,-10.345345373535155,1.6352397338867186,1.8746598999023436,-4.259541984732825,15.358778625954198,12.717557251908397,0.0
10.310000658035278,-9.952696301269532,2.39420166015625,0.7781155395507812,-28.99236641221374,40.3206106870229,-2.33587786259542,-9.830592016601562,2.4349030883789062,2.3965958618164063,-15.969465648854962,15.664122137404581,14.961832061068701,0.0
10.320000886917114,-9.476250170898437,1.6519991455078125,0.9050082275390624,-39.16030534351145,36.595419847328245,-1.1603053435114503,-11.463437548828125,0.8667010009765624,2.693476867675781,-20.458015267175572,10.748091603053435,16.47328244274809,0.0
10.330000400543213,-8.736441857910156,0.6919242797851562,0.82360537109375,-31.129770992366414,37.343511450381676,-0.22900763358778625,-10.527304699707031,0.0047884033203125,3.327940307617187,-24.671755725190838,5.740458015267175,15.572519083969466,0.0
10.340000629425049,-9.042899670410156,0.8188169677734375,0.8164227661132812,-40.70229007633588,33.93893129770992,-0.6412213740458015,-11.135431921386719,-1.01514150390625,3.2034418212890623,-17.14503816793893,-7.770992366412214,11.34351145038168,0.0
10.350000619888306,-10.153809240722655,1.5370774658203123,1.4820108276367188,-29.022900763358777,36.80916030534351,-3.1755725190839694,-10.457872851562499,0.17956512451171874,3.3494881225585935,-11.877862595419847,-7.3893129770992365,8.427480916030534,0.0
10.360000371932983,-10.333374365234375,2.6886884643554687,1.3215993164062498,-42.900763358778626,34.01526717557252,-3.1603053435114505,-10.474632263183594,0.7110778930664062,2.185906115722656,-17.938931297709924,-15.099236641221374,7.0534351145038165,0.0
10.37000060081482,-10.026916552734374,2.920926025390625,0.5003881469726562,-54.0,31.328244274809162,-1.9389312977099236,-10.261548315429687,1.0558429321289062,2.0733786376953125,-19.84732824427481,-19.099236641221374,5.633587786259542,0.0
10.380000591278076,-8.769960681152343,0.9457096557617187,0.01915361328125,-58.67175572519084,29.404580152671755,0.549618320610687,-10.556035119628906,-0.5099649536132812,2.0470424194335934,-18.442748091603054,-21.022900763358777,4.809160305343512,0.0
10.390000581741333,-8.688557824707031,-0.4333505004882812,0.48123453369140623,-52.61068702290076,28.885496183206108,1.5877862595419847,-11.030087048339842,-1.6017209106445311,2.9735984619140625,-3.4656488549618323,-28.38167938931298,1.4351145038167938,0.0
10.40000057220459,-9.081206896972656,-1.4006079711914061,0.5363011718749999,-41.541984732824424,27.6793893129771,1.2366412213740459,-11.645396875,-1.388636962890625,1.9752163696289062,7.786259541984733,-36.50381679389313,-3.2061068702290076,0.0
10.410000801086426,-9.636661682128906,-1.1611878051757811,0.5339069702148437,-34.0763358778626,25.068702290076335,0.6259541984732825,-8.583212951660157,2.463633508300781,1.3048399047851562,3.6946564885496183,-40.68702290076336,-7.923664122137405,0.0
10.420000314712524,-11.434707128906249,2.080561242675781,1.66636435546875,-40.88549618320611,23.236641221374047,-1.5419847328244274,-9.488221179199218,1.3670891479492187,1.4341267944335936,-11.938931297709924,-32.61068702290076,-1.8931297709923665,0.0
10.43000078201294,-10.709264025878905,1.5346832641601562,1.0079588989257813,-54.091603053435115,18.519083969465647,-1.083969465648855,-10.843339318847656,0.4525041137695312,2.0063409912109376,-12.229007633587786,-36.0,0.2748091603053435,0.0
10.440000534057617,-9.275137231445312,-1.5514426757812498,0.33518823242187495,-37.908396946564885,18.33587786259542,2.931297709923664,-10.153809240722655,1.1276689819335937,1.0773907470703123,-10.992366412213741,-38.38167938931298,-4.6106870229007635,0.0
10.450000524520874,-9.497797985839844,-1.2401964599609374,0.6751648681640625,-18.18320610687023,19.770992366412212,0.9770992366412213,-8.82263311767578,2.4157494750976563,0.8858546142578124,-17.709923664122137,-37.06870229007634,-6.977099236641221,0.0
10.460000276565552,-9.514557397460937,-0.47644613037109373,0.5291185668945312,-12.610687022900763,20.15267175572519,-0.42748091603053434,-9.282319836425781,1.3072341064453123,1.0917559570312498,-17.984732824427482,-29.49618320610687,-3.0076335877862594,0.0
10.470000505447388,-10.83376251220703,2.070984436035156,2.2481553588867187,-22.12213740458015,22.625954198473284,-2.9618320610687023,-10.024522351074218,0.6440402465820312,1.66636435546875,-8.610687022900763,-29.72519083969466,-2.6259541984732824,0.0
10.480000495910645,-10.32379755859375,1.0726023437499999,0.5315127685546874,-26.900763358778626,16.519083969465647,-1.786259541984733,-10.333374365234375,-0.430956298828125,1.7310078002929687,-3.5572519083969465,-32.33587786259542,-4.473282442748092,0.0
10.490000486373901,-9.97184991455078,-0.7565677246093749,0.1292868896484375,-15.587786259541986,15.648854961832061,-0.32061068702290074,-9.07163009033203,0.6631938598632812,0.2561795776367187,1.0534351145038168,-36.56488549618321,-7.572519083969466,0.0
10.500000715255737,-10.120290417480469,0.02633621826171875,0.6488286499023437,-11.908396946564885,15.206106870229007,-1.2671755725190839,-6.734889270019531,2.492363928222656,0.040701428222656245,-8.65648854961832,-31.435114503816795,-8.564885496183207,0.0
10.510000467300415,-10.12507882080078,0.8355763793945312,0.5770026000976562,-16.580152671755727,13.969465648854962,-1.297709923664122,-8.391676818847655,1.369483349609375,1.0462661254882812,-12.961832061068701,-20.80916030534351,-1.2366412213740459,0.0
10.520000457763672,-9.411606726074218,-0.2154781494140625,1.3766659545898436,-1.2671755725190839,20.82442748091603,-0.8244274809160306,-7.979874133300781,2.04943662109375,0.28969840087890625,-18.27480916030534,-19.51145038167939,-1.83206106870229,0.0
10.530000925064087,-8.542511523437499,-0.16041151123046873,-0.016759411621093748,4.198473282442748,20.106870229007633,-3.3740458015267176,-9.344569079589844,-0.2561795776367187,0.4836287353515625,-16.48854961832061,-12.351145038167939,-0.549618320610687,0.0
10.540000915527344,-9.87608184814453,1.0486603271484374,-0.45489831542968745,5.679389312977099,23.0381679389313,-6.916030534351145,-9.662997900390625,-0.7254431030273437,0.4429273071289062,-11.17557251908397,-14.595419847328245,-2.1526717557251906,0.0
10.550000429153442,-9.828197814941406,1.4006079711914061,-0.6607996582031249,3.145038167938931,22.33587786259542,-4.641221374045801,-9.639055883789062,-1.8267758666992187,1.235408056640625,-1.633587786259542,-12.106870229007633,-3.8473282442748094,0.0
10.560000896453857,-9.081206896972656,1.1540052001953125,-0.7661445312499999,-1.2671755725190839,21.450381679389313,-3.83206106870229,-10.433930834960936,-1.9800047729492187,1.0366893188476562,15.312977099236642,-22.16793893129771,-7.511450381679389,0.0
10.570000648498535,-10.070012182617187,0.9552864624023437,-0.5602431884765625,-1.1908396946564885,20.12213740458015,-4.427480916030534,-10.491391674804687,-2.1021090576171875,1.6424223388671875,25.6793893129771,-21.374045801526716,-10.381679389312977,0.0
10.580000638961792,-10.445901843261717,1.6639701538085936,1.177947216796875,-8.290076335877863,19.221374045801525,-5.145038167938932,-9.677363110351562,-0.3136404174804687,0.4213794921875,36.25954198473283,-27.954198473282442,-12.51908396946565,0.0
10.590000629425049,-10.94868419189453,1.8171990600585937,0.40222587890625,-25.69465648854962,10.396946564885496,-4.061068702290076,-8.978256225585938,1.7405846069335937,0.2920926025390625,32.87022900763359,-27.801526717557252,-13.48091603053435,0.0
10.600000619888306,-9.351751684570312,-0.8571241943359375,0.4070142822265625,-10.16793893129771,11.801526717557252,0.2900763358778626,-6.777984899902344,3.2249896362304686,-1.2569558715820313,11.251908396946565,-21.96946564885496,-11.221374045801527,0.0
10.610000610351562,-9.387664709472656,0.2346317626953125,0.9696516723632812,-9.816793893129772,13.267175572519085,-1.8778625954198473,-7.419630944824219,3.737348791503906,0.6177040283203125,-2.564885496183206,-5.00763358778626,-6.793893129770993,0.0
10.62000060081482,-10.149020837402343,1.0366893188476562,1.1420341918945311,-13.49618320610687,11.358778625954198,-5.083969465648855,-9.674968908691406,1.2425906616210938,0.9074024291992187,-3.0839694656488548,-5.603053435114504,-2.7480916030534353,0.0
10.630000352859497,-10.014945544433592,0.4381389038085937,0.622492431640625,-6.0,9.877862595419847,-3.8473282442748094,-9.124302526855468,0.7541735229492187,1.5011644409179687,-1.2213740458015268,-0.8854961832061069,-3.877862595419847,0.0
10.640000581741333,-10.35492218017578,0.05746083984375,0.9457096557617187,-5.908396946564886,9.48091603053435,-4.6106870229007635,-9.591171850585937,-0.45968671875,1.898601916503906,-0.4732824427480916,0.33587786259541985,-3.5572519083969465,0.0
10.65000057220459,-9.866505041503906,0.2705447875976562,0.3758896606445312,-3.114503816793893,9.145038167938932,-5.770992366412214,-8.573636145019531,0.24660277099609373,1.3934253662109375,7.801526717557252,-4.396946564885496,-5.786259541984733,0.0
10.660000562667847,-9.809044201660155,1.1276689819335937,0.28012159423828126,-4.33587786259542,8.977099236641221,-6.198473282442748,-8.817844714355468,0.25139117431640623,1.3048399047851562,10.366412213740459,-3.2213740458015265,-5.572519083969466,0.0
10.670000791549683,-9.598354455566406,1.4173673828125,-0.03591302490234375,-2.6412213740458017,9.022900763358779,-6.015267175572519,-8.978256225585938,0.4213794921875,1.0390835205078124,8.427480916030534,-0.7480916030534351,-4.854961832061068,0.0
10.68000054359436,-9.734823950195311,1.4053963745117186,0.16041151123046873,-4.534351145038168,9.17557251908397,-5.435114503816794,-9.181763366699219,0.21068974609375,1.6807295654296874,7.221374045801527,3.282442748091603,-4.351145038167939,0.0
10.690000772476196,-9.414000927734374,1.1061211669921875,0.316034619140625,-5.465648854961832,9.251908396946565,-5.251908396946565,-9.188945971679686,0.21308394775390624,1.7621324218749999,6.717557251908397,3.450381679389313,-5.541984732824427,0.0
10.700000286102295,-9.816226806640625,0.8738836059570312,0.7254431030273437,-6.320610687022901,7.8320610687022905,-4.549618320610687,-9.030928662109375,0.277727392578125,1.7741034301757812,5.480916030534351,3.816793893129771,-7.251908396946565,0.0
10.71000051498413,-9.773131176757811,0.8355763793945312,1.1707646118164061,-6.137404580152672,6.351145038167939,-4.748091603053435,-9.188945971679686,0.0143652099609375,1.9321207397460936,4.564885496183206,4.320610687022901,-7.9541984732824424,0.0
10.720000505447388,-9.993397729492187,0.6344634399414062,1.6304513305664061,-4.854961832061068,5.32824427480916,-4.320610687022901,-9.145850341796875,0.0,2.0470424194335934,2.9618320610687023,3.877862595419847,-8.931297709923664,0.0
10.730000495910645,-10.299855541992187,1.0007762939453124,1.8028338500976562,-3.3435114503816794,3.648854961832061,-3.83206106870229,-8.939948999023438,0.1292868896484375,2.233790148925781,0.7480916030534351,3.2519083969465647,-9.648854961832061,0.0
10.740000486373901,-10.105925207519531,0.9720458740234375,1.5514426757812498,-0.5190839694656488,2.1068702290076335,-2.0916030534351147,-8.963891015625,-0.00239420166015625,2.2601263671875,-0.5801526717557252,2.4122137404580153,-9.83206106870229,0.0
10.750000238418579,-9.94072529296875,0.8259995727539062,1.675941162109375,-0.366412213740458,0.48854961832061067,-2.381679389312977,-8.853757739257812,0.33039982910156246,2.3822306518554686,-2.732824427480916,2.6717557251908395,-10.229007633587786,0.0
10.760000705718994,-9.859322436523437,0.43574470214843747,1.7549498168945312,-0.04580152671755725,-1.6030534351145038,-3.786259541984733,-8.99501563720703,0.2537853759765625,2.664746447753906,-4.977099236641221,2.549618320610687,-10.290076335877863,0.0
10.770000696182251,-9.560047229003906,0.20350714111328125,1.7405846069335937,1.6946564885496183,-4.473282442748092,-5.206106870229007,-9.279925634765624,-0.03591302490234375,2.5043349365234375,-6.763358778625954,1.7709923664122138,-10.961832061068701,0.0
10.780001163482666,-9.816226806640625,0.45968671875,1.9512743530273435,2.900763358778626,-6.641221374045801,-6.824427480916031,-9.904812268066406,-1.2880804931640624,3.0142998901367184,-3.3282442748091605,0.9312977099236641,-10.732824427480915,0.0
10.790000677108765,-9.473855969238281,0.04548983154296875,1.714248388671875,8.351145038167939,-8.305343511450381,-6.748091603053435,-8.722076647949219,-0.7685387329101562,2.5665841796874997,0.48854961832061067,-5.877862595419847,-13.450381679389313,0.0
10.8000009059906,-9.969455712890625,0.6248866333007812,1.8938135131835936,16.27480916030534,-8.916030534351146,-5.816793893129771,-8.180987072753906,-0.6631938598632812,3.0526071166992184,0.5190839694656488,-4.2748091603053435,-14.916030534351146,0.0
10.810000896453857,-9.402029919433593,0.8762778076171874,0.9409212524414062,16.229007633587788,-8.274809160305344,-4.519083969465649,-10.371681591796875,-1.3766659545898436,3.5817256835937497,8.412213740458014,-5.969465648854962,-12.82442748091603,0.0
10.820000886917114,-9.02135185546875,0.9409212524414062,0.19871873779296872,15.84732824427481,-7.679389312977099,-3.435114503816794,-8.738836059570312,-1.6041151123046875,2.398990063476562,9.48091603053435,-14.946564885496183,-14.244274809160306,0.0
10.830000638961792,-9.076418493652342,0.622492431640625,0.21068974609375,14.885496183206106,-6.229007633587786,-4.748091603053435,-8.195352282714843,0.277727392578125,1.956062756347656,7.6183206106870225,-14.961832061068701,-15.694656488549619,0.0
10.84000039100647,-9.33978067626953,1.3072341064453123,0.689530078125,7.847328244274809,-5.893129770992366,-4.5038167938931295,-6.751648681640624,0.8786720092773437,0.33039982910156246,0.7480916030534351,-11.48091603053435,-15.297709923664122,0.0
10.850000381469727,-9.512163195800781,1.915361328125,0.9504980590820312,3.267175572519084,-6.015267175572519,-2.687022900763359,-7.570465649414062,1.8028338500976562,1.5131354492187499,-6.519083969465649,-8.259541984732824,-12.488549618320612,0.0
10.860000610351562,-9.157821350097656,1.8842367065429686,1.8602946899414061,-0.6717557251908397,-6.106870229007634,-1.083969465648855,-8.233659509277343,0.47644613037109373,1.7597382202148437,-12.687022900763358,-3.068702290076336,-8.870229007633588,0.0
10.87000036239624,-8.846575134277343,0.9744400756835937,2.403778466796875,-1.1145038167938932,-8.244274809160306,-0.8244274809160306,-7.9655089233398435,0.6847416748046875,1.429338391113281,-14.488549618320612,-1.3129770992366412,-8.091603053435115,0.0
10.880000352859497,-9.009380847167968,0.507570751953125,2.9544448486328125,3.2977099236641223,-10.83969465648855,-0.04580152671755725,-8.228871105957031,-0.47165772705078124,1.467645617675781,-12.595419847328245,1.5725190839694656,-7.374045801526718,0.0
10.890000581741333,-9.102754711914063,0.30885201416015623,3.679887951660156,9.48091603053435,-13.007633587786259,0.6717557251908397,-8.044517578125,-0.8643067993164062,1.5825672973632812,-6.152671755725191,0.7480916030534351,-7.709923664122138,0.0
10.900001049041748,-9.483432775878907,0.3232172241210937,3.763685009765625,12.961832061068701,-15.770992366412214,0.061068702290076333,-7.975085729980468,-1.0127473022460938,1.5298948608398437,1.9694656488549618,2.6412213740458017,-7.816793893129771,0.0
10.910000324249268,-9.8449572265625,1.3766659545898436,4.012681982421875,9.358778625954198,-21.52671755725191,-2.381679389312977,-7.6231380859375,-0.4070142822265625,1.0965443603515623,4.488549618320611,3.450381679389313,-8.870229007633588,0.0
10.920000314712524,-9.560047229003906,1.7908628417968748,3.9336733276367184,0.9923664122137404,-29.267175572519083,-2.519083969465649,-8.327033374023436,-0.3184288208007812,1.5705962890624998,3.3435114503816794,7.786259541984733,-7.847328244274809,0.0
10.93000078201294,-10.481814868164061,1.2425906616210938,4.256890551757812,-2.732824427480916,-36.12213740458015,0.42748091603053434,-8.619125976562499,-1.39821376953125,1.2282254516601563,3.2519083969465647,7.0534351145038165,-7.6183206106870225,0.0
10.940000534057617,-7.709329345703124,0.15562310791015624,3.5960908935546874,8.030534351145038,-45.45038167938932,3.618320610687023,-9.56962403564453,-1.2593500732421874,2.01112939453125,17.17557251908397,4.549618320610687,-9.541984732824428,0.0
10.950000762939453,-10.089165795898436,0.852335791015625,5.473144995117187,10.229007633587786,-48.916030534351144,-1.618320610687023,-10.328585961914062,-1.2856862915039062,3.5506010620117183,21.66412213740458,5.251908396946565,-11.908396946564885,0.0
10.96000051498413,-10.68053360595703,1.7453730102539062,5.990292553710937,2.732824427480916,-59.786259541984734,-2.0,-10.172962854003906,-0.00239420166015625,3.9743747558593747,21.374045801526716,-2.33587786259542,-16.946564885496183,0.0
10.970000743865967,-11.386823095703125,1.8602946899414061,5.626373901367187,5.083969465648855,-71.0381679389313,3.099236641221374,-11.784260571289062,0.6177040283203125,7.153874560546875,10.15267175572519,-0.7022900763358778,-18.870229007633586,0.0
10.980000495910645,-11.068394274902342,0.7541735229492187,5.858611462402344,-4.8396946564885495,-81.17557251908397,3.2977099236641223,-12.303802331542968,1.1061211669921875,8.465897070312499,-7.0534351145038165,-6.030534351145038,-20.748091603053435,0.0
10.990000486373901,-11.434707128906249,-0.584185205078125,5.762843395996094,3.068702290076336,-89.96946564885496,4.015267175572519,-12.574347119140624,2.370259643554687,10.292672937011718,-18.0,-14.977099236641221,-20.015267175572518,0.0
11.000045537948608,-11.863269226074218,-0.9409212524414062,5.6191912963867185,9.34351145038168,-98.27480916030534,2.0916030534351147,-8.276755139160155,0.8906430175781249,4.00310517578125,-73.48091603053435,-34.19847328244275,-26.580152671755727,0.0
11.010000705718994,-12.449848632812499,-0.4285620971679687,6.639121203613281,6.091603053435114,-109.06870229007633,-1.618320610687023,-10.742782849121093,2.779668127441406,8.238447912597655,-86.2442748091603,-25.938931297709924,-16.83969465648855,0.0
11.02000093460083,-11.647791076660155,-1.599326708984375,6.739677673339843,8.106870229007633,-120.3206106870229,-6.320610687022901,-10.82179150390625,-0.086191259765625,4.510675927734375,-68.56488549618321,-44.80916030534351,-11.358778625954198,0.0
11.030147075653076,-12.799402075195312,-1.5825672973632812,7.352593298339843,20.580152671755727,-131.23664122137404,-13.099236641221374,-9.198522778320312,1.5203180541992187,1.484405029296875,-56.458015267175576,-50.16793893129771,-12.488549618320612,0.0
11.040000915527344,-12.55758770751953,-2.020706201171875,7.625532287597656,22.33587786259542,-142.1679389312977,-15.358778625954198,-7.754819177246094,1.9201497314453124,0.6703764648437499,-67.98473282442748,-41.969465648854964,-16.015267175572518,0.0
11.0500009059906,-12.299013928222655,-1.2473790649414063,5.1331683593749995,9.297709923664122,-152.51908396946564,-17.328244274809162,-9.131485131835937,-1.0319009155273438,1.4508862060546874,-75.19083969465649,-41.17557251908397,-18.0,0.0
11.060000896453857,-12.035651745605469,-2.370259643554687,2.250549560546875,-3.877862595419847,-161.9236641221374,-23.740458015267176,-9.02135185546875,-1.946485949707031,-0.42377369384765623,-77.69465648854961,-40.38167938931298,-21.49618320610687,0.0
11.070000648498535,-12.39238779296875,-2.521094348144531,1.4341267944335936,-1.1603053435114503,-164.94656488549617,-28.793893129770993,-8.188169677734374,-1.1707646118164061,-3.047818713378906,-48.396946564885496,-28.68702290076336,-21.297709923664122,0.0
11.080000638961792,-12.50012686767578,-2.906560815429687,0.05027823486328125,12.122137404580153,-166.13740458015266,-31.480916030534353,-8.504204296874999,-0.5793968017578125,-3.0980969482421874,-41.282442748091604,-20.38167938931298,-17.984732824427482,0.0
11.090000629425049,-12.241553088378906,-1.4173673828125,-0.9959878906249999,33.282442748091604,-157.75572519083968,-31.450381679389313,-8.71489404296875,-1.9033903198242186,-2.8754361938476563,-45.14503816793893,-13.648854961832061,-16.458015267175572,0.0
11.100000619888306,-11.279084020996093,0.06703764648437499,-2.7365724975585937,45.63358778625954,-147.6793893129771,-30.244274809160306,-11.9518546875,-3.536235852050781,-0.07422025146484375,-30.16793893129771,-0.3969465648854962,-12.091603053435115,0.0
11.110000371932983,-11.152191333007812,1.7381904052734374,-3.2728736694335936,52.030534351145036,-132.9770992366412,-27.328244274809162,-12.86404552001953,-4.086902233886718,2.4564509033203126,-10.091603053435115,-1.4045801526717556,-12.748091603053435,0.0
11.12000036239624,-10.793061083984375,2.6958710693359373,-4.139574670410156,48.274809160305345,-119.45038167938931,-24.03053435114504,-12.397176196289061,-3.5027170288085934,2.1068974609374997,9.893129770992367,1.6641221374045803,-12.091603053435115,0.0
11.130000591278076,-10.71884083251953,3.4452561889648434,-4.311957189941406,36.25954198473283,-103.96946564885496,-20.870229007633586,-10.998962426757812,-1.7764976318359373,1.0510545288085937,19.740458015267176,5.679389312977099,-8.290076335877863,0.0
11.140000581741333,-11.305420239257812,3.6248213134765623,-3.9528269409179684,20.442748091603054,-88.50381679389314,-15.49618320610687,-10.761936462402343,-1.24498486328125,0.3399766357421875,23.236641221374047,13.49618320610687,-1.6793893129770991,0.0
11.15000057220459,-11.197681164550781,2.5570073730468748,-3.373430139160156,7.801526717557252,-73.34351145038168,-7.083969465648855,-10.479420666503906,0.8307879760742187,-1.8818425048828125,23.69465648854962,18.47328244274809,0.9465648854961832,0.0
11.160000324249268,-10.129867224121092,1.254561669921875,-3.0789433349609374,8.045801526717558,-53.61832061068702,0.3053435114503817,-9.610325463867188,-0.6943184814453125,-1.0223241088867188,15.206106870229007,32.56488549618321,6.0458015267175576,0.0
11.170040607452393,-7.982268334960937,0.7709329345703124,-3.191470812988281,1.1145038167938932,-34.61068702290076,4.33587786259542,-12.184092248535155,-4.278438366699218,-0.5363011718749999,28.732824427480917,38.6412213740458,10.641221374045802,0.0
11.18000054359436,-6.4739212890625,-1.5682020874023437,-4.074931225585937,9.877862595419847,-19.603053435114504,6.534351145038168,-11.271901416015623,-3.794809631347656,-0.7206546997070312,44.67175572519084,34.68702290076336,5.603053435114504,0.0
11.190000772476196,-8.760383874511719,2.5713725830078125,-2.2002713256835937,1.1145038167938932,-1.83206106870229,1.3129770992366412,-10.101136804199218,-0.0430956298828125,0.373495458984375,49.786259541984734,38.01526717557252,2.4580152671755724,0.0
11.200000524520874,-8.513781103515624,3.5529952636718747,-2.959233251953125,-18.793893129770993,6.961832061068702,6.885496183206107,-10.022128149414062,0.09816226806640624,-0.39743747558593745,39.6793893129771,44.94656488549618,6.366412213740458,0.0
11.21000051498413,-7.793126403808594,3.679887951660156,-3.1794998046874996,-39.267175572519086,17.66412213740458,16.091603053435115,-10.71884083251953,-0.4333505004882812,0.6440402465820312,37.61832061068702,49.74045801526717,12.931297709923664,0.0
11.220000505447388,-5.578489868164062,0.03591302490234375,-4.065354418945312,-32.595419847328245,33.11450381679389,23.893129770992367,-11.33175645751953,-1.43652099609375,1.0797849487304687,46.88549618320611,46.3206106870229,14.51908396946565,0.0
11.230000495910645,-4.881777185058594,-1.7741034301757812,-4.556165759277343,-20.03053435114504,54.94656488549618,20.549618320610687,-11.405976708984374,-0.3758896606445312,1.5107412475585937,57.80152671755725,41.908396946564885,10.65648854961832,0.0
11.240000486373901,-4.6064439941406246,-1.1037269653320312,-4.498704919433593,-18.595419847328245,71.57251908396947,15.282442748091603,-8.245630517578125,1.0678139404296874,1.4532804077148436,41.83206106870229,37.969465648854964,8.702290076335878,0.0
11.250000476837158,-4.936843823242187,-0.565031591796875,-2.8898014038085935,-27.755725190839694,88.99236641221374,12.274809160305344,-8.020575561523437,3.1100679565429687,2.530671154785156,30.38167938931298,40.99236641221374,11.954198473282442,0.0
11.260000705718994,-5.446808776855469,0.076614453125,-1.0534487304687499,-38.091603053435115,101.26717557251908,9.48091603053435,-9.088389501953124,2.0542250244140625,3.5410242553710933,16.412213740458014,46.656488549618324,17.908396946564885,0.0
11.270000457763672,-6.0333881835937495,-1.455674609375,1.1324573852539062,-42.25954198473283,108.62595419847328,8.488549618320612,-10.797849487304687,-1.120486376953125,3.191470812988281,17.297709923664122,42.62595419847328,20.625954198473284,0.0
11.280000925064087,-6.49307490234375,-2.4660277099609376,3.459621398925781,-27.31297709923664,114.9618320610687,6.824427480916031,-9.888052856445311,-2.281674182128906,3.265691064453125,19.51145038167939,31.14503816793893,16.717557251908396,0.0
11.290000438690186,-7.694964135742187,-2.731784094238281,5.844246252441406,-20.015267175572518,114.54961832061069,2.4732824427480917,-9.038111267089842,-0.2825157958984375,2.8850130004882812,25.709923664122137,19.083969465648856,10.0,0.0
11.3000009059906,-9.13627353515625,-0.8762778076171874,6.749254479980468,-31.64885496183206,103.69465648854961,-4.625954198473282,-8.453926062011718,1.2761094848632812,3.6080619018554687,14.244274809160306,19.099236641221374,10.244274809160306,0.0
11.3100004196167,-7.505822204589843,-1.177947216796875,4.989516259765625,-40.045801526717554,96.3969465648855,-2.9160305343511452,-7.975085729980468,1.2761094848632812,3.536235852050781,0.15267175572519084,17.389312977099237,12.534351145038167,0.0
11.320000886917114,-8.449137658691406,0.6081272216796875,5.442020373535156,-34.51908396946565,92.45801526717557,-0.6717557251908397,-8.947131604003905,0.28969840087890625,3.4644098022460934,-4.870229007633588,15.740458015267176,15.282442748091603,0.0
11.330000638961792,-8.049305981445311,-0.42377369384765623,5.382165332031249,-25.389312977099237,86.93129770992367,4.076335877862595,-9.129090930175781,0.033518823242187495,3.768473413085937,-14.412213740458014,12.381679389312977,16.106870229007633,0.0
11.340000629425049,-10.766724865722656,1.879448303222656,8.813056311035156,-20.65648854961832,86.22900763358778,5.6183206106870225,-9.473855969238281,-1.2689268798828124,3.986345764160156,-18.015267175572518,10.335877862595419,15.17557251908397,0.0
11.350000619888306,-8.650250598144531,0.2609679809570312,7.556100439453124,-15.587786259541986,72.22900763358778,8.366412213740459,-9.052476477050782,-1.5370774658203123,3.6152445068359373,-20.396946564885496,6.870229007633588,14.992366412213741,0.0
11.360000610351562,-8.793902697753905,0.15083470458984374,7.532158422851562,-1.9694656488549618,65.78625954198473,12.122137404580153,-9.327809667968749,-2.4516625,3.39018955078125,-14.67175572519084,6.320610687022901,13.694656488549619,0.0
11.37000060081482,-8.240842114257813,-0.29448680419921874,7.101202124023437,15.221374045801527,58.717557251908396,11.618320610687023,-8.978256225585938,-2.5761609863281247,3.0214824951171875,-10.427480916030534,4.5038167938931295,12.534351145038167,0.0
11.380000352859497,-7.56567724609375,-0.737414111328125,6.3973068359375,25.64885496183206,53.57251908396947,10.946564885496183,-8.954314208984375,-2.7653029174804686,3.0023288818359375,-3.816793893129771,4.152671755725191,11.007633587786259,0.0
11.390000581741333,-9.64623848876953,1.4915876342773438,7.184999182128906,36.3206106870229,49.14503816793893,10.198473282442748,-8.762778076171875,-2.7557261108398436,3.239354846191406,1.4809160305343512,3.0076335877862594,9.068702290076336,0.0
11.40000057220459,-8.379705810546875,1.3910311645507811,5.9208607055664055,48.93129770992366,44.35114503816794,16.793893129770993,-8.475473876953124,-1.9704279663085937,3.660734338378906,5.267175572519084,1.0229007633587786,6.488549618320611,0.0
11.410000801086426,-10.110713610839843,2.5474305664062498,6.864176159667968,69.22137404580153,47.17557251908397,26.366412213740457,-8.051700183105469,-2.0254946044921875,2.43250888671875,4.458015267175573,-1.450381679389313,5.022900763358779,0.0
11.420000553131104,-10.39322940673828,2.592920397949219,5.815515832519531,52.29007633587786,37.81679389312977,27.022900763358777,-8.712499841308594,-3.23696064453125,3.785232824707031,19.0381679389313,-5.312977099236641,5.374045801526718,0.0
11.43000054359436,-10.046070166015625,2.3535002319335936,2.8036101440429686,34.19847328244275,35.23664122137404,23.938931297709924,-8.44674345703125,-1.3742717529296875,3.5601778686523438,22.870229007633586,-6.0458015267175576,3.5114503816793894,0.0
11.440000534057617,-11.571176623535155,1.867477294921875,2.0374656127929685,12.13740458015267,32.29007633587786,26.519083969465647,-9.466673364257812,-0.3758896606445312,3.545812658691406,17.770992366412212,-6.473282442748092,6.015267175572519,0.0
11.450000762939453,-12.854468713378905,1.0127473022460938,3.4620156005859375,20.18320610687023,32.36641221374046,38.47328244274809,-10.261548315429687,0.37828386230468747,2.971204260253906,11.34351145038168,-9.16030534351145,9.755725190839694,0.0
11.460000276565552,-13.402740893554686,-2.142810485839844,7.568071447753906,33.98473282442748,28.18320610687023,44.213740458015266,-8.288726147460936,2.482787121582031,2.123656872558594,-7.801526717557252,-6.824427480916031,12.748091603053435,0.0
11.470000505447388,-15.485696337890625,-3.318363500976562,12.811373083496093,33.29770992366412,16.229007633587788,34.61068702290076,-10.216058483886718,2.1547814941406247,2.626439221191406,-20.47328244274809,-1.0381679389312977,19.328244274809162,0.0
11.480000495910645,-14.870386511230468,-5.523423229980469,12.650961572265624,15.374045801526718,-3.8625954198473282,14.259541984732824,-8.815450512695312,1.5059528442382812,0.9026140258789062,-37.6793893129771,5.297709923664122,22.18320610687023,0.0
11.490000486373901,-15.126566088867186,-4.290409374999999,10.62307276611328,-0.16793893129770993,-26.931297709923665,0.04580152671755725,-11.681309899902343,-2.6575638427734374,1.936909143066406,-33.98473282442748,8.473282442748092,27.954198473282442,0.0
11.500000476837158,-13.5990654296875,-5.652710119628906,5.947196923828125,20.259541984732824,-36.74809160305343,-2.0763358778625953,-11.631031665039062,-3.6008792968749996,0.7517793212890624,-14.442748091603054,-1.984732824427481,22.0,0.0
11.510000467300415,-11.6837041015625,-5.236119030761718,0.9313444458007812,50.79389312977099,-30.564885496183205,-1.3282442748091603,-11.235988391113281,-2.8514941772460936,0.28730419921875,-1.618320610687023,-5.847328244274809,16.244274809160306,0.0
11.52000117301941,-9.86411083984375,-2.8706477905273435,-2.940079638671875,64.0,-23.053435114503817,-6.763358778625954,-12.114660400390624,-1.5777788940429687,-0.34715924072265625,1.4961832061068703,-12.274809160305344,12.717557251908397,0.0
11.530000686645508,-8.44674345703125,0.29448680419921874,-5.360617517089843,61.81679389312977,-19.282442748091604,-10.595419847328245,-12.15536182861328,0.6512228515624999,-0.13646949462890623,-5.251908396946565,-13.419847328244275,7.969465648854962,0.0
11.540000677108765,-7.721300354003906,2.2649147705078123,-4.228160131835938,56.25954198473283,-13.114503816793894,-11.603053435114504,-12.569558715820312,1.2425906616210938,-0.3327940307617187,-15.206106870229007,-13.099236641221374,7.129770992366412,0.0
11.550000429153442,-8.034940771484374,4.821922143554687,-3.6631285400390623,43.81679389312977,-3.8931297709923665,-9.541984732824428,-12.531251489257812,0.3687070556640625,0.23223756103515625,-18.35114503816794,-11.297709923664122,10.274809160305344,0.0
11.560000896453857,-8.0828248046875,6.789955908203124,-5.386953735351562,26.30534351145038,5.267175572519084,-3.2519083969465647,-12.018892333984374,-0.18914193115234373,-0.0909796630859375,-9.587786259541986,-14.748091603053435,12.320610687022901,0.0
11.570000410079956,-8.67658681640625,7.223306408691406,-6.4475850708007805,9.267175572519085,13.374045801526718,6.961832061068702,-11.020510241699219,0.2537853759765625,-0.258573779296875,-5.801526717557252,-13.32824427480916,13.725190839694656,0.0
11.580000638961792,-8.142679846191406,4.991910461425781,-4.857835168457031,3.2977099236641223,27.908396946564885,15.465648854961833,-10.939107385253905,-0.17956512451171874,-0.29927520751953124,-1.4351145038167938,-13.16030534351145,14.381679389312977,0.0
11.590000867843628,-9.279925634765624,3.0741549316406247,-2.906560815429687,-7.801526717557252,38.83969465648855,14.335877862595419,-9.90241806640625,0.18914193115234373,-0.28969840087890625,3.099236641221374,-10.045801526717558,12.870229007633588,0.0
11.600000619888306,-11.25514200439453,3.660734338378906,-1.0127473022460938,-24.198473282442748,43.038167938931295,11.770992366412214,-10.134655627441406,-1.5131354492187499,1.7597382202148437,5.480916030534351,-9.297709923664122,13.16030534351145,0.0
11.610000371932983,-10.522516296386717,1.687912170410156,-1.01514150390625,-41.099236641221374,40.33587786259542,8.80916030534351,-9.440337145996093,-0.15562310791015624,-1.2282254516601563,18.564885496183205,-15.419847328244275,6.137404580152672,0.0
11.62000060081482,-11.245565197753905,1.3862427612304686,0.5219359619140624,-62.01526717557252,36.42748091603053,5.190839694656488,-10.828974108886719,2.7844565307617186,-0.9169792358398436,22.442748091603054,-7.984732824427481,5.297709923664122,0.0
11.630000591278076,-10.263942517089843,-0.45010991210937495,0.3806780639648437,-71.41984732824427,31.96946564885496,1.984732824427481,-10.050858569335936,3.8474820678710935,-2.128445275878906,11.679389312977099,-8.854961832061068,4.015267175572519,0.0
11.640000581741333,-9.102754711914063,-2.5234885498046875,0.699106884765625,-72.70229007633588,29.801526717557252,-0.2748091603053435,-10.390835205078124,4.0222587890625,-1.4891934326171874,2.854961832061069,-0.7938931297709924,7.236641221374046,0.0
11.65000057220459,-8.805873706054687,-2.779668127441406,-0.031124621582031248,-62.152671755725194,28.900763358778626,-2.2290076335877864,-9.524134204101562,3.6727053466796873,-0.679953271484375,-10.16793893129771,4.137404580152672,9.770992366412214,0.0
11.660000324249268,-9.928754284667969,-0.9265560424804687,0.6536170532226562,-41.847328244274806,34.213740458015266,-1.9389312977099236,-10.388441003417968,2.4444798950195312,-0.055066638183593745,-11.419847328244275,4.977099236641221,12.992366412213741,0.0
11.670000791549683,-9.651026892089844,-0.296881005859375,-0.181959326171875,-34.732824427480914,30.47328244274809,-0.5190839694656488,-9.124302526855468,2.7724855224609373,0.26336218261718747,-15.221374045801527,8.854961832061068,12.687022900763358,0.0
11.68000054359436,-9.955090502929687,0.5267243652343749,0.11731588134765625,-26.366412213740457,30.870229007633586,3.267175572519084,-11.516109985351562,-0.5985504150390625,1.9416975463867185,-9.19083969465649,9.221374045801527,17.801526717557252,0.0
11.690000772476196,-9.119514123535156,-0.8283937744140625,0.06943184814453125,-15.938931297709924,33.02290076335878,3.2213740458015265,-8.506598498535157,1.1947066284179686,0.9648632690429687,-7.6183206106870225,-3.450381679389313,11.694656488549619,0.0
11.700000524520874,-10.077194787597655,0.09816226806640624,0.8762778076171874,-14.870229007633588,34.045801526717554,0.9465648854961832,-10.771513269042968,0.5123591552734374,2.152387292480469,7.603053435114504,4.5038167938931295,16.137404580152673,0.0
11.71000051498413,-9.81862100830078,0.4381389038085937,0.6727706665039062,-19.6793893129771,31.923664122137403,-0.7633587786259542,-10.046070166015625,-1.7717092285156248,1.407790576171875,6.625954198473282,-6.931297709923665,14.916030534351146,0.0
11.720000505447388,-9.952696301269532,0.3064578125,0.7302315063476562,-17.022900763358777,30.442748091603054,-0.7938931297709924,-10.828974108886719,-1.637633935546875,2.0542250244140625,24.15267175572519,-10.977099236641221,11.83206106870229,0.0
11.730000257492065,-9.969455712890625,0.17477672119140625,1.197100830078125,-9.038167938931299,29.083969465648856,-1.0381679389312977,-8.645462194824217,0.1771709228515625,0.6775590698242188,16.442748091603054,-20.458015267175572,5.709923664122138,0.0
11.740000486373901,-10.287884533691406,2.3487118286132813,1.4508862060546874,-12.992366412213741,27.0381679389313,-1.4198473282442747,-9.006986645507812,2.4109610717773435,2.674323254394531,10.229007633587786,-11.34351145038168,7.770992366412214,0.0
11.750000476837158,-9.859322436523437,3.5146880371093747,1.7621324218749999,-27.96946564885496,23.419847328244273,-1.083969465648855,-9.7683427734375,0.18435352783203124,2.85388837890625,-2.519083969465649,-11.374045801526718,11.007633587786259,0.0
11.760000705718994,-9.880870251464843,2.6048914062499997,1.1444283935546875,-33.37404580152672,20.18320610687023,0.24427480916030533,-10.40041201171875,-1.1947066284179686,2.4444798950195312,13.786259541984732,-11.16030534351145,6.717557251908397,0.0
11.770000457763672,-9.60793126220703,1.5801730957031248,0.9648632690429687,-28.458015267175572,18.076335877862597,0.13740458015267176,-10.117896215820313,-0.603338818359375,3.883395092773437,14.305343511450381,-18.717557251908396,0.6717557251908397,0.0
11.780000925064087,-10.000580334472655,1.4915876342773438,0.6512228515624999,-27.923664122137403,17.52671755725191,1.4351145038167938,-8.415618835449218,0.6631938598632812,1.6903063720703124,4.717557251908397,-20.442748091603054,-3.282442748091603,0.0
11.790000438690186,-9.900023864746093,2.6791116577148437,0.47644613037109373,-34.83969465648855,16.076335877862597,2.015267175572519,-8.350975390624999,1.9991583862304687,1.7812860351562498,1.816793893129771,-16.82442748091603,-2.6717557251908395,0.0
11.80000114440918,-10.165780249023436,3.2513258544921873,0.6847416748046875,-48.74809160305343,13.969465648854962,3.3435114503816794,-9.476250170898437,0.46208092041015625,2.379836450195312,-12.625954198473282,-8.15267175572519,1.8015267175572518,0.0
11.8100004196167,-9.466673364257812,0.9552864624023437,1.2018892333984375,-49.786259541984734,13.358778625954198,4.6106870229007635,-9.8449572265625,-0.6488286499023437,2.308010400390625,-11.267175572519085,-11.435114503816793,-0.7175572519083969,0.0
11.820000886917114,-9.701305126953125,-0.5267243652343749,1.0462661254882812,-43.25190839694657,11.801526717557252,4.564885496183206,-9.64623848876953,-0.19632453613281248,2.35589443359375,-10.0,-10.793893129770993,-4.320610687022901,0.0
11.830000638961792,-10.007762939453125,-0.9050082275390624,0.97683427734375,-32.3206106870229,10.778625954198473,4.366412213740458,-9.708487731933593,-1.1635820068359375,2.6527754394531247,-4.961832061068702,-11.648854961832061,-5.236641221374046,0.0
11.840000629425049,-9.473855969238281,-1.6065093139648436,0.40940848388671874,-21.587786259541986,11.053435114503817,4.290076335877862,-9.504980590820312,-0.7972691528320313,1.9488801513671874,7.00763358778626,-21.34351145038168,-9.19083969465649,0.0
11.850000619888306,-9.023746057128905,-1.8267758666992187,0.59376201171875,1.816793893129771,14.427480916030534,4.305343511450381,-8.391676818847655,-0.3902548706054687,2.023100402832031,8.610687022900763,-21.908396946564885,-10.50381679389313,0.0
11.860000371932983,-10.1131078125,-0.22505495605468748,1.0007762939453124,6.854961832061068,16.870229007633586,-0.16793893129770993,-10.1131078125,-0.32082302246093747,2.032677209472656,21.633587786259543,-21.81679389312977,-9.16030534351145,0.0
11.87000060081482,-10.386046801757812,0.32561142578124996,0.5674257934570313,22.091603053435115,18.18320610687023,-0.5190839694656488,-9.306261853027344,-0.49799394531249996,2.1356278808593747,22.732824427480917,-26.12213740458015,-10.412213740458014,0.0
11.880000829696655,-9.672574707031249,1.189918225097656,0.5267243652343749,14.641221374045802,15.267175572519085,-1.633587786259542,-9.217676391601563,1.1372457885742187,2.2649147705078123,25.14503816793893,-29.099236641221374,-12.992366412213741,0.0
11.890000581741333,-10.479420666503906,1.7310078002929687,-0.0430956298828125,-4.137404580152672,8.702290076335878,-0.916030534351145,-7.295132458496093,2.473210314941406,1.707065783691406,6.244274809160306,-22.625954198473284,-10.564885496183207,0.0
11.90000057220459,-9.447519750976562,0.6368576416015624,0.16519991455078123,-3.0076335877862594,10.717557251908397,2.213740458015267,-6.797138513183594,4.201823913574218,1.01514150390625,-8.229007633587786,-17.251908396946565,-6.244274809160306,0.0
11.910000801086426,-8.087613208007811,0.7589619262695312,-0.8738836059570312,-14.15267175572519,3.480916030534351,2.5801526717557253,-10.8409451171875,0.5219359619140624,2.01112939453125,-2.7938931297709924,-11.694656488549619,-0.030534351145038167,0.0
11.920000553131104,-9.198522778320312,1.484405029296875,-0.2059013427734375,-8.564885496183207,3.49618320610687,-0.7938931297709924,-8.590395556640624,1.1276689819335937,1.39821376953125,-8.061068702290076,-11.358778625954198,-2.4732824427480917,0.0
11.93000054359436,-9.459490759277344,0.086191259765625,0.4070142822265625,-8.076335877862595,4.366412213740458,0.9465648854961832,-9.244012609863281,0.5578489868164063,1.3742717529296875,-7.068702290076335,-10.15267175572519,-2.2900763358778624,0.0
11.940000534057617,-9.758765966796874,0.48123453369140623,0.09576806640624999,-7.038167938931298,4.763358778625954,0.42748091603053434,-8.844180932617187,0.3447650390625,1.180341418457031,-5.435114503816794,-9.98473282442748,-1.7709923664122138,0.0
11.950000762939453,-9.792284790039062,0.7852981445312499,0.1197100830078125,-6.763358778625954,3.5114503816793894,-0.48854961832061067,-9.476250170898437,0.2154781494140625,1.24498486328125,-1.6030534351145038,-9.603053435114504,-1.3740458015267176,0.0
11.96000051498413,-10.002974536132811,0.8930372192382812,-0.00239420166015625,-1.6488549618320612,4.091603053435114,-0.2900763358778626,-9.18655177001953,0.47165772705078124,0.8762778076171874,-2.549618320610687,-8.564885496183207,-1.9389312977099236,0.0
11.970000505447388,-9.840168823242188,0.24899697265624998,-0.2059013427734375,1.1755725190839694,4.595419847328245,-0.32061068702290074,-9.490615380859374,0.3064578125,0.8690952026367187,-2.5801526717557253,-6.793893129770993,-2.50381679389313,0.0
11.980000495910645,-8.200140686035155,-1.6927005737304686,-0.6105214233398437,19.053435114503817,7.908396946564886,0.2595419847328244,-9.200916979980468,0.181959326171875,0.8259995727539062,-2.6259541984732824,-5.1603053435114505,-3.8931297709923665,0.0
11.990000486373901,-8.91840118408203,-0.1867477294921875,0.47165772705078124,27.297709923664122,15.053435114503817,-3.954198473282443,-9.610325463867188,-0.2561795776367187,1.0797849487304687,2.7938931297709924,-4.824427480916031,-5.465648854961832,0.0
12.000000476837158,-10.927136376953124,1.7405846069335937,-0.3950432739257812,26.80916030534351,16.213740458015266,-6.412213740458015,-9.41639512939453,0.0047884033203125,1.2378022583007813,5.022900763358779,-3.801526717557252,-7.129770992366412,0.0
12.010000705718994,-9.411606726074218,1.8411410766601561,-1.0773907470703123,14.061068702290076,12.83969465648855,-4.3816793893129775,-9.507374792480467,0.0,1.2904746948242187,7.633587786259542,-3.816793893129771,-8.076335877862595,0.0
12.02000093460083,-9.947907897949218,1.4987702392578124,-1.0390835205078124,1.816793893129771,11.465648854961833,-3.236641221374046,-9.375693701171874,0.4836287353515625,1.4413093994140624,6.900763358778626,-2.4122137404580153,-8.030534351145038,0.0
12.030000686645508,-10.235212097167969,1.8171990600585937,0.20350714111328125,1.251908396946565,14.51908396946565,-4.0458015267175576,-9.390058911132812,0.7134720947265625,1.3479355346679687,5.740458015267175,-1.1145038167938932,-7.7251908396946565,0.0
12.040001153945923,-9.6151138671875,0.5913678100585937,-0.46208092041015625,-8.625954198473282,10.992366412213741,-3.053435114503817,-9.938331091308592,0.11731588134765625,2.0470424194335934,7.603053435114504,-1.0229007633587786,-6.961832061068702,0.0
12.0500009059906,-9.641450085449218,0.7038952880859375,0.09816226806640624,1.1603053435114503,13.908396946564885,-3.5572519083969465,-10.108319409179687,-0.0143652099609375,1.917755529785156,6.870229007633588,2.0,-6.931297709923665,0.0
12.060001134872437,-9.215282189941405,0.7661445312499999,-0.031124621582031248,-2.4580152671755724,14.702290076335878,-5.068702290076335,-9.375693701171874,1.209071838378906,1.6448165405273436,1.0534351145038168,5.145038167938932,-7.4961832061068705,0.0
12.070000648498535,-9.701305126953125,1.9847931762695312,-0.36152445068359373,-8.778625954198473,15.206106870229007,-5.587786259541985,-9.773131176757811,0.7733271362304687,1.8602946899414061,-0.916030534351145,4.473282442748092,-6.122137404580153,0.0
12.080000400543213,-9.821015209960937,1.8267758666992187,-0.4525041137695312,-12.717557251908397,15.450381679389313,-5.603053435114504,-9.560047229003906,0.5626373901367188,2.128445275878906,-2.3969465648854964,4.748091603053435,-6.198473282442748,0.0
12.090000629425049,-9.567229833984374,1.2521674682617188,-0.143652099609375,-13.068702290076336,17.053435114503817,-4.931297709923665,-9.313444458007812,0.34715924072265625,2.0470424194335934,-4.473282442748092,5.572519083969466,-6.137404580152672,0.0
12.100000619888306,-9.682151513671874,1.209071838378906,-0.21308394775390624,-16.412213740458014,17.984732824427482,-5.312977099236641,-9.210493786621093,0.24899697265624998,2.039859814453125,-3.877862595419847,6.183206106870229,-5.908396946564886,0.0
12.110000610351562,-9.83777462158203,1.3192051147460937,0.05027823486328125,-18.977099236641223,18.900763358778626,-5.465648854961832,-9.536105212402344,-0.3950432739257812,2.6958710693359373,-0.9465648854961832,5.755725190839694,-5.083969465648855,0.0
12.12000060081482,-9.617508068847656,0.9600748657226562,0.062249243164062495,-21.251908396946565,18.717557251908396,-5.083969465648855,-8.257601525878906,0.5099649536132812,1.5035586425781249,3.267175572519084,-2.0,-8.82442748091603,0.0
12.130000591278076,-9.878476049804688,1.0414777221679687,0.1005564697265625,-18.106870229007633,20.27480916030534,-5.557251908396947,-9.102754711914063,0.33758243408203126,1.7693150268554687,6.015267175572519,-1.0076335877862594,-7.572519083969466,0.0
12.140000581741333,-9.730035546875,0.7350199096679687,0.16280571289062498,-19.69465648854962,20.778625954198475,-6.488549618320611,-8.104372619628906,0.6536170532226562,1.4532804077148436,4.778625954198473,-4.2748091603053435,-8.65648854961832,0.0
12.15000057220459,-9.840168823242188,0.5770026000976562,0.5315127685546874,-18.595419847328245,20.564885496183205,-6.778625954198473,-10.781090075683593,-0.8595183959960937,3.019088293457031,14.83969465648855,-2.0610687022900764,-7.129770992366412,0.0
12.160000324249268,-9.706093530273437,0.2154781494140625,0.4955997436523437,-12.381679389312977,19.755725190839694,-7.267175572519084,-9.76116016845703,-0.7302315063476562,2.6862942626953124,16.946564885496183,-10.50381679389313,-10.396946564885496,0.0
12.170000791549683,-9.572018237304688,-0.0047884033203125,0.7924807495117187,-7.038167938931298,19.297709923664122,-7.6183206106870225,-9.176974963378905,0.5578489868164063,2.9281086303710935,16.0,-11.435114503816793,-13.526717557251908,0.0
12.18000054359436,-9.809044201660155,0.9337386474609375,0.7781155395507812,-5.572519083969466,18.9618320610687,-8.458015267175572,-8.010998754882811,1.6735469604492186,1.7405846069335937,2.015267175572519,-9.526717557251908,-13.755725190839694,0.0
12.190000772476196,-10.072406384277343,2.2266075439453124,0.7062894897460937,-11.038167938931299,19.129770992366414,-7.984732824427481,-8.78432589111328,1.6639701538085936,3.038241906738281,-10.748091603053435,3.053435114503817,-8.351145038167939,0.0
12.200000286102295,-9.871293444824218,2.0374656127929685,0.9074024291992187,-19.66412213740458,17.740458015267176,-7.206106870229007,-8.288726147460936,1.3551181396484375,2.0973206542968748,-22.27480916030534,4.763358778625954,-7.4961832061068705,0.0
12.210000276565552,-9.6151138671875,1.3215993164062498,0.7637503295898437,-16.9618320610687,15.648854961832061,-5.419847328244275,-9.244012609863281,-0.181959326171875,1.8938135131835936,-20.793893129770993,5.740458015267175,-6.229007633587786,0.0
12.220000267028809,-9.303867651367186,-0.4572925170898437,0.4955997436523437,-7.465648854961832,14.83969465648855,-5.343511450381679,-8.975862023925782,-0.5267243652343749,2.1978771240234374,-17.61832061068702,7.847328244274809,-7.435114503816794,0.0
12.230000495910645,-9.816226806640625,0.076614453125,0.93852705078125,5.32824427480916,18.9618320610687,-7.709923664122138,-9.095572106933593,-1.6639701538085936,2.233790148925781,-11.923664122137405,9.221374045801527,-7.938931297709924,0.0
12.240000486373901,-9.488221179199218,1.3096283081054687,0.7876923461914062,4.2748091603053435,14.885496183206106,-9.32824427480916,-8.769960681152343,-1.7741034301757812,2.233790148925781,-2.3206106870229006,8.885496183206106,-8.961832061068701,0.0
12.250000476837158,-9.643844287109374,1.707065783691406,0.9816226806640624,-2.7786259541984735,11.34351145038168,-8.076335877862595,-8.870517150878905,-1.2976572998046874,2.070984436035156,5.648854961832061,7.8320610687022905,-9.251908396946565,0.0
12.260000705718994,-11.051634863281249,2.5665841796874997,2.080561242675781,-11.954198473282442,7.4961832061068705,-9.404580152671755,-8.84178673095703,-0.6177040283203125,1.9033903198242186,10.229007633587786,8.244274809160306,-9.236641221374045,0.0
12.270000457763672,-9.698910925292969,-0.1771709228515625,2.0470424194335934,-4.8396946564885495,1.4045801526717556,-5.923664122137405,-8.465897070312499,-0.24660277099609373,1.8219874633789062,12.0,9.83206106870229,-9.312977099236642,0.0
12.280000925064087,-9.375693701171874,-0.3711012573242187,2.9759926635742184,5.236641221374046,-0.7633587786259542,-5.862595419847328,-8.382100012207031,-0.05746083984375,1.9321207397460936,14.290076335877863,10.992366412213741,-9.114503816793894,0.0
12.290000677108765,-9.852139831542969,0.26336218261718747,3.507505432128906,16.916030534351144,-3.480916030534351,-7.511450381679389,-8.619125976562499,-0.35673604736328124,1.9584569580078124,17.129770992366414,11.587786259541986,-7.847328244274809,0.0
12.3000009059906,-10.232817895507813,0.9337386474609375,3.782838623046875,22.0,-7.66412213740458,-7.801526717557252,-8.339004382324218,-0.47884033203125,2.3774422485351563,20.061068702290076,12.15267175572519,-7.511450381679389,0.0
12.3100004196167,-9.751583361816406,0.41419688720703124,4.448426684570312,30.35114503816794,-13.816793893129772,-6.748091603053435,-8.406042028808594,-0.2537853759765625,2.6312276245117188,20.916030534351144,11.603053435114504,-7.572519083969466,0.0
12.320000886917114,-9.80665,1.0989385620117187,5.928043310546875,37.282442748091604,-19.954198473282442,-6.732824427480916,-7.953537915039062,-0.15083470458984374,2.5330653564453125,21.282442748091604,10.748091603053435,-8.091603053435115,0.0
12.330000400543213,-11.10191309814453,3.114856359863281,7.4028715332031245,40.48854961832061,-28.82442748091603,-5.770992366412214,-6.478709692382812,1.5442600708007812,2.2194249389648437,14.13740458015267,12.030534351145038,-8.0,0.0
12.340000629425049,-12.112266198730469,3.806780639648437,8.319850769042969,27.83206106870229,-42.961832061068705,-2.7480916030534353,-8.48505068359375,-0.9313444458007812,3.9336733276367184,9.404580152671755,19.587786259541986,-3.1755725190839694,0.0
12.350000619888306,-10.697293017578124,1.608903515625,7.5465236328125,30.3206106870229,-57.51145038167939,4.229007633587786,-9.272743029785156,-1.6472107421875,3.8139632446289062,14.778625954198473,14.641221374045802,-2.8396946564885495,0.0
12.360000610351562,-9.37808790283203,0.22026655273437498,6.998251452636718,38.48854961832061,-68.50381679389314,7.923664122137405,-8.003816149902343,-1.3718775512695311,3.2417490478515623,19.251908396946565,11.603053435114504,-5.816793893129771,0.0
12.37000060081482,-10.36210478515625,0.74699091796875,6.718129858398437,33.20610687022901,-82.0,4.5038167938931295,-8.02536396484375,-0.9888052856445312,2.269703173828125,23.984732824427482,8.274809160305344,-8.80916030534351,0.0
12.380000591278076,-9.916783276367187,-0.6631938598632812,6.279990954589843,35.38931297709924,-93.90839694656489,2.6106870229007635,-8.786720092773438,-1.6424223388671875,3.0837317382812497,27.801526717557252,10.732824427480915,-11.557251908396946,0.0
12.390000343322754,-9.145850341796875,-1.4604630126953124,6.234501123046875,50.778625954198475,-101.31297709923665,3.7557251908396947,-8.231265307617187,0.5410895751953124,2.5570073730468748,26.412213740458014,3.7099236641221376,-14.977099236641221,0.0
12.40000057220459,-9.188945971679686,-1.3120225097656248,5.2265422241210935,55.954198473282446,-111.34351145038168,0.04580152671755725,-7.800309008789062,1.2018892333984375,3.392583752441406,12.854961832061068,4.793893129770993,-16.442748091603054,0.0
12.410000801086426,-9.323021264648437,-0.3591302490234375,4.977545251464844,55.45038167938932,-120.83969465648855,-3.7404580152671754,-8.98304462890625,1.4149731811523436,5.5090580200195305,5.00763358778626,7.404580152671755,-16.33587786259542,0.0
12.420000553131104,-9.311050256347656,-0.16998831787109375,4.582501977539062,57.66412213740458,-130.3969465648855,-4.244274809160306,-8.36294639892578,1.9704279663085937,5.430049365234375,-4.702290076335878,4.9465648854961835,-18.458015267175572,0.0
12.43000078201294,-9.782707983398437,-0.02633621826171875,3.9264907226562498,68.16793893129771,-132.0,1.8931297709923665,-3.2800562744140622,6.983886242675781,3.507505432128906,-33.64885496183206,0.7938931297709924,-25.72519083969466,0.0
12.440000534057617,-11.051634863281249,1.419761584472656,2.592920397949219,49.00763358778626,-137.93893129770993,4.549618320610687,-9.445125549316407,1.13006318359375,7.888894470214844,-57.00763358778626,7.435114503816794,-13.664122137404581,0.0
12.450000524520874,-12.797007873535156,1.0175357055664063,3.1794998046874996,40.79389312977099,-143.66412213740458,4.229007633587786,-11.93270107421875,-0.0383072265625,8.06367119140625,-57.20610687022901,-12.259541984732824,-13.419847328244275,0.0
12.46000051498413,-12.957419384765624,-0.9074024291992187,3.660734338378906,40.534351145038165,-152.1679389312977,3.267175572519084,-12.215216870117187,0.82360537109375,8.039729174804688,-69.6793893129771,-22.30534351145038,-21.923664122137403,0.0
12.470000505447388,-14.695609790039061,0.5698199951171875,4.728548278808593,33.847328244274806,-156.0916030534351,-2.6717557251908395,-13.517662573242188,-1.8100164550781248,6.782773303222656,-88.54961832061069,-27.114503816793892,-23.17557251908397,0.0
12.480000257492065,-15.356409448242186,1.675941162109375,3.88818349609375,10.381679389312977,-165.6793893129771,-6.2748091603053435,-15.236699365234374,-3.938461730957031,3.8283284545898435,-83.40458015267176,-41.23664122137404,-20.80916030534351,0.0
12.490000486373901,-14.884751721191405,0.8499415893554687,2.6886884643554687,7.022900763358779,-168.0916030534351,-7.8320610687022905,-14.293383911132812,-7.371746911621093,-0.8978256225585937,-75.16030534351145,-54.916030534351144,-19.480916030534353,0.0
12.500000476837158,-13.723563916015625,0.04548983154296875,1.6017209106445311,1.786259541984733,-170.3206106870229,-9.816793893129772,-8.59997236328125,-2.887407202148437,0.023942016601562498,-60.58015267175573,-52.732824427480914,-28.580152671755727,0.0
12.510000705718994,-14.393940380859375,1.917755529785156,0.4070142822265625,-7.4961832061068705,-166.13740458015266,-6.5038167938931295,-7.285555651855469,-3.1507693847656246,-1.5825672973632812,-57.083969465648856,-45.267175572519086,-28.931297709923665,0.0
12.52000093460083,-11.935095275878906,0.19871873779296872,-1.3766659545898436,-9.450381679389313,-162.53435114503816,1.2671755725190839,-7.3478048950195305,-3.5098996337890624,-2.3965958618164063,-45.83206106870229,-34.83969465648855,-28.427480916030536,0.0
12.530000686645508,-10.050858569335936,-1.4772224243164063,-1.350329736328125,2.7480916030534353,-146.25954198473283,6.122137404580153,-8.183381274414062,-2.262520568847656,-2.1930887207031247,-34.396946564885496,-23.267175572519083,-27.64885496183206,0.0
12.540000677108765,-8.63827958984375,-1.707065783691406,-2.032677209472656,10.13740458015267,-132.6412213740458,2.3206106870229006,-9.349357482910156,-2.0925322509765625,-2.808398547363281,-21.16030534351145,-11.648854961832061,-23.221374045801525,0.0
12.550000667572021,-8.44674345703125,-1.3144167114257812,-2.3870190551757813,14.381679389312977,-114.07633587786259,-0.7633587786259542,-11.219228979492186,-3.27526787109375,-2.906560815429687,-2.1374045801526718,-2.6717557251908395,-17.61832061068702,0.0
12.560000896453857,-7.733271362304687,-1.5538368774414062,-3.1579519897460937,20.763358778625953,-96.74809160305344,-2.946564885496183,-12.076353173828124,-4.209006518554688,-1.9033903198242186,19.51145038167939,3.3740458015267176,-13.755725190839694,0.0
12.570000648498535,-8.257601525878906,-0.5363011718749999,-3.0933085449218747,19.541984732824428,-77.64885496183206,-6.5038167938931295,-12.406753002929687,-3.3111808959960936,-1.62805712890625,40.900763358778626,6.961832061068702,-10.763358778625955,0.0
12.580000400543213,-8.276755139160155,-0.7637503295898437,-2.6719290527343746,21.450381679389313,-56.732824427480914,-6.366412213740458,-12.502521069335936,-1.3670891479492187,-0.8068459594726562,51.19083969465649,16.48854961832061,-5.190839694656488,0.0
12.590000867843628,-7.311891870117187,-0.7565677246093749,-2.403778466796875,21.221374045801525,-39.06870229007634,-5.297709923664122,-12.473790649414061,-1.4053963745117186,-0.8643067993164062,55.23664122137404,25.374045801526716,0.8702290076335878,0.0
12.600000619888306,-8.547299926757812,1.218648645019531,-0.5770026000976562,20.015267175572518,-17.908396946564885,-9.038167938931299,-10.500968481445312,2.176329309082031,-1.3335703247070312,50.56488549618321,32.18320610687023,3.053435114503817,0.0
12.610000610351562,-9.667786303710937,3.8857892944335934,-0.34237083740234375,-10.045801526717558,-15.465648854961833,-9.435114503816793,-8.559270935058594,2.8562825805664063,-1.5705962890624998,26.85496183206107,45.725190839694655,7.648854961832061,0.0
12.62000060081482,-9.035717065429687,3.086125939941406,-0.8379705810546875,-28.33587786259542,-6.2748091603053435,-0.04580152671755725,-11.37006368408203,-0.7206546997070312,-0.6296750366210937,19.129770992366414,52.030534351145036,17.099236641221374,0.0
12.630000591278076,-6.986280444335937,-1.429338391113281,-1.668758557128906,-12.564885496183207,13.236641221374045,4.67175572519084,-10.474632263183594,0.30885201416015623,-0.5339069702148437,24.47328244274809,46.67175572519084,13.938931297709924,0.0
12.640000581741333,-6.552929943847656,-0.39983167724609375,-2.0877438476562498,-2.854961832061069,28.99236641221374,-0.7480916030534351,-9.552864624023437,0.7254431030273437,1.2042834350585936,19.068702290076335,56.16793893129771,14.442748091603054,0.0
12.650001049041748,-7.058106494140625,0.7158662963867187,-2.530671154785156,-18.702290076335878,37.23664122137404,-3.9236641221374047,-10.805032092285156,-3.840299462890625,1.0726023437499999,25.801526717557252,51.282442748091604,18.580152671755727,0.0
12.660000562667847,-6.251260534667968,-0.2657563842773437,-3.076549133300781,-10.076335877862595,52.595419847328245,-1.816793893129771,-10.579977136230468,-1.8028338500976562,2.104503259277344,42.29007633587786,41.11450381679389,15.206106870229007,0.0
12.670000791549683,-6.133944653320312,0.7805097412109374,-2.583343591308594,-12.01526717557252,65.74045801526718,-2.7022900763358777,-8.305485559082031,1.6256629272460936,1.956062756347656,41.32824427480916,40.38167938931298,11.053435114503817,0.0
12.68000054359436,-6.938396411132812,2.4875755249023435,-1.7118541870117185,-27.755725190839694,74.59541984732824,-1.8931297709923665,-8.939948999023438,1.20667763671875,2.147598889160156,24.53435114503817,44.76335877862596,16.396946564885496,0.0
12.690000772476196,-6.426037255859375,2.0566192260742184,-0.9959878906249999,-41.29770992366412,81.95419847328245,2.8244274809160306,-9.509768994140625,-0.6655880615234374,1.936909143066406,24.396946564885496,44.732824427480914,19.022900763358777,0.0
12.700000286102295,-6.335057592773437,0.21787235107421873,-0.055066638183593745,-39.908396946564885,89.38931297709924,5.694656488549619,-11.142614526367186,-2.7916391357421872,3.447650390625,34.99236641221374,41.14503816793893,18.48854961832061,0.0
12.71000051498413,-6.1650692749023435,-1.0821791503906248,1.2234370483398436,-32.38167938931298,96.10687022900764,5.679389312977099,-9.3086560546875,-0.19153613281249998,2.978386865234375,32.42748091603053,28.900763358778626,11.908396946564885,0.0
12.720000505447388,-6.720524060058593,-0.6296750366210937,2.47081611328125,-38.06106870229008,98.70229007633588,2.931297709923664,-9.244012609863281,-0.29927520751953124,3.9887399658203124,22.671755725190838,28.702290076335878,11.633587786259541,0.0
12.730000257492065,-7.218518005371093,-1.1180921752929687,4.115632653808594,-48.94656488549618,98.62595419847328,-0.33587786259541985,-8.963891015625,-0.34237083740234375,4.587290380859375,13.251908396946565,24.427480916030536,11.98473282442748,0.0
12.740000486373901,-6.53138212890625,-1.6519991455078125,4.091690637207031,-43.9236641221374,97.09923664122137,-0.8702290076335878,-8.736441857910156,0.00718260498046875,4.350264416503906,6.6106870229007635,19.221374045801525,12.687022900763358,0.0
12.750000476837158,-6.782773303222656,-0.59376201171875,3.9887399658203124,-27.00763358778626,99.63358778625954,-0.8396946564885496,-8.908824377441405,-0.11252747802734374,4.783614916992187,-2.1526717557251906,15.770992366412214,13.32824427480916,0.0
12.760000705718994,-7.019799267578125,0.584185205078125,3.6152445068359373,-20.30534351145038,101.52671755725191,1.0381679389312977,-9.064447485351561,-0.7685387329101562,4.651933825683593,-8.366412213740459,12.885496183206106,13.618320610687023,0.0
12.770000696182251,-6.56968935546875,-0.4070142822265625,3.756502404785156,-4.763358778625954,106.04580152671755,6.259541984732825,-8.671798413085938,-1.6831237670898436,4.386177441406249,-10.229007633587786,9.007633587786259,12.900763358778626,0.0
12.780000925064087,-6.648698010253906,-0.8571241943359375,4.254496350097656,13.557251908396946,110.1526717557252,9.32824427480916,-8.334215979003906,-1.9512743530273435,3.268085266113281,-4.33587786259542,0.21374045801526717,9.404580152671755,0.0
12.790000438690186,-8.097190014648437,0.24660277099609373,6.212953308105468,29.435114503816795,112.79389312977099,9.267175572519085,-7.072471704101562,-0.3591302490234375,1.9823989746093749,-6.290076335877862,-5.435114503816794,5.221374045801527,0.0
12.8000009059906,-10.259154113769531,2.920926025390625,7.5345526245117185,18.259541984732824,103.7557251908397,7.145038167938932,-8.135497241210937,-1.2138602416992186,2.868253588867187,-11.603053435114504,3.633587786259542,9.068702290076336,0.0
12.810000658035278,-8.049305981445311,1.1276689819335937,6.337451794433593,26.748091603053435,94.87022900763358,14.229007633587786,-9.543287817382812,-2.9185318237304685,2.4851813232421875,-2.7480916030534353,-0.7480916030534351,8.763358778625955,0.0
12.820000886917114,-8.846575134277343,1.158793603515625,7.165845568847656,36.94656488549618,89.0381679389313,13.587786259541986,-8.796296899414061,-1.8555062866210936,2.0350714111328125,7.908396946564886,-0.5343511450381679,4.778625954198473,0.0
12.830000400543213,-11.245565197753905,3.0693665283203124,9.255983618164063,29.31297709923664,79.37404580152672,10.946564885496183,-8.966285217285156,-0.7948749511718749,2.061407629394531,0.10687022900763359,3.099236641221374,5.984732824427481,0.0
12.840000629425049,-11.896788049316406,2.7341782958984373,9.2320416015625,14.076335877862595,63.48091603053435,13.267175572519085,-9.445125549316407,-2.0638018310546875,1.898601916503906,7.236641221374046,-1.786259541984733,6.625954198473282,0.0
12.850000381469727,-11.875240234375,2.327164013671875,8.212111694335936,17.374045801526716,52.0,18.076335877862597,-8.197746484375,-0.26336218261718747,1.0654197387695312,7.786259541984733,-1.251908396946565,2.8244274809160306,0.0
12.860000371932983,-12.457031237792968,2.142810485839844,8.432378247070313,9.770992366412214,38.68702290076336,24.091603053435115,-9.296685046386719,0.40462008056640625,1.898601916503906,-0.5801526717557252,10.259541984732824,8.610687022900763,0.0
12.87000060081482,-11.9518546875,0.5746083984375,7.410054138183593,7.786259541984733,28.3206106870229,31.129770992366414,-9.17458076171875,0.469263525390625,1.5729904907226562,-11.404580152671755,4.9465648854961835,13.572519083969466,0.0
12.880000591278076,-10.31661495361328,-0.9050082275390624,4.386177441406249,8.061068702290076,21.862595419847327,29.572519083969464,-9.457096557617186,1.7238251953125,1.2593500732421874,-6.213740458015267,13.419847328244275,17.52671755725191,0.0
12.890000581741333,-11.712434521484374,-0.47884033203125,3.0621839233398433,4.198473282442748,16.702290076335878,29.297709923664122,-8.161833459472655,2.7150246826171873,-0.2346317626953125,-22.870229007633586,15.282442748091603,23.374045801526716,0.0
12.90000057220459,-13.014880224609374,-0.6775590698242188,5.971138940429687,11.389312977099237,14.595419847328245,36.29007633587786,-8.889670764160156,2.4875755249023435,0.7733271362304687,-40.274809160305345,23.572519083969464,33.038167938931295,0.0
12.910000801086426,-15.406687683105467,-4.422090466308593,12.550405102539061,28.50381679389313,6.366412213740458,38.93129770992366,-11.034875451660156,-1.47482822265625,1.2689268798828124,-40.74809160305343,23.770992366412212,37.16030534351145,0.0
12.920000553131104,-14.23113466796875,-9.026140258789061,13.050793249511718,43.282442748091604,-9.740458015267176,22.580152671755727,-10.967837805175781,-2.8227637573242186,1.0271125122070313,-22.564885496183205,15.755725190839694,31.587786259541986,0.0
12.930001020431519,-15.715539697265624,-5.269637854003906,9.65342109375,32.045801526717554,-25.61832061068702,-0.2595419847328244,-9.519345800781249,-0.9552864624023437,0.6751648681640625,-21.251908396946565,11.038167938931299,29.34351145038168,0.0
12.940000534057617,-14.769830041503905,-3.342305517578125,3.6463691284179687,31.770992366412212,-36.67175572519084,-7.572519083969466,-9.943119494628906,-1.9584569580078124,1.0007762939453124,-28.3206106870229,10.259541984732824,33.14503816793893,0.0
12.950000762939453,-12.9861498046875,0.9337386474609375,-1.0031704956054688,47.14503816793893,-32.30534351145038,-6.061068702290076,-11.25514200439453,-4.570530969238281,0.02154781494140625,-19.893129770992367,3.1908396946564888,29.633587786259543,0.0
12.96000075340271,-10.36210478515625,2.8945898071289062,-4.802768530273437,42.916030534351144,-29.450381679389313,-7.847328244274809,-12.342109558105468,-3.7301661865234372,-0.7589619262695312,-4.6106870229007635,-2.900763358778626,20.244274809160306,0.0
12.970000505447388,-8.757989672851561,7.048529687499999,-7.594407666015624,36.80916030534351,-20.717557251908396,-3.312977099236641,-13.876792822265624,-1.944091748046875,-1.426944189453125,-3.9083969465648853,-7.4961832061068705,14.748091603053435,0.0
12.980000495910645,-6.775590698242187,6.849810949707031,-7.575254052734374,6.473282442748092,-8.0,1.083969465648855,-13.321338037109374,1.5155296508789062,-1.419761584472656,-14.793893129770993,-6.793893129770993,11.374045801526718,0.0
12.990000486373901,-7.024587670898437,5.063736511230468,-5.887341882324218,-34.16793893129771,6.412213740458015,2.0916030534351147,-14.64533155517578,0.679953271484375,-1.149216796875,-17.46564885496183,-5.312977099236641,12.045801526717558,0.0
13.000000476837158,-7.694964135742187,4.029441394042968,-6.957550024414062,-54.01526717557252,17.297709923664122,1.9236641221374047,-13.656526269531248,0.6607996582031249,-1.1085153686523437,-23.450381679389313,-4.564885496183206,10.320610687022901,0.0
13.010000705718994,-8.686163623046875,1.5275006591796874,-6.268019946289062,-43.41984732824427,35.41984732824427,10.412213740458014,-13.500903161621093,-0.411802685546875,-1.3192051147460937,-21.84732824427481,-7.32824427480916,10.244274809160306,0.0
13.02000093460083,-9.009380847167968,0.4429273071289062,-4.513070129394531,-35.32824427480916,49.6793893129771,11.419847328244275,-12.74912384033203,-0.1484405029296875,-1.2401964599609374,-12.549618320610687,-7.862595419847328,7.419847328244275,0.0
13.030000686645508,-10.43153663330078,0.8068459594726562,-2.940079638671875,-31.34351145038168,61.38931297709924,6.427480916030534,-12.227187878417968,0.9050082275390624,-0.33518823242187495,-3.3740458015267176,-5.0534351145038165,6.213740458015267,0.0
13.040000915527344,-11.516109985351562,1.189918225097656,-1.1013327636718748,-42.916030534351144,63.7557251908397,-0.33587786259541985,-11.135431921386719,2.461239306640625,-0.5482721801757812,-4.137404580152672,-2.7786259541984735,1.786259541984733,0.0
13.050000667572021,-11.626243261718749,-0.02154781494140625,-0.4429273071289062,-57.41984732824427,57.954198473282446,-5.633587786259542,-10.510545288085936,3.73495458984375,-0.833182177734375,-9.709923664122137,0.549618320610687,0.9923664122137404,0.0
13.060000896453857,-11.319785449218749,-0.6847416748046875,0.3591302490234375,-59.57251908396947,53.74045801526717,-10.213740458015268,-10.85291612548828,3.517082238769531,-0.9816226806640624,-15.450381679389313,4.977099236641221,1.2061068702290076,0.0
13.070000648498535,-11.166556542968749,-0.47884033203125,0.2920926025390625,-62.6412213740458,47.69465648854962,-13.969465648854962,-10.275913525390624,3.6463691284179687,-0.7422025146484375,-23.16030534351145,6.1679389312977095,0.5648854961832062,0.0
13.080000638961792,-10.172962854003906,-0.28969840087890625,-0.8307879760742187,-60.595419847328245,41.05343511450382,-12.80916030534351,-10.50815108642578,3.2513258544921873,0.29927520751953124,-27.87786259541985,6.519083969465649,2.6564885496183206,0.0
13.090000629425049,-9.631873278808593,-1.3239935180664062,-1.5179238525390624,-53.52671755725191,36.091603053435115,-9.786259541984732,-10.541669909667968,2.2840683837890623,1.2976572998046874,-29.419847328244273,7.435114503816794,5.267175572519084,0.0
13.100000619888306,-10.014945544433592,0.08140285644531249,-0.06943184814453125,-30.778625954198475,38.56488549618321,-8.458015267175572,-12.145785021972655,0.7709329345703124,1.6160861206054686,-17.404580152671755,2.4885496183206106,6.519083969465649,0.0
13.110000610351562,-9.17458076171875,-0.430956298828125,-0.737414111328125,-19.374045801526716,35.61832061068702,-5.358778625954199,-9.706093530273437,1.6017209106445311,1.5275006591796874,-19.0381679389313,-0.8549618320610687,5.083969465648855,0.0
13.12000036239624,-9.440337145996093,1.0869675537109373,-0.5482721801757812,-10.625954198473282,34.38167938931298,-1.099236641221374,-9.706093530273437,0.12449848632812499,2.9759926635742184,-28.80916030534351,-6.824427480916031,9.587786259541986,0.0
13.130000352859497,-9.17458076171875,0.8595183959960937,-0.32082302246093747,-5.923664122137405,34.30534351145038,-0.3511450381679389,-10.862492932128905,-1.2952630981445312,4.153939880371094,-3.404580152671756,-11.954198473282442,8.305343511450381,0.0
13.140000820159912,-9.296685046386719,0.43574470214843747,-0.09337386474609374,2.519083969465649,33.06870229007634,0.6106870229007634,-8.904035974121093,0.2154781494140625,1.848323681640625,-0.12213740458015267,-25.84732824427481,-0.6259541984732825,0.0
13.15000033378601,-9.95987890625,1.9728221679687499,0.30885201416015623,1.7404580152671756,32.045801526717554,-0.04580152671755725,-8.513781103515624,1.9919757812499999,2.0350714111328125,-12.335877862595419,-24.03053435114504,0.5343511450381679,0.0
13.160000562667847,-10.151415039062499,2.8012159423828122,0.6943184814453125,-13.465648854961833,29.450381679389313,-0.0,-10.455478649902343,-2.1978771240234374,3.2225954345703123,-12.748091603053435,-24.015267175572518,6.015267175572519,0.0
13.170000791549683,-9.562441430664062,1.467645617675781,0.36631285400390623,-17.14503816793893,26.137404580152673,0.9770992366412213,-9.955090502929687,-1.2042834350585936,1.9800047729492187,-6.6106870229007635,-35.43511450381679,-1.8931297709923665,0.0
13.180000305175781,-10.09395419921875,0.9145850341796874,0.852335791015625,-13.86259541984733,25.099236641221374,0.9312977099236641,-8.489839086914062,0.6967126831054687,1.2593500732421874,-14.381679389312977,-32.396946564885496,-6.137404580152672,0.0
13.190000772476196,-10.474632263183594,2.109291662597656,1.2473790649414063,-25.389312977099237,22.015267175572518,-0.3816793893129771,-9.86411083984375,-1.158793603515625,3.488351818847656,-16.519083969465647,-28.18320610687023,-1.5419847328244274,0.0
13.200000286102295,-9.732429748535155,1.695094775390625,0.9840168823242187,-31.099236641221374,19.786259541984734,0.1984732824427481,-11.116278308105468,-3.404554760742187,3.0406361083984375,-4.0,-34.595419847328245,-3.053435114503817,0.0
13.21000051498413,-9.509768994140625,-0.06464344482421874,0.7445967163085937,-23.893129770992367,19.129770992366414,0.8091603053435115,-9.923965881347655,-1.9800047729492187,2.6048914062499997,8.229007633587786,-44.33587786259542,-12.0,0.0
13.220000267028809,-10.39322940673828,0.11731588134765625,1.1420341918945311,-17.053435114503817,18.732824427480917,-1.282442748091603,-8.975862023925782,0.5674257934570313,2.1021090576171875,2.33587786259542,-44.82442748091603,-16.885496183206108,0.0
13.230000495910645,-10.888829150390624,1.35990654296875,1.3407529296874998,-23.14503816793893,17.358778625954198,-3.0076335877862594,-10.345345373535155,-1.5059528442382812,1.9488801513671874,0.13740458015267176,-39.587786259541986,-12.885496183206106,0.0
13.240127563476562,-10.352527978515624,0.603338818359375,0.9433154541015625,-28.641221374045802,14.106870229007633,-3.312977099236641,-11.137826123046874,-1.4891934326171874,1.5538368774414062,13.801526717557252,-44.88549618320611,-15.557251908396946,0.0
13.250000476837158,-10.194510668945313,-0.40222587890625,0.93852705078125,-14.900763358778626,13.145038167938932,-3.2977099236641223,-9.504980590820312,0.49320554199218747,0.9816226806640624,11.84732824427481,-44.82442748091603,-21.083969465648856,0.0
13.260000705718994,-10.603919152832031,0.5099649536132812,1.1156979736328125,-13.419847328244275,12.717557251908397,-3.954198473282443,-9.162609753417968,0.7517793212890624,1.3958195678710936,3.1297709923664123,-38.595419847328245,-16.427480916030536,0.0
13.270000457763672,-9.993397729492187,1.6472107421875,0.19153613281249998,-19.0381679389313,11.053435114503817,-2.931297709923664,-10.749965454101561,-0.3854664672851562,2.1811177124023438,14.793893129770993,-38.01526717557252,-11.297709923664122,0.0
13.280000448226929,-9.320627062988281,0.6272808349609375,-0.17956512451171874,-12.717557251908397,11.358778625954198,-0.8549618320610687,-8.978256225585938,0.00239420166015625,2.003946789550781,19.068702290076335,-41.98473282442748,-14.687022900763358,0.0
13.290000677108765,-9.65342109375,0.12210428466796874,-0.10295067138671875,-4.9465648854961835,12.061068702290076,-0.3816793893129771,-8.571241943359375,1.9512743530273435,1.7741034301757812,16.106870229007633,-37.17557251908397,-14.488549618320612,0.0
13.3000009059906,-10.002974536132811,1.687912170410156,0.16280571289062498,-8.580152671755725,12.992366412213741,-1.297709923664122,-8.470685473632813,2.3367408203125,2.365471240234375,3.816793893129771,-32.0763358778626,-9.022900763358779,0.0
13.310000658035278,-9.394847314453125,1.6041151123046875,0.047884033203124995,-14.274809160305344,11.969465648854962,0.5038167938931297,-8.013392956542969,2.2074539306640624,1.5083470458984374,1.3435114503816794,-29.908396946564885,-6.33587786259542,0.0
13.320000886917114,-8.935160595703124,-0.16280571289062498,-0.08858546142578125,-7.557251908396947,11.48091603053435,2.519083969465649,-9.636661682128906,-0.2705447875976562,1.7405846069335937,7.877862595419847,-29.374045801526716,-4.3816793893129775,0.0
13.330000638961792,-9.366116894531249,-0.9911994873046874,-0.00718260498046875,8.854961832061068,13.511450381679388,1.3282442748091603,-10.295067138671874,-1.2928688964843749,1.8363526733398436,20.885496183206108,-28.564885496183205,-5.32824427480916,0.0
13.34000039100647,-9.923965881347655,-0.967257470703125,0.18914193115234373,3.8625954198473282,10.67175572519084,-0.5801526717557252,-9.507374792480467,-0.43574470214843747,1.917755529785156,31.587786259541986,-35.221374045801525,-8.290076335877863,0.0
13.350000619888306,-10.192116467285155,1.1516109985351561,-0.239420166015625,11.679389312977099,8.381679389312977,-0.22900763358778625,-7.8553756469726554,0.9121908325195311,1.0630255371093749,29.557251908396946,-36.595419847328245,-10.763358778625955,0.0
13.360000610351562,-10.24000050048828,1.5945383056640625,0.15083470458984374,5.694656488549619,7.145038167938932,-1.5725190839694656,-6.330269189453125,4.290409374999999,0.7829039428710937,13.801526717557252,-30.68702290076336,-9.267175572519085,0.0
13.37000060081482,-10.029310754394531,2.2361843505859373,0.2537853759765625,-2.381679389312977,6.366412213740458,-0.3511450381679389,-8.619125976562499,1.2378022583007813,1.9943699829101562,-0.12213740458015267,-14.15267175572519,0.732824427480916,0.0
13.380000591278076,-8.43956085205078,-0.3806780639648437,-0.5913678100585937,1.7099236641221374,4.641221374045801,1.5419847328244274,-10.134655627441406,-0.40222587890625,1.197100830078125,9.282442748091603,-23.51145038167939,-1.1297709923664123,0.0
13.390000581741333,-9.509768994140625,-0.3232172241210937,-0.6009446166992187,26.015267175572518,7.358778625954199,1.8473282442748091,-8.757989672851561,-0.16519991455078123,1.180341418457031,7.206106870229007,-14.549618320610687,-4.351145038167939,0.0
13.40000057220459,-9.227253198242186,1.2114660400390624,-0.4333505004882812,21.31297709923664,7.297709923664122,-0.3053435114503817,-9.33978067626953,-0.8164227661132812,1.4173673828125,10.564885496183207,-17.87786259541985,-4.0458015267175576,0.0
13.410000801086426,-9.229647399902344,1.4149731811523436,-1.1755530151367186,11.664122137404581,4.427480916030534,2.0763358778625953,-9.246406811523437,-0.469263525390625,1.5873557006835937,17.16030534351145,-17.083969465648856,-4.549618320610687,0.0
13.420000553131104,-9.588777648925781,0.7852981445312499,-0.6584054565429687,3.3893129770992365,2.946564885496183,3.145038167938931,-9.552864624023437,-0.26336218261718747,1.6160861206054686,17.923664122137403,-15.435114503816793,-3.8625954198473282,0.0
13.43000078201294,-10.165780249023436,-0.01915361328125,0.5578489868164063,13.603053435114504,6.717557251908397,0.4732824427480916,-9.619902270507811,1.0271125122070313,0.49320554199218747,19.984732824427482,-19.404580152671755,-4.183206106870229,0.0
13.440000534057617,-10.141838232421874,-0.4070142822265625,-0.4261678955078125,6.595419847328245,3.236641221374046,-0.33587786259541985,-8.169016064453125,0.8571241943359375,-1.1707646118164061,9.877862595419847,-15.938931297709924,-4.229007633587786,0.0
13.450000524520874,-10.182539660644531,-0.08379705810546874,-0.7924807495117187,19.404580152671755,6.106870229007634,-0.48854961832061067,-9.191340173339842,0.8930372192382812,0.82360537109375,8.50381679389313,-11.297709923664122,0.2900763358778626,0.0
13.46000075340271,-9.962273107910155,0.1771709228515625,-0.59376201171875,16.732824427480917,8.030534351145038,-2.1526717557251906,-10.402806213378906,-0.40222587890625,1.5610194824218748,18.9618320610687,-10.580152671755725,1.8015267175572518,0.0
13.470000505447388,-10.019733947753906,0.6919242797851562,-0.9050082275390624,21.14503816793893,9.938931297709924,-4.748091603053435,-9.931148486328125,-0.32082302246093747,1.9943699829101562,22.778625954198475,-6.580152671755725,2.213740458015267,0.0
13.480000257492065,-10.067617980957031,0.689530078125,-0.5315127685546874,15.206106870229007,11.267175572519085,-5.938931297709924,-10.608707556152343,-0.27293898925781246,1.7788918334960937,29.572519083969464,-7.419847328244275,3.1297709923664123,0.0
13.490000486373901,-9.720458740234374,0.7685387329101562,-0.7015010864257812,14.977099236641221,12.488549618320612,-6.3816793893129775,-9.641450085449218,-1.70467158203125,1.3000515014648437,30.793893129770993,-12.335877862595419,1.6030534351145038,0.0
13.500000238418579,-9.509768994140625,0.45489831542968745,-0.6272808349609375,15.557251908396946,13.816793893129772,-7.297709923664122,-8.93755479736328,-0.7661445312499999,1.149216796875,42.47328244274809,-14.885496183206106,-0.8244274809160306,0.0
13.510000705718994,-10.563217724609375,2.0925322509765625,-0.06703764648437499,13.312977099236642,16.244274809160306,-9.526717557251908,-8.0062103515625,0.7445967163085937,0.7996633544921875,40.83969465648855,-10.51908396946565,-0.9465648854961832,0.0
13.520000457763672,-9.698910925292969,2.0254946044921875,-0.7757213378906249,5.694656488549619,17.267175572519083,-9.022900763358779,-7.323862878417969,1.848323681640625,1.5490484741210937,32.6412213740458,-7.511450381679389,0.8396946564885496,0.0
13.530000686645508,-9.770736975097655,3.1028853515624997,-0.229843359375,-8.854961832061068,16.458015267175572,-8.564885496183207,-4.5968671875,1.1635820068359375,0.16041151123046873,9.816793893129772,0.4732824427480916,-1.1450381679389312,0.0
13.540000915527344,-9.320627062988281,1.7238251953125,-0.033518823242187495,-16.229007633587788,16.946564885496183,-7.526717557251908,-9.342174877929686,0.2753331909179687,1.6112977172851561,13.694656488549619,10.549618320610687,7.175572519083969,0.0
13.550000429153442,-8.535328918457031,0.5458779785156249,-0.9193734375,-17.862595419847327,13.954198473282442,-5.801526717557252,-8.607154968261717,0.33518823242187495,1.467645617675781,18.702290076335878,10.244274809160306,4.580152671755725,0.0
13.560000896453857,-9.337386474609374,0.6440402465820312,0.13407529296874998,-0.44274809160305345,20.53435114503817,-6.778625954198473,-9.102754711914063,-0.3064578125,2.1547814941406247,16.778625954198475,13.98473282442748,4.0,0.0
13.570000648498535,-9.41639512939453,1.4772224243164063,0.06943184814453125,-9.725190839694656,19.236641221374047,-9.786259541984732,-8.66940421142578,-0.33039982910156246,1.9512743530273435,19.954198473282442,13.786259541984732,1.984732824427481,0.0
13.580000638961792,-9.763554370117188,2.1021090576171875,-0.36152445068359373,-13.83206106870229,16.38167938931298,-11.648854961832061,-8.872911352539061,-0.08858546142578125,2.3630770385742186,19.404580152671755,13.511450381679388,1.2366412213740459,0.0
13.59000039100647,-9.79946739501953,0.9217676391601562,0.40222587890625,-10.83969465648855,18.412213740458014,-8.030534351145038,-8.518569506835936,0.5506663818359374,1.946485949707031,16.595419847328245,13.34351145038168,0.48854961832061067,0.0
13.600000381469727,-10.070012182617187,0.45968671875,0.737414111328125,-6.778625954198473,16.427480916030536,-7.312977099236641,-8.82263311767578,0.7350199096679687,2.360682836914062,13.282442748091603,14.900763358778626,-0.10687022900763359,0.0
13.610000610351562,-9.651026892089844,0.28490999755859375,0.7613561279296874,-2.198473282442748,14.50381679389313,-7.877862595419847,-8.923189587402343,0.8044517578125,2.636016027832031,9.022900763358779,16.35114503816794,-1.2366412213740459,0.0
13.62000060081482,-9.9981861328125,0.22505495605468748,1.1420341918945311,2.4122137404580153,12.870229007633588,-8.50381679389313,-8.954314208984375,0.5985504150390625,2.6408044311523438,1.8473282442748091,16.870229007633586,-3.1908396946564888,0.0
13.630000352859497,-9.749189160156249,0.46686932373046874,1.618480322265625,5.603053435114504,9.374045801526718,-9.312977099236642,-9.10993731689453,0.3232172241210937,2.7557261108398436,-2.8244274809160306,17.129770992366414,-5.038167938931298,0.0
13.640000343322754,-9.83777462158203,0.48123453369140623,1.9847931762695312,8.702290076335878,6.824427480916031,-9.740458015267176,-8.923189587402343,-0.20829554443359374,2.6096798095703124,-7.465648854961832,17.61832061068702,-6.9465648854961835,0.0
13.65000057220459,-9.777919580078125,0.5003881469726562,2.5474305664062498,11.755725190839694,2.931297709923664,-10.442748091603054,-8.882488159179687,-0.6153098266601562,2.35589443359375,-8.763358778625955,17.14503816793893,-8.198473282442748,0.0
13.660000562667847,-9.995791931152343,0.6967126831054687,3.227383837890625,15.86259541984733,-2.213740458015267,-11.603053435114504,-8.576030346679687,-0.7852981445312499,2.2170307373046874,-8.534351145038167,16.48854961832061,-9.16030534351145,0.0
13.670000314712524,-9.923965881347655,1.3192051147460937,3.756502404785156,18.68702290076336,-7.526717557251908,-12.702290076335878,-8.291120349121094,-1.2306196533203124,2.0542250244140625,-6.8396946564885495,16.396946564885496,-10.366412213740459,0.0
13.68000054359436,-11.659762084960937,3.404554760742187,4.582501977539062,3.7557251908396947,-16.671755725190838,-13.84732824427481,-8.281543542480469,-1.2497732666015624,2.090138049316406,-3.404580152671756,15.816793893129772,-11.725190839694656,0.0
13.690000772476196,-10.958260998535156,3.3877953491210935,4.302380383300781,-4.213740458015267,-29.984732824427482,-10.442748091603054,-8.231265307617187,-1.438915197753906,1.867477294921875,-1.3740458015267176,16.091603053435115,-12.778625954198473,0.0
13.700000524520874,-11.647791076660155,3.3351229125976563,5.4899044067382805,-8.396946564885496,-39.404580152671755,-5.587786259541985,-8.0062103515625,-1.0414777221679687,1.927332336425781,1.0381679389312977,16.38167938931298,-14.305343511450381,0.0
13.71000051498413,-11.633425866699218,2.5354595581054684,6.438008264160156,-13.297709923664122,-53.282442748091604,-2.931297709923664,-8.243236315917969,-0.8451531860351562,1.7166425903320313,3.0839694656488548,16.16793893129771,-14.641221374045802,0.0
13.720000743865967,-11.4538607421875,1.85790048828125,7.036558679199218,-3.3587786259541983,-66.83969465648855,2.2748091603053435,-8.441955053710936,-0.7613561279296874,1.8219874633789062,4.931297709923665,16.18320610687023,-14.702290076335878,0.0
13.730000495910645,-11.88721124267578,2.051830822753906,7.970297326660156,4.412213740458015,-79.31297709923665,5.908396946564886,-8.518569506835936,-0.36152445068359373,2.1404162841796874,7.099236641221374,16.198473282442748,-15.557251908396946,0.0
13.740000486373901,-11.592724438476562,1.467645617675781,7.745242370605468,6.778625954198473,-93.70992366412214,7.786259541984733,-8.597578161621094,-0.373495458984375,2.442085693359375,7.633587786259542,15.404580152671755,-16.03053435114504,0.0
13.750000238418579,-11.020510241699219,0.7852981445312499,7.630320690917968,9.618320610687023,-107.90839694656489,8.458015267175572,-8.283937744140625,-0.143652099609375,2.6096798095703124,7.282442748091603,13.84732824427481,-17.0381679389313,0.0
13.760000705718994,-10.611101757812499,0.05746083984375,7.37414111328125,7.099236641221374,-125.72519083969466,5.816793893129771,-7.788338000488281,0.3016694091796875,2.3295582153320313,6.717557251908397,12.80916030534351,-17.81679389312977,0.0
13.770000696182251,-11.674127294921874,-0.4525041137695312,7.472303381347656,14.854961832061068,-142.29007633587787,4.732824427480916,-6.114791040039062,2.023100402832031,1.7525556152343749,-0.6259541984732825,13.587786259541986,-19.52671755725191,0.0
13.780001163482666,-11.79862578125,-0.6200982299804687,7.747636572265624,29.709923664122137,-157.46564885496184,8.778625954198473,-8.767566479492187,-0.11731588134765625,3.1675287963867187,1.1297709923664123,21.129770992366414,-16.15267175572519,0.0
13.790000438690186,-11.130643518066405,-2.346317626953125,8.781931689453124,46.091603053435115,-172.0,9.98473282442748,-8.78432589111328,-0.9313444458007812,3.0334535034179684,7.709923664122138,13.419847328244275,-18.33587786259542,0.0
13.800000667572021,-11.743559143066406,-4.309562988281249,9.883264453125,74.59541984732824,-186.2290076335878,11.755725190839694,-7.584830859375,-0.7613561279296874,2.291250988769531,11.694656488549619,9.49618320610687,-23.908396946564885,0.0
13.8100004196167,-12.533645690917968,-6.186617089843749,9.598354455566406,90.06106870229007,-204.0763358778626,5.145038167938932,-9.318232861328125,-0.09576806640624999,4.762067102050781,28.18320610687023,8.534351145038167,-28.85496183206107,0.0
13.820000886917114,-13.503297363281249,-6.189011291503906,8.418013037109375,105.17557251908397,-219.66412213740458,2.427480916030534,-8.997409838867187,0.8188169677734375,5.674257934570313,25.34351145038168,-1.0229007633587786,-33.282442748091604,0.0
13.830000638961792,-14.820108276367186,-6.375759020996093,6.794744311523437,119.58778625954199,-231.38931297709922,1.1450381679389312,-12.574347119140624,5.7317187744140625,10.261548315429687,19.083969465648856,-11.129770992366412,-32.06106870229008,0.0
13.840000867843628,-14.647725756835937,-4.319139794921875,2.8514941772460936,127.64885496183206,-239.17557251908397,-1.4961832061068703,-10.424354028320312,9.265560424804686,11.516109985351562,-19.786259541984734,-10.610687022900763,-27.022900763358777,0.0
13.850000619888306,-13.723563916015625,-1.4125789794921875,-0.8906430175781249,108.0,-240.44274809160305,-5.938931297709924,-12.540828295898438,5.540182641601562,10.517727893066406,-39.14503816793893,-16.061068702290076,-14.091603053435115,0.0
13.860000610351562,-12.610260144042968,-2.7437551025390623,-3.6583401367187496,95.6030534351145,-238.0763358778626,-7.923664122137405,-15.028403820800781,1.7836802368164062,6.619967590332031,-35.38931297709924,-36.19847328244275,-11.236641221374045,0.0
13.87000060081482,-11.394005700683593,-3.5434184570312497,-4.563348364257812,111.81679389312977,-220.15267175572518,-14.198473282442748,-15.574281799316406,-4.405331054687499,5.741295581054687,-48.67175572519084,-47.02290076335878,-18.885496183206108,0.0
13.880000591278076,-11.980585107421874,-0.38307226562499996,-5.480327600097656,106.10687022900764,-204.83969465648855,-22.12213740458015,-14.00129130859375,-6.924031201171875,3.6535517333984373,-72.0,-57.86259541984733,-32.213740458015266,0.0
13.890000581741333,-13.730746520996092,5.913678100585937,-5.6407391113281244,94.30534351145039,-182.87022900763358,-18.015267175572518,-12.083535778808592,-6.179434484863281,1.7525556152343749,-58.0,-56.2442748091603,-36.74809160305343,0.0
13.90000057220459,-13.199233752441405,8.987833032226561,-5.846640454101562,67.64885496183206,-161.3740458015267,-5.1603053435114505,-11.65736788330078,-0.4213794921875,0.6703764648437499,-30.641221374045802,-56.396946564885496,-22.702290076335878,0.0
13.910000801086426,-11.0707884765625,7.551312036132812,-5.827486840820312,37.43511450381679,-139.38931297709922,4.122137404580153,-8.537723120117187,4.072537023925781,-6.4643444824218745,-43.267175572519086,-53.19083969465649,-12.473282442748092,0.0
13.920000553131104,-11.204863769531249,7.781155395507812,-3.9719805541992184,-1.1145038167938932,-113.81679389312977,2.3969465648854964,-8.444349255371094,0.9145850341796874,-7.996633544921875,-67.7557251908397,-26.916030534351144,-8.305343511450381,0.0
13.930076360702515,-11.71482872314453,6.696582043457031,-3.957615344238281,-46.13740458015267,-93.32824427480917,5.8320610687022905,-9.79946739501953,-5.944802722167968,-6.48589229736328,-83.41984732824427,-1.9236641221374047,-1.5877862595419847,0.0
13.940000772476196,-10.251971508789062,2.2744915771484373,-4.656722229003906,-70.7175572519084,-69.80152671755725,16.748091603053435,-12.366051574707031,-10.022128149414062,-4.972756848144531,-47.37404580152672,-1.8931297709923665,-3.5114503816793894,0.0
13.950000762939453,-8.406042028808594,0.37828386230468747,-5.260061047363281,-65.58778625954199,-40.82442748091603,18.68702290076336,-12.145785021972655,-10.204087475585936,-4.402936853027343,-7.816793893129771,3.4656488549618323,-4.519083969465649,0.0
13.960000276565552,-7.302315063476562,-0.51714755859375,-5.212177014160156,-66.87022900763358,-17.541984732824428,16.48854961832061,-11.93270107421875,-6.87614716796875,-3.9983167724609374,34.70229007633588,15.786259541984732,-7.877862595419847,0.0
13.970000505447388,-6.4475850708007805,-0.06464344482421874,-4.592078784179687,-71.43511450381679,6.702290076335878,13.587786259541986,-10.36210478515625,-1.2210428466796874,-4.240131140136718,53.05343511450382,23.51145038167939,-6.030534351145038,0.0
13.980000495910645,-6.591237170410156,0.36152445068359373,-3.9983167724609374,-82.7175572519084,25.0381679389313,13.48091603053435,-11.394005700683593,0.055066638183593745,-0.8475473876953125,63.221374045801525,37.43511450381679,-1.5725190839694656,0.0
13.990000486373901,-4.4819455078125,-2.370259643554687,-4.9416322265625,-73.0381679389313,48.61068702290076,16.045801526717558,-11.726799731445311,1.455674609375,-1.1827356201171875,67.8473282442748,41.11450381679389,0.15267175572519084,0.0
14.000000476837158,-3.67749375,-2.7269956909179687,-5.370194323730469,-61.221374045801525,73.70992366412214,13.98473282442748,-11.008539233398437,2.89219560546875,0.7900865478515624,66.0,49.69465648854962,3.66412213740458,0.0
14.010000705718994,-4.582501977539062,-1.5538368774414062,-4.7189714721679685,-56.79389312977099,98.80916030534351,8.534351145038167,-9.361328491210937,4.256890551757812,0.6919242797851562,45.404580152671755,48.87022900763359,9.49618320610687,0.0
14.02000117301941,-4.458003491210937,-1.1061211669921875,-4.082113830566406,-64.10687022900764,116.06106870229007,6.259541984732825,-9.495403784179686,5.202600207519531,0.7134720947265625,24.65648854961832,58.19847328244275,18.213740458015266,0.0
14.030045509338379,-4.838681555175781,-1.0486603271484374,-2.767697119140625,-71.38931297709924,132.0763358778626,3.648854961832061,-9.605537060546874,2.221819140625,2.1691467041015624,10.51908396946565,60.82442748091603,26.916030534351144,0.0
14.040001153945923,-4.259284753417968,-2.8036101440429686,-1.1444283935546875,-66.7175572519084,144.6412213740458,-0.030534351145038167,-10.955866796875,-0.7637503295898437,4.254496350097656,15.908396946564885,50.534351145038165,30.259541984732824,0.0
14.050000429153442,-4.551377355957031,-3.1747114013671873,-0.33758243408203126,-48.42748091603053,157.74045801526717,-3.969465648854962,-9.76116016845703,0.30885201416015623,3.835511059570312,24.916030534351144,38.50381679389313,24.458015267175572,0.0
14.060000658035278,-5.65031591796875,-0.40462008056640625,0.8762778076171874,-41.11450381679389,165.23664122137404,-8.885496183206106,-8.705317236328124,0.9074024291992187,4.039018200683594,18.748091603053435,35.20610687022901,21.450381679389313,0.0
14.070152997970581,-6.605602380371093,1.350329736328125,2.6048914062499997,-50.030534351145036,169.3587786259542,-9.267175572519085,-9.255983618164063,-0.3280056274414062,4.893748193359374,12.82442748091603,32.152671755725194,24.15267175572519,0.0
14.080000638961792,-7.311891870117187,2.0278888061523435,3.5027170288085934,-51.786259541984734,168.03053435114504,-7.297709923664122,-7.314286071777343,1.1563994018554686,4.304774584960938,6.137404580152672,28.50381679389313,22.793893129770993,0.0
14.090016841888428,-6.636727001953124,2.473210314941406,4.091690637207031,-50.38167938931298,164.35114503816794,-2.9160305343511452,-7.81467421875,-0.3064578125,4.908113403320312,-7.404580152671755,28.702290076335878,23.282442748091604,0.0
14.100065469741821,-7.101202124023437,-0.13407529296874998,5.84185205078125,-48.70229007633588,160.99236641221373,-1.0381679389312977,-8.573636145019531,-1.7621324218749999,5.9208607055664055,-9.34351145038168,26.946564885496183,21.770992366412212,0.0
14.110003232955933,-7.659051110839843,-0.6847416748046875,6.461950280761719,-40.33587786259542,154.93129770992365,-0.48854961832061067,-8.01818135986328,-2.2266075439453124,5.796362219238281,-10.82442748091603,22.106870229007633,17.572519083969464,0.0
14.120000839233398,-9.081206896972656,-0.9624690673828125,6.667851623535156,-29.206106870229007,148.42748091603053,1.1603053435114503,-8.1594392578125,-2.068590234375,6.543353137207031,-13.648854961832061,17.587786259541986,15.557251908396946,0.0
14.130000591278076,-10.568006127929687,-1.7980454467773437,7.438784558105469,-14.748091603053435,141.31297709923663,2.9160305343511452,-7.8721350585937495,-1.3479355346679687,6.931213806152344,-16.30534351145038,13.206106870229007,15.587786259541986,0.0
14.140000581741333,-11.195286962890624,-2.1212626708984375,7.613561279296874,-6.015267175572519,131.40458015267177,3.7099236641221376,-8.37012900390625,-0.9959878906249999,7.491456994628906,-21.0381679389313,6.885496183206107,15.786259541984732,0.0
14.15000057220459,-12.66053837890625,-2.0638018310546875,9.425971936035156,7.938931297709924,121.45038167938931,3.267175572519084,-8.341398583984375,-0.4213794921875,8.116343627929687,-33.099236641221374,-0.42748091603053434,15.374045801526718,0.0
14.160000562667847,-14.087482568359373,-0.689530078125,11.609483850097655,13.923664122137405,105.54198473282443,2.4122137404580153,-8.164227661132813,-0.5458779785156249,7.50821640625,-43.725190839694655,-6.030534351145038,16.18320610687023,0.0
14.170000314712524,-15.646107849121092,-0.7062894897460937,13.850456604003906,15.221374045801527,82.70229007633588,4.290076335877862,-7.9463553100585935,-1.4317325927734375,6.198588098144531,-55.41984732824427,-9.618320610687023,18.30534351145038,0.0
14.180000305175781,-15.004461804199218,-1.0989385620117187,14.709975,52.70229007633588,70.16793893129771,13.435114503816793,-7.613561279296874,-2.645592834472656,4.031835595703125,-55.64885496183206,-11.374045801526718,18.35114503816794,0.0
14.190000772476196,-13.409923498535155,1.0845733520507812,12.330138549804687,46.12213740458015,44.38167938931298,11.32824427480916,-7.3094976684570305,-4.165910888671875,3.5122938354492184,-42.091603053435115,-7.786259541984733,15.465648854961833,0.0
14.200000524520874,-13.407529296875,1.4915876342773438,8.12113203125,8.396946564885496,19.358778625954198,4.977099236641221,-8.908824377441405,-7.1035963256835934,1.8052280517578123,-19.87786259541985,-5.8320610687022905,17.251908396946565,0.0
14.210000276565552,-12.291831323242187,-0.023942016601562498,4.479551306152343,3.801526717557252,4.809160305343512,7.221374045801527,-8.961496813964843,-6.260837341308593,1.0797849487304687,4.488549618320611,-5.114503816793893,17.450381679389313,0.0
14.220000743865967,-12.382810986328124,-2.166752502441406,4.455609289550781,25.022900763358777,1.6030534351145038,14.198473282442748,-8.94473740234375,-5.240907434082031,0.6919242797851562,24.732824427480917,-0.732824427480916,15.114503816793894,0.0
14.230000495910645,-12.073958972167969,-4.393360046386719,7.307103466796875,65.90839694656489,-0.16793893129770993,21.46564885496183,-9.777919580078125,-4.867411975097656,1.1875240234375,46.54961832061068,5.099236641221374,15.923664122137405,0.0
14.240000486373901,-11.671733093261718,-3.7924154296875,9.80665,120.44274809160305,2.4122137404580153,24.870229007633586,-9.337386474609374,-2.5330653564453125,1.2497732666015624,57.7557251908397,8.076335877862595,16.015267175572518,0.0
14.250000476837158,-9.97184991455078,-0.6057330200195312,8.894459167480468,148.0916030534351,-2.717557251908397,22.213740458015266,-8.12113203125,-0.6368576416015624,1.3455413330078123,49.404580152671755,16.549618320610687,18.38167938931298,0.0
14.260000705718994,-7.56567724609375,1.2401964599609374,6.289567761230469,129.00763358778627,-18.412213740458014,16.091603053435115,-6.885723974609375,1.8004396484374998,2.741360900878906,43.603053435114504,23.19083969465649,22.290076335877863,0.0
14.270000696182251,-8.935160595703124,3.7995980346679685,4.479551306152343,95.02290076335878,-28.977099236641223,13.099236641221374,-9.102754711914063,-0.7254431030273437,4.029441394042968,24.717557251908396,25.83206106870229,30.870229007633586,0.0
14.280000925064087,-10.984597216796875,1.707065783691406,3.2920272827148436,80.80916030534351,-28.458015267175572,16.977099236641223,-9.069235888671875,0.5817910034179687,2.2649147705078123,30.717557251908396,11.893129770992367,27.893129770992367,0.0
14.290000438690186,-15.727510705566406,2.039859814453125,5.7891796142578125,83.45038167938931,-31.572519083969464,32.152671755725194,-10.376469995117187,-0.23223756103515625,2.214636535644531,22.12213740458015,12.412213740458014,30.793893129770993,0.0
14.3000009059906,-16.354791540527344,-1.7884686401367187,6.284779357910156,83.96946564885496,-35.93893129770992,42.091603053435115,-13.390769885253906,-1.7405846069335937,0.8499415893554687,23.206106870229007,5.32824427480916,33.847328244274806,0.0
14.310000658035278,-14.393940380859375,-3.88818349609375,4.565742565917969,80.25954198473282,-40.274809160305345,33.786259541984734,-12.466608044433594,-2.4779987182617185,0.4429273071289062,15.16030534351145,-3.969465648854962,29.557251908396946,0.0
14.320000648498535,-11.987767712402343,-0.8068459594726562,2.0159177978515626,86.3206106870229,-40.19847328244275,21.64885496183206,-13.721169714355469,0.20829554443359374,-3.105279553222656,16.53435114503817,-14.65648854961832,20.641221374045802,0.0
14.330000638961792,-10.302249743652343,1.8770541015625,-1.1252747802734375,72.93129770992367,-41.49618320610687,10.458015267175572,-15.770606335449218,-0.40222587890625,-4.125209460449218,8.65648854961832,-9.98473282442748,14.595419847328245,0.0
14.34000039100647,-7.5153990112304685,-1.6519991455078125,-0.7206546997070312,44.97709923664122,-42.35114503816794,-0.9923664122137404,-14.76025323486328,1.139639990234375,-5.312733483886719,6.412213740458015,-10.030534351145038,3.0229007633587788,0.0
14.350000619888306,-7.156268762207031,-1.8291700683593748,-0.7900865478515624,39.49618320610687,-32.778625954198475,-8.65648854961832,-13.900734838867187,0.8164227661132812,-4.752490295410156,7.236641221374046,-0.16793893129770993,-5.251908396946565,0.0
14.360000371932983,-7.060500695800781,3.6655227416992187,-5.4515971801757805,35.31297709923664,-25.236641221374047,-15.419847328244275,-13.826514587402343,0.7900865478515624,-4.055777612304687,12.396946564885496,6.366412213740458,-10.290076335877863,0.0
14.37000036239624,-8.789114294433594,10.649408984374999,-8.757989672851561,14.305343511450381,-13.969465648854962,-8.900763358778626,-12.411541406249999,1.8363526733398436,-3.766079211425781,14.641221374045802,9.954198473282442,-14.854961832061068,0.0
14.380000591278076,-8.212111694335936,11.738770739746093,-9.586383447265625,-21.480916030534353,-2.0916030534351147,2.564885496183206,-11.741164941406248,3.727771984863281,-2.597708801269531,11.877862595419847,9.664122137404581,-14.702290076335878,0.0
14.390000581741333,-8.353369592285155,10.764330664062498,-8.389282617187499,-71.23664122137404,13.770992366412214,9.877862595419847,-10.721235034179687,2.731784094238281,-2.35589443359375,-9.450381679389313,15.526717557251908,-8.0,0.0
14.40000033378601,-9.066841687011719,7.568071447753906,-7.994239343261718,-114.68702290076335,25.389312977099237,13.099236641221374,-13.053187451171874,-0.24181436767578124,2.04943662109375,-5.419847328244275,16.717557251908396,1.099236641221374,0.0
14.410000801086426,-8.48505068359375,0.00718260498046875,-7.6614453125,-112.53435114503817,45.52671755725191,17.572519083969464,-11.116278308105468,-1.1755530151367186,3.0454245117187497,2.0763358778625953,2.732824427480916,-3.7557251908396947,0.0
14.420000314712524,-9.153032946777342,-3.6487633300781246,-5.341463903808593,-83.19083969465649,64.33587786259542,15.923664122137405,-10.771513269042968,0.6248866333007812,2.463633508300781,22.793893129770993,-9.282442748091603,-12.702290076335878,0.0
14.43000078201294,-11.049240661621093,-2.9927520751953125,-2.454056701660156,-66.70229007633588,75.3587786259542,8.427480916030534,-9.526528405761718,2.4971523315429685,2.9089550170898435,13.16030534351145,-8.412213740458014,-10.992366412213741,0.0
14.440000534057617,-11.164162341308593,-3.1866824096679687,-0.6392518432617187,-73.45038167938931,79.96946564885496,2.4122137404580153,-11.080365283203124,2.703053674316406,3.347093920898437,9.32824427480916,-15.557251908396946,-7.083969465648855,0.0
14.450000524520874,-11.022904443359375,-4.551377355957031,0.23223756103515625,-62.900763358778626,79.90839694656489,-4.687022900763359,-10.172962854003906,3.5697546752929687,3.42849677734375,0.9770992366412213,-16.82442748091603,-7.511450381679389,0.0
14.46000051498413,-11.130643518066405,-4.5968671875,1.1755530151367186,-52.79389312977099,77.6030534351145,-11.206106870229007,-12.416329809570312,0.354341845703125,4.357447021484375,-0.549618320610687,-20.641221374045802,-0.9007633587786259,0.0
14.470000505447388,-10.398017810058594,-4.946420629882812,0.59376201171875,-40.74809160305343,69.02290076335878,-15.801526717557252,-9.430760339355468,2.528276953125,3.0406361083984375,-7.038167938931298,-37.17557251908397,-4.2748091603053435,0.0
14.480000495910645,-11.975796704101562,-0.9959878906249999,1.4221557861328125,-34.62595419847328,61.83206106870229,-17.068702290076335,-9.497797985839844,2.3726538452148436,3.411737365722656,-17.236641221374047,-33.61832061068702,0.8702290076335878,0.0
14.490126609802246,-10.702081420898438,0.38307226562499996,0.9552864624023437,-44.412213740458014,49.43511450381679,-15.465648854961833,-10.065223779296874,1.7932570434570312,3.246537451171875,-20.442748091603054,-37.05343511450382,5.3893129770992365,0.0
14.500000715255737,-11.099518896484375,1.0510545288085937,1.120486376953125,-46.091603053435115,40.99236641221374,-11.435114503816793,-9.64623848876953,-0.17956512451171874,3.957615344238281,-22.35114503816794,-44.99236641221374,5.480916030534351,0.0
14.510000467300415,-9.631873278808593,-1.7812860351562498,0.9840168823242187,-25.740458015267176,31.938931297709924,-6.458015267175573,-7.788338000488281,2.568978381347656,2.1499930908203124,-27.404580152671755,-55.48091603053435,0.5801526717557252,0.0
14.52000093460083,-9.950302099609374,-0.4908113403320312,1.905784521484375,-3.0381679389312977,29.19083969465649,-3.5267175572519083,-9.591171850585937,0.5291185668945312,4.082113830566406,-30.16793893129771,-45.25190839694657,7.221374045801527,0.0
14.530000448226929,-9.277531433105468,0.16280571289062498,2.0757728393554684,6.793893129770993,24.38167938931298,-4.244274809160306,-8.992621435546875,1.3862427612304686,2.185906115722656,-27.984732824427482,-59.465648854961835,3.2977099236641223,0.0
14.540000915527344,-10.66137999267578,4.122815258789062,2.463633508300781,15.633587786259541,20.198473282442748,-5.145038167938932,-7.9295958984374995,0.36391865234375,2.6503812377929687,-35.847328244274806,-46.44274809160305,3.984732824427481,0.0
14.550000667572021,-10.450690246582031,4.201823913574218,2.4660277099609376,-20.82442748091603,7.4961832061068705,-2.9770992366412212,-9.323021264648437,0.22744915771484372,1.1923124267578125,-33.404580152671755,-54.97709923664122,4.259541984732825,0.0
14.560000658035278,-10.893617553710937,3.2058360229492187,1.5538368774414062,-19.603053435114504,-0.16793893129770993,1.7557251908396947,-7.560888842773437,1.5107412475585937,0.8595183959960937,-40.67175572519084,-45.49618320610687,2.4122137404580153,0.0
14.570000410079956,-9.564835632324218,1.197100830078125,2.4588451049804685,-28.35114503816794,-5.0534351145038165,5.938931297709924,-9.823409411621093,-1.7788918334960937,1.24498486328125,-38.70229007633588,-40.56488549618321,5.419847328244275,0.0
14.580000638961792,-8.978256225585938,0.1580173095703125,1.9225439331054686,-11.282442748091603,-6.427480916030534,5.145038167938932,-10.000580334472655,-1.7022773803710936,0.32082302246093747,-20.793893129770993,-43.786259541984734,-0.183206106870229,0.0
14.590000629425049,-8.662221606445312,-0.06464344482421874,2.4205378784179685,9.114503816793894,-5.435114503816794,4.366412213740458,-8.137891442871092,0.24899697265624998,-0.45968671875,-24.442748091603054,-38.152671755725194,-4.473282442748092,0.0
14.600000381469727,-10.726023437499999,1.8842367065429686,2.403778466796875,9.587786259541986,-2.8702290076335877,0.2595419847328244,-10.386046801757812,-1.9967641845703124,0.6464344482421874,-14.992366412213741,-27.358778625954198,-0.7480916030534351,0.0
14.610000610351562,-10.35492218017578,2.5258827514648434,2.1643583007812497,11.206106870229007,-2.4732824427480917,-0.6870229007633588,-10.89122335205078,-2.9185318237304685,0.9361328491210937,8.213740458015268,-29.221374045801525,-3.7251908396946565,0.0
14.62000060081482,-8.767566479492187,-0.24899697265624998,1.0917559570312498,20.3206106870229,-4.015267175572519,2.015267175572519,-10.031704956054687,-2.0446482177734375,0.3136404174804687,20.778625954198475,-34.656488549618324,-11.694656488549619,0.0
14.630000591278076,-9.622296472167967,0.9265560424804687,1.5059528442382812,35.847328244274806,-0.32061068702290074,1.5725190839694656,-8.470685473632813,-0.34715924072265625,0.1197100830078125,28.931297709923665,-31.52671755725191,-15.908396946564885,0.0
14.640000581741333,-9.859322436523437,2.741360900878906,0.967257470703125,21.17557251908397,-2.2290076335877864,0.183206106870229,-8.777143286132812,0.34715924072265625,0.8164227661132812,33.55725190839695,-22.30534351145038,-14.488549618320612,0.0
14.65000033378601,-9.773131176757811,3.689464758300781,0.507570751953125,10.931297709923664,-1.7404580152671756,3.1755725190839694,-9.227253198242186,-0.6607996582031249,1.4508862060546874,32.36641221374046,-13.84732824427481,-9.84732824427481,0.0
14.660000562667847,-9.248801013183593,1.6136919189453125,0.5506663818359374,2.2290076335877864,-1.4809160305343512,4.8396946564885495,-9.117119921875,-1.0893617553710937,0.8188169677734375,41.20610687022901,-19.099236641221374,-11.908396946564885,0.0
14.670000314712524,-9.179369165039063,0.24899697265624998,-0.17956512451171874,10.213740458015268,0.12213740458015267,5.603053435114504,-8.88009395751953,-0.6416460449218749,1.189918225097656,48.458015267175576,-14.748091603053435,-14.427480916030534,0.0
14.68000054359436,-8.437166650390624,1.2928688964843749,-0.3711012573242187,15.709923664122137,4.977099236641221,3.2213740458015265,-8.528146313476562,-0.35673604736328124,1.5658078857421873,52.19847328244275,-14.732824427480915,-14.67175572519084,0.0
14.690000772476196,-9.277531433105468,0.17477672119140625,-2.114080065917969,-2.015267175572519,2.5801526717557253,1.9236641221374047,-8.939948999023438,0.30406361083984373,1.7238251953125,58.045801526717554,-13.709923664122137,-14.396946564885496,0.0
14.700000524520874,-9.323021264648437,1.5275006591796874,-1.22583125,-8.687022900763358,3.969465648854962,2.6412213740458017,-8.396465222167969,0.7972691528320313,1.6160861206054686,55.86259541984733,-13.48091603053435,-13.908396946564885,0.0
14.71000051498413,-9.835380419921874,1.0845733520507812,-1.3551181396484375,-12.702290076335878,5.175572519083969,0.42748091603053434,-8.896853369140624,1.4437036010742186,1.7310078002929687,49.00763358778626,-11.755725190839694,-11.450381679389313,0.0
14.720000505447388,-9.849745629882811,0.8283937744140625,-0.8355763793945312,-14.870229007633588,7.297709923664122,0.33587786259541985,-8.262389929199218,1.8171990600585937,1.5705962890624998,43.49618320610687,-9.145038167938932,-10.396946564885496,0.0
14.730000495910645,-9.78031378173828,-0.17238251953125,-0.5746083984375,-14.549618320610687,8.274809160305344,0.0916030534351145,-8.947131604003905,1.9847931762695312,1.7429788085937499,40.412213740458014,-8.946564885496183,-7.587786259541985,0.0
14.740000486373901,-8.623914379882812,-2.2074539306640624,0.1292868896484375,5.190839694656488,14.778625954198473,-1.465648854961832,-8.355763793945313,1.867477294921875,1.7477672119140624,32.13740458015267,-6.473282442748092,-6.320610687022901,0.0
14.750000476837158,-9.907206469726562,-1.7190367919921874,0.23223756103515625,12.16793893129771,18.47328244274809,-6.717557251908397,-9.131485131835937,1.5945383056640625,2.152387292480469,30.916030534351144,-4.931297709923665,-5.0534351145038165,0.0
14.760000705718994,-11.089942089843749,0.24181436767578124,1.0534487304687499,18.580152671755727,20.244274809160306,-9.954198473282442,-8.789114294433594,1.8028338500976562,2.250549560546875,25.83206106870229,-3.3282442748091605,-4.549618320610687,0.0
14.770000696182251,-9.923965881347655,0.8667010009765624,-0.296881005859375,13.740458015267176,15.801526717557252,-9.358778625954198,-9.284714038085937,1.7238251953125,2.4205378784179685,20.946564885496183,-2.33587786259542,-4.0,0.0
14.780000925064087,-9.708487731933593,0.40462008056640625,-0.3280056274414062,5.282442748091603,11.358778625954198,-8.290076335877863,-9.13627353515625,1.8124106567382812,2.29843359375,13.557251908396946,-0.9618320610687023,-3.053435114503817,0.0
