timestamp,Thigh_L_Acc_X,Thigh_L_Acc_Y,Thigh_L_Acc_Z,Thigh_L_Gyr_X,Thigh_L_Gyr_Y,Thigh_L_Gyr_Z,Thigh_R_Acc_X,Thigh_R_Acc_Y,Thigh_R_Acc_Z,Thigh_R_Gyr_X,Thigh_R_Gyr_Y,Thigh_R_Gyr_Z,gpio_output
10.000000476837158,-7.541735229492187,-0.3280056274414062,-0.29448680419921874,23.435114503816795,69.26717557251908,-17.51145038167939,-11.643002673339844,2.0661960327148434,2.0661960327148434,-13.770992366412214,-10.305343511450381,6.656488549618321,0.0
10.010000705718994,-8.655039001464843,0.12689268798828124,0.9576806640625,47.70992366412214,86.41221374045801,-19.64885496183206,-12.899958544921875,2.0159177978515626,2.0925322509765625,-23.206106870229007,-14.717557251908397,4.748091603053435,1.0
10.020000696182251,-10.419565624999999,5.329492895507812,1.89620771484375,34.61068702290076,92.18320610687023,-26.900763358778626,-10.685322009277343,-0.00718260498046875,3.4811692138671875,-26.50381679389313,-13.526717557251908,5.7251908396946565,1.0
10.030000925064087,-12.528857287597656,7.654262707519531,1.66636435546875,14.977099236641221,92.3206106870229,-21.6793893129771,-9.572018237304688,-0.8954314208984374,2.442085693359375,-23.251908396946565,-31.6793893129771,0.030534351145038167,1.0
10.040000677108765,-9.179369165039063,5.260061047363281,1.43652099609375,2.0916030534351147,92.93129770992367,-9.312977099236642,-9.595960253906249,0.9217676391601562,2.1835119140624997,-32.70229007633588,-33.19083969465649,-4.5038167938931295,1.0
10.05000114440918,-9.334992272949219,3.478775012207031,2.942473840332031,-2.122137404580153,98.07633587786259,-6.442748091603053,-8.750807067871094,0.5339069702148437,0.8068459594726562,-46.50381679389313,-39.29770992366412,-7.236641221374046,1.0
10.060000658035278,-7.532158422851562,1.5179238525390624,1.7453730102539062,-9.633587786259541,94.45801526717557,-7.099236641221374,-9.176974963378905,-0.062249243164062495,1.8243816650390623,-50.79389312977099,-39.221374045801525,-9.725190839694656,1.0
10.070000886917114,-8.623914379882812,0.6751648681640625,2.0087351928710935,0.3511450381679389,99.26717557251908,-5.099236641221374,-10.034099157714843,-1.687912170410156,1.4915876342773438,-46.67175572519084,-49.16030534351145,-13.419847328244275,1.0
10.080000638961792,-7.3094976684570305,-0.3112462158203125,1.43652099609375,8.076335877862595,96.47328244274809,-5.32824427480916,-10.237606298828124,-1.8124106567382812,2.0470424194335934,-34.35114503816794,-56.70229007633588,-19.068702290076335,1.0
10.09000039100647,-8.853757739257812,1.2401964599609374,2.73896669921875,17.419847328244273,100.9618320610687,-4.3816793893129775,-8.82981572265625,-0.43574470214843747,0.07422025146484375,-34.16793893129771,-61.343511450381676,-25.46564885496183,1.0
10.100000619888306,-10.848127722167968,3.246537451171875,4.747701892089843,-2.8091603053435112,93.83206106870229,-7.343511450381679,-7.486668591308593,2.0254946044921875,-1.6998831787109374,-32.045801526717554,-60.88549618320611,-30.15267175572519,1.0
10.110000848770142,-10.89122335205078,4.115632653808594,4.800374328613281,-32.94656488549618,77.81679389312977,-6.580152671755725,-9.95987890625,-0.42377369384765623,-0.14125789794921875,-27.46564885496183,-58.47328244274809,-25.923664122137403,1.0
10.12000036239624,-8.473079675292968,0.7493851196289062,3.1196447631835937,-37.954198473282446,68.3969465648855,-4.122137404580153,-8.415618835449218,2.1978771240234374,-2.233790148925781,-19.19083969465649,-59.6793893129771,-28.870229007633586,1.0
10.130000829696655,-8.916006982421875,-1.3455413330078123,3.3327287109375,-25.114503816793892,68.58015267175573,-0.3816793893129771,-6.083666418457031,4.675875842285156,-4.120421057128906,-21.709923664122137,-51.23664122137404,-25.480916030534353,1.0
10.140000343322754,-7.199364392089843,-3.4739866088867184,2.308010400390625,-10.13740458015267,66.30534351145039,-0.8091603053435115,-7.987056738281249,2.039859814453125,-3.009511486816406,-16.946564885496183,-37.70992366412214,-13.84732824427481,1.0
10.15000057220459,-7.256825231933593,-3.047818713378906,1.2401964599609374,25.709923664122137,72.80916030534351,-1.3435114503816794,-8.173804467773436,0.7924807495117187,-2.8012159423828122,3.66412213740458,-36.412213740458014,-11.908396946564885,1.0
10.160000801086426,-8.702923034667968,-1.8531120849609375,1.3766659545898436,38.961832061068705,74.12213740458016,-6.091603053435114,-7.429207751464843,-0.35673604736328124,-2.952050646972656,17.297709923664122,-30.16793893129771,-12.0,1.0
10.170000314712524,-10.409988818359375,1.024718310546875,1.2521674682617188,27.14503816793893,72.21374045801527,-12.900763358778626,-6.983886242675781,0.7493851196289062,-1.9991583862304687,21.770992366412212,-20.061068702290076,-10.229007633587786,1.0
10.18000078201294,-11.116278308105468,3.507505432128906,0.9935936889648437,-2.2748091603053435,65.58778625954199,-17.801526717557252,-7.563283044433593,1.024718310546875,-1.7717092285156248,18.870229007633586,-14.366412213740459,-5.267175572519084,1.0
10.190000295639038,-10.429142431640624,2.4851813232421875,0.01915361328125,-24.900763358778626,61.66412213740458,-18.137404580152673,-8.702923034667968,0.6105214233398437,-1.5490484741210937,22.50381679389313,-12.580152671755725,-1.7251908396946565,1.0
10.200000762939453,-10.505756884765624,1.1156979736328125,0.258573779296875,-30.99236641221374,59.52671755725191,-18.916030534351144,-8.686163623046875,0.41419688720703124,-0.74699091796875,25.755725190839694,-8.335877862595419,-2.687022900763359,1.0
10.21000051498413,-9.516951599121093,-0.3016694091796875,0.19632453613281248,-30.106870229007633,60.44274809160305,-19.206106870229007,-8.853757739257812,0.584185205078125,-1.4939818359375,29.587786259541986,-13.816793893129772,-6.244274809160306,0.0
10.220000505447388,-12.203245861816406,2.0661960327148434,1.9416975463867185,-29.297709923664122,60.19847328244275,-21.053435114503817,-10.819397302246093,-1.0414777221679687,0.8882488159179687,31.480916030534353,-10.778625954198473,-4.870229007633588,0.0
10.230000495910645,-10.417171423339843,1.1013327636718748,-0.047884033203124995,-39.083969465648856,51.404580152671755,-20.442748091603054,-10.36210478515625,-0.5889736083984375,1.7477672119140624,36.50381679389313,-13.770992366412214,-10.13740458015267,0.0
10.240000486373901,-12.00213292236328,4.448426684570312,3.4859576171874997,-44.229007633587784,53.66412213740458,-20.763358778625953,-11.18571015625,-2.0733786376953125,2.7461493041992187,46.06106870229008,-21.72519083969466,-14.83969465648855,0.0
10.250000476837158,-9.07163009033203,0.062249243164062495,0.26815058593749996,-59.74045801526717,40.99236641221374,-17.755725190839694,-9.344569079589844,1.3168109130859373,1.1827356201171875,46.152671755725194,-36.12213740458015,-24.641221374045802,0.0
10.260000705718994,-10.199299072265624,1.6328455322265625,1.446097802734375,-48.6412213740458,40.732824427480914,-13.114503816793894,-10.199299072265624,1.1420341918945311,3.4261025756835934,33.7557251908397,-30.671755725190838,-20.3206106870229,0.0
10.270000696182251,-8.221688500976562,-0.3280056274414062,1.8722656982421875,-43.41984732824427,39.63358778625954,-13.083969465648854,-10.488997473144531,1.5514426757812498,2.6910826660156246,30.229007633587788,-41.66412213740458,-21.938931297709924,0.0
10.280000686645508,-8.980650427246093,0.9576806640625,0.7015010864257812,-34.6412213740458,37.41984732824427,-13.16030534351145,-8.188169677734374,3.5506010620117183,1.7381904052734374,13.297709923664122,-41.587786259541986,-26.99236641221374,0.0
10.290000915527344,-11.808202587890625,3.852270471191406,1.9225439331054686,-46.56488549618321,35.16030534351145,-16.27480916030534,-10.129867224121092,0.48123453369140623,3.5051112304687497,3.9389312977099236,-36.0763358778626,-20.33587786259542,0.0
10.300000429153442,-10.888829150390624,2.214636535644531,0.9983820922851562,-52.10687022900763,29.52671755725191,-15.221374045801527,-9.009380847167968,1.68551796875,2.1643583007812497,0.13740458015267176,-44.2442748091603,-24.549618320610687,0.0
10.310000896453857,-9.91438907470703,1.714248388671875,1.3575123413085937,-44.56488549618321,30.946564885496183,-11.068702290076336,-7.730877160644531,2.109291662597656,1.429338391113281,-12.335877862595419,-39.786259541984734,-25.52671755725191,0.0
10.320000648498535,-9.81862100830078,2.3032219970703123,2.0350714111328125,-50.656488549618324,27.893129770992367,-10.580152671755725,-10.007762939453125,0.38786066894531246,1.6232687255859375,-17.81679389312977,-34.656488549618324,-20.9618320610687,0.0
10.330000877380371,-10.982203015136719,2.8203695556640622,1.6112977172851561,-59.725190839694655,21.14503816793893,-11.938931297709924,-10.268730920410155,-0.181959326171875,2.1212626708984375,-12.641221374045802,-37.86259541984733,-22.38167938931298,0.0
10.34000039100647,-11.137826123046874,2.27927998046875,2.1835119140624997,-52.595419847328245,20.885496183206108,-8.549618320610687,-9.344569079589844,0.16280571289062498,0.9097966308593749,-6.5038167938931295,-40.44274809160305,-26.68702290076336,0.0
10.350000381469727,-8.343792785644531,-0.5698199951171875,0.8667010009765624,-52.900763358778626,13.038167938931299,-4.015267175572519,-8.087613208007811,1.3096283081054687,-0.009576806640625,-10.992366412213741,-38.25954198473283,-27.00763358778626,0.0
10.360000610351562,-10.17056865234375,2.0973206542968748,2.2002713256835937,-50.656488549618324,10.213740458015268,-2.687022900763359,-10.91037696533203,-0.3711012573242187,1.455674609375,-8.946564885496183,-29.893129770992367,-20.83969465648855,0.0
10.37000060081482,-10.75714805908203,1.5801730957031248,2.269703173828125,-60.70229007633588,3.450381679389313,-3.8625954198473282,-10.556035119628906,-0.8020575561523438,0.7230489013671875,-0.5343511450381679,-34.35114503816794,-23.908396946564885,0.0
10.380000591278076,-9.842563024902343,0.8092401611328125,1.120486376953125,-42.19847328244275,0.7786259541984732,0.8854961832061069,-9.792284790039062,-0.2442085693359375,1.0175357055664063,12.885496183206106,-37.70992366412214,-27.404580152671755,0.0
10.390000581741333,-8.978256225585938,-0.2346317626953125,1.0438719238281249,-31.16030534351145,0.8702290076335878,1.5877862595419847,-7.656656909179687,1.6903063720703124,0.16280571289062498,10.534351145038167,-36.83969465648855,-27.053435114503817,0.0
10.40000057220459,-9.883264453125,1.7741034301757812,1.5418658691406248,-26.763358778625953,2.900763358778626,0.22900763358778625,-9.911994873046874,0.296881005859375,1.4341267944335936,12.916030534351146,-31.14503816793893,-20.916030534351144,0.0
10.410000562667847,-9.634267480468749,2.3127988037109373,0.6823474731445313,-36.2442748091603,-0.6717557251908397,-2.198473282442748,-10.1131078125,0.6823474731445313,1.7501614135742187,23.358778625954198,-33.89312977099237,-21.984732824427482,0.0
10.420000791549683,-8.741230261230468,0.6368576416015624,-0.9409212524414062,-26.793893129770993,0.8396946564885496,1.8015267175572518,-8.0062103515625,2.408566870117187,0.8595183959960937,22.198473282442748,-32.51908396946565,-22.47328244274809,0.0
10.43000054359436,-8.564059338378906,-0.5243301635742187,0.46686932373046874,-15.572519083969466,10.274809160305344,2.0916030534351147,-7.790732202148437,2.47081611328125,0.5578489868164063,10.549618320610687,-25.297709923664122,-16.427480916030536,0.0
10.440000772476196,-8.528146313476562,-1.2042834350585936,0.5099649536132812,-8.83969465648855,13.98473282442748,-0.4580152671755725,-10.084377392578125,1.908178723144531,1.2282254516601563,6.595419847328245,-18.900763358778626,-10.381679389312977,0.0
10.450000524520874,-9.344569079589844,1.898601916503906,0.814028564453125,-5.022900763358779,15.221374045801527,-4.717557251908397,-9.363722692871093,1.649604943847656,1.458068811035156,0.8702290076335878,-11.389312977099237,-8.80916030534351,0.0
10.46000075340271,-10.105925207519531,2.5354595581054684,0.9241618408203125,-36.38167938931298,9.16030534351145,-7.603053435114504,-10.192116467285155,0.5985504150390625,2.070984436035156,8.213740458015268,-11.282442748091603,-7.603053435114504,0.0
10.470000267028809,-9.667786303710937,0.2753331909179687,-0.5099649536132812,-21.374045801526716,8.488549618320612,-0.15267175572519084,-9.258377819824219,1.695094775390625,0.967257470703125,8.320610687022901,-16.412213740458014,-9.893129770992367,0.0
10.480000257492065,-8.882488159179687,-2.147598889160156,-0.19632453613281248,-3.114503816793893,12.229007633587786,2.9160305343511452,-10.158597644042969,0.7254431030273437,2.3151930053710936,5.480916030534351,-7.511450381679389,-5.0534351145038165,0.0
10.490000486373901,-9.234435803222656,-1.8746598999023436,0.10773907470703124,18.015267175572518,15.938931297709924,-3.0839694656488548,-9.91438907470703,1.4053963745117186,1.9393033447265624,5.709923664122138,-10.641221374045802,-4.809160305343512,0.0
10.500000476837158,-8.88009395751953,0.45968671875,0.38307226562499996,25.419847328244273,19.740458015267176,-8.778625954198473,-9.157821350097656,1.5490484741210937,1.8818425048828125,4.2748091603053435,-8.351145038167939,-5.374045801526718,0.0
10.510000705718994,-8.836998327636719,1.7453730102539062,-1.120486376953125,23.66412213740458,17.0381679389313,-9.48091603053435,-10.575188732910156,1.0438719238281249,2.6479870361328124,4.519083969465649,-8.15267175572519,-3.2213740458015265,0.0
10.520000696182251,-10.022128149414062,1.8531120849609375,-1.4030021728515625,26.229007633587788,18.65648854961832,-7.465648854961832,-10.199299072265624,1.3335703247070312,2.7629087158203123,0.21374045801526717,-7.022900763358779,-3.6793893129770994,0.0
10.530000925064087,-11.298237634277344,2.5426421630859375,0.21308394775390624,19.450381679389313,22.595419847328245,-7.801526717557252,-9.392453112792968,1.6256629272460936,2.370259643554687,-3.984732824427481,-7.480916030534351,-4.183206106870229,0.0
10.540000677108765,-9.289502441406249,2.480392919921875,-0.6751648681640625,10.13740458015267,17.954198473282442,-6.351145038167939,-9.734823950195311,1.3670891479492187,2.3774422485351563,-6.488549618320611,-8.030534351145038,-3.2977099236641223,0.0
10.55000114440918,-8.573636145019531,1.0366893188476562,-1.2569558715820313,3.648854961832061,18.702290076335878,-4.778625954198473,-10.012551342773437,1.2689268798828124,2.2864625854492187,-9.877862595419847,-7.3893129770992365,-3.312977099236641,0.0
10.560000658035278,-8.451531860351562,0.031124621582031248,-1.2378022583007813,2.8244274809160306,18.671755725190838,-4.442748091603053,-10.168174450683592,1.0366893188476562,2.2290017456054687,-13.450381679389313,-5.938931297709924,-3.236641221374046,0.0
10.570000886917114,-9.809044201660155,1.2114660400390624,-0.3711012573242187,-1.297709923664122,18.50381679389313,-8.488549618320612,-9.440337145996093,1.1659762084960936,1.599326708984375,-17.389312977099237,-4.641221374045801,-4.122137404580153,0.0
10.580000400543213,-10.081983190917969,0.354341845703125,0.14604630126953125,4.5038167938931295,20.564885496183205,-11.16030534351145,-10.189722265624999,0.39983167724609375,1.7166425903320313,-15.450381679389313,-2.4732824427480917,-2.519083969465649,0.0
10.590000629425049,-10.158597644042969,0.5506663818359374,0.3064578125,-1.6488549618320612,17.297709923664122,-12.061068702290076,-9.555258825683593,0.3232172241210937,1.37906015625,-14.51908396946565,-0.5038167938931297,-3.435114503816794,0.0
10.600000381469727,-10.141838232421874,-0.3016694091796875,0.06703764648437499,10.977099236641221,18.778625954198475,-12.854961832061068,-9.208099584960937,0.01915361328125,1.1540052001953125,-14.01526717557252,0.7480916030534351,-3.6946564885496183,0.0
10.610000610351562,-10.742782849121093,1.7812860351562498,0.51714755859375,3.3740458015267176,15.099236641221374,-14.488549618320612,-9.457096557617186,-0.3136404174804687,1.2641384765625,-9.206106870229007,3.145038167938931,-3.8931297709923665,0.0
10.62000036239624,-10.70686982421875,1.1875240234375,0.0143652099609375,9.236641221374045,14.396946564885496,-14.564885496183207,-9.255983618164063,-0.4165910888671875,1.3311761230468748,-8.885496183206106,5.3893129770992365,-4.977099236641221,0.0
10.630000591278076,-9.627084875488281,0.7805097412109374,-0.06464344482421874,12.67175572519084,13.679389312977099,-12.045801526717558,-9.167398156738281,-0.4261678955078125,1.2617442749023438,-4.793893129770993,7.404580152671755,-5.984732824427481,0.0
10.640000581741333,-9.667786303710937,0.8379705810546875,-0.1197100830078125,14.80916030534351,12.82442748091603,-13.221374045801527,-9.100360510253905,-0.0143652099609375,1.3479355346679687,-1.2366412213740459,9.022900763358779,-6.549618320610687,0.0
10.65000057220459,-9.603142858886718,1.149216796875,0.076614453125,18.47328244274809,13.450381679389313,-12.992366412213741,-8.741230261230468,0.18435352783203124,1.1372457885742187,3.5419847328244276,11.603053435114504,-6.259541984732825,0.0
10.660000801086426,-9.665392102050781,1.2808978881835937,0.30406361083984373,18.366412213740457,12.458015267175572,-12.916030534351146,-8.48505068359375,0.25139117431640623,0.9696516723632812,6.519083969465649,14.335877862595419,-4.702290076335878,0.0
10.670000553131104,-9.5384994140625,1.177947216796875,0.33518823242187495,19.557251908396946,12.122137404580153,-12.15267175572519,-8.532934716796875,-0.6392518432617187,1.5083470458984374,9.83206106870229,18.15267175572519,-2.7022900763358777,0.0
10.68000078201294,-9.117119921875,0.7781155395507812,0.7134720947265625,21.053435114503817,10.748091603053435,-12.549618320610687,-8.188169677734374,-0.3232172241210937,1.0127473022460938,16.076335877862597,17.31297709923664,-4.33587786259542,0.0
10.690000534057617,-9.459490759277344,0.8858546142578124,0.8882488159179687,20.580152671755727,9.709923664122137,-13.19083969465649,-8.123526232910155,-0.5626373901367188,1.0223241088867188,19.633587786259543,18.15267175572519,-4.229007633587786,0.0
10.700000524520874,-9.89523546142578,1.0007762939453124,1.2306196533203124,21.19083969465649,8.900763358778626,-14.335877862595419,-8.113949426269532,-0.7852981445312499,1.2785036865234374,21.81679389312977,18.793893129770993,-3.572519083969466,0.0
10.71000051498413,-9.804255798339844,0.9217676391601562,1.7405846069335937,19.587786259541986,6.564885496183206,-14.900763358778626,-7.613561279296874,-0.7924807495117187,1.3072341064453123,24.061068702290076,18.702290076335878,-3.648854961832061,0.0
10.720000505447388,-10.433930834960936,1.2737152832031249,2.437297290039062,16.900763358778626,3.2061068702290076,-15.17557251908397,-7.3094976684570305,-0.7709329345703124,1.3575123413085937,23.755725190839694,18.717557251908396,-3.969465648854962,0.0
10.730000734329224,-10.01733974609375,1.1156979736328125,2.7629087158203123,18.16793893129771,-0.3816793893129771,-14.870229007633588,-6.6343328002929685,-0.0526724365234375,0.8810662109374999,20.427480916030536,18.3206106870229,-3.66412213740458,0.0
10.74000072479248,-9.586383447265625,1.3862427612304686,3.0214824951171875,13.679389312977099,-5.00763358778626,-13.679389312977099,-5.410895751953125,1.0271125122070313,0.45010991210937495,11.007633587786259,25.938931297709924,-1.633587786259542,0.0
10.750000476837158,-9.552864624023437,1.3838485595703125,3.6559459350585937,8.488549618320612,-8.748091603053435,-12.641221374045802,-5.307945080566406,0.9840168823242187,-0.6248866333007812,1.1450381679389312,28.732824427480917,2.0763358778625953,0.0
10.760000705718994,-9.557653027343749,1.5394716674804687,4.790797521972656,2.519083969465649,-14.793893129770993,-11.007633587786259,-4.900930798339844,1.66636435546875,-0.39743747558593745,-0.9923664122137404,33.55725190839695,4.366412213740458,0.0
10.770000457763672,-9.509768994140625,1.0773907470703123,5.88015927734375,4.961832061068702,-24.396946564885496,-8.0,-6.526593725585937,0.24899697265624998,0.06703764648437499,3.1908396946564888,32.595419847328245,5.435114503816794,0.0
10.780000686645508,-11.341333264160156,2.422932080078125,8.015787158203125,-0.030534351145038167,-38.67175572519084,-6.8396946564885495,-9.035717065429687,-0.6584054565429687,2.6144682128906247,3.2977099236641223,31.435114503816795,1.1145038167938932,0.0
10.790000915527344,-10.692504614257812,2.0350714111328125,9.244012609863281,-2.427480916030534,-60.29007633587786,-4.290076335877862,-9.85692823486328,-4.393360046386719,1.9129671264648436,0.9618320610687023,24.595419847328245,-4.931297709923665,0.0
10.800000667572021,-11.982979309082031,2.166752502441406,10.120290417480469,-7.145038167938932,-80.62595419847328,-2.9770992366412212,-9.765948571777344,-1.5777788940429687,0.40940848388671874,-0.4732824427480916,28.65648854961832,-10.732824427480915,0.0
10.810000896453857,-11.812990991210937,1.0223241088867188,10.963049401855468,-13.86259541984733,-101.69465648854961,-0.33587786259541985,-9.05965908203125,1.8363526733398436,-0.7876923461914062,-5.816793893129771,21.81679389312977,-10.51908396946565,0.0
10.820000648498535,-12.428300817871094,1.7669208251953124,10.426748229980468,-15.145038167938932,-121.12977099236642,1.2061068702290076,-10.534487304687499,1.0414777221679687,2.868253588867187,-22.015267175572518,35.49618320610687,-1.450381679389313,0.0
10.830000638961792,-12.811373083496093,0.8978256225585937,9.244012609863281,-11.32824427480916,-138.83969465648855,0.6717557251908397,-11.506533178710937,3.296815686035156,3.086125939941406,-32.50381679389313,37.786259541984734,-0.21374045801526717,0.0
10.840000629425049,-13.555969799804688,-1.2976572998046874,7.105990527343749,1.450381679389313,-151.9236641221374,3.435114503816794,-15.562310791015625,-0.9528922607421875,8.164227661132813,-22.061068702290076,41.66412213740458,5.587786259541985,0.0
10.850000381469727,-14.659696765136719,-3.5434184570312497,6.095637426757812,30.916030534351144,-160.99236641221373,1.3587786259541985,-8.623914379882812,1.4891934326171874,2.91134921875,-25.17557251908397,30.259541984732824,-3.282442748091603,0.0
10.860000610351562,-17.132907080078123,-4.07971962890625,4.915296008300781,59.80152671755725,-166.6412213740458,5.786259541984733,-11.456254943847656,-0.7350199096679687,3.5242648437499997,-21.435114503816795,26.213740458015266,1.3893129770992367,0.0
10.87000060081482,-17.901445812988282,-3.6056677001953124,3.2537200561523436,88.41221374045801,-167.54198473282443,9.419847328244275,-9.294290844726563,-1.2808978881835937,2.3343466186523436,-39.63358778625954,31.72519083969466,2.2595419847328246,0.0
10.880000591278076,-17.149666491699218,-1.9680337646484374,1.3646949462890625,91.69465648854961,-164.38167938931298,13.099236641221374,-7.989450939941406,0.3399766357421875,-1.0007762939453124,-42.38167938931298,10.13740458015267,-0.3511450381679389,0.0
10.890000581741333,-16.15367860107422,3.459621398925781,-2.221819140625,81.81679389312977,-160.8854961832061,13.511450381679388,-10.292672937011718,0.08379705810546874,0.7517793212890624,-103.37404580152672,50.900763358778626,7.572519083969466,0.0
10.90000057220459,-13.996502905273436,3.296815686035156,-2.7581203125,41.954198473282446,-157.66412213740458,16.65648854961832,-10.733206042480468,-2.511517541503906,0.8307879760742187,-78.9618320610687,38.76335877862596,12.427480916030534,0.0
10.910000562667847,-12.629413757324219,1.9536685546875,-3.9911341674804683,27.099236641221374,-148.12213740458014,21.84732824427481,-10.378864196777343,-1.5155296508789062,-3.0837317382812497,-48.778625954198475,22.38167938931298,11.648854961832061,0.0
10.920000314712524,-10.184933862304687,-1.8004396484374998,-3.342305517578125,28.396946564885496,-136.53435114503816,23.81679389312977,-10.077194787597655,-1.9608511596679685,-4.412513659667969,-49.16030534351145,40.30534351145038,12.351145038167939,0.0
10.930000305175781,-9.481038574218749,-3.7229835815429686,-2.3056161987304686,15.34351145038168,-126.56488549618321,16.015267175572518,-11.477802758789062,-3.009511486816406,-3.2537200561523436,-12.122137404580153,30.610687022900763,12.580152671755725,0.0
10.940000772476196,-9.725247143554688,-2.6671406494140624,-1.7932570434570312,15.908396946564885,-116.1526717557252,8.01526717557252,-10.548852514648438,-1.7573440185546874,-4.101267443847656,-6.0458015267175576,36.44274809160305,13.267175572519085,0.0
10.950000286102295,-10.151415039062499,-1.0223241088867188,-0.37828386230468747,15.893129770992367,-107.64885496183206,4.259541984732825,-11.796231579589843,-1.1755530151367186,-3.1675287963867187,12.045801526717558,36.01526717557252,14.564885496183207,0.0
10.96000075340271,-10.335768566894531,1.4963760375976562,1.2497732666015624,15.801526717557252,-100.93129770992367,5.083969465648855,-10.448296044921875,0.5674257934570313,-3.756502404785156,7.0534351145038165,44.30534351145038,13.725190839694656,0.0
10.970000505447388,-10.874463940429687,0.296881005859375,1.4891934326171874,14.748091603053435,-97.66412213740458,10.458015267175572,-12.373234179687499,-1.4173673828125,-0.5195417602539062,26.763358778625953,38.85496183206107,15.114503816793894,0.0
10.980000495910645,-10.58476553955078,-0.5434837768554687,1.8722656982421875,17.419847328244273,-94.73282442748092,10.748091603053435,-11.6837041015625,1.1228805786132812,-1.714248388671875,44.732824427480914,34.10687022900763,12.030534351145038,0.0
10.990000486373901,-10.09395419921875,0.062249243164062495,2.482787121582031,12.091603053435115,-95.26717557251908,9.511450381679388,-10.862492932128905,3.383006945800781,-2.6862942626953124,32.961832061068705,41.98473282442748,12.778625954198473,0.0
11.000000238418579,-9.662997900390625,0.5195417602539062,2.5139117431640625,1.5877862595419847,-95.81679389312977,8.931297709923664,-11.030087048339842,1.7549498168945312,-0.7829039428710937,16.625954198473284,47.23664122137404,18.595419847328245,0.0
11.010000705718994,-9.821015209960937,0.38307226562499996,2.04943662109375,-3.877862595419847,-97.08396946564885,8.198473282442748,-10.127473022460936,0.7517793212890624,0.4477157104492187,32.274809160305345,39.221374045801525,23.31297709923664,0.0
11.020000696182251,-9.773131176757811,-0.17956512451171874,1.879448303222656,-1.450381679389313,-96.09160305343511,9.48091603053435,-8.449137658691406,2.138022082519531,-1.0630255371093749,42.47328244274809,29.083969465648856,23.00763358778626,0.0
11.030000448226929,-8.319850769042969,-1.5346832641601562,1.254561669921875,2.549618320610687,-93.37404580152672,11.32824427480916,-10.433930834960936,0.7661445312499999,-0.28730419921875,45.70992366412214,27.603053435114504,22.106870229007633,0.0
11.040000677108765,-7.371746911621093,-1.438915197753906,1.618480322265625,9.725190839694656,-83.45038167938931,8.748091603053435,-10.345345373535155,0.37828386230468747,0.009576806640625,35.7557251908397,30.213740458015266,19.31297709923664,0.0
11.0500009059906,-7.283161450195312,0.03591302490234375,2.104503259277344,-2.6564885496183206,-80.19847328244275,3.877862595419847,-9.440337145996093,1.0342951171875,-0.622492431640625,27.572519083969464,28.229007633587788,17.114503816793892,0.0
11.0600004196167,-5.681440539550781,-0.6248866333007812,2.0661960327148434,-5.9541984732824424,-75.3587786259542,3.480916030534351,-10.77630167236328,-1.0654197387695312,1.1420341918945311,18.595419847328245,36.0763358778626,20.748091603053435,0.0
11.070000648498535,-5.236119030761718,-1.0773907470703123,2.6791116577148437,-0.07633587786259542,-65.23664122137404,1.6488549618320612,-9.751583361816406,-0.24660277099609373,0.8834604125976562,26.290076335877863,30.458015267175572,19.480916030534353,0.0
11.080000638961792,-5.755660791015624,-0.29448680419921874,3.27526787109375,5.8320610687022905,-57.3587786259542,-1.3740458015267176,-9.351751684570312,0.507570751953125,-0.03591302490234375,21.31297709923664,24.641221374045802,17.236641221374047,0.0
11.090000629425049,-4.987122058105468,-0.21787235107421873,3.6535517333984373,11.038167938931299,-51.37404580152672,-1.9389312977099236,-11.092336291503905,0.062249243164062495,0.7589619262695312,20.015267175572518,25.770992366412212,17.801526717557252,0.0
11.100000381469727,-5.662286926269531,1.024718310546875,4.108450048828125,15.358778625954198,-45.37404580152672,-3.068702290076336,-9.564835632324218,-0.3327940307617187,0.3016694091796875,14.83969465648855,23.435114503816795,17.221374045801525,0.0
11.110000610351562,-6.004657763671875,2.1308394775390624,4.611232397460937,18.47328244274809,-41.267175572519086,-0.0,-9.636661682128906,-0.7517793212890624,1.2832920898437499,13.007633587786259,22.946564885496183,17.221374045801525,0.0
11.12000036239624,-6.308721374511719,2.3726538452148436,4.800374328613281,18.595419847328245,-38.54961832061068,3.5572519083969465,-13.299790222167967,-1.9512743530273435,3.0358477050781247,21.480916030534353,23.083969465648856,18.931297709923665,0.0
11.130000591278076,-7.357381701660156,4.455609289550781,5.391742138671875,11.740458015267176,-39.603053435114504,6.396946564885496,-10.87206973876953,-1.2904746948242187,1.4030021728515625,35.343511450381676,8.351145038167939,14.748091603053435,0.0
11.140000581741333,-7.259219433593749,3.6152445068359373,5.334281298828125,6.977099236641221,-36.916030534351144,12.763358778625955,-8.781931689453124,1.2210428466796874,-0.9983820922851562,22.946564885496183,5.404580152671755,9.816793893129772,0.0
11.15000033378601,-6.675034228515624,3.39018955078125,5.521029028320312,-1.2213740458015268,-36.93129770992366,15.938931297709924,-12.579135522460938,-2.3822306518554686,3.3494881225585935,24.396946564885496,16.061068702290076,13.145038167938932,0.0
11.160000324249268,-6.665457421875,2.2098481323242187,5.051765502929687,-15.86259541984733,-40.93129770992366,16.900763358778626,-9.433154541015625,-1.1875240234375,2.0063409912109376,38.80916030534351,1.8931297709923665,11.251908396946565,0.0
11.170000553131104,-6.102820031738281,2.398990063476562,5.370194323730469,-20.442748091603054,-39.87786259541985,18.625954198473284,-10.888829150390624,0.9648632690429687,0.8475473876953125,17.053435114503817,5.709923664122138,8.610687022900763,0.0
11.18000078201294,-5.9591679321289055,2.35589443359375,5.645527514648437,-29.282442748091604,-39.83206106870229,19.52671755725191,-12.976572998046874,-2.7820623291015623,4.225765930175781,7.679389312977099,16.244274809160306,14.0,0.0
11.190000534057617,-5.142745166015625,0.22505495605468748,4.754884497070313,-30.213740458015266,-38.93129770992366,20.396946564885496,-11.018116040039061,-1.898601916503906,2.999934680175781,37.93893129770992,-1.2213740458015268,12.885496183206106,0.0
11.200000762939453,-5.118803149414062,0.009576806640625,4.393360046386719,-18.427480916030536,-35.00763358778626,18.595419847328245,-10.788272680664061,-1.6160861206054686,1.1085153686523437,38.74809160305343,-13.801526717557252,8.16793893129771,0.0
11.21000051498413,-4.556165759277343,-0.6536170532226562,4.367023828124999,-11.664122137404581,-25.389312977099237,17.740458015267176,-11.698069311523437,-1.39821376953125,2.583343591308594,41.038167938931295,-16.83969465648855,0.4732824427480916,0.0
11.220000505447388,-4.395754248046875,0.16759411621093748,4.572925170898437,-11.19083969465649,-18.916030534351144,15.297709923664122,-9.634267480468749,0.5434837768554687,0.679953271484375,28.290076335877863,-18.137404580152673,-4.473282442748092,0.0
11.230000495910645,-4.829104748535156,1.1659762084960936,4.666299035644531,-14.885496183206106,-12.732824427480915,14.458015267175572,-9.74200655517578,0.7900865478515624,0.45489831542968745,18.244274809160306,-24.65648854961832,-5.4961832061068705,0.0
11.240000247955322,-4.632780212402343,1.5777788940429687,5.149927770996094,-17.251908396946565,-5.526717557251908,13.725190839694656,-9.428366137695312,3.883395092773437,-1.5011644409179687,-6.091603053435114,-24.610687022900763,-5.801526717557252,0.0
11.250000238418579,-4.8650177734375,2.080561242675781,6.241683728027343,-14.366412213740459,1.8778625954198473,16.53435114503817,-10.850521923828124,2.8993782104492185,0.8930372192382812,-30.045801526717558,-9.374045801526718,3.1297709923664123,0.0
11.260000705718994,-5.195417602539062,1.4772224243164063,6.2009822998046875,-9.98473282442748,9.465648854961833,21.480916030534353,-12.126631408691406,0.8259995727539062,1.5753846923828123,-19.908396946564885,-12.580152671755725,9.389312977099237,0.0
11.270000696182251,-4.352658618164062,0.852335791015625,2.2481553588867187,6.091603053435114,20.68702290076336,25.633587786259543,-10.493785876464843,2.3965958618164063,-1.1420341918945311,-30.610687022900763,-13.19083969465649,12.641221374045802,0.0
11.280000686645508,-4.726154077148437,0.28490999755859375,0.8307879760742187,1.0229007633587786,38.274809160305345,24.625954198473284,-11.710040319824218,1.9201497314453124,-0.34715924072265625,-41.221374045801525,-4.290076335877862,15.34351145038168,0.0
11.290000915527344,-7.182604980468749,-1.158793603515625,2.817975354003906,-7.8320610687022905,50.12213740458015,19.251908396946565,-13.268665600585937,1.0079588989257813,2.437297290039062,-48.16793893129771,14.320610687022901,24.045801526717558,0.0
11.300000667572021,-10.457872851562499,-1.4317325927734375,7.220912207031249,-3.984732824427481,54.16793893129771,15.755725190839694,-11.247959399414063,-0.5003881469726562,-0.16041151123046873,-40.656488549618324,5.068702290076335,24.427480916030536,0.0
11.310000658035278,-9.540893615722656,-3.4907460205078125,8.05648858642578,27.053435114503817,56.16793893129771,16.732824427480917,-11.425130322265625,-2.0638018310546875,-0.2657563842773437,-39.038167938931295,4.9465648854961835,25.603053435114504,0.0
11.320000648498535,-10.876858142089842,-0.20350714111328125,8.487444885253906,46.0763358778626,63.32824427480916,14.50381679389313,-12.301408129882812,-1.9321207397460936,0.4572925170898437,-29.17557251908397,10.534351145038167,22.748091603053435,0.0
11.330000638961792,-11.908759057617187,3.4572271972656248,7.656656909179687,38.961832061068705,56.61068702290076,12.198473282442748,-11.360486877441405,-2.9759926635742184,0.46208092041015625,-16.9618320610687,11.236641221374045,20.625954198473284,0.0
11.34000039100647,-6.964732629394531,0.7015010864257812,3.296815686035156,33.908396946564885,50.18320610687023,17.053435114503817,-11.058817468261719,-2.454056701660156,0.5698199951171875,-7.465648854961832,8.076335877862595,17.786259541984734,0.0
11.350000381469727,-6.2201359130859375,-0.047884033203124995,2.032677209472656,35.93893129770992,61.267175572519086,14.51908396946565,-10.448296044921875,-1.407790576171875,-0.6105214233398437,6.412213740458015,3.786259541984733,13.664122137404581,0.0
11.360000610351562,-7.575254052734374,0.6703764648437499,1.9823989746093749,24.946564885496183,62.70229007633588,5.969465648854962,-11.906364855957031,-1.5825672973632812,0.3902548706054687,23.61832061068702,-0.6564885496183206,10.625954198473282,0.0
11.37000060081482,-5.691017346191406,-0.9576806640625,1.1037269653320312,21.83206106870229,65.02290076335878,5.709923664122138,-11.563994018554688,1.0486603271484374,-0.41419688720703124,20.16793893129771,-0.8396946564885496,6.595419847328245,0.0
11.380000591278076,-6.275202551269531,-0.5051765502929687,2.5546131713867184,30.03053435114504,76.6412213740458,4.473282442748092,-11.350910070800781,2.2266075439453124,-0.6344634399414062,16.03053435114504,-1.0534351145038168,4.748091603053435,0.0
11.390000581741333,-8.578424548339843,1.0462661254882812,3.6200329101562496,28.442748091603054,77.45038167938931,-1.1297709923664123,-11.552023010253906,2.923320227050781,-0.29448680419921874,14.946564885496183,-0.32061068702290074,7.32824427480916,0.0
11.40000057220459,-9.473855969238281,1.3048399047851562,4.043806604003906,22.763358778625953,76.83969465648855,-1.83206106870229,-11.221623181152344,3.6080619018554687,-0.3232172241210937,9.526717557251908,-1.5725190839694656,10.687022900763358,0.0
11.410000324249268,-6.385335827636719,-3.1172505615234374,1.9991583862304687,30.396946564885496,74.3969465648855,0.24427480916030533,-10.77630167236328,3.423708374023437,-0.062249243164062495,3.2213740458015265,-1.5114503816793894,13.221374045801527,0.0
11.420000791549683,-7.632714892578124,-3.459621398925781,2.4516625,56.274809160305345,93.92366412213741,-8.51908396946565,-9.87608184814453,2.6240450195312497,0.24660277099609373,-4.854961832061068,0.6106870229007634,14.732824427480915,0.0
11.430000305175781,-11.054029064941405,0.055066638183593745,3.4069489624023435,50.74809160305343,95.12977099236642,-22.137404580152673,-9.313444458007812,1.7932570434570312,0.411802685546875,-5.877862595419847,0.6870229007633588,16.061068702290076,0.0
11.440000534057617,-7.644685900878906,-1.5011644409179687,1.0223241088867188,55.64885496183206,94.85496183206106,-19.709923664122137,-8.058882788085937,3.5146880371093747,-0.8714894042968749,-19.984732824427482,-1.1450381679389312,16.412213740458014,0.0
11.450000524520874,-8.645462194824217,0.814028564453125,2.147598889160156,70.4885496183206,111.19083969465649,-21.31297709923664,-9.217676391601563,1.8076222534179687,1.5227122558593749,-27.572519083969464,5.908396946564886,23.14503816793893,0.0
11.46000075340271,-11.889605444335936,5.032611889648437,3.5697546752929687,49.3587786259542,110.41221374045801,-29.557251908396946,-9.09796630859375,2.0063409912109376,0.29927520751953124,-33.55725190839695,1.1755725190839694,21.603053435114504,0.0
11.470000505447388,-9.509768994140625,3.7205893798828122,1.2976572998046874,30.15267175572519,100.67175572519083,-22.671755725190838,-9.785102185058593,2.655169641113281,-0.02633621826171875,-42.732824427480914,1.251908396946565,22.0,0.0
11.480000495910645,-8.113949426269532,1.89620771484375,0.8092401611328125,30.38167938931298,103.55725190839695,-16.229007633587788,-8.865728747558594,2.8898014038085935,0.17238251953125,-55.20610687022901,1.3129770992366412,25.297709923664122,0.0
11.490000486373901,-9.382876306152344,3.2561142578125,2.1930887207031247,28.412213740458014,102.73282442748092,-17.297709923664122,-10.388441003417968,-0.13168109130859373,1.7429788085937499,-51.221374045801525,-0.22900763358778625,27.17557251908397,0.0
11.500000476837158,-8.980650427246093,1.8315642700195311,1.47482822265625,28.85496183206107,95.09923664122137,-15.221374045801527,-9.320627062988281,-0.45968671875,0.21308394775390624,-43.93893129770992,-13.374045801526718,18.870229007633586,0.0
11.510000705718994,-10.187328063964843,3.1483751831054687,1.8555062866210936,34.44274809160305,94.1526717557252,-10.51908396946565,-8.942343200683593,-0.5698199951171875,-0.3112462158203125,-37.70992366412214,-19.801526717557252,11.603053435114504,0.0
11.520000696182251,-9.6917283203125,5.815515832519531,2.418143676757812,9.816793893129772,84.54961832061069,-8.458015267175572,-9.145850341796875,-1.3383587280273437,0.40222587890625,-35.282442748091604,-19.557251908396946,10.076335877862595,0.0
11.530000925064087,-10.0748005859375,4.80755693359375,2.6862942626953124,-17.282442748091604,74.1526717557252,-6.015267175572519,-10.548852514648438,-0.48123453369140623,0.49320554199218747,-26.15267175572519,-25.81679389312977,2.7938931297709924,0.0
11.540000677108765,-8.84178673095703,4.015076184082031,2.408566870117187,-30.732824427480917,65.29770992366412,-3.2519083969465647,-8.82263311767578,-0.01915361328125,-1.0031704956054688,-30.47328244274809,-27.603053435114504,-1.5725190839694656,0.0
11.5500009059906,-8.863334545898438,1.438915197753906,2.6288334228515624,-33.3587786259542,62.62595419847328,-0.5954198473282443,-8.350975390624999,0.5674257934570313,-1.1348515869140625,-30.595419847328245,-24.702290076335878,-3.450381679389313,0.0
11.5600004196167,-9.574412438964844,0.6703764648437499,3.0909143432617188,-32.091603053435115,60.900763358778626,-2.7480916030534353,-8.365340600585936,1.1348515869140625,-1.6807295654296874,-27.709923664122137,-21.389312977099237,-5.343511450381679,0.0
11.570000648498535,-9.842563024902343,-0.9145850341796874,3.0454245117187497,-19.64885496183206,62.12213740458015,-4.320610687022901,-9.026140258789061,0.22026655273437498,-1.0678139404296874,-23.69465648854962,-18.16793893129771,-5.66412213740458,0.0
11.580000638961792,-9.361328491210937,-1.4006079711914061,2.7150246826171873,-3.7404580152671754,62.656488549618324,-6.6106870229007635,-8.556876733398436,1.2641384765625,-0.9337386474609375,-18.53435114503817,-17.17557251908397,-13.267175572519085,0.0
11.590000629425049,-9.41639512939453,-0.7110778930664062,2.8371289672851563,5.923664122137405,59.343511450381676,-9.786259541984732,-8.034940771484374,2.422932080078125,-1.8650830932617186,-9.49618320610687,-21.51145038167939,-16.717557251908396,0.0
11.600000619888306,-11.135431921386719,2.2385785522460937,3.6272155151367187,4.152671755725191,55.05343511450382,-14.122137404580153,-7.848193041992187,1.915361328125,-0.8092401611328125,-5.343511450381679,-17.099236641221374,-14.198473282442748,0.0
11.610000610351562,-10.31661495361328,3.0119056884765625,2.6910826660156246,-15.358778625954198,45.43511450381679,-16.137404580152673,-7.206546997070312,3.296815686035156,-1.6400281372070311,-1.1908396946564885,-22.85496183206107,-16.870229007633586,0.0
11.62000060081482,-9.624690673828125,3.9839515624999997,2.3582886352539063,-35.282442748091604,33.38931297709924,-13.007633587786259,-7.498639599609374,3.878606689453125,-1.5298948608398437,-7.343511450381679,-20.229007633587788,-13.435114503816793,0.0
11.630000591278076,-6.902483386230468,1.0678139404296874,-0.4333505004882812,-53.25190839694657,23.52671755725191,-7.893129770992366,-6.490680700683593,5.140350964355468,-1.5586252807617187,-21.69465648854962,-20.702290076335878,-10.854961832061068,0.0
11.640000581741333,-6.660669018554687,0.3280056274414062,0.47884033203125,-42.01526717557252,26.595419847328245,-3.2519083969465647,-9.758765966796874,4.129997863769531,0.009576806640625,-29.374045801526716,-14.473282442748092,-1.6641221374045803,0.0
11.65000057220459,-7.395688928222656,1.2832920898437499,1.1228805786132812,-37.20610687022901,28.47328244274809,-5.0534351145038165,-8.219294299316406,4.69263525390625,-0.6488286499023437,-44.396946564885496,-9.053435114503817,0.9923664122137404,0.0
11.660000801086426,-8.8489693359375,1.8555062866210936,0.8092401611328125,-46.961832061068705,25.221374045801525,-4.778625954198473,-10.228029492187499,2.123656872558594,-0.3447650390625,-40.68702290076336,-7.450381679389313,5.221374045801527,0.0
11.670000553131104,-8.75320126953125,1.0223241088867188,0.0383072265625,-40.61068702290076,24.82442748091603,-2.8091603053435112,-9.133879333496093,1.6017209106445311,-0.38307226562499996,-40.94656488549618,-7.465648854961832,1.4961832061068703,0.0
11.68000054359436,-9.94072529296875,0.814028564453125,1.1276689819335937,-39.66412213740458,24.946564885496183,-0.9618320610687023,-10.012551342773437,-0.5434837768554687,0.70868369140625,-32.900763358778626,-6.5038167938931295,2.7022900763358777,0.0
11.690000534057617,-9.356540087890625,-0.0718260498046875,0.5770026000976562,-36.35114503816794,24.732824427480917,-1.6793893129770991,-9.672574707031249,0.00718260498046875,0.5339069702148437,-20.778625954198475,-14.106870229007633,-4.824427480916031,0.0
11.700000524520874,-11.949460485839843,1.8291700683593748,2.2864625854492187,-35.70992366412214,24.717557251908396,-3.877862595419847,-10.014945544433592,-1.4053963745117186,1.5634136840820312,-9.450381679389313,-18.458015267175572,-6.2748091603053435,0.0
11.71000051498413,-11.552023010253906,0.1292868896484375,2.142810485839844,-24.427480916030536,27.099236641221374,-4.763358778625954,-10.445901843261717,-1.39821376953125,1.1133037719726562,2.2900763358778624,-31.64885496183206,-13.755725190839694,0.0
11.720000505447388,-11.705251916503906,0.6967126831054687,1.6998831787109374,-18.778625954198475,26.213740458015266,-5.893129770992366,-8.147468249511718,1.1420341918945311,-0.14125789794921875,-5.709923664122138,-35.00763358778626,-20.85496183206107,0.0
11.730000495910645,-10.77630167236328,2.123656872558594,2.104503259277344,-23.740458015267176,26.03053435114504,-7.557251908396947,-10.05564697265625,-0.6057330200195312,1.5945383056640625,-9.48091603053435,-32.961832061068705,-13.664122137404581,0.0
11.740000486373901,-11.279084020996093,3.9983167724609374,1.7884686401367187,-36.534351145038165,23.16030534351145,-10.15267175572519,-10.28549033203125,1.1563994018554686,1.419761584472656,-6.290076335877862,-40.25954198473283,-18.671755725190838,0.0
11.750000476837158,-12.452242834472656,5.9591679321289055,2.0183119995117185,-58.274809160305345,16.47328244274809,-8.992366412213741,-8.204929089355469,2.3487118286132813,1.1827356201171875,-17.893129770992367,-35.63358778625954,-19.96946564885496,0.0
11.760000705718994,-11.18571015625,4.479551306152343,0.612915625,-81.54198473282443,8.305343511450381,-3.648854961832061,-10.82179150390625,-0.1484405029296875,2.1499930908203124,-16.931297709923665,-36.13740458015267,-13.007633587786259,0.0
11.77000117301941,-8.200140686035155,-0.33518823242187495,-1.2785036865234374,-75.57251908396947,6.137404580152672,3.633587786259542,-10.36210478515625,-0.41898529052734373,2.1212626708984375,-10.183206106870228,-41.37404580152672,-18.564885496183205,0.0
11.780000448226929,-11.77228956298828,1.5107412475585937,1.7477672119140624,-63.25190839694657,12.335877862595419,4.320610687022901,-10.01733974609375,0.7038952880859375,1.5298948608398437,-5.908396946564886,-42.67175572519084,-22.595419847328245,0.0
11.790000915527344,-10.256759912109374,1.448492004394531,1.1947066284179686,-78.80916030534351,0.7175572519083969,2.8244274809160306,-9.260772021484375,-0.15562310791015624,2.2481553588867187,-7.8320610687022905,-39.93893129770992,-19.557251908396946,0.0
11.800000667572021,-10.101136804199218,0.7445967163085937,0.26336218261718747,-71.2824427480916,0.6564885496183206,8.061068702290076,-11.415553515625,-1.4915876342773438,2.4756045166015626,3.2977099236641223,-47.69465648854962,-19.87786259541985,0.0
11.810001134872437,-9.674968908691406,-2.195482922363281,0.15083470458984374,-50.10687022900763,1.786259541984733,11.022900763358779,-9.131485131835937,0.5123591552734374,1.3431471313476562,10.122137404580153,-53.20610687022901,-27.404580152671755,0.0
11.820000648498535,-11.2240173828125,-0.16041151123046873,2.104503259277344,-28.916030534351144,7.786259541984733,8.122137404580153,-10.292672937011718,-0.6081272216796875,3.0166940917968748,9.633587786259541,-46.06106870229008,-24.396946564885496,0.0
11.830000638961792,-11.437101330566406,0.35673604736328124,1.6400281372070311,-42.38167938931298,0.7786259541984732,1.2671755725190839,-10.426748229980468,0.06703764648437499,1.9632453613281249,23.83206106870229,-58.93129770992366,-28.015267175572518,0.0
11.840000867843628,-11.286266625976562,0.3184288208007812,1.4796166259765624,-29.404580152671755,1.633587786259542,3.1755725190839694,-8.611943371582031,0.9002198242187499,1.7094599853515624,14.076335877862595,-52.62595419847328,-26.85496183206107,0.0
11.850000619888306,-10.522516296386717,-0.47165772705078124,2.166752502441406,-24.16793893129771,1.4351145038167938,3.5572519083969465,-11.159373937988281,-0.17238251953125,1.9895815795898437,23.96946564885496,-58.47328244274809,-27.6793893129771,0.0
11.860000610351562,-9.888052856445311,-0.5363011718749999,2.1021090576171875,-10.213740458015268,4.259541984732825,0.6870229007633588,-6.912060192871094,2.422932080078125,0.05746083984375,12.854961832061068,-53.83206106870229,-30.50381679389313,0.0
11.87000060081482,-10.05564697265625,1.0031704956054688,1.9225439331054686,-12.351145038167939,3.3282442748091605,-2.5801526717557253,-10.817003100585938,-0.8906430175781249,1.7956512451171873,18.47328244274809,-48.412213740458014,-24.091603053435115,0.0
11.880000591278076,-9.162609753417968,0.4836287353515625,1.4820108276367188,-2.8396946564885495,5.068702290076335,-4.427480916030534,-6.734889270019531,2.786850732421875,-0.5770026000976562,12.793893129770993,-50.99236641221374,-30.641221374045802,0.0
11.890000581741333,-9.016563452148437,0.13168109130859373,1.7477672119140624,16.229007633587788,10.992366412213741,-2.015267175572519,-7.896077075195312,1.3072341064453123,0.4429273071289062,3.0381679389312977,-34.74809160305343,-24.213740458015266,0.0
11.90000057220459,-8.700528833007812,1.4796166259765624,2.5234885498046875,11.099236641221374,12.0,-6.351145038167939,-9.583989245605467,0.7852981445312499,1.4724340209960938,1.7099236641221374,-25.328244274809162,-19.938931297709924,0.0
11.910000324249268,-12.066776367187499,4.446032482910156,3.0119056884765625,-4.793893129770993,9.358778625954198,-10.381679389312977,-7.596801867675781,2.221819140625,-0.19153613281249998,2.549618320610687,-25.419847328244273,-24.458015267175572,0.0
11.920000791549683,-11.535263598632811,2.839523168945312,1.7573440185546874,-10.091603053435115,1.465648854961832,-4.9465648854961835,-10.51533369140625,0.1484405029296875,1.1252747802734375,5.969465648854962,-18.65648854961832,-18.53435114503817,0.0
11.93000054359436,-10.002974536132811,-0.0143652099609375,2.6288334228515624,11.725190839694656,8.580152671755725,-0.6412213740458015,-9.076418493652342,1.2880804931640624,0.5267243652343749,9.938931297709924,-18.427480916030536,-22.595419847328245,0.0
11.940000772476196,-11.197681164550781,-0.00718260498046875,2.8706477905273435,21.587786259541986,10.488549618320612,-4.519083969465649,-9.066841687011719,1.1540052001953125,0.7158662963867187,8.763358778625955,-15.587786259541986,-22.15267175572519,0.0
11.950000762939453,-10.266336718749999,1.0295067138671874,1.0199299072265624,24.106870229007633,4.641221374045801,-8.366412213740459,-10.014945544433592,0.9409212524414062,0.9576806640625,12.13740458015267,-15.389312977099237,-20.198473282442748,0.0
11.96000075340271,-11.109095703125,2.2553379638671873,1.1037269653320312,25.068702290076335,10.381679389312977,-9.938931297709924,-9.327809667968749,1.3766659545898436,1.0749965454101562,9.465648854961833,-12.702290076335878,-19.770992366412212,0.0
11.970000505447388,-10.606313354492187,1.7477672119140624,0.24660277099609373,20.061068702290076,8.488549618320612,-8.320610687022901,-9.718064538574218,1.5011644409179687,0.9552864624023437,9.068702290076336,-12.458015267175572,-19.297709923664122,0.0
11.980000495910645,-8.8872765625,0.7685387329101562,-0.3327940307617187,15.221374045801527,5.755725190839694,-7.786259541984733,-9.79946739501953,1.5131354492187499,0.928950244140625,6.870229007633588,-9.83206106870229,-18.80916030534351,0.0
11.990000486373901,-8.382100012207031,0.28730419921875,0.023942016601562498,11.633587786259541,5.847328244274809,-8.16793893129771,-9.447519750976562,1.3359645263671873,0.7829039428710937,5.129770992366412,-8.290076335877863,-18.412213740458014,0.0
12.000000715255737,-9.382876306152344,1.1133037719726562,0.09337386474609374,6.5038167938931295,6.854961832061068,-9.19083969465649,-9.957484704589843,0.4285620971679687,1.0486603271484374,7.969465648854962,-6.580152671755725,-16.732824427480917,0.0
12.010000705718994,-10.04846436767578,1.3144167114257812,0.8092401611328125,13.114503816793894,12.82442748091603,-10.381679389312977,-7.908048083496094,1.0678139404296874,0.33039982910156246,8.091603053435115,-7.374045801526718,-18.18320610687023,0.0
12.020000696182251,-9.713276135253906,1.254561669921875,0.97683427734375,9.32824427480916,12.50381679389313,-10.549618320610687,-9.117119921875,0.9528922607421875,0.5243301635742187,11.648854961832061,-4.442748091603053,-16.595419847328245,0.0
12.030000925064087,-10.884040747070312,3.4524387939453125,1.4101847778320311,-6.67175572519084,8.290076335877863,-12.580152671755725,-9.483432775878907,0.689530078125,1.2018892333984375,9.770992366412214,-0.5648854961832062,-13.908396946564885,0.0
12.040000677108765,-10.182539660644531,1.5394716674804687,0.7876923461914062,-9.770992366412214,6.366412213740458,-10.16793893129771,-8.350975390624999,1.3934253662109375,0.5315127685546874,7.862595419847328,0.07633587786259542,-14.183206106870228,0.0
12.0500009059906,-9.861716638183593,1.0917559570312498,1.369483349609375,-5.4961832061068705,7.740458015267175,-7.847328244274809,-8.700528833007812,0.8116343627929687,1.0079588989257813,7.908396946564886,3.480916030534351,-12.595419847328245,0.0
12.0600004196167,-9.947907897949218,0.8044517578125,1.6232687255859375,-6.0458015267175576,6.595419847328245,-10.183206106870228,-8.588001354980468,0.5315127685546874,1.1707646118164061,5.465648854961832,5.312977099236641,-11.801526717557252,0.0
12.070000886917114,-9.70369932861328,0.9457096557617187,1.7525556152343749,-3.3587786259541983,5.740458015267175,-11.16030534351145,-8.693346228027343,-0.02154781494140625,1.484405029296875,6.030534351145038,7.099236641221374,-11.923664122137405,0.0
12.080000638961792,-9.452308154296874,0.8499415893554687,2.1499930908203124,-2.2290076335877864,3.7251908396946565,-11.618320610687023,-8.681375219726561,-0.4333505004882812,1.70467158203125,7.755725190839694,7.175572519083969,-11.816793893129772,0.0
12.090000629425049,-9.428366137695312,0.7565677246093749,2.384624853515625,-0.16793893129770993,2.045801526717557,-11.877862595419847,-9.95987890625,-1.7214309936523438,2.5761609863281247,17.099236641221374,5.114503816793893,-11.435114503816793,0.0
12.100000619888306,-9.313444458007812,0.40940848388671874,2.6623522460937497,5.419847328244275,-0.07633587786259542,-13.49618320610687,-10.072406384277343,-1.6352397338867186,2.978386865234375,23.557251908396946,5.038167938931298,-14.045801526717558,0.0
12.110000371932983,-8.987833032226561,0.19632453613281248,2.971204260253906,9.48091603053435,-1.450381679389313,-13.664122137404581,-6.555324145507812,-1.0630255371093749,1.659181750488281,23.221374045801525,0.732824427480916,-17.129770992366414,0.0
12.12000060081482,-9.3852705078125,0.6919242797851562,3.4859576171874997,7.526717557251908,-5.145038167938932,-15.465648854961833,-8.494627490234375,-1.8602946899414061,0.9911994873046874,31.435114503816795,-8.412213740458014,-17.282442748091604,0.0
12.130000591278076,-9.311050256347656,0.5578489868164063,3.383006945800781,15.679389312977099,-8.01526717557252,-16.18320610687023,-6.6151791870117185,1.6065093139648436,0.842758984375,21.328244274809162,0.3816793893129771,-18.870229007633586,0.0
12.140000343322754,-9.636661682128906,2.0063409912109376,4.5968671875,7.221374045801527,-10.16793893129771,-16.702290076335878,-8.049305981445311,-0.3112462158203125,2.0661960327148434,11.679389312977099,11.114503816793894,-12.83969465648855,0.0
12.15000057220459,-9.433154541015625,1.1156979736328125,4.944026428222656,1.9083969465648856,-17.541984732824428,-17.557251908396946,-6.943184814453125,0.35194764404296874,0.7302315063476562,15.267175572519085,5.465648854961832,-14.351145038167939,0.0
12.160000801086426,-9.753977563476562,0.7541735229492187,5.078101721191406,13.389312977099237,-22.870229007633586,-16.16793893129771,-6.79953271484375,0.22505495605468748,0.8882488159179687,15.572519083969466,10.045801526717558,-13.86259541984733,0.0
12.170000553131104,-9.272743029785156,-0.19871873779296872,5.8083332275390624,16.931297709923665,-29.022900763358777,-16.33587786259542,-5.992686755371094,1.1133037719726562,0.0,12.778625954198473,11.236641221374045,-13.145038167938932,0.0
12.18000054359436,-9.4618849609375,0.3950432739257812,6.641515405273437,22.091603053435115,-35.81679389312977,-17.96946564885496,-7.9463553100585935,-0.852335791015625,1.0295067138671874,16.641221374045802,15.465648854961833,-7.404580152671755,0.0
12.190000534057617,-9.198522778320312,1.4317325927734375,7.606378674316406,9.633587786259541,-51.725190839694655,-20.885496183206108,-6.48589229736328,0.603338818359375,0.9121908325195311,13.419847328244275,21.64885496183206,-9.099236641221374,0.0
12.200000762939453,-10.862492932128905,2.2170307373046874,8.544905725097657,4.427480916030534,-67.05343511450381,-17.389312977099237,-7.256825231933593,0.23702596435546874,0.40940848388671874,11.435114503816793,18.396946564885496,-8.290076335877863,0.0
12.21000051498413,-11.097124694824219,1.4149731811523436,8.89924757080078,6.641221374045801,-82.12213740458016,-13.282442748091603,-7.472303381347656,1.6831237670898436,0.9265560424804687,7.450381679389313,27.740458015267176,-7.770992366412214,0.0
12.220000267028809,-11.982979309082031,2.961627453613281,9.667786303710937,3.984732824427481,-99.20610687022901,-12.427480916030534,-6.8593877563476555,3.028665100097656,0.3064578125,-5.083969465648855,32.458015267175576,-6.488549618320611,0.0
12.230000257492065,-13.010091821289063,3.392583752441406,10.381258398437499,-12.427480916030534,-122.90076335877863,-13.923664122137405,-9.497797985839844,2.4133552734375,2.0661960327148434,-11.114503816793894,41.19083969465649,2.0,0.0
12.240000486373901,-13.031639636230468,0.7589619262695312,10.62307276611328,-3.954198473282443,-140.61068702290078,-4.916030534351145,-12.260706701660155,1.7190367919921874,3.5218706420898434,1.1908396946564885,33.786259541984734,4.717557251908397,0.0
12.250000715255737,-12.631807958984375,-0.9792284790039062,9.617508068847656,29.923664122137403,-158.74809160305344,-0.7480916030534351,-11.355698474121093,3.3255461059570313,3.785232824707031,1.450381679389313,31.328244274809162,-0.24427480916030533,0.0
12.260000467300415,-12.521674682617187,-0.9840168823242187,9.885658654785155,39.770992366412216,-172.21374045801528,0.12213740458015267,-12.263100903320312,0.7781155395507812,5.082890124511718,-13.83206106870229,37.29770992366412,-0.5343511450381679,0.0
12.270000457763672,-13.424288708496093,-2.094926452636719,8.789114294433594,61.74045801526717,-186.13740458015266,-0.7633587786259542,-14.286201306152343,-3.478775012207031,5.49708701171875,-4.9465648854961835,27.282442748091604,-1.6793893129770991,0.0
12.280000686645508,-14.870386511230468,-0.16759411621093748,4.594472985839843,77.90839694656489,-188.44274809160305,5.969465648854962,-12.53843409423828,-1.1133037719726562,4.125209460449218,4.549618320610687,12.122137404580153,-6.6106870229007635,0.0
12.290000915527344,-13.91749425048828,1.618480322265625,-1.5538368774414062,67.58778625954199,-192.6259541984733,9.282442748091603,-11.039663854980468,0.00239420166015625,3.4428619873046875,3.145038167938931,8.625954198473282,-2.6259541984732824,0.0
12.300000667572021,-14.518438867187498,1.3359645263671873,-2.418143676757812,50.80916030534351,-187.84732824427482,14.793893129770993,-12.318167541503906,2.3582886352539063,1.7477672119140624,-5.480916030534351,6.549618320610687,2.427480916030534,0.0
12.310000896453857,-14.77940684814453,0.39983167724609375,-1.4317325927734375,41.55725190839695,-179.87786259541986,15.404580152671755,-9.794678991699218,1.2497732666015624,-0.24181436767578124,-20.045801526717558,4.076335877862595,5.0534351145038165,0.0
12.320000648498535,-13.084312072753905,-0.086191259765625,-1.9393033447265624,43.404580152671755,-168.25954198473283,16.30534351145038,-7.764395983886718,2.3319524169921872,-2.7964275390625,-45.20610687022901,10.687022900763358,4.091603053435114,0.0
12.330000400543213,-10.606313354492187,0.15083470458984374,-1.350329736328125,36.99236641221374,-150.73282442748092,16.03053435114504,-10.302249743652343,-1.7741034301757812,-0.7948749511718749,-62.83969465648855,34.68702290076336,13.725190839694656,0.0
12.34000039100647,-9.085995300292968,-0.3232172241210937,-0.9648632690429687,28.03053435114504,-135.31297709923663,11.251908396946565,-13.199233752441405,-6.6510922119140625,-0.9648632690429687,-33.343511450381676,30.732824427480917,15.251908396946565,0.0
12.350000619888306,-8.614337573242187,-0.4955997436523437,0.316034619140625,40.88549618320611,-114.97709923664122,9.221374045801527,-4.987122058105468,-2.568978381347656,-6.098031628417968,-26.0,20.0,-3.404580152671756,0.0
12.360000610351562,-8.549694128417968,2.3439234252929686,1.369483349609375,29.022900763358777,-98.04580152671755,7.938931297709924,-6.418854650878906,-2.901772412109375,-5.6958057495117185,-31.16030534351145,52.80916030534351,7.8320610687022905,0.0
12.37000036239624,-8.030152368164062,2.2840683837890623,2.24097275390625,9.572519083969466,-83.43511450381679,9.83206106870229,-10.658985791015624,-4.039018200683594,-2.3487118286132813,-20.35114503816794,72.22900763358778,23.908396946564885,0.0
12.380000591278076,-9.85692823486328,1.9584569580078124,3.794809631347656,6.106870229007634,-68.10687022900764,13.755725190839694,-5.4707507934570305,2.7629087158203123,-8.353369592285155,-10.748091603053435,57.70992366412214,21.16030534351145,0.0
12.390000581741333,-9.526528405761718,1.7238251953125,3.6296097167968746,10.977099236641221,-56.18320610687023,15.389312977099237,-5.767631799316406,3.8139632446289062,-7.1035963256835934,-45.80152671755725,90.30534351145039,32.458015267175576,0.0
12.40000033378601,-11.568782421875,2.492363928222656,4.434061474609375,-16.442748091603054,-56.717557251908396,11.603053435114504,-9.483432775878907,0.11731588134765625,-1.62805712890625,-27.022900763358777,92.56488549618321,44.35114503816794,0.0
12.410000324249268,-9.488221179199218,-0.8164227661132812,2.9735984619140625,-13.053435114503817,-57.63358778625954,16.442748091603054,-7.682993127441406,3.0741549316406247,-3.699041564941406,-10.122137404580153,85.09923664122137,45.52671755725191,0.0
12.420000791549683,-7.788338000488281,-2.703053674316406,2.3032219970703123,-3.1603053435114505,-53.37404580152672,15.908396946564885,-6.983886242675781,2.961627453613281,-3.0430303100585934,-11.86259541984733,87.29770992366412,43.603053435114504,0.0
12.43000054359436,-6.756437084960937,-3.1172505615234374,2.2577321655273437,9.16030534351145,-47.969465648854964,11.648854961832061,-8.499415893554687,0.55545478515625,-1.2617442749023438,11.84732824427481,73.37404580152672,45.55725190839695,0.0
12.440001010894775,-5.779602807617187,-4.050989208984375,2.090138049316406,26.18320610687023,-40.79389312977099,9.145038167938932,-12.394781994628906,-5.082890124511718,3.2345664428710936,44.534351145038165,66.90076335877863,48.54961832061068,0.0
12.450000524520874,-5.176263989257812,-3.9815573608398434,2.2074539306640624,43.847328244274806,-31.84732824427481,5.450381679389313,-9.294290844726563,-1.438915197753906,0.40462008056640625,73.7557251908397,46.091603053435115,35.847328244274806,0.0
12.46000075340271,-6.327874987792969,1.3359645263671873,3.2225954345703123,32.67175572519084,-34.87022900763359,-0.9465648854961832,-10.251971508789062,0.9409212524414062,-0.718260498046875,55.099236641221374,41.908396946564885,26.85496183206107,0.0
12.470000505447388,-5.961562133789062,3.2441432495117186,4.115632653808594,-1.450381679389313,-37.770992366412216,-0.366412213740458,-10.192116467285155,0.7350199096679687,0.2609679809570312,51.32824427480916,37.70992366412214,26.83969465648855,0.0
12.480000495910645,-4.771643908691406,2.3678654418945313,3.9743747558593747,-19.633587786259543,-38.61068702290076,0.13740458015267176,-10.651803186035156,1.2856862915039062,1.3168109130859373,45.55725190839695,37.00763358778626,26.061068702290076,0.0
12.490000247955322,-4.659116430664063,0.9457096557617187,3.5314474487304683,-23.69465648854962,-35.6793893129771,1.6641221374045803,-7.46272657470703,2.808398547363281,-1.0821791503906248,40.54961832061068,23.770992366412212,20.671755725190838,0.0
12.500000476837158,-4.367023828124999,0.2705447875976562,3.7038299682617186,-21.114503816793892,-28.015267175572518,0.7938931297709924,-7.429207751464843,3.921702319335937,-2.001552587890625,21.053435114503817,24.427480916030536,20.259541984732824,0.0
12.510000705718994,-2.2290017456054687,-1.7477672119140624,2.9544448486328125,-8.793893129770993,-22.213740458015266,1.2061068702290076,-12.322955944824217,-2.9281086303710935,4.53940634765625,18.061068702290076,39.465648854961835,28.290076335877863,0.0
12.520000457763672,-2.099714855957031,-3.1483751831054687,3.785232824707031,18.50381679389313,-8.335877862595419,-2.3206106870229006,-13.53442198486328,-6.244077929687499,6.004657763671875,73.83206106870229,15.86259541984733,25.603053435114504,0.0
12.530000925064087,-4.319139794921875,-1.6424223388671875,4.6064439941406246,48.396946564885496,2.16793893129771,-7.6183206106870225,-9.880870251464843,-1.9776105712890624,0.14604630126953125,93.25190839694656,-9.145038167938932,11.603053435114504,0.0
12.540000438690186,-3.3782185424804685,0.9744400756835937,4.565742565917969,68.41221374045801,13.908396946564885,-6.473282442748092,-10.984597216796875,-1.6208745239257811,2.674323254394531,62.30534351145038,6.67175572519084,3.099236641221374,0.0
12.5500009059906,-6.095637426757812,5.6958057495117185,6.5601125488281244,47.98473282442748,16.9618320610687,-8.13740458015267,-9.229647399902344,-1.5945383056640625,2.50912333984375,88.30534351145039,-14.198473282442748,-0.5648854961832062,0.0
12.560000658035278,-5.626373901367187,6.490680700683593,4.99909306640625,17.099236641221374,7.709923664122138,-2.427480916030534,-8.889670764160156,1.5658078857421873,0.43574470214843747,52.94656488549618,-12.931297709923664,-0.4732824427480916,0.0
12.570000886917114,-7.156268762207031,8.348581188964843,7.807491613769531,-10.534351145038167,10.244274809160306,8.625954198473282,-10.922347973632812,0.6703764648437499,3.0166940917968748,33.9236641221374,-5.893129770992366,2.213740458015267,0.0
12.580000400543213,-7.2903440551757805,7.6470801025390625,7.762001782226562,-43.603053435114504,1.2366412213740459,14.061068702290076,-10.228029492187499,1.3670891479492187,2.3319524169921872,24.15267175572519,-6.564885496183206,5.633587786259542,0.0
12.590000629425049,-6.885723974609375,5.463568188476562,6.691793640136718,-64.47328244274809,-5.175572519083969,20.50381679389313,-10.290278735351562,0.6775590698242188,1.7166425903320313,4.763358778625954,-7.404580152671755,5.801526717557252,0.0
12.600000619888306,-4.704606262207031,1.438915197753906,5.511452221679687,-65.38931297709924,-2.9618320610687023,26.580152671755727,-11.839327209472655,-0.6368576416015624,3.2249896362304686,-1.4961832061068703,-4.320610687022901,6.641221374045801,0.0
12.610000610351562,-4.204218115234375,-0.09816226806640624,5.185840795898438,-50.97709923664122,4.717557251908397,25.984732824427482,-10.558429321289061,0.1388636962890625,1.5179238525390624,-5.847328244274809,-10.80916030534351,2.33587786259542,0.0
12.62000060081482,-4.259284753417968,1.484405029296875,4.996698864746094,-33.20610687022901,13.954198473282442,24.900763358778626,-9.689334118652344,1.5203180541992187,0.39983167724609375,-29.419847328244273,-7.603053435114504,1.3282442748091603,0.0
12.630000591278076,-3.778050219726562,0.9552864624023437,5.623979699707031,-26.870229007633586,22.137404580152673,27.114503816793892,-9.576806640625,1.6232687255859375,0.7398083129882812,-41.099236641221374,0.7938931297709924,7.00763358778626,0.0
12.640001058578491,-6.998251452636718,2.4205378784179685,9.612719665527344,-26.198473282442748,29.00763358778626,24.30534351145038,-11.896788049316406,-0.74699091796875,2.319981408691406,-43.770992366412216,3.969465648854962,14.549618320610687,0.0
12.65000057220459,-8.298302954101562,1.637633935546875,9.545682019042967,-29.908396946564885,19.96946564885496,28.03053435114504,-11.63821427001953,-0.16041151123046873,1.3742717529296875,-41.7557251908397,-3.6030534351145036,11.938931297709924,0.0
12.660000801086426,-7.587225061035156,0.201112939453125,6.9527616210937495,-3.66412213740458,28.091603053435115,40.30534351145038,-11.113884106445312,0.7015010864257812,0.258573779296875,-51.221374045801525,-7.8320610687022905,7.893129770992366,0.0
12.670000314712524,-8.29351455078125,-0.01915361328125,4.876988781738281,6.229007633587786,43.52671755725191,42.47328244274809,-10.817003100585938,0.5913678100585937,0.15083470458984374,-56.961832061068705,-5.938931297709924,8.229007633587786,0.0
12.68000078201294,-8.406042028808594,-1.9919757812499999,4.716577270507813,3.4656488549618323,49.02290076335878,35.81679389312977,-10.575188732910156,0.06464344482421874,0.2561795776367187,-57.89312977099237,-6.320610687022901,9.664122137404581,0.0
12.690000295639038,-9.215282189941405,-2.5139117431640625,4.582501977539062,8.641221374045802,54.16793893129771,25.6793893129771,-10.539275708007812,-0.05027823486328125,0.028730419921875,-59.43511450381679,-7.083969465648855,11.358778625954198,0.0
12.700000524520874,-8.729259252929687,-3.0526071166992184,4.881777185058594,5.862595419847328,55.83206106870229,15.618320610687023,-10.541669909667968,0.02154781494140625,-0.11731588134765625,-58.045801526717554,-5.969465648854962,11.679389312977099,0.0
12.710000276565552,-7.931990100097655,-1.66636435546875,5.827486840820312,20.82442748091603,64.13740458015268,10.412213740458014,-10.58476553955078,0.19632453613281248,-0.6967126831054687,-54.13740458015267,-3.6793893129770994,11.114503816793894,0.0
12.720000505447388,-8.647856396484375,3.153163586425781,3.83072265625,15.236641221374045,68.74809160305344,4.931297709923665,-11.03248125,0.3064578125,-0.948103857421875,-45.00763358778626,0.24427480916030533,10.977099236641221,0.0
12.730000495910645,-8.420407238769531,3.3303345092773435,2.3678654418945313,-6.076335877862595,64.67175572519083,6.061068702290076,-12.172121240234373,0.49799394531249996,-0.8834604125976562,-32.656488549618324,1.9541984732824427,11.770992366412214,0.0
12.740000486373901,-6.720524060058593,-3.7517140014648436,2.8514941772460936,9.725190839694656,74.1526717557252,10.15267175572519,-12.820949890136719,1.0869675537109373,-1.1276689819335937,-23.801526717557252,2.213740458015267,11.755725190839694,0.0
12.750000476837158,-8.197746484375,-3.2632968627929686,3.4859576171874997,12.564885496183207,78.03053435114504,-4.916030534351145,-12.562376110839843,1.3024457031249999,-0.6560112548828124,-11.022900763358779,2.198473282442748,11.572519083969466,0.0
12.760000705718994,-4.8698061767578125,-6.818686328125,0.6703764648437499,34.67175572519084,75.89312977099236,-5.66412213740458,-13.117830895996093,2.0278888061523435,-0.5315127685546874,-7.129770992366412,0.183206106870229,15.099236641221374,0.0
12.770000696182251,-6.974309436035155,-3.9719805541992184,2.2768857788085937,80.90076335877863,103.45038167938931,-14.473282442748092,-12.720393420410156,2.482787121582031,-0.488417138671875,-6.351145038167939,-1.4809160305343512,17.480916030534353,0.0
12.780000686645508,-12.210428466796873,4.735730883789063,3.6439749267578123,78.3969465648855,105.26717557251908,-27.404580152671755,-12.08592998046875,2.588131994628906,-0.02633621826171875,-2.1068702290076335,-1.83206106870229,19.84732824427481,0.0
12.790000915527344,-8.662221606445312,4.568136767578125,0.8762778076171874,67.12977099236642,101.54198473282443,-16.885496183206108,-11.549628808593749,2.7150246826171873,-0.076614453125,-4.687022900763359,-6.488549618320611,22.12213740458015,0.0
12.800000429153442,-7.7763669921875,1.7022773803710936,0.1867477294921875,72.6412213740458,114.36641221374046,-10.748091603053435,-11.750741748046874,2.7748797241210936,0.7254431030273437,-8.473282442748092,-4.641221374045801,23.00763358778626,0.0
12.810000896453857,-11.145008728027342,4.072537023925781,2.770091320800781,59.41984732824427,118.2442748091603,-18.85496183206107,-11.200075366210937,1.3120225097656248,1.39821376953125,-11.679389312977099,-5.3893129770992365,22.85496183206107,0.0
12.820000410079956,-9.3086560546875,3.1747114013671873,0.19632453613281248,39.87786259541985,112.6412213740458,-16.885496183206108,-11.240776794433593,1.62805712890625,1.4532804077148436,-10.534351145038167,-11.786259541984732,21.740458015267176,0.0
12.830000638961792,-10.038887561035155,2.7246014892578123,1.4006079711914061,48.18320610687023,120.56488549618321,-11.938931297709924,-10.24000050048828,2.6144682128906247,0.9696516723632812,-22.03053435114504,-16.717557251908396,19.51145038167939,0.0
12.84000039100647,-10.536881506347656,2.3582886352539063,2.398990063476562,33.83206106870229,113.29770992366412,-12.67175572519084,-10.17056865234375,2.798821740722656,0.7637503295898437,-34.213740458015266,-19.480916030534353,17.633587786259543,0.0
12.850000381469727,-10.206481677246094,3.308786694335937,3.5577836669921874,28.549618320610687,114.50381679389314,-11.16030534351145,-10.244788903808594,2.070984436035156,0.7613561279296874,-46.274809160305345,-22.519083969465647,15.740458015267176,0.0
12.860000371932983,-9.9981861328125,3.0358477050781247,2.844311572265625,7.526717557251908,104.16793893129771,-15.572519083969466,-10.168174450683592,1.7334020019531249,0.8834604125976562,-52.42748091603053,-23.49618320610687,13.099236641221374,0.0
12.87000036239624,-11.86805762939453,3.507505432128906,3.2130186279296873,-8.641221374045802,96.45801526717557,-15.83206106870229,-9.792284790039062,1.149216796875,0.718260498046875,-61.23664122137404,-27.740458015267176,10.244274809160306,0.0
12.880000591278076,-11.168950744628905,2.916137622070312,3.4069489624023435,-33.06870229007634,84.4885496183206,-15.877862595419847,-10.426748229980468,-0.28012159423828126,1.4101847778320311,-58.76335877862596,-31.770992366412212,5.480916030534351,0.0
12.890000581741333,-10.386046801757812,1.668758557128906,2.70065947265625,-34.67175572519084,78.56488549618321,-13.038167938931299,-10.618284362792968,-1.3455413330078123,1.5107412475585937,-53.74045801526717,-38.152671755725194,0.3816793893129771,0.0
12.90000057220459,-9.677363110351562,-0.2609679809570312,1.9871873779296874,-35.37404580152672,70.12213740458016,-13.770992366412214,-17.67878505859375,-3.3303345092773435,7.096413720703125,-26.18320610687023,-36.229007633587784,-2.0916030534351147,0.0
12.910000562667847,-9.672574707031249,-1.6543933471679686,1.7597382202148437,-14.793893129770993,71.57251908396947,-13.48091603053435,-8.71489404296875,2.0829554443359375,0.0047884033203125,-23.908396946564885,-57.343511450381676,-17.053435114503817,0.0
12.920000791549683,-11.506533178710937,0.718260498046875,3.794809631347656,-22.580152671755727,68.47328244274809,-16.549618320610687,-9.047688073730468,1.0462661254882812,1.4939818359375,-28.946564885496183,-50.213740458015266,-10.01526717557252,0.0
12.930000305175781,-9.445125549316407,0.8259995727539062,1.8219874633789062,-32.19847328244275,59.98473282442748,-19.603053435114504,-7.843404638671874,3.6918589599609373,-0.9696516723632812,-27.129770992366414,-58.94656488549618,-12.290076335877863,0.0
12.940000534057617,-11.245565197753905,3.284844677734375,2.959233251953125,-31.908396946564885,61.11450381679389,-19.862595419847327,-6.469132885742187,6.191405493164062,-1.6927005737304686,-48.68702290076336,-41.6793893129771,-7.557251908396947,0.0
12.950000524520874,-10.453084448242187,1.5251064575195312,2.442085693359375,-46.396946564885496,52.16793893129771,-18.671755725190838,-8.341398583984375,3.873818286132812,-0.8451531860351562,-51.81679389312977,-35.17557251908397,1.3435114503816794,0.0
12.96000075340271,-11.343727465820312,0.5530605834960938,3.189076611328125,-35.64885496183206,54.12213740458015,-17.297709923664122,-7.52737001953125,3.162740393066406,-1.2210428466796874,-49.32824427480916,-32.16793893129771,3.2977099236641223,0.0
12.970000505447388,-8.583212951660157,-0.9935936889648437,3.0358477050781247,-22.85496183206107,49.51145038167939,-14.274809160305344,-6.9336080078124995,3.892971899414062,-2.3870190551757813,-55.64885496183206,-22.458015267175572,4.625954198473282,0.0
12.980000495910645,-8.501810095214843,2.2026655273437497,3.7397429931640622,-17.114503816793892,44.30534351145038,-14.274809160305344,-6.186617089843749,3.488351818847656,-3.394977954101562,-70.03053435114504,-10.427480916030534,8.549618320610687,0.0
12.990000486373901,-9.119514123535156,2.877830395507812,2.6767174560546874,-39.48091603053435,33.98473282442748,-16.748091603053435,-9.80665,-1.3263877197265623,-0.2346317626953125,-60.01526717557252,-1.2061068702290076,15.16030534351145,0.0
13.000000238418579,-10.005368737792969,2.7461493041992187,1.2856862915039062,-39.6793893129771,25.022900763358777,-13.48091603053435,-8.106766821289062,0.14125789794921875,-2.3247698120117186,-44.35114503816794,-6.6106870229007635,5.068702290076335,0.0
13.010000467300415,-9.662997900390625,1.2138602416992186,3.478775012207031,-21.709923664122137,30.53435114503817,-8.50381679389313,-8.243236315917969,-1.0606313354492187,-1.1037269653320312,-37.11450381679389,0.2748091603053435,4.6106870229007635,0.0
13.020000696182251,-9.425971936035156,0.41898529052734373,2.7269956909179687,-16.82442748091603,26.38167938931298,-7.816793893129771,-8.84178673095703,-1.707065783691406,-1.0582371337890624,-22.610687022900763,-1.633587786259542,-0.015267175572519083,0.0
13.030000448226929,-9.133879333496093,1.5179238525390624,2.0925322509765625,-9.969465648854962,23.786259541984734,-7.740458015267175,-8.688557824707031,-1.2617442749023438,-0.8379705810546875,-10.564885496183207,-1.3740458015267176,-3.969465648854962,0.0
13.040000677108765,-9.435548742675781,3.114856359863281,2.138022082519531,-14.335877862595419,20.85496183206107,-6.931297709923665,-9.083601098632812,-1.0510545288085937,-0.3591302490234375,-0.8396946564885496,-0.7938931297709924,-6.427480916030534,0.0
13.0500009059906,-9.495403784179686,3.0023288818359375,2.195482922363281,-17.419847328244273,20.65648854961832,-5.9541984732824424,-8.997409838867187,-0.7948749511718749,-0.0526724365234375,7.66412213740458,-2.717557251908397,-10.01526717557252,0.0
13.060000658035278,-10.869675537109375,4.2329485351562495,2.5258827514648434,-28.793893129770993,16.82442748091603,-5.6183206106870225,-9.512163195800781,-1.369483349609375,1.0175357055664063,19.923664122137403,-3.49618320610687,-12.488549618320612,0.0
13.070000648498535,-9.6151138671875,2.1164742675781247,2.01112939453125,-32.18320610687023,14.870229007633588,-3.450381679389313,-9.30147344970703,-0.8092401611328125,1.1037269653320312,36.87022900763359,-14.961832061068701,-18.442748091603054,0.0
13.080000638961792,-9.624690673828125,0.679953271484375,1.3742717529296875,-25.954198473282442,13.801526717557252,-0.015267175572519083,-10.065223779296874,-1.3192051147460937,2.042254016113281,51.86259541984733,-20.717557251908396,-23.52671755725191,0.0
13.090000629425049,-10.388441003417968,0.5434837768554687,2.308010400390625,-16.061068702290076,15.877862595419847,-1.1297709923664123,-10.405200415039062,-0.5219359619140624,1.5322890624999999,63.55725190839695,-34.18320610687023,-30.396946564885496,0.0
13.100000619888306,-13.385981481933593,4.218583325195312,4.153939880371094,-23.083969465648856,13.893129770992367,-4.67175572519084,-7.917624890136718,3.2321722412109373,0.7350199096679687,53.725190839694655,-35.51145038167939,-35.06870229007634,0.0
13.110000610351562,-11.549628808593749,5.2816088623046875,3.0023288818359375,-63.29770992366412,-2.2900763358778624,-2.931297709923664,-11.188104357910156,0.7206546997070312,2.310404602050781,48.534351145038165,-36.458015267175576,-26.47328244274809,0.0
13.12000060081482,-12.897564343261719,5.485116003417969,2.2290017456054687,-77.3587786259542,-8.854961832061068,1.3435114503816794,-9.37808790283203,3.4907460205078125,0.9864110839843749,37.70992366412214,-45.89312977099237,-31.51145038167939,0.0
13.130000591278076,-10.098742602539062,2.446874096679687,1.0773907470703123,-83.48091603053435,-16.53435114503817,11.038167938931299,-9.64623848876953,2.8562825805664063,2.360682836914062,25.099236641221374,-36.85496183206107,-26.778625954198475,0.0
13.140000343322754,-9.299079248046874,-0.2059013427734375,1.3551181396484375,-77.41984732824427,-17.938931297709924,14.564885496183207,-11.63821427001953,1.3551181396484375,2.4756045166015626,26.213740458015266,-44.916030534351144,-26.65648854961832,0.0
13.15000057220459,-8.360552197265624,-2.817975354003906,0.4477157104492187,-49.64885496183206,-15.374045801526718,13.679389312977099,-8.729259252929687,2.7054478759765623,1.608903515625,19.770992366412212,-42.50381679389313,-32.48854961832061,0.0
13.160000324249268,-9.643844287109374,-1.649604943847656,1.5011644409179687,-24.900763358778626,-7.6183206106870225,8.732824427480915,-11.784260571289062,-1.5011644409179687,3.411737365722656,25.954198473282442,-43.099236641221374,-25.587786259541986,0.0
13.170000553131104,-8.966285217285156,-2.9664158569335934,0.6607996582031249,-5.083969465648855,-5.0534351145038165,0.7175572519083969,-8.413224633789062,1.2401964599609374,1.6041151123046875,28.3206106870229,-49.7557251908397,-34.25954198473283,0.0
13.18000054359436,-9.411606726074218,0.1149216796875,0.5817910034179687,12.778625954198473,0.4122137404580153,-1.2213740458015268,-9.655815295410155,-0.7398083129882812,3.0837317382812497,25.6793893129771,-40.213740458015266,-27.893129770992367,0.0
13.190000534057617,-8.9255837890625,0.028730419921875,-0.3184288208007812,4.778625954198473,0.24427480916030533,-5.66412213740458,-9.117119921875,0.11013327636718749,2.195482922363281,28.85496183206107,-48.56488549618321,-33.9236641221374,0.0
13.200000762939453,-9.421183532714844,1.5442600708007812,0.26815058593749996,28.106870229007633,16.27480916030534,-4.458015267175573,-8.303091357421874,1.9967641845703124,1.5203180541992187,19.541984732824428,-41.63358778625954,-35.20610687022901,0.0
13.210000276565552,-10.12507882080078,3.6942531616210936,0.74699091796875,-1.5725190839694656,13.725190839694656,-6.778625954198473,-8.583212951660157,1.6352397338867186,1.8626888916015625,7.038167938931298,-33.80152671755725,-32.97709923664122,0.0
13.220000267028809,-10.94868419189453,4.2521021484374995,0.11731588134765625,-18.900763358778626,11.801526717557252,-4.229007633587786,-8.722076647949219,3.1771056030273437,1.3838485595703125,-6.442748091603053,-32.93129770992366,-33.06870229007634,0.0
13.230000257492065,-9.246406811523437,1.8219874633789062,-0.33518823242187495,-15.099236641221374,14.50381679389313,1.8625954198473282,-10.548852514648438,1.1707646118164061,2.7341782958984373,-11.969465648854962,-20.80916030534351,-28.53435114503817,0.0
13.240000486373901,-8.245630517578125,-1.1731588134765625,0.7517793212890624,-10.351145038167939,22.564885496183205,-0.2595419847328244,-9.093177905273437,2.0374656127929685,1.5370774658203123,-15.053435114503817,-23.603053435114504,-32.42748091603053,0.0
13.250000238418579,-8.2743609375,-1.197100830078125,0.6823474731445313,7.145038167938932,26.061068702290076,-4.076335877862595,-9.811438403320311,0.7685387329101562,1.9656395629882812,-14.290076335877863,-21.00763358778626,-30.671755725190838,0.0
13.260000467300415,-9.892841259765625,0.24660277099609373,1.3359645263671873,12.244274809160306,26.83969465648855,-9.98473282442748,-9.677363110351562,0.08140285644531249,1.9488801513671874,-9.526717557251908,-20.778625954198475,-29.84732824427481,0.0
13.270000696182251,-9.694122521972655,0.373495458984375,1.0726023437499999,18.717557251908396,28.106870229007633,-10.702290076335878,-11.449072338867186,-1.407790576171875,2.6862942626953124,5.603053435114504,-24.47328244274809,-28.30534351145038,0.0
13.280000925064087,-10.398017810058594,1.3359645263671873,1.4030021728515625,20.85496183206107,27.541984732824428,-11.526717557251908,-9.184157568359375,-1.005564697265625,1.3096283081054687,14.320610687022901,-32.29007633587786,-32.44274809160305,0.0
13.290000915527344,-10.747571252441405,1.886630908203125,1.465251416015625,14.946564885496183,24.717557251908396,-11.435114503816793,-10.244788903808594,-1.0462661254882812,1.0869675537109373,23.0381679389313,-34.70229007633588,-31.52671755725191,0.0
13.300000667572021,-9.337386474609374,2.1739351074218747,1.005564697265625,8.030534351145038,19.328244274809162,-9.541984732824428,-8.511386901855468,1.139639990234375,0.5410895751953124,23.17557251908397,-34.30534351145038,-33.17557251908397,0.0
13.310000896453857,-10.084377392578125,2.6192566162109374,1.9680337646484374,-0.8091603053435115,21.84732824427481,-8.259541984732824,-7.9846625366210935,1.2832920898437499,0.17956512451171874,15.297709923664122,-28.442748091603054,-30.33587786259542,0.0
13.320000648498535,-10.041281762695311,2.2601263671875,1.8028338500976562,-18.763358778625953,15.587786259541986,-7.114503816793893,-7.81467421875,1.9584569580078124,0.031124621582031248,11.068702290076336,-24.68702290076336,-28.702290076335878,0.0
13.330000638961792,-8.360552197265624,-0.7254431030273437,0.6248866333007812,-5.236641221374046,16.9618320610687,-3.3893129770992365,-9.481038574218749,0.3399766357421875,1.1707646118164061,10.076335877862595,-13.969465648854962,-23.862595419847327,0.0
13.340000629425049,-7.113173132324218,-1.3958195678710936,1.3670891479492187,5.32824427480916,20.106870229007633,-5.0534351145038165,-8.28633194580078,0.5578489868164063,0.6177040283203125,14.793893129770993,-13.526717557251908,-25.374045801526716,0.0
13.350000619888306,-9.452308154296874,-1.7573440185546874,1.455674609375,14.106870229007633,25.96946564885496,-10.946564885496183,-9.126696728515624,-0.3232172241210937,1.4532804077148436,23.64885496183206,-9.938931297709924,-23.00763358778626,0.0
13.360000610351562,-9.734823950195311,-0.5817910034179687,1.5849614990234373,25.83206106870229,28.625954198473284,-14.763358778625955,-8.71489404296875,-0.15562310791015624,1.3024457031249999,29.389312977099237,-8.65648854961832,-22.595419847328245,0.0
13.37000036239624,-10.330980163574218,0.2657563842773437,1.6903063720703124,28.595419847328245,29.14503816793893,-16.549618320610687,-8.980650427246093,0.0383072265625,1.6543933471679686,34.80916030534351,-8.396946564885496,-21.49618320610687,0.0
13.380000591278076,-9.883264453125,1.5586252807617187,1.1827356201171875,28.091603053435115,27.709923664122137,-17.206106870229007,-8.94473740234375,0.26815058593749996,1.6927005737304686,38.12213740458015,-8.381679389312977,-21.541984732824428,0.0
13.390000581741333,-9.641450085449218,1.4604630126953124,0.8738836059570312,24.47328244274809,26.885496183206108,-16.412213740458014,-9.121908325195312,0.7924807495117187,1.637633935546875,35.81679389312977,-6.8396946564885495,-20.442748091603054,0.0
13.40000033378601,-9.897629663085937,2.224213342285156,1.2330138549804688,23.404580152671755,28.35114503816794,-15.48091603053435,-9.677363110351562,0.3327940307617187,2.262520568847656,32.30534351145038,-5.221374045801527,-18.9618320610687,0.0
13.410000562667847,-9.95987890625,2.5354595581054684,1.1827356201171875,12.580152671755725,24.80916030534351,-16.106870229007633,-8.844180932617187,1.1611878051757811,1.6256629272460936,29.96946564885496,-7.465648854961832,-19.557251908396946,0.0
13.420000791549683,-8.877699755859375,2.540247961425781,0.3950432739257812,9.801526717557252,23.587786259541986,-14.15267175572519,-8.975862023925782,0.9744400756835937,1.7788918334960937,24.244274809160306,-4.061068702290076,-17.64885496183206,0.0
13.43000054359436,-10.467449658203124,2.2074539306640624,0.7493851196289062,0.9312977099236641,25.00763358778626,-13.49618320610687,-8.882488159179687,0.9457096557617187,1.7381904052734374,21.16030534351145,-3.3587786259541983,-16.65648854961832,0.0
13.440000772476196,-7.991845141601562,1.5203180541992187,-0.181959326171875,-0.13740458015267176,21.740458015267176,-11.404580152671755,-8.499415893554687,0.9121908325195311,1.707065783691406,17.450381679389313,-1.6488549618320612,-16.259541984732824,0.0
13.450000524520874,-9.521740002441407,2.3774422485351563,0.9792284790039062,-3.8931297709923665,27.0381679389313,-11.114503816793894,-8.717288244628906,0.5195417602539062,1.7214309936523438,17.328244274809162,-0.21374045801526717,-15.389312977099237,0.0
13.460000991821289,-10.682927807617187,1.66636435546875,0.8571241943359375,-2.931297709923664,29.358778625954198,-10.549618320610687,-8.228871105957031,0.5099649536132812,1.419761584472656,15.679389312977099,1.9541984732824427,-14.702290076335878,0.0
13.470000267028809,-7.75721337890625,0.5339069702148437,-0.13407529296874998,1.2671755725190839,27.389312977099237,-9.083969465648854,-8.10197841796875,0.21308394775390624,1.407790576171875,16.53435114503817,3.450381679389313,-14.595419847328245,0.0
13.480000495910645,-8.317456567382813,1.2785036865234374,0.33518823242187495,1.9236641221374047,29.61832061068702,-11.816793893129772,-8.125920434570313,-0.062249243164062495,1.5155296508789062,17.282442748091604,6.549618320610687,-13.755725190839694,0.0
13.490000247955322,-8.588001354980468,1.4891934326171874,0.2609679809570312,-1.7557251908396947,29.221374045801525,-13.49618320610687,-7.857769848632812,0.06943184814453125,1.3670891479492187,18.47328244274809,8.65648854961832,-13.297709923664122,0.0
13.500000476837158,-8.683769421386717,1.2378022583007813,0.4525041137695312,-2.351145038167939,29.19083969465649,-12.351145038167939,-7.201758593749999,0.1580173095703125,1.0390835205078124,17.587786259541986,10.625954198473282,-12.931297709923664,0.0
13.510000705718994,-8.346186987304687,0.7852981445312499,1.1180921752929687,-5.480916030534351,29.954198473282442,-12.122137404580153,-7.433996154785156,-0.00239420166015625,0.967257470703125,17.786259541984734,12.916030534351146,-10.717557251908397,0.0
13.520000696182251,-8.403647827148436,1.0103531005859374,1.254561669921875,-7.633587786259542,26.33587786259542,-11.709923664122137,-7.003039855957031,0.28969840087890625,0.5219359619140624,16.641221374045802,15.648854961832061,-9.450381679389313,0.0
13.530000925064087,-11.001356628417968,1.6256629272460936,3.2417490478515623,-12.977099236641221,27.358778625954198,-12.061068702290076,-7.287949853515625,0.21068974609375,0.5770026000976562,15.32824427480916,18.580152671755727,-8.274809160305344,0.0
13.540000677108765,-11.513715783691406,1.0007762939453124,3.450044592285156,-8.366412213740459,23.34351145038168,-10.549618320610687,-7.563283044433593,-0.055066638183593745,1.3766659545898436,11.526717557251908,21.068702290076335,-7.923664122137405,0.0
13.550000667572021,-11.901576452636718,1.5562310791015623,4.96078583984375,-7.3893129770992365,17.61832061068702,-11.48091603053435,-8.836998327636719,-1.3407529296874998,3.4165257690429685,7.129770992366412,20.870229007633586,-8.458015267175572,0.0
13.560000658035278,-11.863269226074218,0.7661445312499999,5.099649536132812,-17.221374045801525,5.038167938931298,-12.702290076335878,-9.888052856445311,-2.3870190551757813,3.361459130859375,7.6183206106870225,17.587786259541986,-7.175572519083969,0.0
13.570000886917114,-11.827356201171874,-0.09816226806640624,5.80354482421875,-3.786259541984733,-2.16793893129771,-11.954198473282442,-10.321403356933594,-1.5897499023437498,2.0254946044921875,15.893129770992367,14.01526717557252,-5.709923664122138,0.0
13.580000877380371,-11.712434521484374,-0.28490999755859375,7.151480358886718,3.9083969465648853,-13.251908396946565,-12.946564885496183,-10.005368737792969,1.6328455322265625,0.39743747558593745,22.580152671755727,13.068702290076336,-6.9465648854961835,0.0
13.590000867843628,-11.681309899902343,-0.02633621826171875,7.881711865234375,17.480916030534353,-24.82442748091603,-14.488549618320612,-11.0707884765625,3.143586779785156,0.7278373046875,27.51145038167939,15.938931297709924,-3.984732824427481,0.0
13.600000619888306,-12.12423720703125,0.35194764404296874,8.82263311767578,35.038167938931295,-36.82442748091603,-14.977099236641221,-10.223241088867187,4.455609289550781,1.6112977172851561,16.80916030534351,26.748091603053435,-2.427480916030534,0.0
13.610000610351562,-11.69567510986328,-0.15562310791015624,9.555258825683593,54.36641221374046,-49.6793893129771,-12.0,-10.9941740234375,1.5275006591796874,2.090138049316406,4.9465648854961835,27.69465648854962,-0.3053435114503817,0.0
13.62000060081482,-14.470554833984375,3.766079211425781,11.276689819335937,53.786259541984734,-65.31297709923665,-11.236641221374045,-10.524910498046875,-1.3934253662109375,1.448492004394531,3.4198473282442747,26.137404580152673,-2.0610687022900764,0.0
13.630000591278076,-14.334085339355468,5.121197351074218,10.28549033203125,33.6793893129771,-93.87786259541984,-8.885496183206106,-10.474632263183594,-1.8770541015625,0.5195417602539062,10.274809160305344,25.19083969465649,-3.3435114503816794,0.0
13.640000343322754,-14.906299536132812,5.406107348632812,9.447519750976562,11.038167938931299,-121.49618320610686,-2.427480916030534,-7.896077075195312,1.5634136840820312,-0.8379705810546875,8.50381679389313,27.557251908396946,-3.114503816793893,0.0
13.65000057220459,-14.927847351074218,4.072537023925781,9.129090930175781,-7.9541984732824424,-145.54198473282443,6.259541984732825,-8.736441857910156,2.4851813232421875,-0.45968671875,2.2595419847328246,37.587786259541986,3.5877862595419847,0.0
13.660000324249268,-16.3571857421875,1.7884686401367187,8.55448253173828,-16.564885496183205,-164.41221374045801,12.610687022900763,-10.87925234375,1.1923124267578125,0.13646949462890623,4.549618320610687,36.35114503816794,6.641221374045801,0.0
13.670000314712524,-15.404293481445311,-1.0893617553710937,6.8210805297851556,-3.7099236641221376,-185.84732824427482,15.98473282442748,-9.720458740234374,1.9871873779296874,0.06703764648437499,0.732824427480916,34.35114503816794,1.6641221374045803,0.0
13.68000054359436,-16.180014819335938,-2.3487118286132813,5.367800122070312,9.526717557251908,-196.3969465648855,14.534351145038167,-11.317391247558593,-0.9193734375,2.142810485839844,-7.358778625954199,37.083969465648856,3.9389312977099236,0.0
13.690000534057617,-16.136919189453124,-2.916137622070312,4.9823336547851556,17.282442748091604,-206.74809160305344,11.16030534351145,-10.165780249023436,-0.8810662109374999,1.7956512451171873,-11.145038167938932,29.114503816793892,2.122137404580153,0.0
13.700000762939453,-14.765041638183593,-1.2569558715820313,4.177881896972656,31.801526717557252,-208.42748091603053,11.022900763358779,-9.17458076171875,1.9536685546875,0.1149216796875,-13.725190839694656,21.908396946564885,-3.435114503816794,0.0
13.71000051498413,-13.567940808105467,1.879448303222656,1.9321207397460936,40.0,-206.10687022900763,13.557251908396946,-8.322244970703125,2.5570073730468748,1.3383587280273437,-43.11450381679389,37.23664122137404,2.50381679389313,0.0
13.720000267028809,-11.927912670898436,3.6655227416992187,0.5219359619140624,26.50381679389313,-198.27480916030535,19.0381679389313,-9.548076220703125,1.9919757812499999,0.7900865478515624,-49.66412213740458,30.106870229007633,8.580152671755725,0.0
13.730000495910645,-9.519345800781249,3.775656018066406,-2.73896669921875,14.946564885496183,-185.72519083969465,25.633587786259543,-9.382876306152344,2.2577321655273437,0.7805097412109374,-62.25954198473283,37.45038167938932,11.236641221374045,0.0
13.740000486373901,-7.5537062377929685,1.6065093139648436,-3.6104561035156246,-2.9160305343511452,-170.59541984732823,28.641221374045802,-6.440402465820312,1.7094599853515624,-1.2210428466796874,-72.73282442748092,34.99236641221374,11.465648854961833,0.0
13.750000238418579,-6.730100866699218,-0.6200982299804687,-3.347093920898437,-14.854961832061068,-149.49618320610688,24.82442748091603,-6.48589229736328,0.33518823242187495,-2.0973206542968748,-104.73282442748092,61.20610687022901,19.480916030534353,0.0
13.760000467300415,-6.325480786132812,-1.656787548828125,-2.5330653564453125,-19.358778625954198,-128.83969465648855,18.442748091603054,-6.268019946289062,-0.0526724365234375,-4.302380383300781,-99.20610687022901,52.44274809160305,22.30534351145038,0.0
13.770000696182251,-7.2903440551757805,-0.5243301635742187,-1.5035586425781249,-12.13740458015267,-109.46564885496183,12.610687022900763,-9.325415466308593,-1.9656395629882812,-3.028665100097656,-111.5114503816794,67.55725190839695,29.053435114503817,0.0
13.780000448226929,-8.01818135986328,-1.7980454467773437,-1.20667763671875,-4.885496183206107,-93.77099236641222,9.618320610687023,-11.872846032714843,-4.620809204101562,0.00239420166015625,-77.40458015267176,59.89312977099237,32.916030534351144,0.0
13.790000915527344,-11.415553515625,1.9416975463867185,2.3127988037109373,10.900763358778626,-74.10687022900764,7.969465648854962,-11.978190905761718,-5.295974072265625,0.8403647827148437,-40.85496183206107,49.55725190839695,30.12213740458015,0.0
13.800000667572021,-12.069170568847655,1.4149731811523436,1.8148048583984373,8.15267175572519,-78.27480916030534,14.01526717557252,-10.364498986816406,-3.775656018066406,0.316034619140625,-30.916030534351144,52.6412213740458,27.740458015267176,0.0
13.810000658035278,-9.093177905273437,-1.7573440185546874,1.6256629272460936,20.045801526717558,-69.89312977099236,21.984732824427482,-8.66940421142578,-2.8371289672851563,-0.6153098266601562,-19.69465648854962,44.50381679389313,22.580152671755727,0.0
13.820000648498535,-8.149862451171874,-2.24097275390625,1.2617442749023438,31.328244274809162,-64.41221374045801,19.129770992366414,-8.487444885253906,-2.612074011230469,-0.3136404174804687,-2.4427480916030535,36.396946564885496,19.87786259541985,0.0
13.830000638961792,-8.614337573242187,-1.4867992309570313,1.9129671264648436,34.595419847328245,-58.778625954198475,15.450381679389313,-8.468291271972657,-0.06703764648437499,-1.6903063720703124,8.549618320610687,35.29770992366412,18.458015267175572,0.0
13.84000039100647,-10.345345373535155,1.917755529785156,3.9552211425781247,23.0381679389313,-57.908396946564885,13.587786259541986,-10.220846887207031,-1.0941501586914062,-0.19153613281249998,-0.0916030534351145,42.656488549618324,22.12213740458015,0.0
13.850000619888306,-9.811438403320311,2.4516625,3.864241479492187,1.3282442748091603,-69.46564885496183,15.954198473282442,-11.805808386230469,-2.5330653564453125,2.0542250244140625,30.045801526717558,36.35114503816794,24.748091603053435,0.0
13.860000610351562,-8.245630517578125,0.45010991210937495,2.9664158569335934,-7.404580152671755,-76.58015267175573,21.572519083969464,-12.9095353515625,-2.901772412109375,3.1962592163085937,51.87786259541985,32.30534351145038,21.96946564885496,0.0
13.87000036239624,-7.062894897460937,-1.8267758666992187,2.50912333984375,1.6793893129770991,-72.07633587786259,22.625954198473284,-8.623914379882812,1.5849614990234373,-1.005564697265625,56.916030534351144,22.30534351145038,13.511450381679388,0.0
13.880000591278076,-6.282385156249999,-2.020706201171875,2.1404162841796874,-1.4961832061068703,-72.85496183206106,18.12213740458015,-8.765172277832031,1.2378022583007813,-0.181959326171875,45.11450381679389,21.52671755725191,12.717557251908397,0.0
13.890000581741333,-6.057330200195312,-1.89620771484375,2.741360900878906,-0.7786259541984732,-65.37404580152672,13.83206106870229,-9.234435803222656,1.2880804931640624,0.009576806640625,34.99236641221374,21.61832061068702,16.53435114503817,0.0
13.900001049041748,-5.384559533691406,-2.518700146484375,2.4971523315429685,-2.564885496183206,-63.6793893129771,8.061068702290076,-10.828974108886719,0.2059013427734375,1.5251064575195312,31.709923664122137,23.83206106870229,18.213740458015266,0.0
13.910000324249268,-4.508281726074219,-3.095702746582031,2.920926025390625,8.748091603053435,-53.00763358778626,4.412213740458015,-11.314997045898437,-0.3854664672851562,1.7693150268554687,23.374045801526716,24.458015267175572,16.9618320610687,0.0
13.920000314712524,-5.080495922851562,-2.1356278808593747,3.725377783203125,16.778625954198475,-43.3587786259542,-2.854961832061069,-10.007762939453125,0.19153613281249998,0.9720458740234375,19.480916030534353,24.65648854961832,15.664122137404581,0.0
13.93000054359436,-5.116408947753906,-1.448492004394531,3.835511059570312,19.770992366412212,-39.57251908396947,-8.351145038167939,-11.659762084960937,-1.879448303222656,2.6862942626953124,24.35114503816794,22.732824427480917,16.946564885496183,0.0
13.940000534057617,-6.524199523925781,-0.22744915771484372,4.517858532714843,26.12213740458015,-31.328244274809162,-11.419847328244275,-11.233594189453123,-2.01112939453125,1.5753846923828123,35.49618320610687,12.83969465648855,14.564885496183207,0.0
13.950000524520874,-7.79552060546875,1.6519991455078125,5.046977099609375,21.297709923664122,-29.84732824427481,-12.106870229007633,-13.4458365234375,-3.9145197143554684,3.5960908935546874,37.70992366412214,12.793893129770993,12.045801526717558,0.0
13.96000075340271,-4.707000463867187,-0.5817910034179687,3.208230224609375,31.358778625954198,-28.0,-5.648854961832061,-10.326191760253906,-2.389413256835937,1.0438719238281249,50.16793893129771,1.8778625954198473,5.267175572519084,0.0
13.970000267028809,-5.664681127929687,2.0183119995117185,4.862623571777344,35.93893129770992,-20.38167938931298,-6.900763358778626,-9.854534033203125,0.603338818359375,0.5147533569335937,30.290076335877863,7.145038167938932,-0.030534351145038167,0.0
13.980000734329224,-6.909665991210937,3.871424084472656,6.119579443359375,14.961832061068701,-22.83969465648855,-7.083969465648855,-12.904746948242186,-2.882618798828125,4.347870214843749,25.603053435114504,19.31297709923664,7.465648854961832,0.0
13.990000486373901,-6.967126831054687,2.3223756103515623,6.385335827636719,1.1908396946564885,-27.00763358778626,-3.3893129770992365,-13.776236352539062,-7.323862878417969,6.514622717285156,70.79389312977099,-4.1679389312977095,8.778625954198473,0.0
14.000000476837158,-6.993463049316406,1.3551181396484375,6.203376501464843,11.053435114503817,-26.83969465648855,-0.015267175572519083,-10.237606298828124,-3.1387983764648437,0.1292868896484375,89.16030534351145,-29.46564885496183,-4.656488549618321,0.0
14.010000705718994,-6.663063220214843,1.9488801513671874,7.252036828613281,8.83969465648855,-26.50381679389313,1.0076335877862594,-8.951920007324219,-1.2952630981445312,1.2617442749023438,63.25190839694657,-14.229007633587786,-13.664122137404581,0.0
14.020000696182251,-5.839457849121094,1.7357962036132812,7.44357296142578,-2.4122137404580153,-29.81679389312977,0.9770992366412213,-8.858546142578124,-1.5203180541992187,1.5107412475585937,75.41984732824427,-23.083969465648856,-15.419847328244275,0.0
14.030000925064087,-5.576095666503906,2.6479870361328124,7.524975817871093,-4.793893129770993,-31.435114503816795,-0.1984732824427481,-8.86094034423828,0.3806780639648437,0.181959326171875,46.732824427480914,-22.259541984732824,-13.740458015267176,0.0
14.040000677108765,-5.365405920410156,2.521094348144531,8.13310303955078,-15.038167938931299,-32.152671755725194,2.2595419847328246,-8.429984045410155,2.4899697265625,-0.6751648681640625,37.51145038167939,-23.389312977099237,-12.213740458015268,0.0
14.0500009059906,-3.756502404785156,1.9536685546875,7.275978845214843,-14.290076335877863,-29.374045801526716,5.129770992366412,-8.757989672851561,3.5194764404296874,-0.8188169677734375,10.0,-9.114503816793894,-4.137404580152672,0.0
14.060000658035278,-2.9041666137695312,1.8339584716796873,7.501033801269531,-15.374045801526718,-21.221374045801525,6.900763358778626,-9.354145886230468,2.636016027832031,-0.11013327636718749,-2.183206106870229,2.946564885496183,3.49618320610687,0.0
14.070000648498535,-1.62805712890625,0.22026655273437498,6.6271501953125,-9.312977099236642,-16.106870229007633,8.854961832061068,-9.165003955078124,1.149216796875,0.02633621826171875,-0.9312977099236641,7.404580152671755,8.793893129770993,0.0
14.080000638961792,-2.7078420776367187,0.97683427734375,7.314286071777343,9.893129770992367,-2.900763358778626,10.366412213740459,-9.363722692871093,0.6416460449218749,-0.9313444458007812,0.22900763358778625,10.13740458015267,10.274809160305344,0.0
14.09000039100647,-4.467580297851562,3.928884924316406,7.381323718261719,5.893129770992366,1.3435114503816794,9.419847328244275,-10.081983190917969,0.5482721801757812,-1.0295067138671874,2.8244274809160306,14.717557251908397,12.244274809160306,0.0
14.100000858306885,-0.6607996582031249,0.06464344482421874,2.9544448486328125,5.893129770992366,5.984732824427481,16.65648854961832,-10.50815108642578,2.0470424194335934,-1.879448303222656,-9.709923664122137,20.458015267175572,14.916030534351146,0.0
14.110000610351562,-1.1037269653320312,-1.3910311645507811,4.347870214843749,30.702290076335878,32.0763358778626,17.328244274809162,-10.651803186035156,3.1004911499023438,-1.7597382202148437,-25.938931297709924,31.0381679389313,20.38167938931298,0.0
14.12000060081482,-4.826710546875,0.23702596435546874,4.970362646484375,43.87786259541985,44.48854961832061,15.114503816793894,-11.188104357910156,1.3455413330078123,-1.01514150390625,-31.84732824427481,39.343511450381676,29.69465648854962,0.0
14.130000591278076,-3.0933085449218747,-5.480327600097656,1.6639701538085936,63.20610687022901,52.83969465648855,19.755725190839694,-12.739547033691405,-0.6703764648437499,-0.9217676391601562,-23.862595419847327,36.412213740458014,34.213740458015266,0.0
14.140000581741333,-6.284779357910156,-5.767631799316406,6.086060620117187,100.62595419847328,81.74045801526718,9.053435114503817,-12.401964599609375,0.5458779785156249,-1.6328455322265625,-23.053435114503817,32.68702290076336,30.12213740458015,0.0
14.15000057220459,-11.022904443359375,-0.373495458984375,8.836998327636719,100.80916030534351,81.80152671755725,-6.99236641221374,-12.030863342285155,-0.622492431640625,-0.201112939453125,-23.251908396946565,42.42748091603053,30.47328244274809,0.0
14.160000801086426,-13.273454003906249,4.920084411621094,9.363722692871093,81.25190839694656,71.92366412213741,-11.32824427480916,-12.076353173828124,-2.3918074584960936,0.3280056274414062,-13.511450381679388,39.38931297709924,31.16030534351145,0.0
14.170000314712524,-11.549628808593749,8.329427575683594,4.666299035644531,58.0763358778626,61.61832061068702,-1.5114503816793894,-12.449848632812499,-0.22026655273437498,-0.30406361083984373,-11.49618320610687,32.83969465648855,29.374045801526716,0.0
14.18000078201294,-9.935936889648437,7.580042456054687,2.6910826660156246,22.748091603053435,61.51145038167939,3.7557251908396947,-12.248735693359373,-0.18435352783203124,0.5961562133789062,-14.778625954198473,38.19847328244275,30.213740458015266,0.0
14.190000534057617,-7.615955480957031,2.384624853515625,0.7206546997070312,-8.51908396946565,52.06106870229008,4.900763358778626,-13.486537951660155,-1.7214309936523438,0.9528922607421875,2.2748091603053435,33.64885496183206,29.083969465648856,0.0
14.200000762939453,-7.074865905761718,-3.3016040893554686,1.8698714965820311,4.99236641221374,63.43511450381679,4.183206106870229,-12.73715283203125,0.03591302490234375,-0.023942016601562498,5.603053435114504,20.68702290076336,23.267175572519083,0.0
14.21000051498413,-5.999869360351562,-5.363011718749999,1.889025109863281,20.16793893129771,69.00763358778626,-2.8244274809160306,-12.157756030273436,2.4157494750976563,-0.22026655273437498,-4.0458015267175576,20.366412213740457,20.519083969465647,0.0
14.220000505447388,-7.9655089233398435,-2.3319524169921872,2.221819140625,36.80916030534351,80.51908396946565,-11.236641221374045,-13.603853833007811,1.2976572998046874,1.4053963745117186,-7.709923664122138,23.34351145038168,24.916030534351144,0.0
14.230000495910645,-10.560823522949217,1.707065783691406,2.0087351928710935,38.88549618320611,84.93129770992367,-17.893129770992367,-14.698003991699219,0.28969840087890625,1.9943699829101562,-1.3282442748091603,15.236641221374045,24.717557251908396,0.0
14.240000247955322,-8.726865051269531,0.41419688720703124,0.6464344482421874,44.61068702290076,88.90076335877863,-14.870229007633588,-12.947842578125,0.7062894897460937,1.0773907470703123,2.564885496183206,0.183206106870229,18.18320610687023,0.0
14.250000238418579,-9.792284790039062,-0.01915361328125,1.7741034301757812,49.19083969465649,100.45801526717557,-18.229007633587788,-12.375628381347655,0.5530605834960938,1.6208745239257811,0.183206106870229,-4.244274809160306,14.045801526717558,0.0
14.260000705718994,-11.537657800292967,3.421314172363281,2.9927520751953125,32.29007633587786,100.93129770992367,-27.557251908396946,-10.601524951171875,2.1715409057617188,1.2306196533203124,-9.17557251908397,-9.32824427480916,9.954198473282442,0.0
14.270000696182251,-7.71890615234375,1.4963760375976562,0.3806780639648437,23.740458015267176,97.78625954198473,-22.48854961832061,-10.639832177734375,2.602497204589844,0.9552864624023437,-19.557251908396946,-15.114503816793894,10.13740458015267,0.0
14.280000686645508,-7.364564306640625,0.0430956298828125,0.5506663818359374,41.63358778625954,111.12977099236642,-21.84732824427481,-10.067617980957031,2.7533319091796873,0.928950244140625,-32.6412213740458,-19.022900763358777,10.274809160305344,0.0
14.290000915527344,-11.789048974609374,4.805162731933594,2.616862414550781,33.86259541984733,113.77099236641222,-29.938931297709924,-9.847351428222655,2.24097275390625,1.005564697265625,-40.961832061068705,-21.053435114503817,10.320610687022901,0.0
14.300000429153442,-9.993397729492187,4.311957189941406,1.254561669921875,18.015267175572518,107.64885496183206,-23.31297709923664,-10.493785876464843,1.3048399047851562,1.01514150390625,-46.61068702290076,-25.572519083969464,10.549618320610687,0.0
14.310000896453857,-8.793902697753905,1.8626888916015625,1.3910311645507811,22.47328244274809,112.35114503816794,-18.80916030534351,-10.230423693847655,-0.19632453613281248,1.3910311645507811,-47.267175572519086,-30.33587786259542,8.01526717557252,0.0
14.320000648498535,-9.842563024902343,2.616862414550781,2.8275521606445313,23.87786259541985,113.0381679389313,-20.229007633587788,-8.951920007324219,-0.26336218261718747,0.7062894897460937,-44.0763358778626,-39.81679389312977,1.6488549618320612,0.0
14.330000638961792,-10.062829577636718,3.1268273681640624,3.23696064453125,8.961832061068701,105.29770992366412,-21.358778625954198,-9.631873278808593,0.1292868896484375,0.8954314208984374,-43.05343511450382,-41.87786259541985,-1.7557251908396947,0.0
14.340000629425049,-9.832986218261718,4.153939880371094,2.8012159423828122,-3.4656488549618323,97.25190839694656,-19.64885496183206,-8.195352282714843,-0.29448680419921874,-0.565031591796875,-47.43511450381679,-48.82442748091603,-7.435114503816794,0.0
14.350000619888306,-9.708487731933593,4.007893579101562,2.6958710693359373,-22.793893129770993,88.45801526717557,-18.900763358778626,-10.096348400878906,0.03591302490234375,-0.14604630126953125,-46.47328244274809,-46.534351145038165,-9.251908396946565,0.0
14.360000610351562,-9.279925634765624,2.85388837890625,2.710236279296875,-33.847328244274806,81.06870229007633,-15.755725190839694,-10.046070166015625,-0.3136404174804687,0.105344873046875,-42.61068702290076,-47.55725190839695,-13.16030534351145,0.0
14.37000060081482,-9.639055883789062,1.6615759521484375,3.201047619628906,-36.74809160305343,76.93129770992367,-13.49618320610687,-9.87608184814453,-0.34237083740234375,-0.45968671875,-35.17557251908397,-48.25954198473283,-18.33587786259542,0.0
14.380000352859497,-9.258377819824219,-1.0342951171875,2.6623522460937497,-28.50381679389313,74.27480916030534,-10.916030534351146,-8.556876733398436,0.07422025146484375,-1.0031704956054688,-0.061068702290076333,-62.045801526717554,-29.282442748091604,0.0
14.390000581741333,-10.907982763671875,2.3535002319335936,4.3622354248046875,-18.549618320610687,70.83969465648855,-12.15267175572519,-7.153874560546875,1.4604630126953124,-1.9584569580078124,-15.694656488549619,-47.93893129770992,-30.946564885496183,0.0
14.40000033378601,-10.771513269042968,2.0350714111328125,3.5697546752929687,-39.16030534351145,63.282442748091604,-13.755725190839694,-8.453926062011718,0.9792284790039062,-1.0989385620117187,-7.404580152671755,-48.2442748091603,-27.435114503816795,0.0
14.410000324249268,-8.458714465332031,0.3136404174804687,2.1068974609374997,-31.099236641221374,62.2442748091603,-11.19083969465649,-7.6279264892578125,2.068590234375,-2.104503259277344,-5.587786259541985,-49.63358778625954,-29.6793893129771,0.0
14.420000791549683,-9.172186560058593,0.11252747802734374,2.7341782958984373,-20.213740458015266,62.18320610687023,-12.076335877862595,-7.316680273437499,4.273649963378906,-1.7022773803710936,-15.129770992366412,-38.35114503816794,-25.84732824427481,0.0
14.43000054359436,-11.262324609375,2.5617957763671875,4.036623999023437,-28.53435114503817,61.23664122137404,-15.541984732824428,-6.050147595214844,4.125209460449218,-2.176329309082031,-27.49618320610687,-31.84732824427481,-17.633587786259543,0.0
14.440000772476196,-8.588001354980468,0.8116343627929687,1.3048399047851562,-35.86259541984733,53.05343511450382,-14.366412213740459,-7.886500268554687,2.978386865234375,-2.231395947265625,-29.572519083969464,-28.641221374045802,-12.213740458015268,0.0
14.450000524520874,-12.00213292236328,2.8850130004882812,3.9312791259765625,-27.862595419847327,58.656488549618324,-14.748091603053435,-9.191340173339842,1.0797849487304687,-0.8930372192382812,-26.442748091603054,-18.50381679389313,-6.99236641221374,0.0
14.46000075340271,-9.188945971679686,0.0718260498046875,1.695094775390625,-42.48854961832061,43.038167938931295,-13.48091603053435,-8.358157995605469,0.9361328491210937,-1.2138602416992186,-22.885496183206108,-19.755725190839694,-10.15267175572519,0.0
14.470000267028809,-7.920019091796875,-2.0350714111328125,0.622492431640625,-22.580152671755727,45.083969465648856,-9.007633587786259,-9.282319836425781,-1.484405029296875,0.13407529296874998,-8.427480916030534,-17.49618320610687,-7.9541984732824424,0.0
14.480000495910645,-10.204087475585936,-1.254561669921875,2.5043349365234375,-7.190839694656488,50.2442748091603,-12.992366412213741,-9.239224206542968,-0.93852705078125,0.023942016601562498,7.709923664122138,-22.778625954198475,-14.625954198473282,0.0
14.490000247955322,-11.149797131347656,1.5682020874023437,2.896984008789062,-13.893129770992367,46.42748091603053,-16.16793893129771,-9.622296472167967,-0.3399766357421875,-0.00718260498046875,25.282442748091604,-31.0381679389313,-18.595419847328245,0.0
14.500000476837158,-11.575965026855467,3.1579519897460937,2.360682836914062,-21.328244274809162,40.93129770992366,-15.068702290076336,-8.21690009765625,2.952050646972656,-1.6998831787109374,20.076335877862597,-32.70229007633588,-20.18320610687023,0.0
14.510000705718994,-11.202469567871093,3.4620156005859375,1.8507178833007811,-40.61068702290076,34.6412213740458,-13.038167938931299,-9.710881933593749,2.01112939453125,0.028730419921875,12.335877862595419,-27.52671755725191,-11.435114503816793,0.0
14.520000696182251,-9.006986645507812,0.93852705078125,1.5849614990234373,-34.3206106870229,37.17557251908397,-10.564885496183207,-9.744400756835937,0.7350199096679687,-0.4213794921875,14.01526717557252,-33.343511450381676,-11.98473282442748,0.0
14.530000448226929,-8.84178673095703,0.689530078125,1.1827356201171875,-28.015267175572518,36.79389312977099,-12.534351145038167,-8.336610180664062,2.3391350219726563,-0.8978256225585937,15.374045801526718,-32.87022900763359,-18.091603053435115,0.0
14.540000677108765,-10.78348427734375,2.370259643554687,1.1827356201171875,-31.404580152671755,34.74809160305343,-14.900763358778626,-9.421183532714844,1.3048399047851562,-0.2657563842773437,10.82442748091603,-26.85496183206107,-11.755725190839694,0.0
14.5500009059906,-9.854534033203125,2.942473840332031,0.2442085693359375,-40.01526717557252,29.61832061068702,-11.877862595419847,-10.230423693847655,0.7565677246093749,0.5434837768554687,14.106870229007633,-27.17557251908397,-8.763358778625955,0.0
14.560000658035278,-9.710881933593749,2.070984436035156,0.5746083984375,-34.79389312977099,32.152671755725194,-7.9541984732824424,-9.282319836425781,0.7972691528320313,0.3447650390625,16.931297709923665,-29.984732824427482,-13.938931297709924,0.0
14.570000886917114,-11.355698474121093,2.952050646972656,2.549824768066406,-35.87786259541985,32.19847328244275,-7.66412213740458,-8.827421520996094,1.8028338500976562,0.29927520751953124,14.67175572519084,-27.267175572519083,-15.419847328244275,0.0
14.580000400543213,-8.650250598144531,2.142810485839844,1.0462661254882812,-55.49618320610687,19.84732824427481,-6.366412213740458,-9.358934289550781,1.7429788085937499,0.37828386230468747,7.770992366412214,-24.396946564885496,-10.549618320610687,0.0
14.59000039100647,-9.639055883789062,0.6105214233398437,1.4987702392578124,-54.045801526717554,22.091603053435115,-3.984732824427481,-10.002974536132811,0.229843359375,0.4333505004882812,9.068702290076336,-27.64885496183206,-10.335877862595419,0.0
14.600000381469727,-12.643778967285156,2.0159177978515626,3.0980969482421874,-34.33587786259542,27.099236641221374,-3.9236641221374047,-10.378864196777343,-0.42377369384765623,1.5586252807617187,18.732824427480917,-28.076335877862597,-14.534351145038167,0.0
14.610000610351562,-10.223241088867187,0.7038952880859375,2.492363928222656,-38.93129770992366,13.908396946564885,-5.740458015267175,-9.287108239746093,1.7908628417968748,0.33518823242187495,19.954198473282442,-33.57251908396947,-19.46564885496183,0.0
14.62000036239624,-9.418789331054686,0.3280056274414062,1.5059528442382812,-26.610687022900763,13.648854961832061,-2.9923664122137406,-10.369287390136718,1.0726023437499999,2.1787235107421874,16.564885496183205,-27.786259541984734,-11.465648854961833,0.0
14.630000591278076,-10.771513269042968,3.2249896362304686,2.8323405639648436,-26.946564885496183,13.389312977099237,-4.015267175572519,-10.802637890625,-0.39264907226562495,2.3295582153320313,24.396946564885496,-37.19083969465649,-11.908396946564885,0.0
14.640001058578491,-10.307038146972655,2.5354595581054684,0.82360537109375,-44.48854961832061,3.8931297709923665,-6.396946564885496,-8.726865051269531,2.2481553588867187,1.0127473022460938,24.366412213740457,-40.656488549618324,-17.46564885496183,0.0
14.65000033378601,-9.133879333496093,1.1516109985351561,0.36152445068359373,-32.99236641221374,3.3282442748091605,0.21374045801526717,-8.927977990722656,1.6903063720703124,1.9680337646484374,13.709923664122137,-35.98473282442748,-12.030534351145038,0.0
14.660000324249268,-9.411606726074218,-0.143652099609375,1.2018892333984375,-28.519083969465647,6.793893129770993,1.618320610687023,-9.995791931152343,0.0,2.3822306518554686,19.358778625954198,-42.54961832061068,-10.045801526717558,0.0
14.670000553131104,-8.659827404785156,-1.2617442749023438,0.15322890625,-9.893129770992367,11.435114503816793,0.030534351145038167,-8.192958081054687,2.2649147705078123,0.9002198242187499,17.34351145038168,-45.7557251908397,-15.969465648854962,0.0
14.68000078201294,-7.673416320800781,-0.9528922607421875,-0.1388636962890625,7.206106870229007,15.633587786259541,-2.0916030534351147,-9.528922607421874,0.9457096557617187,2.7150246826171873,10.01526717557252,-34.595419847328245,-9.86259541984733,0.0
14.690000534057617,-9.167398156738281,1.2138602416992186,1.5705962890624998,7.557251908396947,25.14503816793893,-8.763358778625955,-9.088389501953124,-0.33039982910156246,2.4109610717773435,12.030534351145038,-42.6412213740458,-11.404580152671755,0.0
14.700000524520874,-9.631873278808593,3.3207577026367185,0.6607996582031249,-0.7786259541984732,24.595419847328245,-11.633587786259541,-8.494627490234375,0.8882488159179687,1.1085153686523437,9.83206106870229,-43.23664122137404,-15.450381679389313,0.0
14.71000075340271,-9.509768994140625,4.04141240234375,0.411802685546875,-24.549618320610687,18.763358778625953,-9.465648854961833,-8.662221606445312,2.50912333984375,1.1133037719726562,-7.312977099236641,-34.29007633587786,-13.938931297709924,0.0
14.720000505447388,-9.478644372558593,2.729389892578125,0.22744915771484372,-36.44274809160305,18.977099236641223,-3.5877862595419847,-8.508992700195313,2.059013427734375,0.5985504150390625,-19.557251908396946,-32.30534351145038,-11.419847328244275,0.0
14.730000495910645,-9.145850341796875,0.6464344482421874,1.4125789794921875,-23.52671755725191,26.9618320610687,-1.099236641221374,-10.83376251220703,-0.05746083984375,2.408566870117187,-16.015267175572518,-24.198473282442748,-7.419847328244275,0.0
14.740000247955322,-8.212111694335936,-0.6200982299804687,1.1109095703125,-5.297709923664122,28.83969465648855,-4.595419847328245,-10.474632263183594,-0.4429273071289062,2.427720483398437,-10.16793893129771,-21.328244274809162,-10.122137404580153,0.0
14.750000476837158,-9.617508068847656,-0.1580173095703125,1.484405029296875,2.931297709923664,30.564885496183205,-10.244274809160306,-9.318232861328125,-0.9648632690429687,1.4101847778320311,0.8244274809160306,-32.94656488549618,-14.16793893129771,0.0
14.760078191757202,-11.085153686523437,0.5626373901367188,0.8164227661132812,9.725190839694656,28.458015267175572,-11.816793893129772,-9.83777462158203,-0.6631938598632812,2.0159177978515626,5.648854961832061,-31.862595419847327,-15.282442748091603,0.0
14.770000696182251,-10.687716210937499,1.6543933471679686,0.9696516723632812,10.244274809160306,24.931297709923665,-9.84732824427481,-9.536105212402344,1.3048399047851562,1.7453730102539062,3.786259541984733,-30.259541984732824,-17.435114503816795,0.0
