timestamp,Thigh_L_Acc_X,Thigh_L_Acc_Y,Thigh_L_Acc_Z,Thigh_L_Gyr_X,Thigh_L_Gyr_Y,Thigh_L_Gyr_Z,Thigh_R_Acc_X,Thigh_R_Acc_Y,Thigh_R_Acc_Z,Thigh_R_Gyr_X,Thigh_R_Gyr_Y,Thigh_R_Gyr_Z,gpio_output
10.000000476837158,-7.110778930664062,-2.2577321655273437,-2.3415292236328122,15.969465648854962,3.8931297709923665,9.435114503816793,-11.018116040039061,1.4939818359375,-3.3710359375,-5.190839694656488,18.03053435114504,9.923664122137405,0.0
10.010001182556152,-6.4643444824218745,-1.7286135986328124,-2.109291662597656,25.541984732824428,16.946564885496183,6.595419847328245,-10.884040747070312,3.1292215698242187,-3.268085266113281,-12.83969465648855,18.30534351145038,10.549618320610687,1.0
10.02000093460083,-8.609549169921875,1.6448165405273436,-1.9895815795898437,31.251908396946565,30.061068702290076,7.221374045801527,-11.88721124267578,3.1794998046874996,-2.518700146484375,-20.83969465648855,19.00763358778626,14.198473282442748,1.0
10.030001401901245,-9.679757312011718,3.6439749267578123,-1.388636962890625,28.412213740458014,38.030534351145036,8.870229007633588,-12.203245861816406,2.959233251953125,-1.7860744384765623,-29.770992366412212,17.19083969465649,17.19083969465649,1.0
10.040000677108765,-12.598289135742187,6.825868933105468,0.2537853759765625,-2.5801526717557253,33.847328244274806,7.526717557251908,-11.79862578125,2.664746447753906,-1.3359645263671873,-35.20610687022901,13.16030534351145,19.69465648854962,1.0
10.0500009059906,-12.380416784667968,3.1292215698242187,0.8403647827148437,-33.06870229007634,35.23664122137404,11.725190839694656,-11.092336291503905,2.403778466796875,-0.93852705078125,-42.97709923664122,8.488549618320612,22.33587786259542,1.0
10.060000658035278,-10.915165368652342,-0.055066638183593745,0.5123591552734374,-42.47328244274809,35.954198473282446,9.648854961832061,-10.828974108886719,1.687912170410156,-0.4477157104492187,-49.31297709923664,4.870229007633588,22.12213740458015,1.0
10.070000648498535,-8.947131604003905,-3.2632968627929686,-0.16759411621093748,-35.587786259541986,38.900763358778626,6.793893129770993,-10.589553942871094,1.2497732666015624,-0.59376201171875,-52.83969465648855,0.030534351145038167,20.717557251908396,1.0
10.080000400543213,-8.09479581298828,-3.892971899414062,0.06703764648437499,-14.106870229007633,49.541984732824424,1.0229007633587786,-10.429142431640624,0.9002198242187499,-1.0678139404296874,-53.19083969465649,-3.984732824427481,19.267175572519083,1.0
10.090000629425049,-7.8338278320312495,-2.6096798095703124,0.016759411621093748,5.00763358778626,58.152671755725194,-5.740458015267175,-10.366893188476562,0.4070142822265625,-1.6424223388671875,-51.49618320610687,-7.450381679389313,16.977099236641223,1.0
10.100000858306885,-10.809820495605468,1.22583125,1.1851298217773436,-0.7786259541984732,59.29770992366412,-12.732824427480915,-10.28549033203125,-0.143652099609375,-1.7908628417968748,-44.01526717557252,-10.320610687022901,14.16793893129771,1.0
10.110000610351562,-10.503362683105468,-1.5370774658203123,1.0606313354492187,7.083969465648855,64.3969465648855,-10.885496183206106,-11.008539233398437,-2.521094348144531,-2.6958710693359373,-26.885496183206108,-16.076335877862597,10.335877862595419,1.0
10.120210886001587,-11.707646118164062,0.9097966308593749,1.2641384765625,5.419847328244275,59.23664122137404,-17.51145038167939,-10.019733947753906,-0.24181436767578124,-2.6431986328124997,-11.129770992366412,-20.519083969465647,3.9236641221374047,1.0
10.130355596542358,-11.82975040283203,2.437297290039062,0.9600748657226562,-5.541984732824427,53.282442748091604,-17.068702290076335,-9.952696301269532,2.099714855957031,-3.1579519897460937,-8.83969465648855,-14.992366412213741,3.236641221374046,1.0
10.140001058578491,-9.957484704589843,1.2617442749023438,0.6919242797851562,-9.221374045801527,50.76335877862596,-13.450381679389313,-8.508992700195313,0.5410895751953124,-4.340687609863281,-15.49618320610687,-13.618320610687023,4.015267175572519,1.0
10.150007247924805,-10.40041201171875,0.8810662109374999,1.0103531005859374,-5.374045801526718,51.00763358778626,-14.51908396946565,-9.746794958496093,-1.0031704956054688,-4.039018200683594,1.4961832061068703,-6.442748091603053,4.961832061068702,1.0
10.1600182056427,-10.146626635742187,0.7924807495117187,0.6536170532226562,3.145038167938931,51.05343511450382,-13.679389312977099,-8.386888415527343,-1.8291700683593748,-3.6655227416992187,10.01526717557252,-9.49618320610687,1.282442748091603,1.0
10.17028021812439,-9.141061938476563,1.5059528442382812,0.21787235107421873,12.122137404580153,53.38931297709924,-11.969465648854962,-8.992621435546875,0.1580173095703125,-2.729389892578125,25.709923664122137,-11.587786259541986,-1.9389312977099236,1.0
10.180001020431519,-8.420407238769531,2.3511060302734372,-0.1771709228515625,10.229007633587786,55.404580152671755,-11.022900763358779,-9.564835632324218,1.3910311645507811,-1.0127473022460938,30.702290076335878,-5.9541984732824424,-1.083969465648855,1.0
10.190085887908936,-8.190563879394531,3.066972326660156,0.6057330200195312,5.00763358778626,59.12977099236641,-10.442748091603054,-9.421183532714844,1.8698714965820311,-1.0917559570312498,23.114503816793892,-7.694656488549619,-0.6259541984732825,1.0
10.200000524520874,-8.932766394042968,2.5522189697265625,0.9097966308593749,-5.32824427480916,60.06106870229008,-10.381679389312977,-9.062053283691405,2.3247698120117186,-0.5746083984375,15.511450381679388,-9.16030534351145,-0.7022900763358778,1.0
10.21000051498413,-8.085219006347655,0.814028564453125,0.24899697265624998,-8.488549618320612,59.55725190839695,-8.16793893129771,-9.313444458007812,1.9009961181640624,-0.23223756103515625,11.98473282442748,-13.297709923664122,-0.7175572519083969,0.0
10.220000743865967,-8.813056311035156,0.6296750366210937,1.3551181396484375,-0.9923664122137404,65.5114503816794,-9.221374045801527,-9.208099584960937,1.936909143066406,0.17956512451171874,5.282442748091603,-17.221374045801525,-1.7557251908396947,0.0
10.230000257492065,-9.504980590820312,0.8451531860351562,1.465251416015625,-1.450381679389313,65.66412213740458,-10.931297709923664,-8.8489693359375,2.3582886352539063,0.21787235107421873,-2.732824427480916,-21.786259541984734,-3.4198473282442747,0.0
10.24000096321106,-9.006986645507812,1.3072341064453123,0.8020575561523438,-6.732824427480916,64.06106870229007,-10.488549618320612,-8.786720092773438,1.7381904052734374,0.7015010864257812,-10.381679389312977,-25.206106870229007,-4.030534351145038,0.0
10.250094175338745,-10.237606298828124,1.848323681640625,1.235408056640625,-15.236641221374045,63.32824427480916,-10.13740458015267,-9.30147344970703,-0.15562310791015624,0.277727392578125,-7.114503816793893,-33.770992366412216,-6.061068702290076,0.0
10.260000944137573,-9.804255798339844,1.6807295654296874,0.5410895751953124,-12.320610687022901,64.90076335877863,-8.106870229007633,-9.421183532714844,0.5793968017578125,0.5195417602539062,-5.175572519083969,-38.51908396946565,-8.748091603053435,0.0
10.270011186599731,-10.127473022460936,3.1962592163085937,0.928950244140625,-25.984732824427482,63.45038167938932,-7.32824427480916,-9.87608184814453,0.7254431030273437,0.833182177734375,-2.3206106870229006,-41.099236641221374,-8.83969465648855,0.0
10.280000686645508,-9.253589416503905,1.6807295654296874,0.4165910888671875,-37.9236641221374,58.88549618320611,-4.412213740458015,-9.832986218261718,-0.13407529296874998,0.22505495605468748,1.1755725190839694,-47.343511450381676,-9.725190839694656,0.0
10.290000915527344,-9.04050546875,0.055066638183593745,1.1516109985351561,-32.51908396946565,59.83206106870229,-2.7786259541984735,-9.105148913574219,1.3024457031249999,-1.66636435546875,0.10687022900763359,-55.267175572519086,-13.587786259541986,0.0
10.3000009059906,-10.20887587890625,1.0199299072265624,2.427720483398437,-37.343511450381676,56.97709923664122,-4.564885496183206,-8.597578161621094,3.6367923217773437,-1.5035586425781249,-12.992366412213741,-51.38931297709924,-11.49618320610687,0.0
10.310000896453857,-9.545682019042967,-0.5195417602539062,2.001552587890625,-45.69465648854962,52.29007633587786,-4.33587786259542,-9.636661682128906,1.8842367065429686,-1.89620771484375,-19.114503816793892,-46.79389312977099,-6.6106870229007635,0.0
10.320000886917114,-9.988609326171874,-2.4851813232421875,2.195482922363281,-25.358778625954198,53.80152671755725,-4.702290076335878,-10.127473022460936,-0.076614453125,-1.9776105712890624,-11.450381679389313,-49.86259541984733,-7.862595419847328,0.0
10.330000638961792,-10.62307276611328,-1.8435352783203125,2.6192566162109374,-6.3816793893129775,53.48091603053435,-7.755725190839694,-8.997409838867187,0.5027823486328125,-2.5330653564453125,-6.977099236641221,-51.14503816793893,-11.206106870229007,0.0
10.340000629425049,-10.764330664062498,-0.201112939453125,1.9225439331054686,-9.877862595419847,47.9236641221374,-10.83969465648855,-8.494627490234375,2.0566192260742184,-2.8275521606445313,-9.664122137404581,-47.64885496183206,-11.49618320610687,0.0
10.350001096725464,-11.269507214355468,1.8650830932617186,2.43250888671875,-16.229007633587788,43.52671755725191,-12.091603053435115,-8.743624462890624,1.199495031738281,-3.2034418212890623,-15.86259541984733,-44.3206106870229,-9.19083969465649,0.0
10.360000848770142,-10.69968721923828,1.4987702392578124,2.214636535644531,-23.480916030534353,37.343511450381676,-12.793893129770993,-10.338162768554687,0.30406361083984373,-2.4109610717773435,-10.305343511450381,-40.29007633587786,-7.587786259541985,0.0
10.37000060081482,-10.421959826660157,0.6081272216796875,0.8044517578125,-21.862595419847327,30.3206106870229,-11.068702290076336,-10.493785876464843,-1.2114660400390624,-1.6831237670898436,3.66412213740458,-42.091603053435115,-8.244274809160306,0.0
10.38007640838623,-10.364498986816406,0.3280056274414062,1.3096283081054687,-7.267175572519084,28.870229007633586,-7.984732824427481,-11.358092675781249,-1.898601916503906,-0.411802685546875,26.15267175572519,-43.603053435114504,-9.954198473282442,0.0
10.390000820159912,-10.395623608398436,0.8738836059570312,1.16837041015625,3.7099236641221376,25.541984732824428,-4.687022900763359,-10.259154113769531,-0.229843359375,-1.1516109985351561,32.961832061068705,-52.94656488549618,-14.030534351145038,0.0
10.40000033378601,-11.631031665039062,3.0550013183593747,2.2457611572265623,2.687022900763359,22.732824427480917,-3.7557251908396947,-8.779537487792968,2.6240450195312497,-1.20667763671875,26.99236641221374,-54.51908396946565,-15.86259541984733,0.0
10.410000562667847,-11.118672509765624,4.134786267089844,2.4779987182617185,-18.9618320610687,10.80916030534351,-1.5419847328244274,-9.622296472167967,2.844311572265625,-1.0295067138671874,19.14503816793893,-47.69465648854962,-11.526717557251908,0.0
10.420000791549683,-9.909600671386718,1.4915876342773438,1.4700398193359374,-24.732824427480917,4.900763358778626,2.4732824427480917,-10.726023437499999,0.70868369140625,-1.1755530151367186,16.9618320610687,-49.49618320610687,-9.541984732824428,0.0
10.430001258850098,-9.294290844726563,-0.34237083740234375,0.9433154541015625,-7.114503816793893,5.557251908396947,4.977099236641221,-9.828197814941406,0.7733271362304687,-1.180341418457031,23.46564885496183,-52.274809160305345,-12.900763358778626,0.0
10.440000772476196,-9.931148486328125,0.9696516723632812,0.7805097412109374,1.2061068702290076,4.320610687022901,3.8625954198473282,-8.48505068359375,2.003946789550781,-2.1619640991210938,19.404580152671755,-48.595419847328245,-13.251908396946565,0.0
10.450000524520874,-9.315838659667968,0.9935936889648437,-0.0143652099609375,-4.412213740458015,2.7480916030534353,3.7557251908396947,-9.79946739501953,2.1116858642578125,-1.0510545288085937,15.83206106870229,-39.221374045801525,-8.748091603053435,0.0
10.46000075340271,-10.788272680664061,1.917755529785156,1.6472107421875,-0.2595419847328244,7.816793893129771,1.4045801526717556,-9.083601098632812,0.296881005859375,-1.7717092285156248,11.389312977099237,-41.83206106870229,-8.732824427480915,0.0
10.470000267028809,-11.10191309814453,0.9600748657226562,1.1324573852539062,-3.66412213740458,4.564885496183206,-1.6030534351145038,-10.409988818359375,-0.4740519287109375,-0.7493851196289062,26.106870229007633,-34.88549618320611,-9.938931297709924,0.0
10.480000972747803,-10.302249743652343,0.41898529052734373,0.9888052856445312,4.99236641221374,5.709923664122138,-0.8549618320610687,-9.56962403564453,-0.18914193115234373,-1.3479355346679687,31.84732824427481,-36.83969465648855,-11.816793893129772,0.0
10.490000486373901,-9.3086560546875,-0.39743747558593745,-0.5123591552734374,0.7175572519083969,0.7022900763358778,0.07633587786259542,-9.160215551757812,1.158793603515625,-2.01112939453125,32.44274809160305,-37.89312977099237,-12.854961832061068,0.0
10.500000476837158,-10.180145458984374,1.01514150390625,0.5363011718749999,10.335877862595419,5.267175572519084,-1.5267175572519085,-9.10993731689453,3.3494881225585935,-1.43652099609375,29.068702290076335,-32.29007633587786,-11.633587786259541,0.0
10.510000944137573,-9.481038574218749,0.7709329345703124,-0.45010991210937495,-0.9465648854961832,-0.12213740458015267,-1.5419847328244274,-8.700528833007812,3.574543078613281,-1.7621324218749999,12.122137404580153,-29.69465648854962,-8.687022900763358,0.0
10.520000696182251,-10.029310754394531,1.4006079711914061,-0.20350714111328125,3.435114503816794,3.0229007633587788,-0.7633587786259542,-9.1554271484375,2.2744915771484373,-0.7254431030273437,-1.1908396946564885,-21.96946564885496,-4.702290076335878,0.0
10.530000925064087,-9.641450085449218,0.8451531860351562,-0.5315127685546874,2.7480916030534353,2.717557251908397,-0.6106870229007634,-9.495403784179686,1.254561669921875,-0.7254431030273437,2.183206106870229,-20.625954198473284,-4.0,0.0
10.540000677108765,-10.283096130371094,1.2210428466796874,-0.5219359619140624,4.793893129770993,2.16793893129771,-1.0687022900763359,-9.255983618164063,0.7709329345703124,-0.7038952880859375,5.282442748091603,-17.66412213740458,-5.175572519083969,0.0
10.55000114440918,-9.380482104492186,0.086191259765625,-0.8858546142578124,12.183206106870228,4.824427480916031,-0.15267175572519084,-9.464279162597656,0.5530605834960938,-0.49799394531249996,7.862595419847328,-15.893129770992367,-5.847328244274809,0.0
10.560000896453857,-10.946289990234375,2.068590234375,1.0869675537109373,15.17557251908397,9.587786259541986,-3.6030534351145036,-9.68454571533203,0.9361328491210937,0.033518823242187495,10.244274809160306,-14.381679389312977,-6.885496183206107,0.0
10.570000886917114,-11.173739147949219,2.808398547363281,0.1149216796875,5.450381679389313,6.122137404580153,-4.091603053435114,-9.847351428222655,0.5961562133789062,-0.5195417602539062,13.526717557251908,-13.587786259541986,-6.854961832061068,0.0
10.580000638961792,-9.91438907470703,1.1061211669921875,-0.51714755859375,-3.3740458015267176,4.396946564885496,-3.8931297709923665,-9.665392102050781,1.2425906616210938,-0.239420166015625,13.801526717557252,-14.213740458015268,-6.488549618320611,0.0
10.59000039100647,-8.846575134277343,-1.369483349609375,-0.9983820922851562,5.511450381679389,6.244274809160306,-2.717557251908397,-9.897629663085937,1.0678139404296874,-0.4525041137695312,15.34351145038168,-13.572519083969466,-6.717557251908397,0.0
10.600000858306885,-9.564835632324218,-0.9959878906249999,-0.21787235107421873,25.954198473282442,13.17557251908397,-6.412213740458015,-9.983820922851562,1.0893617553710937,-0.49320554199218747,11.587786259541986,-10.946564885496183,-6.900763358778626,0.0
10.610000610351562,-9.440337145996093,0.5434837768554687,-0.30406361083984373,30.198473282442748,16.366412213740457,-9.801526717557252,-9.528922607421874,0.689530078125,-0.7015010864257812,10.274809160305344,-9.206106870229007,-7.816793893129771,0.0
10.62000060081482,-10.230423693847655,2.4684219116210935,-0.38786066894531246,24.549618320610687,16.641221374045802,-10.030534351145038,-9.828197814941406,0.6943184814453125,-0.20829554443359374,11.068702290076336,-8.564885496183207,-7.557251908396947,0.0
10.630000591278076,-9.143456140136719,1.8171990600585937,-1.5275006591796874,12.870229007633588,15.404580152671755,-9.129770992366412,-9.809044201660155,1.0773907470703123,-0.01915361328125,12.274809160305344,-8.0,-8.061068702290076,0.0
10.640000820159912,-9.495403784179686,1.2282254516601563,-1.649604943847656,5.6183206106870225,16.68702290076336,-9.282442748091603,-9.72285294189453,1.20667763671875,0.1388636962890625,11.022900763358779,-7.923664122137405,-8.274809160305344,0.0
10.65000057220459,-10.412383020019531,1.5227122558593749,-0.5674257934570313,3.49618320610687,18.18320610687023,-10.396946564885496,-9.888052856445311,1.6519991455078125,0.2753331909179687,9.694656488549619,-8.244274809160306,-8.702290076335878,0.0
10.660000801086426,-10.639832177734375,1.0893617553710937,-0.63206923828125,-1.0381679389312977,16.137404580152673,-11.099236641221374,-10.029310754394531,1.5849614990234373,0.055066638183593745,5.435114503816794,-8.610687022900763,-9.007633587786259,0.0
10.670001029968262,-9.22485899658203,-0.6488286499023437,-1.2330138549804688,-2.7786259541984735,13.694656488549619,-10.80916030534351,-9.859322436523437,1.6807295654296874,-0.26815058593749996,1.5419847328244274,-9.312977099236642,-9.49618320610687,0.0
10.68000078201294,-8.422801440429687,-1.1180921752929687,-0.9528922607421875,10.229007633587786,16.366412213740457,-10.885496183206106,-9.315838659667968,1.7214309936523438,-0.47884033203125,-3.7709923664122136,-8.274809160305344,-9.129770992366412,0.0
10.690000772476196,-9.85692823486328,0.03591302490234375,0.55545478515625,17.66412213740458,22.045801526717558,-13.404580152671755,-9.409212524414063,1.5658078857421873,-1.0007762939453124,-6.2748091603053435,-6.0458015267175576,-7.297709923664122,0.0
10.700000524520874,-9.603142858886718,1.5538368774414062,0.22266075439453123,17.603053435114504,20.076335877862597,-13.068702290076336,-9.409212524414063,0.6392518432617187,-1.0773907470703123,-4.732824427480916,-4.320610687022901,-6.702290076335878,0.0
10.71000075340271,-9.655815295410155,1.4532804077148436,-0.8164227661132812,8.65648854961832,17.358778625954198,-12.396946564885496,-9.282319836425781,0.43574470214843747,-0.9145850341796874,0.015267175572519083,-3.267175572519084,-6.580152671755725,0.0
10.720000505447388,-10.149020837402343,1.8171990600585937,0.18914193115234373,2.7786259541984735,18.763358778625953,-12.335877862595419,-8.904035974121093,0.4213794921875,-0.9720458740234375,2.5801526717557253,-2.885496183206107,-7.251908396946565,0.0
10.730000495910645,-10.658985791015624,1.4221557861328125,0.316034619140625,-0.6259541984732825,18.519083969465647,-12.13740458015267,-9.153032946777342,0.8307879760742187,-0.6272808349609375,5.267175572519084,-1.0381679389312977,-6.870229007633588,0.0
10.740000486373901,-10.467449658203124,1.3623007446289062,-0.18435352783203124,-4.67175572519084,15.938931297709924,-12.290076335877863,-8.870517150878905,1.2976572998046874,-0.74699091796875,3.3893129770992365,0.9923664122137404,-7.190839694656488,0.0
10.750000476837158,-10.991779821777342,1.6256629272460936,0.37828386230468747,-3.282442748091603,14.076335877862595,-12.305343511450381,-8.968679418945312,1.5394716674804687,-0.5889736083984375,1.297709923664122,3.6030534351145036,-6.076335877862595,0.0
10.760000944137573,-10.165780249023436,0.6177040283203125,0.6943184814453125,4.091603053435114,14.916030534351146,-11.34351145038168,-8.865728747558594,1.4915876342773438,-0.40222587890625,-1.6793893129770991,5.450381679389313,-5.312977099236641,0.0
10.77000117301941,-10.117896215820313,0.8164227661132812,0.4477157104492187,-2.0916030534351147,9.022900763358779,-10.076335877862595,-9.016563452148437,1.5921441040039062,-0.07900865478515624,-4.351145038167939,7.740458015267175,-4.534351145038168,0.0
10.780000686645508,-8.810662109374999,-0.9002198242187499,-0.18435352783203124,12.076335877862595,9.374045801526718,-7.816793893129771,-8.86812294921875,1.1109095703125,-0.13168109130859373,-6.732824427480916,9.49618320610687,-3.9236641221374047,0.0
10.790000915527344,-9.945513696289062,1.5203180541992187,0.679953271484375,8.091603053435115,8.305343511450381,-10.061068702290076,-8.710105639648438,1.20667763671875,-0.09576806640624999,-7.190839694656488,10.82442748091603,-3.877862595419847,0.0
10.800000429153442,-9.758765966796874,1.2785036865234374,0.5267243652343749,10.183206106870228,8.946564885496183,-9.816793893129772,-8.489839086914062,1.0342951171875,-0.2920926025390625,-11.17557251908397,13.374045801526718,-3.282442748091603,0.0
10.810000896453857,-10.046070166015625,2.1643583007812497,0.7398083129882812,-7.511450381679389,3.6030534351145036,-9.022900763358779,-8.530540515136718,0.4429273071289062,-0.2609679809570312,-10.412213740458014,13.236641221374045,-3.114503816793893,0.0
10.820000648498535,-9.53131680908203,-0.00239420166015625,0.5219359619140624,-2.7022900763358777,2.4427480916030535,-7.526717557251908,-8.772354882812499,-0.1005564697265625,-0.46686932373046874,-7.526717557251908,14.13740458015267,-3.282442748091603,0.0
10.830000638961792,-9.399635717773437,-0.11252747802734374,1.0007762939453124,1.8931297709923665,1.0076335877862594,-7.557251908396947,-8.726865051269531,-0.17477672119140625,-0.49799394531249996,-3.6946564885496183,14.290076335877863,-3.7404580152671754,0.0
10.840000629425049,-9.835380419921874,0.411802685546875,1.0678139404296874,5.068702290076335,-0.6412213740458015,-8.458015267175572,-8.59997236328125,0.2920926025390625,-0.63206923828125,-1.7709923664122138,14.702290076335878,-4.183206106870229,0.0
10.850000858306885,-9.725247143554688,0.7852981445312499,1.1372457885742187,7.511450381679389,-2.1374045801526718,-7.404580152671755,-8.51617530517578,0.59376201171875,-0.3806780639648437,-5.557251908396947,20.458015267175572,-2.6564885496183206,0.0
10.860000610351562,-9.562441430664062,0.6057330200195312,1.1372457885742187,3.3282442748091605,-3.8625954198473282,-7.6183206106870225,-9.30147344970703,-0.41419688720703124,0.0,-3.4198473282442747,23.893129770992367,-0.732824427480916,0.0
10.870000839233398,-9.358934289550781,-0.2537853759765625,0.6009446166992187,7.038167938931298,-5.877862595419847,-8.748091603053435,-9.337386474609374,-1.2378022583007813,-0.08858546142578125,3.0839694656488548,21.51145038167939,-3.969465648854962,0.0
10.880001306533813,-9.624690673828125,-0.19393033447265623,0.3902548706054687,11.297709923664122,-7.603053435114504,-10.366412213740459,-9.363722692871093,-1.199495031738281,-0.7062894897460937,19.068702290076335,17.81679389312977,-6.320610687022901,0.0
10.890000581741333,-9.7683427734375,0.24181436767578124,0.22266075439453123,16.717557251908396,-8.122137404580153,-11.664122137404581,-8.813056311035156,0.02154781494140625,-0.8092401611328125,22.53435114503817,17.923664122137403,-7.282442748091603,0.0
10.900000810623169,-10.330980163574218,1.6424223388671875,0.842758984375,13.694656488549619,-8.763358778625955,-12.931297709923664,-8.930372192382812,0.9265560424804687,-1.0510545288085937,22.03053435114504,18.83969465648855,-7.9541984732824424,0.0
10.910000562667847,-10.287884533691406,1.8291700683593748,0.8355763793945312,11.007633587786259,-12.13740458015267,-12.442748091603054,-9.143456140136719,1.9009961181640624,-0.258573779296875,11.114503816793894,26.03053435114504,-7.312977099236641,0.0
10.920000791549683,-10.896011755371093,2.6001030029296874,1.7166425903320313,5.267175572519084,-14.732824427480915,-9.679389312977099,-9.548076220703125,1.9321207397460936,-0.8116343627929687,2.7938931297709924,25.786259541984734,-6.778625954198473,0.0
10.93000054359436,-11.633425866699218,2.422932080078125,1.9608511596679685,4.717557251908397,-20.045801526717558,-5.847328244274809,-10.328585961914062,1.6903063720703124,-0.031124621582031248,2.3969465648854964,29.236641221374047,-5.175572519083969,0.0
10.940001010894775,-12.785036865234375,3.421314172363281,3.2537200561523436,2.6106870229007635,-26.12213740458015,-0.07633587786259542,-10.572794531249999,1.3048399047851562,-0.6775590698242188,-5.816793893129771,31.358778625954198,-4.854961832061068,0.0
10.950000762939453,-12.76827745361328,3.5386300537109374,3.8283284545898435,-15.068702290076336,-40.06106870229008,6.564885496183206,-10.599130749511717,0.46686932373046874,0.076614453125,-12.0,35.74045801526717,-4.091603053435114,0.0
10.96000075340271,-13.867216015624999,2.7940333374023436,5.0206408813476555,-17.61832061068702,-53.587786259541986,14.259541984732824,-12.966996191406249,-2.360682836914062,1.0103531005859374,-3.6946564885496183,34.97709923664122,-4.534351145038168,0.0
10.970000743865967,-14.121001391601562,-0.19871873779296872,6.375759020996093,-2.3206106870229006,-65.74045801526718,20.595419847328245,-13.697227697753906,-3.0166940917968748,1.2952630981445312,13.312977099236642,25.87786259541985,-7.984732824427481,0.0
10.980000734329224,-16.033968518066406,0.2442085693359375,8.415618835449218,12.259541984732824,-83.63358778625954,23.801526717557252,-12.713210815429687,-0.0047884033203125,0.699106884765625,27.19083969465649,13.877862595419847,-9.938931297709924,0.0
10.990000486373901,-17.025168005371093,0.967257470703125,10.579977136230468,22.35114503816794,-102.38167938931298,27.46564885496183,-10.690110412597656,3.6727053466796873,0.49320554199218747,21.129770992366414,15.633587786259541,-6.366412213740458,0.0
11.000000476837158,-17.271770776367187,0.7254431030273437,11.501744775390625,13.709923664122137,-130.93129770992365,31.251908396946565,-9.076418493652342,5.4515971801757805,-1.0366893188476562,3.4198473282442747,16.03053435114504,-2.564885496183206,0.0
11.010000944137573,-16.642095739746093,0.30885201416015623,11.563994018554688,5.923664122137405,-161.48091603053436,30.793893129770993,-9.49300958251953,3.4165257690429685,-0.15562310791015624,-15.587786259541986,20.412213740458014,6.763358778625954,0.0
11.020000696182251,-15.298948608398437,-1.6424223388671875,11.422736120605467,10.702290076335878,-188.13740458015266,27.66412213740458,-10.01015714111328,2.3582886352539063,-0.3854664672851562,-15.572519083969466,22.595419847328245,7.343511450381679,0.0
11.030000925064087,-14.11621298828125,-1.915361328125,10.900800158691405,27.893129770992367,-206.3206106870229,20.03053435114504,-10.381258398437499,-2.1021090576171875,-0.9744400756835937,-11.145038167938932,25.61832061068702,5.923664122137405,0.0
11.040000677108765,-11.834538806152343,-3.9695863525390624,6.957550024414062,35.52671755725191,-227.22137404580153,17.49618320610687,-8.987833032226561,-3.1220389648437497,-1.908178723144531,4.213740458015267,16.916030534351144,-3.4656488549618323,0.0
11.050025939941406,-9.706093530273437,-4.517858532714843,-0.11731588134765625,54.6412213740458,-231.0229007633588,14.51908396946565,-9.562441430664062,0.3806780639648437,-0.8714894042968749,14.396946564885496,20.671755725190838,-7.022900763358779,0.0
11.060000658035278,-7.874529260253905,-3.3710359375,-4.067748620605468,48.18320610687023,-227.40458015267177,4.564885496183206,-7.989450939941406,3.459621398925781,-1.659181750488281,7.221374045801527,26.641221374045802,-7.984732824427481,0.0
11.070000648498535,-7.0078282592773435,-2.8323405639648436,-8.705317236328124,31.96946564885496,-212.3053435114504,-4.824427480916031,-9.062053283691405,1.388636962890625,-1.2330138549804688,-2.9618320610687023,36.97709923664122,-2.3969465648854964,0.0
11.080000877380371,-6.179434484863281,-5.348646508789062,-8.339004382324218,51.89312977099237,-184.77862595419847,-6.320610687022901,-9.459490759277344,-0.7422025146484375,-2.5474305664062498,0.3053435114503817,37.11450381679389,-3.2519083969465647,0.0
11.090000867843628,-6.222530114746093,-7.960720520019531,-7.331045483398437,91.7557251908397,-152.42748091603053,-6.8396946564885495,-9.751583361816406,0.737414111328125,-2.221819140625,-2.198473282442748,42.045801526717554,-2.9770992366412212,0.0
11.100000619888306,-7.113173132324218,-3.833116857910156,-5.274426257324219,107.40458015267176,-122.68702290076335,-19.0381679389313,-9.392453112792968,0.11252747802734374,-0.6943184814453125,-17.19083969465649,52.67175572519084,-0.015267175572519083,0.0
11.110000610351562,-9.014169250488282,0.6751648681640625,-3.7900212280273435,105.8473282442748,-101.83206106870229,-22.671755725190838,-11.621454858398437,-3.9360675292968748,-0.1580173095703125,-2.564885496183206,52.916030534351144,3.5419847328244276,0.0
11.120000839233398,-10.381258398437499,3.1962592163085937,-2.0781670410156248,94.9618320610687,-87.14503816793894,-21.00763358778626,-11.9135474609375,-4.402936853027343,-0.7637503295898437,12.244274809160306,46.900763358778626,0.6870229007633588,0.0
11.130000829696655,-9.698910925292969,4.872200378417968,-1.2880804931640624,72.21374045801527,-74.70229007633588,-18.396946564885496,-10.31661495361328,-2.3535002319335936,-1.7549498168945312,13.664122137404581,46.6412213740458,-1.6641221374045803,0.0
11.140000820159912,-9.890447058105469,6.89530078125,-0.7613561279296874,29.099236641221374,-71.05343511450381,-14.396946564885496,-11.575965026855467,-3.6846763549804686,1.6448165405273436,20.244274809160306,51.16030534351145,1.2671755725190839,0.0
11.15000057220459,-9.715670336914062,4.946420629882812,-1.3072341064453123,1.7557251908396947,-66.42748091603053,-5.9541984732824424,-11.087547888183593,-4.242525341796875,1.7764976318359373,35.49618320610687,39.038167938931295,-0.9770992366412213,0.0
11.160000801086426,-8.640673791503906,3.852270471191406,-2.068590234375,-13.465648854961833,-61.05343511450382,1.450381679389313,-10.218452685546874,-2.7653029174804686,1.209071838378906,44.396946564885496,29.374045801526716,-4.152671755725191,0.0
11.170000553131104,-7.783549597167968,3.0214824951171875,-2.1499930908203124,-28.091603053435115,-50.67175572519084,7.068702290076335,-9.651026892089844,-0.1197100830078125,0.4165910888671875,44.58015267175573,21.954198473282442,-6.320610687022901,0.0
11.180001020431519,-6.8210805297851556,2.5163059448242184,-1.5298948608398437,-39.404580152671755,-41.23664122137404,9.404580152671755,-10.632649572753905,-0.1388636962890625,1.6927005737304686,36.961832061068705,25.328244274809162,-1.6641221374045803,0.0
11.190000534057617,-6.045359191894531,1.24498486328125,-1.4317325927734375,-43.63358778625954,-30.580152671755727,12.244274809160306,-10.005368737792969,-0.12210428466796874,0.9504980590820312,33.81679389312977,19.16030534351145,-2.3053435114503817,0.0
11.200000762939453,-5.779602807617187,0.06943184814453125,-1.1851298217773436,-39.404580152671755,-17.770992366412212,15.526717557251908,-9.916783276367187,-0.009576806640625,0.3112462158203125,27.69465648854962,15.603053435114504,-1.5419847328244274,0.0
11.21000051498413,-4.570530969238281,-0.19632453613281248,-0.26815058593749996,-28.9618320610687,3.267175572519084,16.80916030534351,-9.114725720214842,0.3136404174804687,-0.5051765502929687,22.16793893129771,13.633587786259541,-2.8396946564885495,0.0
11.220000743865967,-7.144297753906249,2.896984008789062,1.5849614990234373,-52.213740458015266,6.564885496183206,14.80916030534351,-9.361328491210937,0.30885201416015623,-0.7110778930664062,18.68702290076336,14.458015267175572,-2.366412213740458,0.0
11.230000495910645,-5.482721801757812,0.8116343627929687,2.291250988769531,-70.79389312977099,10.748091603053435,20.244274809160306,-8.757989672851561,1.22583125,-1.7094599853515624,6.534351145038168,12.458015267175572,-2.213740458015267,0.0
11.240000486373901,-5.446808776855469,0.009576806640625,3.5865140869140624,-77.93893129770993,15.816793893129772,18.38167938931298,-9.512163195800781,-0.2154781494140625,-1.5705962890624998,2.2442748091603053,14.076335877862595,0.04580152671755725,0.0
11.250000715255737,-5.360617517089843,-1.2018892333984375,3.9552211425781247,-77.45038167938931,18.68702290076336,15.450381679389313,-8.90643017578125,0.18914193115234373,-2.4349030883789062,0.2595419847328244,13.236641221374045,-1.5267175572519085,0.0
11.260163068771362,-4.453215087890625,-2.664746447753906,3.4931402221679684,-61.55725190839695,23.206106870229007,14.290076335877863,-9.287108239746093,0.3447650390625,-2.375048046875,-3.877862595419847,14.305343511450381,-0.916030534351145,0.0
11.270000457763672,-4.07971962890625,-2.8658593872070313,3.840299462890625,-29.786259541984734,38.0,11.48091603053435,-8.805873706054687,0.8044517578125,-1.889025109863281,-11.679389312977099,16.900763358778626,0.3969465648854962,0.0
11.280000686645508,-4.429273071289062,-2.6431986328124997,4.060566015625,-6.244274809160306,44.595419847328245,10.625954198473282,-9.636661682128906,-0.5363011718749999,-1.465251416015625,-8.290076335877863,18.47328244274809,2.8396946564885495,0.0
11.290000915527344,-5.367800122070312,-1.8291700683593748,5.485116003417969,21.83206106870229,57.603053435114504,9.648854961832061,-8.085219006347655,-1.24498486328125,1.2641384765625,-20.793893129770993,18.076335877862597,3.648854961832061,0.0
11.300000429153442,-6.268019946289062,-0.2705447875976562,6.584054565429687,28.625954198473284,58.82442748091603,8.625954198473282,-9.655815295410155,-1.1133037719726562,-1.1851298217773436,-8.412213740458014,16.412213740458014,3.618320610687023,0.0
11.310000896453857,-7.975085729980468,2.1739351074218747,8.14028564453125,24.0,56.045801526717554,6.854961832061068,-9.220070593261719,0.8595183959960937,-1.4101847778320311,-6.625954198473282,13.770992366412214,1.1603053435114503,0.0
11.320000886917114,-8.128314636230469,3.318363500976562,8.844180932617187,8.748091603053435,48.595419847328245,8.366412213740459,-8.55448253173828,2.1643583007812497,-0.9050082275390624,-18.27480916030534,16.671755725190838,2.7022900763358777,0.0
11.330000638961792,-8.70771143798828,3.7995980346679685,9.02135185546875,-10.778625954198473,38.2442748091603,9.98473282442748,-9.018957653808593,0.9026140258789062,-0.2537853759765625,-28.137404580152673,24.412213740458014,6.091603053435114,0.0
11.340000629425049,-9.610325463867188,3.1004911499023438,8.396465222167969,-23.61832061068702,28.732824427480917,11.282442748091603,-9.471461767578125,-1.4317325927734375,-0.9552864624023437,-28.65648854961832,26.931297709923665,7.236641221374046,0.0
11.350000619888306,-9.564835632324218,2.8036101440429686,7.41244833984375,-30.396946564885496,18.641221374045802,12.854961832061068,-9.165003955078124,-2.4947581298828125,-0.7278373046875,-24.900763358778626,20.50381679389313,4.2748091603053435,0.0
11.360000610351562,-9.035717065429687,1.9393033447265624,6.129156249999999,-32.213740458015266,12.412213740458014,16.396946564885496,-10.93671318359375,-1.8219874633789062,-0.6488286499023437,-12.717557251908397,19.709923664122137,4.137404580152672,0.0
11.370000839233398,-9.943119494628906,3.392583752441406,6.354211206054687,-37.908396946564885,7.404580152671755,17.419847328244273,-10.857704528808593,-0.277727392578125,-0.18435352783203124,-15.664122137404581,19.389312977099237,3.8625954198473282,0.0
11.380000591278076,-8.37012900390625,1.7573440185546874,6.306327172851562,-27.374045801526716,8.748091603053435,24.625954198473284,-11.003750830078124,0.02154781494140625,0.1292868896484375,-21.52671755725191,21.236641221374047,7.267175572519084,0.0
11.390000581741333,-8.336610180664062,2.0829554443359375,6.153098266601562,-22.045801526717558,6.717557251908397,27.740458015267176,-9.670180505371093,1.6615759521484375,-1.4508862060546874,-27.221374045801525,17.114503816793892,5.083969465648855,0.0
11.400000810623169,-7.9463553100585935,2.6408044311523438,5.578489868164062,-16.0,8.793893129770993,30.916030534351144,-9.26316622314453,1.944091748046875,-1.6998831787109374,-44.29007633587786,17.00763358778626,7.358778625954199,0.0
11.410000562667847,-6.945579016113281,3.2920272827148436,3.1459809814453124,-25.404580152671755,12.335877862595419,33.465648854961835,-9.962273107910155,1.867477294921875,-1.8315642700195311,-56.595419847328245,22.38167938931298,10.748091603053435,0.0
11.420001029968262,-7.807491613769531,3.2609026611328122,1.618480322265625,-40.213740458015266,15.648854961832061,35.00763358778626,-10.761936462402343,-0.46686932373046874,-1.3527239379882812,-56.213740458015266,27.053435114503817,14.473282442748092,0.0
11.43000054359436,-10.01015714111328,1.1659762084960936,1.8650830932617186,-49.343511450381676,19.49618320610687,38.61068702290076,-11.420341918945311,-3.0980969482421874,-1.5969325073242187,-43.41984732824427,20.916030534351144,13.694656488549619,0.0
11.440001010894775,-12.284648718261717,-3.6631285400390623,7.230489013671875,-18.045801526717558,31.206106870229007,43.267175572519086,-12.725181823730468,-4.1754876953124995,-1.3359645263671873,-25.572519083969464,15.267175572519085,12.442748091603054,0.0
11.450000762939453,-15.58385860595703,-3.268085266113281,12.35408056640625,25.17557251908397,30.50381679389313,42.61068702290076,-11.812990991210937,-2.3439234252929686,-1.2952630981445312,-19.297709923664122,10.305343511450381,9.98473282442748,0.0
11.46000051498413,-16.82884346923828,-2.123656872558594,12.94065997314453,40.47328244274809,20.717557251908396,38.01526717557252,-12.344503759765624,-1.0654197387695312,-0.8212111694335937,-16.47328244274809,8.65648854961832,10.778625954198473,0.0
11.470000743865967,-17.26219396972656,1.8914193115234375,7.8338278320312495,7.587786259541985,0.7786259541984732,20.259541984732824,-11.575965026855467,1.2138602416992186,-1.7645266235351562,-14.045801526717558,1.8625954198473282,10.091603053435115,0.0
11.480000734329224,-10.81460889892578,-2.463633508300781,-0.7565677246093749,-2.2442748091603053,-0.5190839694656488,17.022900763358777,-10.390835205078124,3.5290532470703124,-1.668758557128906,-30.015267175572518,3.2061068702290076,13.633587786259541,0.0
11.49000072479248,-7.429207751464843,-3.9983167724609374,-4.292803576660156,-19.6793893129771,1.1450381679389312,13.84732824427481,-10.000580334472655,4.290409374999999,-2.518700146484375,-42.25954198473283,1.633587786259542,14.65648854961832,0.0
11.500000476837158,-5.679046337890624,-5.224148022460938,-3.3327287109375,-12.641221374045802,12.83969465648855,10.488549618320612,-10.915165368652342,2.7964275390625,-2.7269956909179687,-54.01526717557252,2.030534351145038,19.46564885496183,0.0
11.510000944137573,-5.212177014160156,-4.204218115234375,-2.578555187988281,12.595419847328245,28.015267175572518,7.083969465648855,-10.352527978515624,4.017470385742187,-3.440467785644531,-61.954198473282446,-1.251908396946565,19.374045801526716,0.0
11.520000696182251,-6.404489440917969,-0.4429273071289062,-2.50912333984375,16.80916030534351,37.37404580152672,4.0,-10.73799444580078,4.074931225585937,-3.8235400512695312,-64.80916030534351,-2.4885496183206106,21.740458015267176,0.0
11.530000925064087,-7.235277416992187,1.8722656982421875,-2.128445275878906,19.52671755725191,50.83969465648855,3.2061068702290076,-9.991003527832031,2.7269956909179687,-2.8754361938476563,-69.16030534351145,-2.4427480916030535,25.603053435114504,0.0
11.540000677108765,-10.314220751953124,2.8275521606445313,-1.3239935180664062,6.259541984732825,58.62595419847328,2.381679389312977,-10.977414611816405,-0.2753331909179687,-2.3726538452148436,-66.33587786259542,-0.5190839694656488,29.282442748091604,0.0
11.55000114440918,-11.03248125,2.5258827514648434,-0.6871358764648438,-10.427480916030534,60.732824427480914,2.7022900763358777,-9.394847314453125,-0.6536170532226562,-2.73896669921875,-62.48854961832061,-6.427480916030534,27.282442748091604,0.0
11.560000896453857,-12.648567370605468,1.9512743530273435,0.8092401611328125,-18.580152671755727,63.465648854961835,2.198473282442748,-12.366051574707031,-3.6439749267578123,-2.090138049316406,-40.44274809160305,-3.8625954198473282,29.64885496183206,0.0
11.570000886917114,-12.504915270996094,1.0319009155273438,0.8858546142578124,-31.51145038167939,59.83206106870229,0.732824427480916,-9.655815295410155,-0.7900865478515624,-2.844311572265625,-28.015267175572518,-16.091603053435115,20.15267175572519,0.0
11.580000638961792,-9.911994873046874,-0.5530605834960938,1.7741034301757812,-17.068702290076335,66.0,-0.9770992366412213,-9.775525378417969,-0.8451531860351562,-2.7557261108398436,-31.923664122137403,-14.15267175572519,20.641221374045802,0.0
11.590000867843628,-11.259930407714844,0.48123453369140623,2.592920397949219,-31.083969465648856,61.17557251908397,-8.061068702290076,-10.596736547851561,-1.5466542724609373,-2.3151930053710936,-30.03053435114504,-12.580152671755725,19.114503816793892,0.0
11.600001096725464,-9.258377819824219,-2.2936451904296873,1.0031704956054688,-30.33587786259542,55.43511450381679,-6.519083969465649,-10.81460889892578,-3.1076737548828124,-2.5857377929687497,-15.98473282442748,-16.259541984732824,16.045801526717558,0.0
11.61000108718872,-9.337386474609374,-3.0645781249999997,1.4724340209960938,-7.480916030534351,59.099236641221374,-10.183206106870228,-9.744400756835937,-1.867477294921875,-2.4133552734375,-2.183206106870229,-20.35114503816794,9.374045801526718,0.0
11.62000060081482,-9.09796630859375,-2.748543505859375,1.0127473022460938,7.32824427480916,56.18320610687023,-15.312977099236642,-10.01733974609375,-1.7022773803710936,-3.6583401367187496,18.610687022900763,-16.931297709923665,3.1908396946564888,0.0
11.630001068115234,-10.589553942871094,-1.3934253662109375,1.3479355346679687,18.717557251908396,54.76335877862596,-18.015267175572518,-12.143390820312499,-6.665457421875,-0.8930372192382812,30.366412213740457,-12.122137404580153,2.1068702290076335,0.0
11.64000129699707,-9.655815295410155,-2.1260510742187497,0.5099649536132812,38.3206106870229,53.282442748091604,-19.51145038167939,-9.64623848876953,0.6584054565429687,-5.607220288085937,53.87786259541985,-17.755725190839694,-6.625954198473282,0.0
11.650001049041748,-11.233594189453123,2.0063409912109376,1.8148048583984373,39.29770992366412,52.6412213740458,-21.84732824427481,-7.618349682617187,5.523423229980469,-3.9719805541992184,35.87786259541985,-12.977099236641221,-9.404580152671755,0.0
11.660001039505005,-9.524134204101562,2.935291235351562,0.7709329345703124,26.47328244274809,47.11450381679389,-19.572519083969464,-9.085995300292968,5.540182641601562,-2.3223756103515623,18.106870229007633,-3.572519083969466,-3.3893129770992365,0.0
11.670000791549683,-9.816226806640625,3.0741549316406247,1.350329736328125,27.51145038167939,48.99236641221374,-17.72519083969466,-10.36210478515625,1.9608511596679685,-1.3072341064453123,10.198473282442748,-0.4732824427480916,2.8244274809160306,0.0
11.68000078201294,-9.485826977539062,1.4939818359375,0.047884033203124995,32.0,48.35114503816794,-15.648854961832061,-10.012551342773437,0.8714894042968749,-0.5243301635742187,9.694656488549619,-4.183206106870229,0.7022900763358778,0.0
11.690000772476196,-10.058041174316406,3.7325603881835936,1.1635820068359375,33.083969465648856,50.48854961832061,-15.618320610687023,-9.392453112792968,1.2401964599609374,-0.4213794921875,7.557251908396947,-8.946564885496183,-2.595419847328244,0.0
11.700000524520874,-9.035717065429687,4.1754876953124995,-0.258573779296875,14.977099236641221,47.69465648854962,-13.709923664122137,-9.552864624023437,1.9704279663085937,0.5027823486328125,1.5114503816793894,-13.114503816793894,-3.7099236641221376,0.0
11.71000051498413,-10.031704956054687,4.723759875488281,0.6296750366210937,-1.465648854961832,49.66412213740458,-12.412213740458014,-9.595960253906249,1.898601916503906,0.430956298828125,-8.687022900763358,-18.68702290076336,-5.236641221374046,0.0
11.720000267028809,-8.470685473632813,2.152387292480469,0.3902548706054687,-14.992366412213741,47.66412213740458,-10.183206106870228,-9.878476049804688,0.229843359375,0.8188169677734375,-13.557251908396946,-23.862595419847327,-6.748091603053435,0.0
11.730000495910645,-9.035717065429687,1.1659762084960936,0.7398083129882812,-15.98473282442748,50.68702290076336,-9.358778625954198,-10.876858142089842,-1.7214309936523438,1.2785036865234374,-1.3282442748091603,-34.54961832061068,-9.969465648854962,0.0
11.74000072479248,-9.244012609863281,0.4525041137695312,0.8379705810546875,-16.091603053435115,50.70229007633588,-10.320610687022901,-10.778695874023438,-2.518700146484375,0.7996633544921875,9.404580152671755,-48.16793893129771,-14.992366412213741,0.0
11.750000476837158,-10.488997473144531,0.4740519287109375,1.3024457031249999,-18.595419847328245,51.267175572519086,-11.358778625954198,-9.476250170898437,0.6631938598632812,0.3064578125,20.427480916030536,-59.969465648854964,-20.85496183206107,0.0
11.760000705718994,-9.85692823486328,1.2401964599609374,1.1827356201171875,-24.0,50.3206106870229,-12.534351145038167,-8.935160595703124,3.778050219726562,0.5195417602539062,9.114503816793894,-62.656488549618324,-21.0381679389313,0.0
11.77000117301941,-10.414777221679687,1.599326708984375,1.714248388671875,-38.213740458015266,49.11450381679389,-13.587786259541986,-9.3086560546875,2.360682836914062,-0.086191259765625,-1.297709923664122,-62.19847328244275,-16.931297709923665,0.0
11.780000686645508,-9.753977563476562,-0.3806780639648437,0.8307879760742187,-37.05343511450382,47.20610687022901,-12.854961832061068,-9.521740002441407,1.9704279663085937,-0.47884033203125,-4.687022900763359,-68.0,-17.801526717557252,0.0
11.790000915527344,-9.804255798339844,-1.1563994018554686,0.9097966308593749,-22.290076335877863,49.45038167938932,-12.916030534351146,-7.898471276855468,3.181894006347656,-0.2753331909179687,-15.389312977099237,-64.85496183206106,-17.557251908396946,0.0
11.8000009059906,-9.145850341796875,-0.3232172241210937,1.1228805786132812,-14.50381679389313,50.0,-12.961832061068701,-10.058041174316406,0.39743747558593745,-0.06943184814453125,-12.01526717557252,-61.45038167938932,-13.038167938931299,0.0
11.810000896453857,-9.13627353515625,-0.4285620971679687,0.5339069702148437,-3.4656488549618323,50.70229007633588,-14.045801526717558,-9.68454571533203,-0.3136404174804687,-1.7190367919921874,-4.030534351145038,-66.16793893129771,-17.46564885496183,0.0
11.820000648498535,-9.890447058105469,1.85790048828125,0.6464344482421874,-0.6106870229007634,49.17557251908397,-14.427480916030534,-8.259995727539062,1.8818425048828125,-1.0893617553710937,-3.9389312977099236,-62.36641221374046,-18.946564885496183,0.0
11.830000638961792,-10.151415039062499,2.9376854370117185,0.842758984375,-13.19083969465649,44.99236641221374,-12.061068702290076,-9.720458740234374,0.08858546142578125,-0.74699091796875,-6.137404580152672,-60.70229007633588,-14.625954198473282,0.0
11.840000867843628,-10.599130749511717,2.0829554443359375,0.74699091796875,-19.938931297709924,42.38167938931298,-9.19083969465649,-10.579977136230468,-1.426944189453125,-0.8738836059570312,8.793893129770993,-64.22900763358778,-16.27480916030534,0.0
11.850000381469727,-10.031704956054687,0.8738836059570312,0.40462008056640625,-12.412213740458014,39.221374045801525,-7.083969465648855,-9.787496386718749,0.29448680419921874,-1.0821791503906248,16.106870229007633,-66.35114503816794,-20.946564885496183,0.0
11.860000610351562,-10.620678564453124,2.403778466796875,1.4317325927734375,-19.69465648854962,35.20610687022901,-6.396946564885496,-10.058041174316406,0.7637503295898437,-0.8786720092773437,14.732824427480915,-61.221374045801525,-16.3206106870229,0.0
11.870000839233398,-10.177751257324218,1.2378022583007813,1.5418658691406248,-25.96946564885496,31.801526717557252,-4.580152671755725,-10.43871923828125,0.6775590698242188,0.2920926025390625,17.404580152671755,-65.98473282442748,-14.16793893129771,0.0
11.880000591278076,-9.900023864746093,-0.46686932373046874,1.5777788940429687,-8.335877862595419,30.12213740458015,-2.6412213740458017,-9.617508068847656,0.8882488159179687,-0.5482721801757812,24.091603053435115,-68.47328244274809,-18.916030534351144,0.0
11.890000820159912,-9.406818322753905,0.6368576416015624,1.3000515014648437,-0.07633587786259542,25.480916030534353,-3.480916030534351,-8.635885388183594,1.484405029296875,-0.5195417602539062,17.64885496183206,-62.12213740458015,-18.458015267175572,0.0
11.900001049041748,-11.643002673339844,2.7078420776367187,2.2577321655273437,-10.748091603053435,22.12213740458015,-4.0,-10.417171423339843,0.3112462158203125,0.40940848388671874,21.267175572519083,-60.74809160305343,-13.801526717557252,0.0
11.910000324249268,-9.809044201660155,1.687912170410156,1.608903515625,-10.961832061068701,17.755725190839694,-1.7404580152671756,-9.79946739501953,0.603338818359375,0.6823474731445313,27.14503816793893,-65.6793893129771,-15.83206106870229,0.0
11.920001029968262,-10.450690246582031,1.5514426757812498,2.1739351074218747,-8.442748091603054,17.984732824427482,-2.030534351145038,-8.583212951660157,2.528276953125,-0.2825157958984375,29.282442748091604,-65.37404580152672,-18.83969465648855,0.0
11.93000054359436,-9.612719665527344,1.8004396484374998,1.7597382202148437,-12.396946564885496,13.450381679389313,0.6412213740458015,-9.76116016845703,1.4820108276367188,0.06703764648437499,18.99236641221374,-59.45038167938932,-13.068702290076336,0.0
11.940072059631348,-9.011775048828124,0.45489831542968745,1.0702081420898437,-14.65648854961832,11.816793893129772,2.885496183206107,-10.62307276611328,0.39983167724609375,-0.08140285644531249,25.236641221374047,-61.3587786259542,-11.48091603053435,0.0
11.950000524520874,-8.568847741699217,-1.3718775512695311,0.35194764404296874,-2.7480916030534353,11.770992366412214,1.9389312977099236,-9.991003527832031,-0.13168109130859373,-0.25139117431640623,29.022900763358777,-62.99236641221374,-15.206106870229007,0.0
11.960000991821289,-9.488221179199218,-1.2665326782226562,0.7805097412109374,9.083969465648854,12.931297709923664,-1.251908396946565,-9.686939916992188,1.5370774658203123,-1.3144167114257812,28.763358778625953,-61.52671755725191,-15.923664122137405,0.0
11.970000982284546,-11.398794104003905,1.4221557861328125,1.5873557006835937,9.282442748091603,12.793893129770993,-3.0076335877862594,-8.82981572265625,3.289633081054687,0.031124621582031248,15.282442748091603,-56.19847328244275,-12.641221374045802,0.0
11.980000495910645,-11.274295617675781,1.6136919189453125,1.3215993164062498,3.954198473282443,11.801526717557252,-4.061068702290076,-9.945513696289062,2.2002713256835937,0.679953271484375,12.030534351145038,-52.732824427480914,-10.961832061068701,0.0
11.990000247955322,-10.589553942871094,0.239420166015625,0.028730419921875,6.0,8.229007633587786,-4.030534351145038,-10.905588562011719,0.1867477294921875,0.5027823486328125,15.374045801526718,-51.3587786259542,-11.038167938931299,0.0
12.000000953674316,-9.753977563476562,-0.16041151123046873,-0.8188169677734375,19.541984732824428,9.709923664122137,-4.5038167938931295,-9.464279162597656,1.5562310791015623,-0.5602431884765625,15.572519083969466,-53.541984732824424,-13.49618320610687,0.0
12.010000944137573,-9.045293872070312,1.2641384765625,-1.6136919189453125,14.564885496183207,8.259541984732824,-4.091603053435114,-8.283937744140625,3.1866824096679687,-0.26815058593749996,7.435114503816794,-48.18320610687023,-12.83969465648855,0.0
12.020000696182251,-9.351751684570312,3.1100679565429687,-1.0606313354492187,-1.9083969465648856,8.610687022900763,-3.435114503816794,-9.028534460449219,1.9967641845703124,0.5770026000976562,-6.870229007633588,-38.56488549618321,-7.816793893129771,0.0
12.030000925064087,-8.82981572265625,1.3239935180664062,-1.0295067138671874,-10.778625954198473,9.068702290076336,-2.427480916030534,-8.729259252929687,1.7166425903320313,0.0909796630859375,-14.763358778625955,-33.87786259541985,-7.893129770992366,0.0
12.040000677108765,-11.384428894042967,1.9967641845703124,0.09816226806640624,-20.519083969465647,10.931297709923664,-4.0,-9.117119921875,0.3399766357421875,-0.023942016601562498,-8.259541984732824,-36.18320610687023,-8.564885496183207,0.0
12.0500009059906,-10.335768566894531,0.5458779785156249,-0.1197100830078125,-14.549618320610687,5.709923664122138,-2.763358778625954,-8.82981572265625,-0.7517793212890624,0.6847416748046875,-4.748091603053435,-35.80152671755725,-8.82442748091603,0.0
12.060000658035278,-9.02135185546875,-1.7956512451171873,-0.2920926025390625,-3.312977099236641,7.145038167938932,-0.8702290076335878,-9.548076220703125,-0.5099649536132812,0.5315127685546874,8.580152671755725,-37.267175572519086,-8.244274809160306,0.0
12.070000648498535,-9.648632690429688,-1.448492004394531,0.3711012573242187,21.34351145038168,12.564885496183207,-4.885496183206107,-9.203311181640624,-0.38786066894531246,-0.37828386230468747,20.27480916030534,-36.51908396946565,-9.358778625954198,0.0
12.080131769180298,-8.930372192382812,-0.28490999755859375,-0.5099649536132812,27.083969465648856,12.381679389312977,-7.099236641221374,-7.876923461914062,1.7645266235351562,-1.005564697265625,15.694656488549619,-32.961832061068705,-10.381679389312977,0.0
12.090000629425049,-10.697293017578124,1.9033903198242186,0.6248866333007812,22.580152671755727,16.68702290076336,-8.977099236641221,-7.6997525390625,2.741360900878906,-0.5506663818359374,5.022900763358779,-20.580152671755727,-7.572519083969466,0.0
12.100000619888306,-10.031704956054687,2.152387292480469,0.7038952880859375,13.648854961832061,16.50381679389313,-7.770992366412214,-9.191340173339842,0.5602431884765625,-1.158793603515625,3.5267175572519083,-14.83969465648855,-2.427480916030534,0.0
12.110000610351562,-10.24718310546875,2.059013427734375,0.39983167724609375,10.427480916030534,17.49618320610687,-7.938931297709924,-8.55448253173828,-0.17238251953125,-1.2330138549804688,8.580152671755725,-10.67175572519084,-5.435114503816794,0.0
12.12000060081482,-10.220846887207031,1.1276689819335937,0.028730419921875,10.366412213740459,16.900763358778626,-6.0,-8.834604125976561,-0.6536170532226562,-1.3120225097656248,20.65648854961832,-5.526717557251908,-5.175572519083969,0.0
12.130000591278076,-10.472238061523436,2.04943662109375,0.4477157104492187,9.83206106870229,15.648854961832061,-4.6106870229007635,-9.076418493652342,-0.033518823242187495,-0.7805097412109374,28.53435114503817,-5.694656488549619,-4.717557251908397,0.0
12.140001058578491,-9.528922607421874,1.9033903198242186,-0.00239420166015625,7.877862595419847,11.389312977099237,-2.7938931297709924,-8.839392529296875,0.4333505004882812,-0.7230489013671875,29.52671755725191,-3.099236641221374,-4.67175572519084,0.0
12.150000810623169,-8.985438830566405,0.4836287353515625,0.033518823242187495,3.2977099236641223,9.236641221374045,-0.5801526717557252,-9.3086560546875,0.7900865478515624,-0.488417138671875,30.213740458015266,-1.8778625954198473,-3.3893129770992365,0.0
12.160001039505005,-10.366893188476562,0.6943184814453125,1.3551181396484375,1.3893129770992367,5.282442748091603,-0.9007633587786259,-9.296685046386719,1.4245499877929686,-0.22026655273437498,27.297709923664122,0.48854961832061067,-2.4122137404580153,0.0
12.170000791549683,-10.496180078124999,-0.39264907226562495,1.8004396484374998,15.86259541984733,4.595419847328245,0.9770992366412213,-9.258377819824219,1.4604630126953124,0.16041151123046873,22.53435114503817,3.3282442748091605,-1.2061068702290076,0.0
12.180001020431519,-11.089942089843749,0.6536170532226562,2.0183119995117185,10.091603053435115,-1.8625954198473282,-0.1984732824427481,-9.217676391601563,1.9416975463867185,0.1292868896484375,19.450381679389313,5.66412213740458,-1.4045801526717556,0.0
12.190000772476196,-10.302249743652343,-0.06464344482421874,1.149216796875,18.16793893129771,-3.1755725190839694,-0.4580152671755725,-9.241618408203124,1.5490484741210937,0.833182177734375,7.648854961832061,13.32824427480916,0.9007633587786259,0.0
12.200000524520874,-9.605537060546874,-0.016759411621093748,0.7254431030273437,12.702290076335878,-5.740458015267175,-1.7251908396946565,-9.516951599121093,1.1420341918945311,0.3687070556640625,7.541984732824427,9.98473282442748,-0.3816793893129771,0.0
12.21000051498413,-9.801861596679688,0.5530605834960938,0.13407529296874998,18.412213740458014,-5.801526717557252,-3.8473282442748094,-9.840168823242188,0.6057330200195312,0.5602431884765625,6.564885496183206,14.259541984732824,-0.6717557251908397,0.0
12.220000743865967,-9.411606726074218,0.6584054565429687,-0.1292868896484375,15.923664122137405,-6.015267175572519,-4.473282442748092,-10.682927807617187,-0.6871358764648438,1.5586252807617187,8.610687022900763,14.534351145038167,0.7480916030534351,0.0
12.230000972747803,-9.205705383300781,0.13168109130859373,-0.6368576416015624,17.587786259541986,-5.938931297709924,-5.022900763358779,-9.758765966796874,-0.373495458984375,0.5363011718749999,15.358778625954198,8.51908396946565,-3.7557251908396947,0.0
12.240000486373901,-9.476250170898437,0.469263525390625,-0.7781155395507812,22.748091603053435,-5.175572519083969,-5.511450381679389,-9.18655177001953,0.38786066894531246,0.86191259765625,12.641221374045802,10.549618320610687,-4.580152671755725,0.0
12.250001430511475,-9.81862100830078,0.9744400756835937,-0.07900865478515624,17.893129770992367,-5.1603053435114505,-6.259541984732825,-8.968679418945312,0.8188169677734375,0.7541735229492187,10.16793893129771,9.511450381679388,-3.5114503816793894,0.0
12.260000944137573,-9.976638317871092,1.1276689819335937,0.36631285400390623,14.702290076335878,-7.801526717557252,-5.7251908396946565,-8.767566479492187,1.0678139404296874,0.6823474731445313,6.458015267175573,11.053435114503817,-3.786259541984733,0.0
12.270001649856567,-9.832986218261718,0.48123453369140623,0.30885201416015623,17.84732824427481,-9.068702290076336,-2.519083969465649,-8.303091357421874,1.5179238525390624,0.15083470458984374,-0.1984732824427481,12.580152671755725,-4.33587786259542,0.0
12.280000686645508,-10.309432348632813,1.6208745239257811,0.9337386474609375,21.16030534351145,-5.969465648854962,-2.33587786259542,-8.188169677734374,2.0733786376953125,0.08858546142578125,-9.053435114503817,18.99236641221374,-2.4122137404580153,0.0
12.290000677108765,-9.572018237304688,1.3120225097656248,0.7158662963867187,12.83969465648855,-7.343511450381679,-3.0229007633587788,-8.731653454589843,1.1085153686523437,0.46208092041015625,-11.603053435114504,24.213740458015266,-0.15267175572519084,0.0
12.30000114440918,-9.567229833984374,1.149216796875,0.5434837768554687,6.870229007633588,-9.236641221374045,-3.969465648854962,-8.027758166503906,0.8930372192382812,-0.06943184814453125,-13.633587786259541,27.938931297709924,-2.2442748091603053,0.0
12.310001134872437,-9.629479077148437,0.8858546142578124,0.9840168823242187,0.916030534351145,-10.992366412213741,-5.419847328244275,-7.742848168945312,0.8906430175781249,-0.2609679809570312,-20.03053435114504,33.52671755725191,-1.282442748091603,0.0
12.320001125335693,-9.619902270507811,0.0909796630859375,1.4891934326171874,-2.3969465648854964,-12.870229007633588,-7.312977099236641,-9.282319836425781,-1.3072341064453123,-0.0909796630859375,-12.625954198473282,38.50381679389313,0.5801526717557252,0.0
12.330000400543213,-10.572794531249999,0.13407529296874998,2.4588451049804685,3.7251908396946565,-16.65648854961832,-9.587786259541986,-10.242394702148436,-3.057395520019531,-0.5219359619140624,-0.8549618320610687,33.6793893129771,-3.648854961832061,0.0
12.340000867843628,-11.635820068359374,0.7541735229492187,3.2537200561523436,7.984732824427481,-24.763358778625953,-10.198473282442748,-9.562441430664062,-1.7405846069335937,-0.7493851196289062,6.961832061068702,30.564885496183205,-9.709923664122137,0.0
12.350000858306885,-12.236764685058594,-0.05027823486328125,4.254496350097656,22.916030534351144,-25.938931297709924,-7.801526717557252,-8.578424548339843,1.2785036865234374,-0.0526724365234375,3.480916030534351,33.63358778625954,-10.900763358778626,0.0
12.360000610351562,-13.934253662109374,3.9624037475585934,6.418854650878906,5.404580152671755,-40.58015267175573,-7.419847328244275,-9.6917283203125,0.4429273071289062,0.02633621826171875,1.5877862595419847,37.16030534351145,-8.412213740458014,0.0
12.370000839233398,-14.092270971679687,3.5146880371093747,6.584054565429687,-0.4580152671755725,-59.17557251908397,-1.7251908396946565,-10.649408984374999,-1.0390835205078124,-0.16041151123046873,12.702290076335878,35.29770992366412,-7.175572519083969,0.0
12.380001068115234,-14.420276599121093,1.908178723144531,7.905653881835937,11.099236641221374,-73.98473282442748,8.580152671755725,-10.340556970214843,0.0,-0.5482721801757812,25.480916030534353,31.374045801526716,-10.01526717557252,0.0
12.390000820159912,-14.81771407470703,1.484405029296875,8.90643017578125,15.083969465648854,-94.0,15.145038167938932,-9.540893615722656,1.0821791503906248,-0.7278373046875,26.625954198473284,29.755725190839694,-10.427480916030534,0.0
12.400001049041748,-15.715539697265624,2.319981408691406,10.005368737792969,11.587786259541986,-114.35114503816794,16.442748091603054,-8.851363537597656,3.6918589599609373,0.0047884033203125,19.068702290076335,32.88549618320611,-7.694656488549619,0.0
12.410000562667847,-15.452177514648437,0.38307226562499996,9.811438403320311,3.4198473282442747,-139.206106870229,18.549618320610687,-10.488997473144531,2.9735984619140625,0.9816226806640624,6.198473282442748,38.70229007633588,-0.9312977099236641,0.0
12.420001029968262,-16.156072802734375,-1.4867992309570313,10.651803186035156,7.251908396946565,-164.53435114503816,15.48091603053435,-10.896011755371093,2.2266075439453124,0.2154781494140625,1.0687022900763359,37.7557251908397,0.8091603053435115,0.0
12.43000054359436,-15.588647009277343,-3.6343981201171873,11.188104357910156,29.450381679389313,-184.29007633587787,13.206106870229007,-11.891999645996092,2.5546131713867184,1.68551796875,8.992366412213741,36.88549618320611,-0.5801526717557252,0.0
12.440000772476196,-15.322890625,-3.7038299682617186,10.8409451171875,64.29007633587786,-198.27480916030535,10.106870229007633,-10.752359655761719,1.9943699829101562,0.42377369384765623,-8.229007633587786,33.02290076335878,-1.4045801526717556,0.0
12.450000524520874,-13.029245434570312,-4.7189714721679685,4.3430818115234375,90.27480916030534,-206.90076335877862,11.664122137404581,-10.922347973632812,2.2960393920898436,1.419761584472656,-24.16793893129771,47.69465648854962,1.297709923664122,0.0
12.46000051498413,-17.468095312499997,3.0310593017578125,1.8052280517578123,55.45038167938932,-219.2824427480916,3.3893129770992365,-10.31661495361328,-0.8188169677734375,-0.18435352783203124,-31.450381679389313,37.45038167938932,5.32824427480916,0.0
12.470000743865967,-11.614272253417967,-0.36631285400390623,-5.386953735351562,45.51145038167939,-220.74809160305344,11.740458015267176,-9.74200655517578,0.5003881469726562,-1.0223241088867188,-32.76335877862596,37.099236641221374,4.900763358778626,0.0
12.480000495910645,-9.849745629882811,0.076614453125,-5.578489868164062,38.18320610687023,-207.63358778625954,12.396946564885496,-9.701305126953125,-0.040701428222656245,-0.5722141967773438,-30.85496183206107,38.94656488549618,4.290076335877862,0.0
12.49000072479248,-8.494627490234375,-3.1292215698242187,-7.283161450195312,41.69465648854962,-187.5114503816794,14.854961832061068,-11.403582507324218,-3.5051112304687497,0.26336218261718747,-20.16793893129771,41.908396946564885,7.419847328244275,0.0
12.500000476837158,-7.153874560546875,-3.5960908935546874,-6.8402341430664055,56.0,-163.75572519083968,10.427480916030534,-11.499350573730467,-3.737348791503906,-1.1420341918945311,-6.977099236641221,35.41984732824427,4.396946564885496,0.0
12.510000944137573,-7.556100439453124,0.5099649536132812,-5.102043737792968,66.09160305343511,-139.6793893129771,3.572519083969466,-10.390835205078124,-3.1938650146484373,-0.7230489013671875,-4.778625954198473,41.05343511450382,5.129770992366412,0.0
12.520000696182251,-9.2320416015625,2.39420166015625,-3.3351229125976563,55.20610687022901,-119.95419847328245,2.7480916030534353,-10.802637890625,-4.752490295410156,-0.02154781494140625,15.84732824427481,42.76335877862596,7.740458015267175,0.0
12.530000925064087,-9.193734375,0.9600748657226562,-2.3918074584960936,55.221374045801525,-101.38931297709924,4.717557251908397,-12.287042919921875,-5.9400143188476555,-0.6536170532226562,39.083969465648856,37.66412213740458,4.412213740458015,0.0
12.540000915527344,-9.430760339355468,2.2601263671875,-1.3168109130859373,47.847328244274806,-83.70992366412214,3.7099236641221376,-10.084377392578125,-3.1771056030273437,-0.2753331909179687,48.97709923664122,31.206106870229007,-0.3511450381679389,0.0
12.5500009059906,-8.504204296874999,2.971204260253906,-1.6998831787109374,20.85496183206107,-72.22900763358778,6.641221374045801,-8.556876733398436,-1.5921441040039062,0.12210428466796874,45.74045801526717,31.69465648854962,-2.015267175572519,0.0
12.560000658035278,-7.498639599609374,2.7653029174804686,-1.438915197753906,-2.5343511450381677,-59.41984732824427,9.725190839694656,-9.215282189941405,0.5506663818359374,0.507570751953125,34.38167938931298,33.847328244274806,1.2366412213740459,0.0
12.570000648498535,-7.050923889160156,2.4349030883789062,-1.24498486328125,-23.450381679389313,-48.458015267175576,11.511450381679388,-9.572018237304688,0.7158662963867187,0.16759411621093748,23.0381679389313,39.465648854961835,4.152671755725191,0.0
12.580000638961792,-6.086060620117187,-0.1867477294921875,-1.6519991455078125,-34.74809160305343,-39.32824427480916,13.465648854961833,-10.398017810058594,-1.5059528442382812,1.3670891479492187,22.763358778625953,40.42748091603053,6.030534351145038,0.0
12.590000867843628,-4.359841223144531,-2.0566192260742184,-2.308010400390625,-25.31297709923664,-26.53435114503817,11.557251908396946,-10.62307276611328,-1.6711527587890624,0.02633621826171875,33.00763358778626,32.16793893129771,2.7786259541984735,0.0
12.600000858306885,-3.7397429931640622,-2.1021090576171875,-2.5258827514648434,-15.297709923664122,-12.625954198473282,9.98473282442748,-9.97903251953125,-1.1252747802734375,-0.0383072265625,37.00763358778626,26.931297709923665,0.8244274809160306,0.0
12.610000848770142,-5.5449710449218745,0.8571241943359375,-0.8643067993164062,-18.763358778625953,5.343511450381679,6.137404580152672,-10.184933862304687,-0.8667010009765624,0.5506663818359374,37.343511450381676,25.17557251908397,2.015267175572519,0.0
12.62000060081482,-5.0757075195312495,0.7781155395507812,-1.0702081420898437,-32.29007633587786,12.427480916030534,8.763358778625955,-9.562441430664062,0.08379705810546874,0.23702596435546874,36.656488549618324,22.778625954198475,1.0229007633587786,0.0
12.630000829696655,-5.942408520507812,1.656787548828125,0.8379705810546875,-46.0,23.480916030534353,7.66412213740458,-8.892064965820312,1.5011644409179687,-0.28012159423828126,25.83206106870229,21.00763358778626,1.0381679389312977,0.0
12.64000129699707,-4.975151049804687,0.229843359375,0.9552864624023437,-64.8854961832061,25.435114503816795,8.274809160305344,-9.088389501953124,1.484405029296875,-0.507570751953125,17.236641221374047,22.68702290076336,2.2748091603053435,0.0
12.65000057220459,-5.585672473144531,-0.1292868896484375,2.5258827514648434,-72.54961832061069,33.61832061068702,4.534351145038168,-9.466673364257812,0.7852981445312499,-0.469263525390625,6.99236641221374,23.587786259541986,3.786259541984733,0.0
12.660000801086426,-5.2624552490234375,-1.1348515869140625,3.0741549316406247,-68.93129770992367,36.396946564885496,2.33587786259542,-9.883264453125,-0.07422025146484375,-0.4740519287109375,3.6030534351145036,23.81679389312977,4.763358778625954,0.0
12.670000553131104,-3.564966271972656,-3.246537451171875,2.940079638671875,-47.7557251908397,43.29770992366412,2.1374045801526718,-9.629479077148437,0.00718260498046875,-0.584185205078125,0.5038167938931297,22.763358778625953,6.213740458015267,0.0
12.68000078201294,-4.2880151733398435,-3.268085266113281,4.089296435546875,-11.969465648854962,56.54961832061068,-1.2061068702290076,-9.718064538574218,-0.373495458984375,-0.46686932373046874,2.0610687022900764,22.763358778625953,7.511450381679389,0.0
12.690000534057617,-5.925649108886718,-1.3910311645507811,5.45877978515625,16.33587786259542,66.2442748091603,-3.114503816793893,-9.792284790039062,-0.6009446166992187,-0.13407529296874998,4.854961832061068,23.236641221374047,8.106870229007633,0.0
12.700000762939453,-6.478709692382812,0.0143652099609375,6.069301208496094,38.396946564885496,71.17557251908397,-0.13740458015267176,-9.435548742675781,-0.36631285400390623,-0.40940848388671874,7.679389312977099,21.480916030534353,7.893129770992366,0.0
12.71000051498413,-8.343792785644531,3.356670727539062,7.4794859863281244,45.587786259541986,72.76335877862596,1.816793893129771,-10.046070166015625,-0.1580173095703125,-0.26336218261718747,13.84732824427481,20.900763358778626,8.900763358778626,0.0
12.720000505447388,-9.583989245605467,4.7572786987304685,7.922413293457031,35.587786259541986,65.52671755725191,7.572519083969466,-9.605537060546874,-0.8858546142578124,1.024718310546875,20.396946564885496,17.6793893129771,8.931297709923664,0.0
12.730000495910645,-10.20887587890625,4.537012145996093,8.99501563720703,23.52671755725191,59.23664122137404,12.0,-9.437942944335937,-1.0438719238281249,0.16759411621093748,23.603053435114504,19.450381679389313,7.3893129770992365,0.0
12.74000072479248,-10.998962426757812,4.836287353515624,9.574412438964844,0.366412213740458,44.916030534351144,13.34351145038168,-9.483432775878907,-0.031124621582031248,-0.26815058593749996,21.786259541984734,20.061068702290076,4.519083969465649,0.0
12.750000476837158,-11.104307299804686,5.2073886108398435,9.892841259765625,-21.16030534351145,30.50381679389313,15.083969465648854,-9.095572106933593,1.7453730102539062,-0.26336218261718747,6.931297709923665,24.50381679389313,5.343511450381679,0.0
12.760001182556152,-10.443507641601562,5.425260961914062,9.631873278808593,-31.923664122137403,14.977099236641221,20.16793893129771,-9.648632690429688,3.1651345947265623,-0.12449848632812499,-8.473282442748092,27.938931297709924,8.549618320610687,0.0
12.77000093460083,-9.373299499511718,3.612850305175781,9.198522778320312,-26.68702290076336,6.152671755725191,29.0381679389313,-9.488221179199218,2.4061726684570313,-0.6344634399414062,-26.977099236641223,32.35114503816794,12.473282442748092,0.0
12.780000686645508,-8.042123376464843,2.0302830078125,8.180987072753906,-7.343511450381679,8.198473282442748,34.961832061068705,-10.156203442382813,-0.6057330200195312,0.20350714111328125,-31.6793893129771,36.87022900763359,15.954198473282442,0.0
12.790001153945923,-7.687781530761718,1.707065783691406,5.358223315429687,-2.9770992366412212,9.465648854961833,36.56488549618321,-10.371681591796875,-3.4668040039062498,-0.011971008300781249,-24.03053435114504,32.61068702290076,14.549618320610687,0.0
12.800000667572021,-7.9272016967773435,0.7757213378906249,3.404554760742187,-0.10687022900763359,15.572519083969466,39.06870229007634,-10.51533369140625,-1.3838485595703125,0.3184288208007812,-10.458015267175572,23.61832061068702,11.221374045801527,0.0
12.810000896453857,-9.052476477050782,-0.2154781494140625,3.3782185424804685,-8.0,21.480916030534353,36.79389312977099,-9.3086560546875,-0.023942016601562498,-0.22266075439453123,-17.923664122137403,18.061068702290076,10.427480916030534,0.0
12.820000648498535,-11.425130322265625,-1.5083470458984374,5.329492895507812,-23.114503816793892,23.297709923664122,31.740458015267176,-10.675745202636719,2.138022082519531,0.35673604736328124,-27.587786259541986,19.022900763358777,12.564885496183207,0.0
12.830000638961792,-10.979808813476561,-7.161057165527343,7.022193469238281,-6.931297709923665,31.34351145038168,26.641221374045802,-11.106701501464842,0.9624690673828125,0.4955997436523437,-51.52671755725191,18.564885496183205,13.435114503816793,0.0
12.840000867843628,-11.573570825195311,-6.943184814453125,6.098031628417968,18.03053435114504,31.755725190839694,11.267175572519085,-11.109095703125,-1.4796166259765624,0.29927520751953124,-57.969465648854964,14.793893129770993,11.099236641221374,0.0
12.850000619888306,-11.5304751953125,-2.806004345703125,2.231395947265625,35.465648854961835,30.47328244274809,-0.32061068702290074,-11.69567510986328,-3.1459809814453124,0.8068459594726562,-44.732824427480914,9.83206106870229,6.900763358778626,0.0
12.860000610351562,-11.049240661621093,1.659181750488281,0.47644613037109373,35.221374045801525,32.19847328244275,-4.488549618320611,-9.782707983398437,-0.3327940307617187,-1.3551181396484375,-40.62595419847328,0.7786259541984732,-0.9618320610687023,0.0
12.87000060081482,-9.983820922851562,3.1268273681640624,-0.296881005859375,-0.8549618320610687,27.114503816793892,-3.114503816793893,-9.883264453125,1.455674609375,-1.6927005737304686,-42.656488549618324,1.7099236641221374,1.7404580152671756,0.0
12.880001068115234,-7.8912886718749995,0.7206546997070312,-0.13168109130859373,-11.511450381679388,29.862595419847327,1.6946564885496183,-10.443507641601562,1.927332336425781,-2.9089550170898435,-39.41984732824427,1.5725190839694656,6.091603053435114,0.0
12.890000820159912,-8.609549169921875,-0.6105214233398437,-0.7948749511718749,-14.870229007633588,31.52671755725191,3.4656488549618323,-10.141838232421874,1.9033903198242186,-2.978386865234375,-44.595419847328245,4.122137404580153,10.183206106870228,0.0
12.900001049041748,-9.574412438964844,0.143652099609375,-1.1468225952148436,-17.14503816793893,31.61832061068702,6.366412213740458,-11.01332763671875,0.5961562133789062,-2.940079638671875,-38.213740458015266,5.770992366412214,13.358778625954198,0.0
12.910000562667847,-11.470620153808593,1.915361328125,0.8283937744140625,-6.061068702290076,34.33587786259542,7.740458015267175,-11.164162341308593,0.3591302490234375,-2.3822306518554686,-38.213740458015266,7.374045801526718,14.564885496183207,0.0
12.920000791549683,-10.520122094726561,0.7852981445312499,1.0414777221679687,6.213740458015267,38.732824427480914,8.870229007633588,-11.4538607421875,-0.5865794067382812,-2.389413256835937,-31.72519083969466,6.305343511450381,13.267175572519085,0.0
12.93000054359436,-9.847351428222655,1.1348515869140625,0.9959878906249999,7.435114503816794,40.961832061068705,4.3816793893129775,-11.451466540527344,-1.0079588989257813,-1.8818425048828125,-22.82442748091603,6.1679389312977095,14.396946564885496,0.0
12.940001010894775,-10.17056865234375,0.9337386474609375,1.1180921752929687,1.1145038167938932,41.29770992366412,2.1374045801526718,-11.410765112304686,0.4333505004882812,-2.3127988037109373,-10.717557251908397,-0.5801526717557252,11.664122137404581,0.0
12.950000524520874,-9.943119494628906,1.5083470458984374,1.4987702392578124,-2.9770992366412212,42.656488549618324,-0.5190839694656488,-11.341333264160156,0.6177040283203125,-1.7956512451171873,-4.564885496183206,0.2900763358778626,12.473282442748092,0.0
12.96000051498413,-9.734823950195311,0.6344634399414062,1.0845733520507812,-10.229007633587786,41.48091603053435,-1.3282442748091603,-10.81460889892578,1.917755529785156,-2.269703173828125,-2.4427480916030535,-1.7557251908396947,10.396946564885496,0.0
12.970000743865967,-7.793126403808594,-1.5346832641601562,0.45968671875,1.9083969465648856,44.61068702290076,-1.3893129770992367,-10.122684619140625,1.927332336425781,-3.0741549316406247,-4.6106870229007635,-3.099236641221374,9.48091603053435,0.0
12.980000257492065,-10.1131078125,0.2753331909179687,1.1731588134765625,8.473282442748092,49.20610687022901,-7.099236641221374,-9.797073193359374,2.2601263671875,-2.6767174560546874,-6.67175572519084,-0.12213740458015267,9.633587786259541,0.0
12.990001201629639,-10.228029492187499,1.446097802734375,0.7852981445312499,6.870229007633588,48.274809160305345,-9.099236641221374,-9.785102185058593,1.7334020019531249,-2.4756045166015626,-9.541984732824428,1.0229007633587786,10.213740458015268,0.0
13.000000476837158,-9.595960253906249,1.0175357055664063,0.28730419921875,3.648854961832061,46.35114503816794,-8.610687022900763,-9.821015209960937,0.9121908325195311,-2.5067291381835934,-9.526717557251908,2.198473282442748,9.648854961832061,0.0
13.010000944137573,-9.459490759277344,0.7230489013671875,0.7829039428710937,11.053435114503817,50.68702290076336,-9.572519083969466,-9.478644372558593,0.6679822631835937,-2.7246014892578123,-10.0,3.648854961832061,7.557251908396947,0.0
13.02000093460083,-10.139444030761718,2.375048046875,1.0917559570312498,8.198473282442748,49.57251908396947,-12.274809160305344,-9.86411083984375,-0.02633621826171875,-2.559401574707031,-6.9465648854961835,4.793893129770993,5.587786259541985,0.0
13.030000925064087,-10.484209069824217,2.887407202148437,1.4053963745117186,1.3893129770992367,48.06106870229008,-11.587786259541986,-10.366893188476562,-0.01915361328125,-1.8746598999023436,-3.1755725190839694,3.068702290076336,3.099236641221374,0.0
13.040001153945923,-9.34696328125,2.808398547363281,0.9241618408203125,-5.816793893129771,45.52671755725191,-9.86259541984733,-10.189722265624999,0.4908113403320312,-1.3527239379882812,-0.48854961832061067,-0.7938931297709924,2.2442748091603053,0.0
13.050001621246338,-9.112331518554686,1.6927005737304686,0.967257470703125,-11.297709923664122,46.717557251908396,-9.206106870229007,-9.916783276367187,1.216254443359375,-0.842758984375,0.3511450381679389,-3.633587786259542,1.4809160305343512,0.0
13.060001134872437,-8.078036401367187,0.239420166015625,0.488417138671875,-4.732824427480916,49.221374045801525,-8.442748091603054,-10.09395419921875,-0.28012159423828126,-0.30406361083984373,3.633587786259542,-4.870229007633588,2.0763358778625953,0.0
13.070000648498535,-9.09796630859375,0.7781155395507812,1.0893617553710937,1.5572519083969465,52.19847328244275,-11.312977099236642,-9.543287817382812,1.1563994018554686,-0.5746083984375,9.083969465648854,-11.969465648854962,-1.816793893129771,0.0
13.080000638961792,-10.73799444580078,2.2960393920898436,1.369483349609375,-2.5343511450381677,52.25954198473283,-13.358778625954198,-12.129025610351562,1.158793603515625,-0.9624690673828125,19.083969465648856,-19.297709923664122,-2.6259541984732824,0.0
13.09000039100647,-10.941501586914061,2.319981408691406,1.16837041015625,-14.427480916030534,49.267175572519086,-13.221374045801527,-9.145850341796875,-0.948103857421875,-1.2330138549804688,18.213740458015266,-33.32824427480916,-6.580152671755725,0.0
13.100000858306885,-9.066841687011719,1.4820108276367188,0.22026655273437498,-14.534351145038167,49.3587786259542,-10.427480916030534,-7.948749511718749,2.789244934082031,-1.2593500732421874,16.03053435114504,-35.20610687022901,-10.0,0.0
13.110000610351562,-9.821015209960937,2.980781066894531,1.7286135986328124,-21.251908396946565,51.908396946564885,-10.229007633587786,-8.190563879394531,4.146757275390625,-0.3854664672851562,-4.931297709923665,-32.48854961832061,-6.351145038167939,0.0
13.120001316070557,-8.872911352539061,2.6216508178710938,1.1731588134765625,-35.00763358778626,47.7557251908397,-8.16793893129771,-9.126696728515624,3.6918589599609373,-0.948103857421875,-20.47328244274809,-30.65648854961832,-2.198473282442748,0.0
13.130001306533813,-9.390058911132812,1.1133037719726562,1.4820108276367188,-30.290076335877863,51.083969465648856,-6.793893129770993,-9.157821350097656,1.0582371337890624,-0.6943184814453125,-27.755725190839694,-31.52671755725191,-1.5114503816793894,0.0
13.140001058578491,-7.826645227050781,-1.1420341918945311,0.09576806640624999,-14.51908396946565,52.61068702290076,-3.801526717557252,-10.139444030761718,-0.4261678955078125,-0.373495458984375,-17.17557251908397,-29.6793893129771,-2.50381679389313,0.0
13.150000810623169,-8.975862023925782,0.6464344482421874,0.6009446166992187,2.381679389312977,60.412213740458014,-5.938931297709924,-9.507374792480467,-1.1109095703125,-0.5147533569335937,-5.32824427480916,-36.67175572519084,-6.106870229007634,0.0
13.160001039505005,-9.821015209960937,1.6903063720703124,0.3591302490234375,-2.122137404580153,58.76335877862596,-6.717557251908397,-8.825027319335938,0.2154781494140625,-1.5921441040039062,-1.1450381679389312,-43.3587786259542,-9.618320610687023,0.0
13.170000791549683,-10.678139404296875,2.3870190551757813,1.5179238525390624,-5.465648854961832,62.13740458015267,-5.66412213740458,-8.43956085205078,2.863465185546875,-0.7829039428710937,-8.458015267175572,-43.81679389312977,-9.709923664122137,0.0
13.18000078201294,-10.654197387695312,2.1021090576171875,1.7405846069335937,-26.48854961832061,57.37404580152672,-8.122137404580153,-9.983820922851562,1.7334020019531249,-0.316034619140625,-14.335877862595419,-38.2442748091603,-4.824427480916031,0.0
13.190000772476196,-10.436325036621094,-0.28969840087890625,1.2401964599609374,-35.86259541984733,51.38931297709924,-9.557251908396946,-11.549628808593749,0.00239420166015625,-0.6943184814453125,-13.007633587786259,-40.10687022900763,-3.0839694656488548,0.0
13.200000762939453,-10.433930834960936,-1.7669208251953124,1.3670891479492187,-25.84732824427481,49.23664122137404,-10.717557251908397,-11.461043347167967,-1.455674609375,0.2059013427734375,3.2213740458015265,-45.14503816793893,-6.030534351145038,0.0
13.21000075340271,-11.118672509765624,-1.0342951171875,1.8842367065429686,-17.587786259541986,45.02290076335878,-14.259541984732824,-10.766724865722656,-1.2569558715820313,0.10295067138671875,10.854961832061068,-54.18320610687023,-9.877862595419847,0.0
13.220000505447388,-10.78348427734375,0.6296750366210937,1.216254443359375,-19.755725190839694,36.70229007633588,-15.893129770992367,-9.34696328125,1.2832920898437499,-1.2042834350585936,11.740458015267176,-58.2442748091603,-12.610687022900763,0.0
13.230000495910645,-9.631873278808593,1.1659762084960936,0.689530078125,-25.435114503816795,30.82442748091603,-14.793893129770993,-10.50815108642578,1.1252747802734375,-0.08379705810546874,5.923664122137405,-52.213740458015266,-9.770992366412214,0.0
13.24000072479248,-11.281478222656249,0.9959878906249999,1.7310078002929687,-23.633587786259543,31.480916030534353,-13.908396946564885,-11.341333264160156,-1.9512743530273435,-0.8643067993164062,11.908396946564885,-57.37404580152672,-9.267175572519085,0.0
13.250000476837158,-9.710881933593749,0.6200982299804687,0.5315127685546874,-7.7251908396946565,27.19083969465649,-11.083969465648854,-9.64623848876953,0.07900865478515624,-0.689530078125,26.213740458015266,-62.0763358778626,-14.946564885496183,0.0
13.260000705718994,-11.259930407714844,2.7820623291015623,1.4245499877929686,-5.816793893129771,27.52671755725191,-10.091603053435115,-9.229647399902344,0.8834604125976562,-1.0390835205078124,25.954198473282442,-54.54961832061068,-12.030534351145038,0.0
13.27000093460083,-10.896011755371093,3.066972326660156,1.1444283935546875,-22.793893129770993,21.96946564885496,-9.099236641221374,-10.05564697265625,-0.43574470214843747,-0.4285620971679687,25.83206106870229,-57.11450381679389,-10.244274809160306,0.0
13.280000925064087,-10.321403356933594,0.49320554199218747,1.2856862915039062,-12.51908396946565,24.458015267175572,-7.282442748091603,-8.884882360839843,1.7166425903320313,-0.8930372192382812,29.251908396946565,-55.98473282442748,-15.725190839694656,0.0
13.290001153945923,-10.728417639160156,1.2306196533203124,1.2689268798828124,-10.351145038167939,21.251908396946565,-7.587786259541985,-8.674192614746094,2.710236279296875,-1.5801730957031248,23.374045801526716,-47.87786259541985,-13.038167938931299,0.0
13.300000667572021,-10.005368737792969,0.8954314208984374,0.33518823242187495,-12.305343511450381,18.885496183206108,-7.206106870229007,-10.714052429199219,1.8052280517578123,-0.948103857421875,22.198473282442748,-42.213740458015266,-7.4961832061068705,0.0
13.310000896453857,-7.999027746582031,-0.7565677246093749,0.0909796630859375,-4.213740458015267,18.47328244274809,-5.4961832061068705,-10.517727893066406,0.2442085693359375,-1.1540052001953125,23.954198473282442,-40.88549618320611,-9.435114503816793,0.0
13.320000886917114,-9.6917283203125,-0.6703764648437499,0.6392518432617187,10.51908396946565,20.610687022900763,-6.793893129770993,-10.304643945312499,0.239420166015625,-0.5722141967773438,28.38167938931298,-43.98473282442748,-11.587786259541986,0.0
13.330000638961792,-11.439495532226562,1.3670891479492187,0.8810662109374999,9.557251908396946,20.27480916030534,-9.48091603053435,-8.432378247070313,1.3910311645507811,-0.8643067993164062,26.259541984732824,-47.9236641221374,-13.755725190839694,0.0
13.340000867843628,-10.445901843261717,2.6815058593749996,0.3399766357421875,-1.083969465648855,14.534351145038167,-8.183206106870228,-7.690175732421874,3.210624426269531,-0.63206923828125,10.549618320610687,-43.74045801526717,-11.664122137404581,0.0
13.350000858306885,-10.311826550292968,3.7421371948242186,0.7398083129882812,-23.633587786259543,10.564885496183207,-8.030534351145038,-8.980650427246093,3.5051112304687497,0.023942016601562498,-1.9694656488549618,-34.412213740458014,-6.900763358778626,0.0
13.360000848770142,-8.683769421386717,-0.22026655273437498,-0.5123591552734374,-24.977099236641223,9.709923664122137,-4.793893129770993,-9.737218151855469,1.2808978881835937,-0.48123453369140623,-3.5877862595419847,-34.595419847328245,-4.564885496183206,0.0
13.37000060081482,-8.619125976562499,-1.3910311645507811,-0.4477157104492187,3.7251908396946565,14.732824427480915,-3.267175572519084,-9.797073193359374,0.00239420166015625,-0.35194764404296874,3.5572519083969465,-34.900763358778626,-6.519083969465649,0.0
13.380000591278076,-9.045293872070312,-0.4165910888671875,-0.6009446166992187,15.236641221374045,18.091603053435115,-6.488549618320611,-9.873687646484374,-0.1484405029296875,-0.0047884033203125,18.9618320610687,-35.05343511450382,-8.045801526717558,0.0
13.390000581741333,-10.982203015136719,1.8698714965820311,-0.5985504150390625,10.15267175572519,17.297709923664122,-8.50381679389313,-9.028534460449219,1.2018892333984375,-0.3184288208007812,19.72519083969466,-38.778625954198475,-10.778625954198473,0.0
13.400001049041748,-11.583147631835937,3.909731311035156,0.4261678955078125,-7.114503816793893,13.83206106870229,-9.557251908396946,-8.717288244628906,2.1811177124023438,-0.3950432739257812,9.557251908396946,-36.83969465648855,-10.198473282442748,0.0
13.410022735595703,-9.821015209960937,2.384624853515625,-0.3112462158203125,-28.412213740458014,9.068702290076336,-7.740458015267175,-7.752424975585937,3.2154128295898436,-1.3838485595703125,-11.358778625954198,-31.938931297709924,-7.236641221374046,0.0
13.420001029968262,-8.695740429687499,0.6416460449218749,-0.011971008300781249,-23.709923664122137,12.0,-4.412213740458015,-8.59278975830078,3.0526071166992184,-1.2976572998046874,-19.984732824427482,-27.206106870229007,-2.854961832061069,0.0
13.43000054359436,-8.300697155761718,-0.5506663818359374,-0.011971008300781249,-8.67175572519084,16.137404580152673,-4.763358778625954,-9.299079248046874,1.5418658691406248,0.00239420166015625,-23.19083969465649,-19.282442748091604,-1.1908396946564885,0.0
13.440001010894775,-11.705251916503906,3.1866824096679687,1.197100830078125,-20.290076335877863,12.748091603053435,-8.412213740458014,-9.1554271484375,0.040701428222656245,-0.70868369140625,-17.954198473282442,-18.549618320610687,-2.50381679389313,0.0
13.450000762939453,-9.145850341796875,-0.8044517578125,-1.6448165405273436,-15.648854961832061,10.534351145038167,-4.519083969465649,-9.026140258789061,-0.1197100830078125,-0.5027823486328125,-13.541984732824428,-15.664122137404581,-3.0381679389312977,0.0
13.460365772247314,-8.21690009765625,-1.3646949462890625,-1.0965443603515623,4.473282442748092,17.770992366412212,-3.435114503816794,-8.875305554199219,-0.41419688720703124,-0.44053310546874996,-5.7251908396946565,-15.435114503816793,-3.312977099236641,0.0
13.470000743865967,-9.6151138671875,-0.0909796630859375,-1.3934253662109375,10.427480916030534,22.290076335877863,-7.3893129770992365,-8.896853369140624,0.5530605834960938,-0.1197100830078125,0.9923664122137404,-12.885496183206106,-3.6793893129770994,0.0
13.480000495910645,-9.871293444824218,0.7158662963867187,-1.448492004394531,13.648854961832061,24.549618320610687,-7.816793893129771,-8.645462194824217,1.2665326782226562,-0.2154781494140625,-0.916030534351145,-12.259541984732824,-3.66412213740458,0.0
13.490000486373901,-9.832986218261718,1.9656395629882812,-1.350329736328125,3.068702290076336,24.580152671755727,-8.305343511450381,-9.315838659667968,1.2018892333984375,0.13407529296874998,-3.1908396946564888,-9.603053435114504,-2.4885496183206106,0.0
13.500000953674316,-9.332598071289063,0.9504980590820312,-1.2378022583007813,-4.0458015267175576,25.053435114503817,-9.312977099236642,-9.26316622314453,1.47482822265625,0.11252747802734374,-7.4961832061068705,-8.82442748091603,-2.7938931297709924,0.0
13.510000944137573,-8.923189587402343,0.4860229370117187,-0.9552864624023437,-7.3893129770992365,23.14503816793893,-9.450381679389313,-9.4618849609375,1.197100830078125,0.34715924072265625,-10.977099236641221,-6.702290076335878,-2.1068702290076335,0.0
13.52000117301941,-10.192116467285155,-0.105344873046875,-0.5410895751953124,-11.679389312977099,23.083969465648856,-10.381679389312977,-9.406818322753905,1.407790576171875,0.26336218261718747,-14.961832061068701,-5.450381679389313,-1.984732824427481,0.0
13.530001401901245,-9.160215551757812,-0.584185205078125,-0.7589619262695312,-4.442748091603053,20.671755725190838,-9.679389312977099,-9.402029919433593,0.6344634399414062,0.12449848632812499,-16.610687022900763,-4.33587786259542,-1.6030534351145038,0.0
13.540000915527344,-8.48505068359375,-1.0534487304687499,-0.6751648681640625,3.5419847328244276,21.572519083969464,-10.473282442748092,-9.6151138671875,-0.25139117431640623,0.4525041137695312,-12.83969465648855,-3.6793893129770994,-1.4045801526717556,0.0
13.5500009059906,-10.647014782714843,-0.0143652099609375,0.38307226562499996,12.122137404580153,24.595419847328245,-12.580152671755725,-8.736441857910156,-0.5386953735351562,-0.47644613037109373,-4.900763358778626,-6.213740458015267,-4.488549618320611,0.0
13.560000896453857,-9.749189160156249,1.0606313354492187,-0.08858546142578125,18.519083969465647,20.580152671755727,-12.67175572519084,-8.204929089355469,-0.40222587890625,-0.4836287353515625,1.3129770992366412,-5.984732824427481,-5.587786259541985,0.0
13.570000648498535,-10.544064111328124,1.659181750488281,0.8571241943359375,14.793893129770993,19.938931297709924,-11.648854961832061,-9.813832604980469,-0.430956298828125,0.24660277099609373,10.274809160305344,-3.2977099236641223,-3.8625954198473282,0.0
13.580000638961792,-10.800243688964843,2.166752502441406,1.3646949462890625,11.801526717557252,16.48854961832061,-9.908396946564885,-8.588001354980468,0.0718260498046875,-0.354341845703125,5.984732824427481,-2.3053435114503817,-4.67175572519084,0.0
13.590000629425049,-10.55364091796875,1.2641384765625,0.7302315063476562,-5.740458015267175,4.8396946564885495,-7.435114503816794,-7.953537915039062,0.967257470703125,-0.8499415893554687,11.679389312977099,-6.259541984732825,-4.8396946564885495,0.0
13.600000619888306,-9.68454571533203,-0.7685387329101562,0.6344634399414062,19.251908396946565,7.32824427480916,-5.374045801526718,-7.577648254394531,2.2026655273437497,-1.0486603271484374,5.465648854961832,4.106870229007634,-5.969465648854962,0.0
13.610000610351562,-9.89523546142578,1.1109095703125,1.0175357055664063,15.877862595419847,4.290076335877862,-6.702290076335878,-8.808267907714843,1.6543933471679686,-0.6009446166992187,-0.7786259541984732,10.946564885496183,-1.450381679389313,0.0
13.62000060081482,-10.371681591796875,1.8602946899414061,0.6392518432617187,13.923664122137405,2.213740458015267,-7.480916030534351,-10.443507641601562,-0.852335791015625,0.12689268798828124,4.427480916030534,13.358778625954198,0.15267175572519084,0.0
13.630000591278076,-9.847351428222655,0.11013327636718749,0.18435352783203124,18.778625954198475,0.6106870229007634,-6.549618320610687,-9.411606726074218,-0.737414111328125,-0.1484405029296875,9.694656488549619,14.488549618320612,-5.343511450381679,0.0
13.640000820159912,-9.86411083984375,0.09576806640624999,0.39983167724609375,20.778625954198475,-0.3511450381679389,-7.32824427480916,-9.402029919433593,-0.24660277099609373,0.0383072265625,15.679389312977099,13.664122137404581,-5.740458015267175,0.0
13.65000033378601,-9.873687646484374,0.8738836059570312,0.41419688720703124,23.14503816793893,-1.099236641221374,-8.15267175572519,-9.430760339355468,0.30885201416015623,0.2537853759765625,17.541984732824428,13.84732824427481,-6.717557251908397,0.0
13.660000801086426,-9.97184991455078,1.20667763671875,0.7661445312499999,21.740458015267176,-3.267175572519084,-8.992366412213741,-9.49300958251953,0.4908113403320312,0.28490999755859375,17.267175572519083,14.580152671755725,-7.6183206106870225,0.0
13.670000553131104,-10.352527978515624,1.5705962890624998,1.438915197753906,21.709923664122137,-5.9541984732824424,-9.221374045801527,-9.445125549316407,0.6392518432617187,0.3016694091796875,14.213740458015268,14.732824427480915,-7.801526717557252,0.0
13.68000054359436,-10.412383020019531,1.8746598999023436,1.5227122558593749,18.549618320610687,-10.931297709923664,-7.32824427480916,-8.494627490234375,2.051830822753906,-0.39983167724609375,7.129770992366412,15.465648854961833,-9.49618320610687,0.0
13.690000772476196,-9.969455712890625,1.2785036865234374,0.7637503295898437,24.610687022900763,-12.259541984732824,-2.9160305343511452,-7.637503295898437,2.114080065917969,-0.22026655273437498,-6.351145038167939,20.15267175572519,-7.450381679389313,0.0
13.700000524520874,-9.244012609863281,0.8044517578125,1.0079588989257813,21.16030534351145,-11.389312977099237,-1.5725190839694656,-9.200916979980468,1.608903515625,0.2657563842773437,-4.534351145038168,26.015267175572518,-4.458015267175573,0.0
13.710000991821289,-10.060435375976562,1.7812860351562498,0.6679822631835937,20.442748091603054,-14.030534351145038,-2.4122137404580153,-8.109161022949218,1.7166425903320313,-0.9648632690429687,-9.374045801526718,29.34351145038168,-6.122137404580153,0.0
13.720000505447388,-10.714052429199219,2.978386865234375,1.0486603271484374,9.465648854961833,-17.00763358778626,-3.053435114503817,-7.943961108398437,1.917755529785156,-1.197100830078125,-22.366412213740457,33.847328244274806,-4.778625954198473,0.0
13.730000495910645,-10.180145458984374,2.5737667846679684,0.5698199951171875,-17.19083969465649,-27.267175572519083,-1.786259541984733,-9.85692823486328,-0.5458779785156249,0.4644751220703125,-21.267175572519083,36.717557251908396,-1.3740458015267176,0.0
13.74000072479248,-9.969455712890625,0.6607996582031249,1.3120225097656248,-20.412213740458014,-32.54961832061068,0.04580152671755725,-11.690886706542969,-2.4779987182617185,0.5434837768554687,-8.916030534351146,32.36641221374046,-3.8625954198473282,0.0
13.750001192092896,-11.487379565429686,-0.9002198242187499,2.446874096679687,-10.732824427480915,-35.25190839694657,-0.3053435114503817,-10.462661254882812,-1.1707646118164061,0.22505495605468748,0.8091603053435115,22.061068702290076,-9.954198473282442,0.0
13.760000705718994,-11.513715783691406,-0.016759411621093748,3.3590649291992185,-3.480916030534351,-41.099236641221374,-0.24427480916030533,-10.690110412597656,-0.9074024291992187,0.28730419921875,15.557251908396946,16.412213740458014,-9.007633587786259,0.0
13.77000093460083,-13.158532324218749,0.9337386474609375,4.580107775878906,-5.679389312977099,-51.48091603053435,-0.04580152671755725,-10.64222637939453,0.1149216796875,0.16998831787109375,24.38167938931298,11.938931297709924,-8.549618320610687,0.0
13.780000925064087,-13.769053747558592,1.5179238525390624,5.844246252441406,-5.9541984732824424,-65.54198473282443,5.679389312977099,-10.59194814453125,0.9361328491210937,0.3591302490234375,25.66412213740458,11.49618320610687,-6.824427480916031,0.0
13.790001153945923,-13.92467685546875,1.5322890624999999,7.378929516601562,-2.122137404580153,-79.46564885496183,9.877862595419847,-10.850521923828124,1.3431471313476562,0.5722141967773438,25.129770992366414,11.465648854961833,-5.816793893129771,0.0
13.80000114440918,-14.858415502929686,1.5011644409179687,9.447519750976562,6.885496183206107,-97.08396946564885,12.442748091603054,-10.601524951171875,2.212242333984375,0.507570751953125,21.17557251908397,12.778625954198473,-6.320610687022901,0.0
13.810000896453857,-14.997279199218749,0.316034619140625,10.199299072265624,11.221374045801527,-120.65648854961832,15.022900763358779,-10.014945544433592,4.005499377441406,0.02154781494140625,3.49618320610687,20.137404580152673,-5.969465648854962,0.0
13.820000648498535,-14.152126013183594,0.32082302246093747,11.049240661621093,14.091603053435115,-142.15267175572518,15.297709923664122,-8.228871105957031,3.5482068603515624,-1.1348515869140625,-21.450381679389313,25.282442748091604,-3.0381679389312977,0.0
13.830000400543213,-12.998120812988281,-0.6775590698242188,10.12507882080078,12.50381679389313,-168.54961832061068,12.488549618320612,-9.332598071289063,0.5386953735351562,-0.7326257080078125,-32.412213740458014,32.961832061068705,3.0381679389312977,0.0
13.840001106262207,-13.620613244628906,-2.5354595581054684,9.260772021484375,19.66412213740458,-187.09923664122138,8.51908396946565,-9.809044201660155,-2.262520568847656,-0.8283937744140625,-18.625954198473284,32.58015267175573,2.351145038167939,0.0
13.850000858306885,-11.066000073242186,-4.979939453125,5.827486840820312,56.94656488549618,-198.33587786259542,12.244274809160306,-9.042899670410156,-2.1811177124023438,-0.44532150878906246,-5.969465648854962,31.389312977099237,-3.145038167938931,0.0
13.860000610351562,-13.45780753173828,-0.8978256225585937,4.113238452148437,71.78625954198473,-196.3053435114504,8.870229007633588,-7.113173132324218,-0.9792284790039062,1.0366893188476562,-19.954198473282442,33.51145038167939,-7.908396946564886,0.0
13.870000839233398,-10.330980163574218,-1.3383587280273437,-2.2002713256835937,56.12213740458015,-204.38167938931298,12.320610687022901,-9.6917283203125,-0.9337386474609375,0.5578489868164063,2.0763358778625953,33.20610687022901,-5.679389312977099,0.0
13.880000591278076,-11.221623181152344,-0.7206546997070312,-5.815515832519531,50.396946564885496,-198.53435114503816,9.129770992366412,-9.775525378417969,0.15083470458984374,-0.5219359619140624,10.717557251908397,27.282442748091604,-8.412213740458014,0.0
13.890000820159912,-9.085995300292968,-1.6400281372070311,-6.710947253417968,46.732824427480914,-184.45801526717557,8.778625954198473,-9.193734375,1.8722656982421875,-0.7254431030273437,-4.1679389312977095,34.54961832061068,-7.435114503816794,0.0
13.900000810623169,-8.137891442871092,-2.987963671875,-6.141127258300781,49.64885496183206,-160.61068702290078,6.67175572519084,-11.358092675781249,-0.5027823486328125,0.8643067993164062,-3.5267175572519083,39.465648854961835,0.5648854961832062,0.0
13.910001039505005,-8.396465222167969,-2.2673089721679687,-4.967968444824218,62.36641221374046,-138.90076335877862,2.3053435114503817,-11.305420239257812,-0.34715924072265625,0.6823474731445313,5.00763358778626,29.221374045801525,0.4732824427480916,0.0
13.920000791549683,-8.74601866455078,-0.01915361328125,-3.4261025756835934,69.63358778625954,-120.03053435114504,-1.3740458015267176,-10.01015714111328,0.6392518432617187,-1.2641384765625,-8.763358778625955,31.358778625954198,-0.6106870229007634,0.0
13.93000054359436,-9.629479077148437,3.1579519897460937,-1.9680337646484374,54.33587786259542,-102.22900763358778,-1.251908396946565,-9.749189160156249,-0.30406361083984373,-0.612915625,-31.6793893129771,44.51908396946565,1.7709923664122138,0.0
13.940000772476196,-9.746794958496093,3.555389465332031,-1.0797849487304687,36.13740458015267,-87.58778625954199,3.0839694656488548,-12.026074938964843,-5.104437939453125,1.4006079711914061,-15.893129770992367,44.595419847328245,8.641221374045802,0.0
13.950000524520874,-10.730811840820312,3.3351229125976563,-0.82360537109375,20.427480916030536,-80.06106870229007,5.908396946564886,-11.4538607421875,-5.157110375976562,-0.25139117431640623,7.404580152671755,33.23664122137404,3.877862595419847,0.0
13.96000051498413,-9.145850341796875,2.3247698120117186,-0.9528922607421875,8.381679389312977,-67.2824427480916,8.992366412213741,-9.900023864746093,-2.7246014892578123,-1.3359645263671873,12.885496183206106,29.00763358778626,-2.3053435114503817,0.0
13.970000505447388,-9.205705383300781,3.1651345947265623,-0.8068459594726562,-16.519083969465647,-59.17557251908397,10.427480916030534,-9.327809667968749,-0.8283937744140625,0.9935936889648437,9.86259541984733,35.64885496183206,0.8091603053435115,0.0
13.980000495910645,-7.723694555664062,1.39821376953125,-1.4149731811523436,-32.01526717557252,-51.87786259541985,13.86259541984733,-11.623849060058593,-3.816357446289062,1.7166425903320313,22.137404580152673,32.412213740458014,4.67175572519084,0.0
13.990000247955322,-7.4220251464843745,-0.28969840087890625,-0.9792284790039062,-33.86259541984733,-42.61068702290076,13.49618320610687,-10.946289990234375,-2.442085693359375,0.40462008056640625,26.9618320610687,20.763358778625953,-0.7480916030534351,0.0
14.000000476837158,-5.68862314453125,-0.9911994873046874,-1.3958195678710936,-32.6412213740458,-31.251908396946565,13.572519083969466,-9.562441430664062,-1.0175357055664063,-0.46686932373046874,26.53435114503817,14.595419847328245,-3.877862595419847,0.0
14.010001182556152,-5.035006091308594,-0.6871358764648438,-0.7852981445312499,-31.236641221374047,-19.404580152671755,13.19083969465649,-8.657433203124999,1.5682020874023437,-0.74699091796875,16.564885496183205,13.435114503816793,-4.076335877862595,0.0
14.020000696182251,-5.779602807617187,0.5506663818359374,0.24181436767578124,-43.32824427480916,-10.854961832061068,11.648854961832061,-8.856151940917968,0.9409212524414062,-0.5865794067382812,7.419847328244275,14.335877862595419,-0.4122137404580153,0.0
14.030000925064087,-4.7764323120117185,-1.1133037719726562,1.2617442749023438,-42.16793893129771,3.450381679389313,12.030534351145038,-8.894459167480468,-0.08379705810546874,-1.1037269653320312,-0.32061068702290074,14.396946564885496,1.6488549618320612,0.0
14.040000677108765,-5.748478186035156,-0.46686932373046874,2.128445275878906,-53.69465648854962,7.022900763358779,6.824427480916031,-8.549694128417968,-0.39983167724609375,-1.2808978881835937,-1.5419847328244274,14.01526717557252,0.5801526717557252,0.0
14.05000114440918,-4.927267016601562,-1.1109095703125,2.4253262817382812,-63.45038167938932,8.717557251908397,4.366412213740458,-8.233659509277343,0.8212111694335937,-2.1595698974609374,-6.625954198473282,15.312977099236642,-1.1297709923664123,0.0
14.060000658035278,-5.046977099609375,-0.4572925170898437,3.1938650146484373,-62.83969465648855,13.664122137404581,1.0534351145038168,-9.176974963378905,0.5363011718749999,-1.6065093139648436,-12.778625954198473,19.419847328244273,1.8931297709923665,0.0
14.070000648498535,-6.133944653320312,0.4213794921875,4.108450048828125,-62.0763358778626,16.641221374045802,-1.282442748091603,-9.74200655517578,-0.19153613281249998,-1.4006079711914061,-11.648854961832061,22.30534351145038,4.3816793893129775,0.0
14.08000111579895,-5.772420202636718,-0.584185205078125,4.3071687866210935,-47.69465648854962,16.99236641221374,1.9694656488549618,-10.402806213378906,-0.59376201171875,-0.8547299926757812,-8.366412213740459,26.229007633587788,7.709923664122138,0.0
14.090000629425049,-6.153098266601562,-0.622492431640625,5.284003063964843,-27.572519083969464,20.259541984732824,6.488549618320611,-8.911218579101561,0.24181436767578124,-1.659181750488281,-8.687022900763358,21.87786259541985,6.030534351145038,0.0
14.100000619888306,-6.5768719604492185,-1.0462661254882812,6.193799694824218,10.229007633587786,29.14503816793893,11.129770992366412,-9.557653027343749,-1.22583125,-1.2665326782226562,-2.885496183206107,22.977099236641223,8.916030534351146,0.0
14.110000610351562,-6.8785413696289055,0.2442085693359375,6.517016918945312,27.31297709923664,27.72519083969466,12.488549618320612,-9.150638745117186,-0.5626373901367188,-1.0749965454101562,6.732824427480916,22.229007633587788,7.6183206106870225,0.0
14.120000839233398,-8.046911779785155,1.8076222534179687,6.691793640136718,28.80916030534351,23.129770992366414,15.312977099236642,-9.212887988281249,0.14604630126953125,-0.46686932373046874,5.038167938931298,26.412213740458014,8.977099236641221,0.0
14.130000591278076,-9.153032946777342,3.69664736328125,7.630320690917968,17.17557251908397,18.793893129770993,17.923664122137403,-9.866505041503906,0.36152445068359373,-0.13168109130859373,4.183206106870229,30.137404580152673,11.236641221374045,0.0
14.140002250671387,-8.226476904296874,2.291250988769531,6.248866333007812,-0.42748091603053434,6.809160305343512,21.419847328244273,-9.481038574218749,-0.143652099609375,-0.13646949462890623,-4.458015267175573,28.65648854961832,11.068702290076336,0.0
14.15000057220459,-9.507374792480467,2.5641899780273434,7.529764221191406,-8.335877862595419,4.763358778625954,17.984732824427482,-10.244788903808594,-0.55545478515625,0.33518823242187495,-1.8473282442748091,28.458015267175572,11.221374045801527,0.0
14.160001039505005,-7.510610607910156,0.01915361328125,5.877765075683594,-9.664122137404581,-1.4198473282442747,19.358778625954198,-9.849745629882811,-1.707065783691406,1.886630908203125,-1.3587786259541985,30.33587786259542,10.916030534351146,0.0
14.170000314712524,-8.75320126953125,0.41898529052734373,7.42441934814453,-2.946564885496183,-0.9312977099236641,17.251908396946565,-10.78348427734375,-1.5969325073242187,1.0941501586914062,12.870229007633588,20.99236641221374,11.84732824427481,0.0
14.180001020431519,-9.203311181640624,1.2306196533203124,7.862558251953125,7.083969465648855,-2.763358778625954,20.213740458015266,-10.86009873046875,-1.5514426757812498,0.8475473876953125,5.282442748091603,21.267175572519083,7.877862595419847,0.0
14.190000772476196,-8.06367119140625,0.3902548706054687,7.448361364746093,16.80916030534351,1.3587786259541985,26.16793893129771,-10.91037696533203,-1.3575123413085937,1.4700398193359374,-1.1450381679389312,23.557251908396946,8.412213740458014,0.0
14.200000762939453,-8.678981018066406,1.7645266235351562,7.089231115722656,14.580152671755725,-0.22900763358778625,25.206106870229007,-9.41639512939453,-0.2154781494140625,0.36391865234375,-6.427480916030534,20.427480916030536,5.816793893129771,0.0
14.210000276565552,-8.068459594726562,1.0414777221679687,6.818686328125,21.31297709923664,0.8549618320610687,29.755725190839694,-9.358934289550781,-0.3495534423828125,-0.3687070556640625,-14.610687022900763,21.31297709923664,7.450381679389313,0.0
14.220000743865967,-9.574412438964844,2.114080065917969,7.6087728759765625,23.740458015267176,1.3587786259541985,32.36641221374046,-9.792284790039062,0.6464344482421874,-1.7693150268554687,-24.68702290076336,22.65648854961832,10.229007633587786,0.0
14.230000495910645,-9.952696301269532,1.2617442749023438,7.110778930664062,24.15267175572519,0.42748091603053434,36.35114503816794,-10.038887561035155,0.3232172241210937,-1.675941162109375,-32.656488549618324,28.244274809160306,14.961832061068701,0.0
14.240000486373901,-12.313379138183594,1.1013327636718748,6.682216833496093,14.931297709923664,2.4885496183206106,32.33587786259542,-11.475408557128906,-2.5258827514648434,-1.2617442749023438,-30.50381679389313,26.931297709923665,16.82442748091603,0.0
14.250000238418579,-11.652579479980469,-2.157175695800781,2.408566870117187,-2.122137404580153,-6.412213740458015,25.46564885496183,-11.58075343017578,-2.9664158569335934,-1.0079588989257813,-13.419847328244275,20.48854961832061,12.702290076335878,0.0
14.260000705718994,-11.068394274902342,-3.153163586425781,0.9911994873046874,-0.9923664122137404,-2.4580152671755724,18.27480916030534,-9.964667309570311,-0.16041151123046873,-1.8507178833007811,-21.572519083969464,15.587786259541986,7.541984732824427,0.0
14.27000117301941,-10.551246716308594,-2.013523596191406,0.7445967163085937,0.366412213740458,4.213740458015267,12.717557251908397,-6.756437084960937,0.8978256225585937,-1.5873557006835937,-22.3206106870229,11.709923664122137,4.549618320610687,0.0
14.280000448226929,-9.334992272949219,0.0047884033203125,-0.34237083740234375,-0.04580152671755725,10.396946564885496,9.129770992366412,-11.959037292480469,-1.1085153686523437,-1.209071838378906,-16.03053435114504,18.427480916030536,8.381679389312977,0.0
14.290000915527344,-7.381323718261719,-1.4796166259765624,-0.8930372192382812,7.145038167938932,19.099236641221374,12.106870229007633,-10.01733974609375,1.1923124267578125,-3.1579519897460937,-13.770992366412214,7.099236641221374,4.0458015267175576,0.0
14.3000009059906,-6.993463049316406,-1.024718310546875,0.03591302490234375,14.274809160305344,30.15267175572519,10.610687022900763,-10.244788903808594,3.0071172851562498,-4.125209460449218,-17.267175572519083,5.00763358778626,6.702290076335878,0.0
14.310046672821045,-9.277531433105468,1.6998831787109374,0.5195417602539062,7.984732824427481,41.29770992366412,6.854961832061068,-11.291055029296874,3.3016040893554686,-3.4165257690429685,-23.541984732824428,9.664122137404581,12.793893129770993,0.0
14.320000648498535,-9.849745629882811,2.118868469238281,0.02154781494140625,-2.3053435114503817,46.74809160305343,7.603053435114504,-10.965443603515624,3.6248213134765623,-4.043806604003906,-27.52671755725191,9.282442748091603,15.770992366412214,0.0
14.330000638961792,-10.263942517089843,1.5179238525390624,0.32561142578124996,-5.877862595419847,52.25954198473283,8.65648854961832,-10.972626208496093,3.0047230834960934,-3.5314474487304683,-34.274809160305345,12.473282442748092,21.52671755725191,0.0
14.340000867843628,-11.326968054199218,2.6312276245117188,1.5394716674804687,-8.82442748091603,53.3587786259542,7.862595419847328,-10.728417639160156,2.7269956909179687,-3.861847277832031,-37.52671755725191,11.618320610687023,23.72519083969466,0.0
14.350000619888306,-10.903194360351561,1.8028338500976562,2.0877438476562498,-10.977099236641221,52.19847328244275,9.587786259541986,-11.161768139648437,1.5107412475585937,-3.3351229125976563,-39.69465648854962,12.717557251908397,26.519083969465647,0.0
14.360000848770142,-10.587159741210938,1.7477672119140624,2.8898014038085935,-8.80916030534351,53.7557251908397,8.458015267175572,-10.91037696533203,0.9816226806640624,-3.201047619628906,-38.33587786259542,11.022900763358779,26.366412213740457,0.0
14.37000060081482,-10.896011755371093,2.2840683837890623,2.8898014038085935,-14.946564885496183,50.94656488549618,7.022900763358779,-10.979808813476561,0.7589619262695312,-3.0334535034179684,-32.94656488549618,9.648854961832061,26.15267175572519,0.0
14.380001068115234,-9.60793126220703,1.3527239379882812,1.9991583862304687,-22.061068702290076,47.89312977099237,6.5038167938931295,-10.824185705566405,0.44532150878906246,-2.935291235351562,-27.114503816793892,7.801526717557252,24.748091603053435,0.0
14.390000581741333,-9.507374792480467,0.8499415893554687,1.6831237670898436,-24.68702290076336,47.465648854961835,4.8396946564885495,-10.407594616699217,0.5482721801757812,-2.7174188842773437,-21.87786259541985,5.6183206106870225,22.412213740458014,0.0
14.400000810623169,-9.102754711914063,0.023942016601562498,1.2952630981445312,-17.46564885496183,52.2442748091603,3.1908396946564888,-10.089165795898436,0.8762778076171874,-2.6671406494140624,-18.610687022900763,3.5572519083969465,20.015267175572518,0.0
14.410000801086426,-9.047688073730468,0.5003881469726562,0.6392518432617187,-12.045801526717558,53.74045801526717,1.83206106870229,-9.622296472167967,1.2497732666015624,-2.559401574707031,-20.290076335877863,3.053435114503817,18.229007633587788,0.0
14.420000791549683,-8.128314636230469,-0.10295067138671875,0.32082302246093747,-0.6564885496183206,57.70992366412214,1.7404580152671756,-9.552864624023437,0.5817910034179687,-2.3032219970703123,-19.72519083969466,3.954198473282443,17.053435114503817,0.0
14.43000054359436,-9.30147344970703,1.0414777221679687,0.8020575561523438,9.19083969465649,63.57251908396947,-1.083969465648855,-9.540893615722656,-0.06464344482421874,-1.8363526733398436,-16.900763358778626,2.7938931297709924,14.885496183206106,0.0
14.440000772476196,-10.213664282226562,2.5139117431640625,0.8930372192382812,7.526717557251908,63.770992366412216,-2.6412213740458017,-9.804255798339844,-0.9744400756835937,-1.2928688964843749,-10.458015267175572,2.0763358778625953,13.34351145038168,0.0
14.45014500617981,-10.541669909667968,2.454056701660156,0.7230489013671875,-0.44274809160305345,61.81679389312977,-1.251908396946565,-9.299079248046874,-0.016759411621093748,-1.3168109130859373,-4.076335877862595,-1.251908396946565,9.587786259541986,0.0
14.46000051498413,-11.01332763671875,2.9496564453125,1.4173673828125,-10.870229007633588,62.717557251908396,-2.4122137404580153,-9.504980590820312,0.8116343627929687,-1.2832920898437499,-4.396946564885496,-2.183206106870229,8.610687022900763,0.0
14.470000982284546,-10.893617553710937,3.0693665283203124,1.5011644409179687,-27.81679389312977,57.465648854961835,-2.16793893129771,-9.04050546875,1.8219874633789062,-0.8475473876953125,-8.488549618320612,-2.519083969465649,6.625954198473282,0.0
14.480000734329224,-8.726865051269531,0.18914193115234373,0.6344634399414062,-34.091603053435115,55.20610687022901,0.6259541984732825,-9.471461767578125,1.7214309936523438,-1.7477672119140624,-13.603053435114504,-4.67175572519084,5.9541984732824424,0.0
14.49000072479248,-9.320627062988281,-1.0319009155273438,1.5203180541992187,-23.404580152671755,60.3206106870229,-2.6259541984732824,-11.0707884765625,-0.086191259765625,-2.442085693359375,-11.908396946564885,-2.015267175572519,5.603053435114504,0.0
14.500000953674316,-9.840168823242188,-1.3838485595703125,1.5490484741210937,-12.51908396946565,60.458015267175576,-6.702290076335878,-10.333374365234375,-1.4101847778320311,-1.9512743530273435,-5.282442748091603,-8.259541984732824,1.6946564885496183,0.0
14.510000944137573,-10.13226142578125,-0.33039982910156246,2.2026655273437497,-0.32061068702290074,62.70229007633588,-10.320610687022901,-9.617508068847656,-0.37828386230468747,-0.9241618408203125,9.816793893129772,-13.877862595419847,-4.2748091603053435,0.0
14.52000093460083,-8.614337573242187,-0.9361328491210937,0.833182177734375,3.5267175572519083,59.63358778625954,-10.01526717557252,-8.889670764160156,2.549824768066406,-0.7422025146484375,10.65648854961832,-16.33587786259542,-6.763358778625954,0.0
14.530337810516357,-9.813832604980469,0.9528922607421875,2.2577321655273437,8.870229007633588,64.73282442748092,-14.274809160305344,-9.823409411621093,2.7150246826171873,-1.2952630981445312,5.893129770992366,-13.221374045801527,-5.938931297709924,0.0
14.540000915527344,-10.378864196777343,2.1930887207031247,1.7262193969726563,0.6259541984732825,62.36641221374046,-16.458015267175572,-9.270348828125,1.7884686401367187,-1.1707646118164061,-8.564885496183207,-11.236641221374045,-3.3282442748091605,0.0
14.5500009059906,-9.203311181640624,1.1348515869140625,1.2856862915039062,-3.7709923664122136,60.97709923664122,-13.725190839694656,-9.282319836425781,1.3670891479492187,-1.637633935546875,-11.312977099236642,-15.16030534351145,-5.877862595419847,0.0
14.560001134872437,-9.811438403320311,1.4987702392578124,1.2425906616210938,-2.351145038167939,60.030534351145036,-14.427480916030534,-9.797073193359374,1.0438719238281249,-0.8379705810546875,-15.251908396946565,-14.183206106870228,-5.312977099236641,0.0
14.57000184059143,-9.904812268066406,1.9967641845703124,1.9632453613281249,-11.969465648854962,55.63358778625954,-14.80916030534351,-9.847351428222655,0.2561795776367187,-0.46686932373046874,-14.061068702290076,-16.106870229007633,-6.564885496183206,0.0
14.580000638961792,-10.436325036621094,0.97683427734375,1.8219874633789062,-12.396946564885496,53.38931297709924,-14.0,-10.582371337890624,0.2561795776367187,-1.0773907470703123,-6.763358778625954,-21.755725190839694,-9.526717557251908,0.0
14.590000629425049,-10.350133776855468,1.4987702392578124,2.2457611572265623,-7.572519083969466,50.94656488549618,-14.412213740458014,-9.943119494628906,0.18435352783203124,-0.14125789794921875,-9.435114503816793,-22.50381679389313,-9.725190839694656,0.0
14.600000619888306,-10.503362683105468,2.068590234375,1.8267758666992187,-19.770992366412212,44.29007633587786,-14.106870229007633,-9.809044201660155,0.2561795776367187,0.44532150878906246,-6.259541984732825,-26.412213740458014,-10.641221374045802,0.0
14.610000371932983,-9.782707983398437,0.7206546997070312,1.438915197753906,-20.48854961832061,41.099236641221374,-12.366412213740459,-10.450690246582031,0.5195417602539062,0.0430956298828125,3.114503816793893,-31.801526717557252,-12.366412213740459,0.0
14.62000060081482,-9.344569079589844,-0.373495458984375,1.3096283081054687,-9.679389312977099,42.16793893129771,-11.664122137404581,-10.81460889892578,-1.448492004394531,0.0526724365234375,12.106870229007633,-39.61832061068702,-15.16030534351145,0.0
14.630000591278076,-10.62307276611328,1.1731588134765625,1.1180921752929687,-5.770992366412214,40.412213740458014,-14.030534351145038,-10.563217724609375,1.0031704956054688,0.16759411621093748,23.435114503816795,-47.37404580152672,-19.206106870229007,0.0
14.640111207962036,-10.551246716308594,2.5570073730468748,0.9504980590820312,-10.335877862595419,40.36641221374046,-14.229007633587786,-8.334215979003906,3.8379052612304685,-0.55545478515625,10.748091603053435,-49.00763358778626,-19.282442748091604,0.0
14.65000057220459,-10.589553942871094,3.1172505615234374,1.5969325073242187,-27.0381679389313,38.44274809160305,-14.030534351145038,-9.8449572265625,2.5354595581054684,-1.005564697265625,-3.282442748091603,-47.404580152671755,-14.030534351145038,0.0
14.660000801086426,-10.62307276611328,1.4532804077148436,1.1851298217773436,-35.282442748091604,35.908396946564885,-12.473282442748092,-10.943895788574219,0.16041151123046873,-0.7398083129882812,-4.3816793893129775,-49.343511450381676,-13.297709923664122,0.0
14.670000553131104,-9.382876306152344,-1.7573440185546874,0.201112939453125,-20.259541984732824,36.412213740458014,-10.961832061068701,-9.334992272949219,1.3814543579101561,-1.6112977172851561,-0.7786259541984732,-54.717557251908396,-16.717557251908396,0.0
14.68000078201294,-9.222464794921875,-1.0390835205078124,0.5219359619140624,-0.9007633587786259,40.38167938931298,-12.534351145038167,-8.942343200683593,1.8531120849609375,-0.7517793212890624,-6.961832061068702,-51.43511450381679,-15.022900763358779,0.0
14.690000534057617,-9.868899243164062,0.9888052856445312,0.5410895751953124,-5.877862595419847,39.00763358778626,-15.267175572519085,-8.947131604003905,0.8858546142578124,-0.5291185668945312,-12.366412213740459,-49.786259541984734,-12.091603053435115,0.0
14.7000150680542,-10.611101757812499,1.426944189453125,0.7781155395507812,-8.65648854961832,40.50381679389313,-16.366412213740457,-9.950302099609374,-1.1037269653320312,-1.0366893188476562,2.1068702290076335,-50.16793893129771,-12.427480916030534,0.0
14.710000991821289,-10.91037696533203,-0.016759411621093748,0.21308394775390624,-10.259541984732824,36.06106870229008,-16.03053435114504,-9.794678991699218,-1.0917559570312498,-1.2689268798828124,14.213740458015268,-55.06870229007634,-15.801526717557252,0.0
14.720000743865967,-9.888052856445311,0.17477672119140625,-0.09816226806640624,-3.7099236641221376,33.87786259541985,-15.664122137404581,-8.884882360839843,1.5969325073242187,-1.2976572998046874,17.96946564885496,-57.37404580152672,-17.64885496183206,0.0
14.730000495910645,-10.098742602539062,0.5626373901367188,0.22744915771484372,-6.183206106870229,30.610687022900763,-16.412213740458014,-9.756371765136718,2.01112939453125,-0.49320554199218747,12.15267175572519,-50.97709923664122,-12.687022900763358,0.0
14.740000247955322,-10.263942517089843,0.8307879760742187,0.8475473876953125,-9.358778625954198,30.82442748091603,-18.244274809160306,-10.520122094726561,-0.10295067138671875,-0.40462008056640625,16.30534351145038,-54.48854961832061,-11.450381679389313,0.0
14.750000476837158,-10.426748229980468,0.3950432739257812,0.5051765502929687,0.5954198473282443,30.259541984732824,-18.412213740458014,-9.629479077148437,0.5339069702148437,-1.455674609375,21.709923664122137,-57.06870229007634,-16.33587786259542,0.0
14.760000705718994,-9.897629663085937,2.4492682983398435,0.1149216796875,4.885496183206107,27.206106870229007,-16.076335877862597,-8.420407238769531,2.2074539306640624,-0.40940848388671874,18.885496183206108,-54.06106870229008,-14.82442748091603,0.0
14.77000093460083,-8.815450512695312,2.5905261962890624,-0.16041151123046873,-12.198473282442748,21.6793893129771,-13.419847328244275,-10.160991845703125,0.5530605834960938,0.23702596435546874,21.740458015267176,-51.38931297709924,-9.770992366412214,0.0
