timestamp,Thigh_L_Acc_X,Thigh_L_Acc_Y,Thigh_L_Acc_Z,Thigh_L_Gyr_X,Thigh_L_Gyr_Y,Thigh_L_Gyr_Z,Thigh_R_Acc_X,Thigh_R_Acc_Y,Thigh_R_Acc_Z,Thigh_R_Gyr_X,Thigh_R_Gyr_Y,Thigh_R_Gyr_Z,gpio_output
10.000000476837158,-10.072406384277343,-2.090138049316406,9.701305126953125,23.786259541984734,34.70229007633588,7.9541984732824424,-7.8362220336914055,-0.13407529296874998,3.086125939941406,12.396946564885496,8.961832061068701,5.4961832061068705,0.0
10.010000944137573,-11.532869396972655,0.45489831542968745,10.716446630859375,31.923664122137403,18.65648854961832,5.511450381679389,-7.319074475097656,-0.11731588134765625,1.9728221679687499,6.320610687022901,8.274809160305344,3.4198473282442747,1.0
10.02000093460083,-11.3389390625,0.565031591796875,9.622296472167967,38.30534351145038,3.3587786259541983,7.969465648854962,-9.143456140136719,0.08140285644531249,3.5218706420898434,1.5877862595419847,11.923664122137405,4.9465648854961835,1.0
10.030001163482666,-7.702146740722656,-2.6408044311523438,4.690241052246093,43.74045801526717,-10.442748091603054,10.290076335877863,-9.6917283203125,-0.5027823486328125,4.053383410644531,-6.732824427480916,10.885496183206106,6.870229007633588,1.0
10.040000915527344,-7.012616662597656,-2.863465185546875,2.221819140625,75.90839694656489,-0.366412213740458,11.32824427480916,-9.193734375,2.6623522460937497,3.928884924316406,7.129770992366412,13.267175572519085,11.114503816793894,1.0
10.050000667572021,-8.29351455078125,0.842758984375,-2.3032219970703123,58.74809160305343,10.15267175572519,10.335877862595419,-12.703634008789061,-3.1555577880859373,4.896142395019531,-7.435114503816794,2.9618320610687023,14.595419847328245,1.0
10.060000896453857,-14.197615844726561,5.851428857421874,-1.8339584716796873,68.09160305343511,13.694656488549619,21.022900763358777,-12.734758630371093,-2.3774422485351563,4.132392065429687,3.5114503816793894,-10.50381679389313,15.374045801526718,1.0
10.070000886917114,-24.24129180908203,13.180080139160156,7.955932116699218,86.07633587786259,16.0,57.57251908396947,-10.893617553710937,1.0127473022460938,0.7517793212890624,-0.3053435114503817,-20.748091603053435,16.99236641221374,1.0
10.080000877380371,-23.345860388183592,5.0206408813476555,11.319785449218749,38.70229007633588,-6.106870229007634,68.87022900763358,-10.965443603515624,0.040701428222656245,-0.55545478515625,-9.068702290076336,-18.580152671755727,24.106870229007633,1.0
10.090001106262207,-15.842432385253906,-5.9783215454101555,11.085153686523437,47.38931297709924,-9.16030534351145,50.33587786259542,-10.907982763671875,-1.5107412475585937,-2.099714855957031,-11.893129770992367,-14.717557251908397,25.419847328244273,1.0
10.100001096725464,-13.814543579101562,-10.47702646484375,6.2584431396484375,14.732824427480915,-26.763358778625953,15.98473282442748,-11.468225952148437,-2.001552587890625,-4.2137949218749995,-17.419847328244273,-12.13740458015267,23.572519083969464,1.0
10.110000848770142,-12.169727038574218,-10.424354028320312,2.0566192260742184,49.969465648854964,-23.52671755725191,0.10687022900763359,-12.334926953124999,-2.0566192260742184,-5.137956762695312,8.320610687022901,-6.885496183206107,21.740458015267176,1.0
10.120001077651978,-8.688557824707031,-7.635109094238281,-0.5602431884765625,67.05343511450381,-22.946564885496183,-10.473282442748092,-11.59990704345703,-0.7254431030273437,-5.793968017578124,16.47328244274809,3.9083969465648853,12.763358778625955,1.0
10.130000829696655,-8.164227661132813,0.44532150878906246,-2.8945898071289062,79.70992366412214,-19.755725190839694,-18.68702290076336,-12.373234179687499,-0.3232172241210937,-5.425260961914062,21.572519083969464,15.297709923664122,8.458015267175572,1.0
10.140001058578491,-7.235277416992187,5.592855078125,-4.599261389160156,68.68702290076335,-14.778625954198473,-19.00763358778626,-11.841721411132811,-1.158793603515625,-5.719747766113281,34.56488549618321,20.99236641221374,3.49618320610687,1.0
10.15000057220459,-7.620743884277343,6.8593877563476555,-4.374206433105469,40.99236641221374,-4.748091603053435,-16.106870229007633,-11.710040319824218,0.11252747802734374,-4.017470385742187,46.656488549618324,26.82442748091603,0.183206106870229,1.0
10.160001039505005,-7.888894470214844,7.0078282592773435,-5.1331683593749995,17.6793893129771,6.061068702290076,-11.557251908396946,-11.5304751953125,0.4836287353515625,-2.7533319091796873,51.6793893129771,31.49618320610687,1.3740458015267176,1.0
10.170000553131104,-8.492233288574218,7.620743884277343,-6.306327172851562,-9.48091603053435,15.664122137404581,-6.641221374045801,-9.634267480468749,2.7054478759765623,-2.5953145996093747,47.25190839694657,31.572519083969464,2.381679389312977,1.0
10.18000078201294,-9.313444458007812,7.256825231933593,-5.425260961914062,-32.12213740458015,25.862595419847327,2.687022900763359,-9.828197814941406,2.530671154785156,-1.8507178833007811,38.25954198473283,39.69465648854962,10.229007633587786,1.0
10.190000772476196,-9.897629663085937,5.415684155273437,-3.342305517578125,-57.89312977099237,33.98473282442748,9.465648854961833,-9.916783276367187,3.4452561889648434,-1.7166425903320313,25.19083969465649,41.70992366412214,14.442748091603054,1.0
10.200000762939453,-9.60793126220703,1.8148048583984373,-1.6136919189453125,-69.05343511450381,38.045801526717554,14.01526717557252,-10.424354028320312,1.9201497314453124,-0.82360537109375,9.267175572519085,49.37404580152672,20.015267175572518,1.0
10.21000075340271,-9.402029919433593,-2.4779987182617185,-0.16519991455078123,-51.45038167938932,49.12977099236641,14.458015267175572,-12.674903588867187,-0.8738836059570312,1.3670891479492187,24.458015267175572,45.14503816793893,19.297709923664122,0.0
10.220242500305176,-9.193734375,-4.431667272949219,0.9193734375,-22.198473282442748,54.42748091603053,6.977099236641221,-12.57674132080078,-0.6081272216796875,2.0063409912109376,45.541984732824424,40.44274809160305,9.816793893129772,0.0
10.230000495910645,-10.460267053222656,-3.6559459350585937,1.7741034301757812,-9.786259541984732,57.06870229007634,-3.3740458015267176,-10.383652600097655,0.7015010864257812,0.928950244140625,44.778625954198475,31.96946564885496,3.7557251908396947,0.0
10.240000486373901,-10.381258398437499,-1.608903515625,1.7669208251953124,-19.49618320610687,52.13740458015267,-11.419847328244275,-10.141838232421874,1.7525556152343749,0.7948749511718749,43.48091603053435,24.80916030534351,2.015267175572519,0.0
10.250000953674316,-10.115502014160155,-1.4413093994140624,1.1037269653320312,-25.419847328244273,48.16793893129771,-16.870229007633586,-9.430760339355468,4.161122485351562,1.4915876342773438,31.083969465648856,21.083969465648856,0.5190839694656488,0.0
10.260000944137573,-9.588777648925781,-1.180341418457031,0.28490999755859375,-27.31297709923664,42.93129770992366,-16.778625954198475,-9.667786303710937,4.2497079467773435,1.8818425048828125,13.099236641221374,19.404580152671755,2.7022900763358777,0.0
10.27000117301941,-10.524910498046875,-0.13646949462890623,0.05027823486328125,-26.35114503816794,40.99236641221374,-16.229007633587788,-9.284714038085937,4.235342736816406,2.365471240234375,-6.6106870229007635,16.549618320610687,4.351145038167939,0.0
10.280000925064087,-9.289502441406249,0.1292868896484375,-0.30885201416015623,-20.412213740458014,36.916030534351144,-10.992366412213741,-9.588777648925781,3.0909143432617188,2.952050646972656,-22.671755725190838,15.022900763358779,7.862595419847328,0.0
10.290000915527344,-9.883264453125,1.7238251953125,-0.028730419921875,-24.80916030534351,33.00763358778626,-7.587786259541985,-9.121908325195312,3.028665100097656,3.227383837890625,-36.534351145038165,10.885496183206106,10.931297709923664,0.0
10.3000009059906,-8.372523205566406,-0.4740519287109375,-0.55545478515625,-14.82442748091603,31.66412213740458,-1.9389312977099236,-10.110713610839843,1.62805712890625,3.3542765258789062,-44.58015267175573,7.32824427480916,15.49618320610687,0.0
10.310000896453857,-8.987833032226561,0.373495458984375,0.46208092041015625,-6.458015267175573,31.236641221374047,-1.6030534351145038,-9.624690673828125,0.9337386474609375,3.1196447631835937,-47.541984732824424,2.717557251908397,15.618320610687023,0.0
10.320000648498535,-10.740388647460938,1.8842367065429686,1.4508862060546874,-9.49618320610687,30.47328244274809,-4.564885496183206,-11.81059678955078,-1.3838485595703125,2.959233251953125,-35.725190839694655,-3.3435114503816794,16.213740458015266,0.0
10.330000638961792,-10.565611926269531,0.6464344482421874,1.4820108276367188,0.5038167938931297,31.61832061068702,-4.763358778625954,-10.081983190917969,-0.6248866333007812,1.9416975463867185,-29.389312977099237,-12.732824427480915,12.030534351145038,0.0
10.340000867843628,-11.010933435058593,0.6584054565429687,2.3127988037109373,2.33587786259542,29.328244274809162,-5.083969465648855,-11.154585534667968,-0.07422025146484375,1.608903515625,-15.419847328244275,-14.13740458015267,10.641221374045802,0.0
10.350000858306885,-11.166556542968749,0.9337386474609375,1.9297265380859374,9.19083969465649,27.221374045801525,-5.358778625954199,-9.634267480468749,-0.28012159423828126,0.46686932373046874,-25.893129770992367,-18.366412213740457,8.396946564885496,0.0
10.36000108718872,-11.937489477539062,3.5865140869140624,2.308010400390625,5.541984732824427,24.076335877862597,-5.190839694656488,-10.651803186035156,0.46686932373046874,0.47884033203125,-27.84732824427481,-16.99236641221374,8.595419847328245,0.0
10.370000839233398,-10.192116467285155,2.0542250244140625,1.3311761230468748,0.9618320610687023,18.83969465648855,-1.5419847328244274,-11.463437548828125,-0.9911994873046874,0.7852981445312499,-27.099236641221374,-15.557251908396946,8.427480916030534,0.0
10.380000829696655,-9.504980590820312,1.0965443603515623,0.29448680419921874,-0.5190839694656488,13.98473282442748,0.8396946564885496,-10.223241088867187,-0.9050082275390624,0.5434837768554687,-24.99236641221374,-16.3206106870229,4.748091603053435,0.0
10.390000581741333,-10.881646545410156,3.162740393066406,1.2018892333984375,-5.603053435114504,12.045801526717558,-0.8396946564885496,-10.072406384277343,-2.3295582153320313,0.3591302490234375,-16.061068702290076,-20.244274809160306,2.549618320610687,0.0
10.400000810623169,-10.237606298828124,0.4740519287109375,0.1149216796875,-9.129770992366412,6.229007633587786,-0.10687022900763359,-10.326191760253906,-3.265691064453125,0.6631938598632812,0.183206106870229,-25.84732824427481,-1.7557251908396947,0.0
10.410000801086426,-9.952696301269532,-0.6488286499023437,0.6488286499023437,6.900763358778626,7.755725190839694,0.8549618320610687,-10.73799444580078,-4.067748620605468,0.4381389038085937,21.786259541984734,-34.152671755725194,-7.175572519083969,0.0
10.42025899887085,-10.216058483886718,-0.55545478515625,1.0869675537109373,18.427480916030536,8.213740458015268,-2.015267175572519,-9.512163195800781,0.36391865234375,0.7302315063476562,32.916030534351144,-38.70229007633588,-12.580152671755725,0.0
10.43000078201294,-9.70369932861328,0.8667010009765624,0.5985504150390625,21.541984732824428,8.702290076335878,-2.2900763358778624,-8.487444885253906,1.7238251953125,0.2154781494140625,19.709923664122137,-33.083969465648856,-11.206106870229007,0.0
10.440000772476196,-9.526528405761718,2.7054478759765623,0.19871873779296872,5.908396946564886,7.1603053435114505,-1.816793893129771,-9.969455712890625,-0.03591302490234375,0.11013327636718749,19.954198473282442,-32.595419847328245,-7.694656488549619,0.0
10.450000762939453,-9.227253198242186,2.1308394775390624,-0.5434837768554687,1.2213740458015268,8.351145038167939,-2.0916030534351147,-10.01733974609375,-0.9313444458007812,0.6823474731445313,28.412213740458014,-35.14503816793893,-9.86259541984733,0.0
10.46000075340271,-9.239224206542968,1.199495031738281,-0.8164227661132812,0.2595419847328244,9.297709923664122,-1.6030534351145038,-10.28549033203125,0.6919242797851562,0.13646949462890623,36.01526717557252,-37.83206106870229,-12.916030534351146,0.0
10.470001220703125,-9.548076220703125,2.114080065917969,-0.5339069702148437,-4.3816793893129775,11.236641221374045,-1.2213740458015268,-8.221688500976562,2.501940734863281,0.6081272216796875,24.702290076335878,-35.267175572519086,-12.366412213740459,0.0
10.480000734329224,-9.639055883789062,3.399766357421875,0.023942016601562498,-21.862595419847327,11.404580152671755,-0.32061068702290074,-9.184157568359375,1.659181750488281,0.6248866333007812,18.412213740458014,-31.450381679389313,-7.6183206106870225,0.0
10.490001201629639,-9.107543115234375,1.7525556152343749,-0.1292868896484375,-28.16793893129771,11.954198473282442,0.2595419847328244,-10.611101757812499,1.2425906616210938,1.2282254516601563,27.297709923664122,-29.251908396946565,-5.603053435114504,0.0
10.500000715255737,-9.72285294189453,-0.05027823486328125,0.031124621582031248,-23.96946564885496,12.091603053435115,-0.8396946564885496,-10.54645831298828,0.028730419921875,1.2401964599609374,32.274809160305345,-34.0763358778626,-8.641221374045802,0.0
10.510001420974731,-10.077194787597655,-0.852335791015625,0.16519991455078123,-12.702290076335878,13.19083969465649,-2.519083969465649,-9.583989245605467,1.7357962036132812,0.3184288208007812,33.404580152671755,-39.48091603053435,-12.198473282442748,0.0
10.52000093460083,-10.17056865234375,0.2705447875976562,0.430956298828125,-7.801526717557252,14.396946564885496,-3.7557251908396947,-7.848193041992187,3.4715924072265625,1.1228805786132812,23.00763358778626,-32.42748091603053,-10.351145038167939,0.0
10.530000925064087,-9.82580361328125,1.6017209106445311,0.565031591796875,-16.18320610687023,14.16793893129771,-4.244274809160306,-9.715670336914062,1.5969325073242187,1.4030021728515625,11.419847328244275,-31.282442748091604,-4.67175572519084,0.0
10.540000915527344,-9.713276135253906,1.446097802734375,0.5961562133789062,-18.778625954198475,13.694656488549619,-4.244274809160306,-9.873687646484374,0.26336218261718747,1.2473790649414063,16.458015267175572,-34.06106870229008,-4.290076335877862,0.0
10.5500009059906,-9.763554370117188,0.3711012573242187,0.5051765502929687,-9.893129770992367,13.679389312977099,-4.076335877862595,-9.789890588378906,1.668758557128906,-0.0909796630859375,16.412213740458014,-36.35114503816794,-8.122137404580153,0.0
10.560000658035278,-9.993397729492187,1.1755530151367186,0.7948749511718749,-6.458015267175573,14.51908396946565,-4.0458015267175576,-8.027758166503906,2.9496564453125,0.4333505004882812,1.4961832061068703,-29.938931297709924,-7.282442748091603,0.0
10.570074558258057,-9.85692823486328,2.559401574707031,0.9959878906249999,-16.0,13.603053435114504,-3.114503816793893,-7.905653881835937,1.3168109130859373,1.0558429321289062,-11.374045801526718,-25.52671755725191,-1.450381679389313,0.0
10.58000135421753,-9.701305126953125,1.936909143066406,0.928950244140625,-23.374045801526716,12.122137404580153,-2.7022900763358777,-9.655815295410155,1.7190367919921874,1.9225439331054686,-4.396946564885496,-25.984732824427482,-0.24427480916030533,0.0
10.590000867843628,-10.053252770996092,0.15083470458984374,0.8307879760742187,-17.954198473282442,11.114503816793894,-3.1297709923664123,-10.081983190917969,0.8834604125976562,2.39420166015625,4.5038167938931295,-25.251908396946565,-0.8549618320610687,0.0
10.600001335144043,-10.338162768554687,-0.20829554443359374,1.0295067138671874,-10.381679389312977,10.229007633587786,-4.366412213740458,-9.794678991699218,2.020706201171875,1.6639701538085936,1.618320610687023,-30.15267175572519,-3.633587786259542,0.0
10.610000848770142,-9.928754284667969,0.181959326171875,0.7062894897460937,-1.9541984732824427,9.83206106870229,-4.580152671755725,-8.40125362548828,3.172317199707031,0.3280056274414062,-11.801526717557252,-24.732824427480917,-3.450381679389313,0.0
10.620001077651978,-9.679757312011718,1.886630908203125,0.82360537109375,-8.564885496183207,9.34351145038168,-4.0,-8.044517578125,2.789244934082031,0.00718260498046875,-27.206106870229007,-20.549618320610687,1.5572519083969465,0.0
10.630000829696655,-9.172186560058593,1.4867992309570313,0.55545478515625,-11.816793893129772,8.977099236641221,-4.931297709923665,-9.648632690429688,1.1755530151367186,1.5753846923828123,-28.061068702290076,-11.908396946564885,6.076335877862595,0.0
10.64000129699707,-8.614337573242187,0.8547299926757812,0.5770026000976562,-4.1679389312977095,11.786259541984732,-4.061068702290076,-8.992621435546875,1.189918225097656,0.30406361083984373,-25.96946564885496,-13.17557251908397,3.3435114503816794,0.0
10.650000810623169,-11.183315954589844,1.7310078002929687,0.737414111328125,-14.030534351145038,8.427480916030534,-6.442748091603053,-9.698910925292969,0.17956512451171874,0.7948749511718749,-26.778625954198475,-5.541984732824427,3.969465648854962,0.0
10.660000801086426,-10.168174450683592,1.9009961181640624,0.37828386230468747,-11.938931297709924,7.282442748091603,-3.3740458015267176,-9.33978067626953,-0.5746083984375,0.7493851196289062,-21.51145038167939,-7.038167938931298,2.732824427480916,0.0
10.670000791549683,-10.091559997558592,1.3766659545898436,0.5961562133789062,-14.458015267175572,5.572519083969466,-3.2213740458015265,-9.239224206542968,-0.70868369140625,1.0438719238281249,-16.38167938931298,-4.961832061068702,1.786259541984733,0.0
10.68000078201294,-9.981426721191406,0.7302315063476562,0.93852705078125,-9.297709923664122,6.244274809160306,-2.4885496183206106,-8.664615808105468,-0.5817910034179687,0.622492431640625,-12.992366412213741,-5.908396946564886,0.44274809160305345,0.0
10.690000772476196,-9.660603698730467,0.5746083984375,0.699106884765625,-7.816793893129771,5.099236641221374,-3.648854961832061,-9.471461767578125,-0.9361328491210937,1.1372457885742187,-7.6183206106870225,-2.7786259541984735,0.030534351145038167,0.0
10.700000762939453,-9.579200842285156,0.7206546997070312,0.3136404174804687,-7.175572519083969,4.305343511450381,-5.038167938931298,-11.777077966308592,-3.438073583984375,2.403778466796875,8.183206106870228,-3.5267175572519083,-0.0916030534351145,0.0
10.71000075340271,-9.557653027343749,0.062249243164062495,-0.1197100830078125,-1.450381679389313,4.870229007633588,-5.923664122137405,-9.830592016601562,-2.896984008789062,1.3407529296874998,18.427480916030536,-15.740458015267176,-7.923664122137405,0.0
10.720000743865967,-9.572018237304688,0.0526724365234375,-0.143652099609375,3.4656488549618323,6.0458015267175576,-7.0534351145038165,-9.34696328125,-1.4820108276367188,1.2665326782226562,30.50381679389313,-16.366412213740457,-11.954198473282442,0.0
10.730001211166382,-9.418789331054686,0.6847416748046875,-0.40462008056640625,2.854961832061069,7.0534351145038165,-8.564885496183207,-8.200140686035155,0.316034619140625,1.2904746948242187,29.480916030534353,-16.519083969465647,-14.870229007633588,0.0
10.74000072479248,-9.512163195800781,2.212242333984375,0.03591302490234375,-4.351145038167939,8.763358778625955,-9.465648854961833,-7.3837179199218745,3.3303345092773435,0.7110778930664062,18.3206106870229,-12.045801526717558,-14.458015267175572,0.0
10.750000953674316,-9.725247143554688,2.7269956909179687,0.1484405029296875,-16.80916030534351,9.129770992366412,-9.893129770992367,-8.767566479492187,1.2641384765625,2.6527754394531247,3.5114503816793894,6.183206106870229,-7.282442748091603,0.0
10.760278940200806,-9.3086560546875,1.2880804931640624,0.32082302246093747,-27.587786259541986,7.374045801526718,-8.320610687022901,-9.579200842285156,0.7134720947265625,1.9752163696289062,12.061068702290076,-3.7557251908396947,-7.526717557251908,0.0
10.77000117301941,-9.792284790039062,0.5147533569335937,0.16998831787109375,-17.740458015267176,8.274809160305344,-7.00763358778626,-8.82263311767578,0.3447650390625,2.4205378784179685,11.129770992366412,2.1526717557251906,-9.206106870229007,0.0
10.780000925064087,-9.564835632324218,-0.7589619262695312,0.047884033203124995,-13.374045801526718,8.549618320610687,-6.656488549618321,-8.655039001464843,0.17238251953125,2.384624853515625,6.305343511450381,1.4961832061068703,-9.969465648854962,0.0
10.790000915527344,-9.282319836425781,-1.2042834350585936,0.7206546997070312,7.511450381679389,16.870229007633586,-6.625954198473282,-8.628702783203124,-0.6368576416015624,2.750937707519531,7.877862595419847,2.122137404580153,-10.80916030534351,0.0
10.8000009059906,-8.89924757080078,-0.15083470458984374,-0.055066638183593745,14.198473282442748,16.290076335877863,-8.412213740458014,-8.379705810546875,-0.4070142822265625,2.511517541503906,8.67175572519084,0.4732824427480916,-10.885496183206106,0.0
10.810001134872437,-11.207257971191405,2.3032219970703123,0.6847416748046875,8.458015267175572,17.17557251908397,-12.870229007633588,-9.047688073730468,-0.5291185668945312,2.422932080078125,9.954198473282442,0.15267175572519084,-9.770992366412214,0.0
10.820000886917114,-10.28549033203125,2.6096798095703124,0.316034619140625,-5.526717557251908,10.458015267175572,-11.16030534351145,-8.686163623046875,0.02633621826171875,2.2194249389648437,8.793893129770993,-0.8854961832061069,-10.870229007633588,0.0
10.830000877380371,-10.675745202636719,2.4971523315429685,0.8882488159179687,-25.66412213740458,3.3282442748091605,-9.34351145038168,-9.145850341796875,0.16759411621093748,2.2601263671875,7.00763358778626,0.061068702290076333,-11.022900763358779,0.0
10.840000867843628,-9.830592016601562,-0.4477157104492187,1.1013327636718748,-21.587786259541986,0.7633587786259542,-6.229007633587786,-8.971073620605468,0.6105214233398437,2.1691467041015624,1.6030534351145038,0.44274809160305345,-11.435114503816793,0.0
10.850000858306885,-9.215282189941405,-1.1013327636718748,2.1356278808593747,-6.9465648854961835,1.984732824427481,-7.00763358778626,-8.961496813964843,0.612915625,2.310404602050781,-0.7480916030534351,1.9389312977099236,-11.648854961832061,0.0
10.86000108718872,-9.660603698730467,-0.21068974609375,2.6599580444335937,-4.595419847328245,-1.4351145038167938,-11.068702290076336,-8.987833032226561,0.4261678955078125,2.473210314941406,-2.8702290076335877,2.2748091603053435,-11.435114503816793,0.0
10.870000839233398,-10.0748005859375,0.7900865478515624,2.8993782104492185,1.4961832061068703,-4.9465648854961835,-12.488549618320612,-8.853757739257812,0.33758243408203126,2.5450363647460934,-5.801526717557252,2.427480916030534,-11.19083969465649,0.0
10.880001068115234,-10.326191760253906,1.2808978881835937,3.7229835815429686,3.068702290076336,-10.16793893129771,-11.877862595419847,-8.815450512695312,-0.11013327636718749,2.528276953125,-7.480916030534351,2.519083969465649,-10.732824427480915,0.0
10.890000581741333,-9.679757312011718,0.27293898925781246,3.9983167724609374,11.34351145038168,-14.183206106870228,-9.374045801526718,-8.585607153320312,-0.5578489868164063,2.6599580444335937,-7.282442748091603,1.465648854961832,-10.946564885496183,0.0
10.900001049041748,-10.034099157714843,1.7597382202148437,5.003881469726562,14.702290076335878,-18.442748091603054,-8.564885496183207,-8.28633194580078,-0.8403647827148437,2.683900061035156,-4.412213740458015,-0.1984732824427481,-11.17557251908397,0.0
10.910000801086426,-11.458649145507811,3.6487633300781246,6.0884548217773435,2.946564885496183,-27.954198473282442,-8.702290076335878,-8.14028564453125,-0.9911994873046874,2.499546533203125,-0.5190839694656488,-1.5419847328244274,-10.732824427480915,0.0
10.920000791549683,-11.350910070800781,2.9185318237304685,5.791573815917968,-8.82442748091603,-41.81679389312977,-5.267175572519084,-7.821856823730468,-0.39264907226562495,2.243366955566406,2.0763358778625953,-3.3282442748091605,-10.900763358778626,0.0
10.93000078201294,-9.938331091308592,1.0223241088867188,5.6383449096679685,-10.549618320610687,-51.89312977099237,-1.8015267175572518,-7.218518005371093,0.7757213378906249,1.687912170410156,1.1450381679389312,-4.366412213740458,-10.977099236641221,0.0
10.940000772476196,-9.6917283203125,-0.05746083984375,6.665457421875,-4.33587786259542,-58.900763358778626,-1.0687022900763359,-7.982268334960937,1.177947216796875,2.5450363647460934,-4.625954198473282,0.22900763358778625,-7.709923664122138,0.0
10.950001001358032,-10.299855541992187,0.36152445068359373,7.68059892578125,1.8015267175572518,-67.92366412213741,-2.4885496183206106,-6.888118176269531,0.7709329345703124,1.7381904052734374,-9.083969465648854,-4.625954198473282,-6.778625954198473,0.0
10.96000075340271,-10.658985791015624,0.7206546997070312,7.086836914062499,6.748091603053435,-79.74045801526718,-2.8244274809160306,-5.755660791015624,1.2641384765625,1.120486376953125,-11.603053435114504,-7.511450381679389,-5.66412213740458,0.0
10.970000743865967,-9.734823950195311,-0.4429273071289062,6.48589229736328,7.572519083969466,-93.93893129770993,-1.618320610687023,-6.363788012695312,0.8164227661132812,2.597708801269531,-19.83206106870229,-3.7099236641221376,-4.534351145038168,0.0
10.980000734329224,-9.464279162597656,-1.2282254516601563,6.861781958007812,14.931297709923664,-104.38167938931298,-0.5648854961832062,-6.507440112304687,2.0470424194335934,0.9361328491210937,-21.923664122137403,-0.13740458015267176,-6.870229007633588,0.0
10.99000096321106,-10.50815108642578,-0.507570751953125,8.300697155761718,15.251908396946565,-116.90076335877863,-4.198473282442748,-6.517016918945312,2.370259643554687,-0.5482721801757812,-35.61832061068702,11.099236641221374,-9.435114503816793,0.0
11.000000953674316,-10.967837805175781,-2.128445275878906,9.26316622314453,15.938931297709924,-133.86259541984734,-5.404580152671755,-8.37012900390625,-0.7948749511718749,1.2425906616210938,-51.083969465648856,14.83969465648855,-10.595419847328245,0.0
11.010001182556152,-12.73715283203125,-2.849099975585937,11.844115612792969,47.23664122137404,-146.54961832061068,-4.732824427480916,-12.97178459472656,0.2609679809570312,5.102043737792968,-33.12977099236641,15.038167938931299,-14.51908396946565,0.0
11.020031452178955,-12.607865942382812,-4.2305543334960936,11.647791076660155,78.29007633587786,-160.87022900763358,-1.7709923664122138,-14.149731811523436,0.5147533569335937,6.660669018554687,-32.0763358778626,11.679389312977099,-19.480916030534353,0.0
11.030001401901245,-12.761094848632812,-3.679887951660156,7.936778503417968,95.93893129770993,-170.793893129771,-3.5114503816793894,-15.116989282226562,-1.9584569580078124,8.214505895996094,-23.61832061068702,-1.4045801526717556,-20.900763358778626,0.0
11.040000677108765,-12.279860314941406,-3.5146880371093747,1.1875240234375,93.32824427480917,-182.9770992366412,-11.587786259541986,-13.912705847167969,1.3455413330078123,6.715735656738281,-22.061068702290076,-21.419847328244273,-22.290076335877863,0.0
11.050135612487793,-13.864821813964843,-1.3192051147460937,-2.5258827514648434,78.13740458015268,-182.70229007633588,-16.870229007633586,-11.415553515625,3.3446997192382812,6.112396838378906,-39.786259541984734,-28.9618320610687,-19.954198473282442,0.0
11.060000896453857,-13.759476940917969,-2.834734765625,-5.2648494506835934,65.96946564885496,-180.91603053435114,-17.34351145038168,-9.832986218261718,2.6623522460937497,2.703053674316406,-53.14503816793893,-39.587786259541986,-13.801526717557252,0.0
11.070157527923584,-14.379575170898436,-1.956062756347656,-5.305550878906249,86.13740458015268,-164.5801526717557,-11.664122137404581,-8.765172277832031,5.063736511230468,0.4477157104492187,-70.56488549618321,-44.47328244274809,-11.358778625954198,0.0
11.080000877380371,-13.283030810546874,1.024718310546875,-5.195417602539062,84.53435114503817,-151.58778625954199,-9.358778625954198,-7.807491613769531,5.176263989257812,-1.0821791503906248,-105.70992366412214,-37.12977099236641,-8.244274809160306,0.0
11.090000867843628,-12.318167541503906,4.546588952636719,-5.142745166015625,57.00763358778626,-142.0763358778626,-7.236641221374046,-9.277531433105468,-1.0558429321289062,-1.675941162109375,-128.74809160305344,-30.366412213740457,-2.885496183206107,0.0
11.100001096725464,-11.192892761230468,5.916072302246094,-4.431667272949219,29.31297709923664,-126.83969465648855,-4.793893129770993,-9.765948571777344,-5.341463903808593,-2.7246014892578123,-117.41984732824427,-20.519083969465647,-2.519083969465649,0.0
11.110000848770142,-11.082759484863281,6.155492468261718,-3.9504327392578125,-12.244274809160306,-111.55725190839695,-3.786259541984733,-10.953472595214842,-8.566453540039062,-3.4093431640625,-82.04580152671755,-17.419847328244273,-8.244274809160306,0.0
11.120001077651978,-10.436325036621094,4.1946413085937495,-4.678270043945313,-28.778625954198475,-94.27480916030534,3.8931297709923665,-11.3389390625,-9.119514123535156,-4.012681982421875,-48.83969465648855,-16.946564885496183,-9.801526717557252,0.0
11.130001068115234,-9.050082275390624,3.0334535034179684,-3.9815573608398434,-33.9236641221374,-69.80152671755725,10.244274809160306,-11.896788049316406,-8.901641772460938,-2.422932080078125,-19.755725190839694,-3.8473282442748094,-10.641221374045802,0.0
11.140001058578491,-7.809885815429687,1.1133037719726562,-4.122815258789062,-39.12977099236641,-51.587786259541986,12.305343511450381,-12.445060229492187,-8.40843623046875,-1.0749965454101562,17.51145038167939,0.0916030534351145,-11.358778625954198,0.0
11.15000057220459,-7.038952880859375,-1.3718775512695311,-4.704606262207031,-27.49618320610687,-29.96946564885496,13.419847328244275,-12.332532751464843,-5.0014872680664055,-0.201112939453125,45.49618320610687,1.450381679389313,-11.801526717557252,0.0
11.160001277923584,-9.708487731933593,1.1707646118164061,-2.817975354003906,-47.038167938931295,-16.641221374045802,8.83969465648855,-11.245565197753905,-1.4006079711914061,0.0430956298828125,59.64885496183206,5.221374045801527,-10.01526717557252,0.0
11.170000791549683,-9.909600671386718,-0.229843359375,-2.205059729003906,-41.38931297709924,-0.8854961832061069,14.183206106870228,-10.36210478515625,1.2713210815429687,-0.2920926025390625,55.83206106870229,10.274809160305344,-3.404580152671756,0.0
11.18000054359436,-8.573636145019531,-1.2521674682617188,-2.748543505859375,-46.12213740458015,8.595419847328245,16.15267175572519,-8.506598498535157,4.110844250488281,-0.612915625,43.14503816793893,15.34351145038168,-3.1297709923664123,0.0
11.190000772476196,-6.53138212890625,-1.2976572998046874,-3.948038537597656,-46.67175572519084,16.564885496183205,17.740458015267176,-9.425971936035156,2.3439234252929686,-0.047884033203124995,27.480916030534353,27.129770992366414,5.541984732824427,0.0
11.200000762939453,-6.244077929687499,-2.592920397949219,-3.816357446289062,-41.25190839694657,35.52671755725191,18.16793893129771,-10.1131078125,1.5753846923828123,-0.37828386230468747,22.80916030534351,27.81679389312977,9.954198473282442,0.0
11.21000075340271,-5.178658190917968,-2.5163059448242184,-3.778050219726562,-31.893129770992367,51.41984732824427,16.137404580152673,-9.89523546142578,1.0606313354492187,0.7398083129882812,21.16030534351145,30.47328244274809,11.83206106870229,0.0
11.220000743865967,-5.480327600097656,-2.0278888061523435,-2.384624853515625,-35.49618320610687,63.3587786259542,10.458015267175572,-9.485826977539062,3.1699229980468746,0.8810662109374999,15.587786259541986,32.33587786259542,11.83206106870229,0.0
11.230000734329224,-5.257666845703125,-1.3311761230468748,-1.4532804077148436,-46.0,73.72519083969466,4.137404580152672,-9.9215716796875,2.932897033691406,2.442085693359375,9.282442748091603,37.343511450381676,15.923664122137405,0.0
11.24000096321106,-5.530605834960937,-1.2473790649414063,0.3184288208007812,-49.587786259541986,84.87022900763358,-0.916030534351145,-10.998962426757812,-0.33518823242187495,2.664746447753906,7.557251908396947,36.68702290076336,21.16030534351145,0.0
11.250001192092896,-6.0333881835937495,-3.0526071166992184,1.4700398193359374,-37.343511450381676,94.83969465648855,-3.8473282442748094,-10.17056865234375,-1.4053963745117186,1.848323681640625,17.14503816793893,23.633587786259543,17.17557251908397,0.0
11.260000944137573,-6.8210805297851556,-2.6384102294921874,2.9041666137695312,-17.61832061068702,104.97709923664122,-6.427480916030534,-10.0748005859375,-0.0526724365234375,2.252943762207031,21.755725190839694,17.908396946564885,13.282442748091603,0.0
11.270001411437988,-6.787561706542968,-1.4724340209960938,3.900154504394531,-15.068702290076336,107.52671755725191,-9.770992366412214,-8.269572534179687,1.369483349609375,2.8131869506835936,9.16030534351145,16.045801526717558,11.877862595419847,0.0
11.280001163482666,-7.445967163085937,0.5674257934570313,4.735730883789063,-18.137404580152673,107.8473282442748,-10.900763358778626,-8.504204296874999,0.5961562133789062,2.5474305664062498,-1.3893129770992367,13.98473282442748,13.877862595419847,0.0
11.290000677108765,-8.145074047851562,2.2098481323242187,5.102043737792968,-11.954198473282442,104.61068702290076,-8.122137404580153,-8.547299926757812,-0.0909796630859375,2.152387292480469,-9.786259541984732,11.48091603053435,15.877862595419847,0.0
11.300000429153442,-8.844180932617187,2.6671406494140624,5.9950809570312495,-6.061068702290076,103.22137404580153,1.1908396946564885,-8.987833032226561,-0.737414111328125,1.936909143066406,-13.053435114503817,10.091603053435115,14.50381679389313,0.0
11.310000658035278,-8.911218579101561,2.2194249389648437,6.497863305664062,-11.893129770992367,96.42748091603053,6.137404580152672,-8.619125976562499,-1.3311761230468748,1.7764976318359373,-14.687022900763358,8.122137404580153,12.244274809160306,0.0
11.320000648498535,-9.473855969238281,1.3551181396484375,7.0078282592773435,-18.213740458015266,87.0381679389313,8.687022900763358,-8.798691101074219,-1.209071838378906,1.956062756347656,-11.435114503816793,7.282442748091603,10.320610687022901,0.0
11.330000638961792,-10.297461340332031,0.8499415893554687,7.60398447265625,-24.091603053435115,74.27480916030534,9.374045801526718,-8.889670764160156,-0.9935936889648437,1.9752163696289062,-11.450381679389313,5.740458015267175,9.709923664122137,0.0
11.340000867843628,-11.200075366210937,0.6177040283203125,8.128314636230469,-27.633587786259543,61.41984732824427,10.427480916030534,-9.411606726074218,-0.5147533569335937,2.090138049316406,-10.870229007633588,4.259541984732825,9.572519083969466,0.0
11.350000381469727,-9.334992272949219,-2.0302830078125,6.5960255737304685,-21.801526717557252,47.19083969465649,13.221374045801527,-9.552864624023437,-0.40940848388671874,2.061407629394531,-12.458015267175572,2.6106870229007635,9.679389312977099,0.0
11.360000610351562,-9.179369165039063,-1.2856862915039062,6.4667386840820305,-6.748091603053435,38.29007633587786,13.32824427480916,-9.682151513671874,-0.9959878906249999,2.085349645996094,-11.84732824427481,1.1755725190839694,9.541984732824428,0.0
11.37000060081482,-10.85291612548828,0.8882488159179687,7.5537062377929685,1.7709923664122138,30.68702290076336,13.572519083969466,-9.169792358398437,-1.0869675537109373,1.9776105712890624,-11.114503816793894,0.16793893129770993,11.206106870229007,0.0
11.380000829696655,-9.062053283691405,0.47165772705078124,5.360617517089843,4.320610687022901,16.625954198473284,18.0,-8.762778076171875,-1.1731588134765625,1.8100164550781248,-9.740458015267176,0.015267175572519083,12.259541984732824,0.0
11.390000581741333,-8.726865051269531,0.16041151123046873,4.127603662109375,9.099236641221374,13.236641221374045,22.427480916030536,-7.826645227050781,-0.7015010864257812,1.5346832641601562,-11.83206106870229,1.5267175572519085,12.061068702290076,0.0
11.400000810623169,-9.217676391601563,1.24498486328125,2.389413256835937,-9.145038167938932,7.679389312977099,22.427480916030536,-6.251260534667968,-0.0718260498046875,1.649604943847656,-12.381679389312977,0.12213740458015267,11.587786259541986,0.0
11.410000562667847,-8.406042028808594,-0.7302315063476562,-1.0079588989257813,-10.763358778625955,14.854961832061068,25.938931297709924,-8.243236315917969,-2.1619640991210938,0.6153098266601562,-9.603053435114504,2.519083969465649,12.595419847328245,0.0
11.420000791549683,-9.229647399902344,-0.7493851196289062,-0.7972691528320313,-4.458015267175573,22.27480916030534,29.221374045801525,-8.815450512695312,-2.3870190551757813,1.0797849487304687,-1.618320610687023,3.5877862595419847,11.572519083969466,0.0
11.43000054359436,-11.180921752929686,-1.9632453613281249,2.1811177124023438,24.564885496183205,34.50381679389313,36.045801526717554,-10.12507882080078,-2.370259643554687,1.6424223388671875,3.618320610687023,5.633587786259542,11.450381679389313,0.0
11.440000534057617,-13.488932153320311,-1.3623007446289062,7.656656909179687,45.221374045801525,34.229007633587784,40.045801526717554,-10.963049401855468,-2.176329309082031,2.123656872558594,9.648854961832061,6.473282442748092,10.13740458015267,0.0
11.450000762939453,-15.301342810058593,-0.603338818359375,11.547234606933593,53.63358778625954,24.702290076335878,35.80152671755725,-10.541669909667968,-1.13006318359375,2.3295582153320313,4.641221374045801,13.068702290076336,11.114503816793894,0.0
11.46000051498413,-15.981296081542968,-2.2457611572265623,14.872780712890624,36.68702290076336,2.213740458015267,26.625954198473284,-9.823409411621093,-0.565031591796875,0.967257470703125,5.435114503816794,17.251908396946565,16.0,0.0
11.470000505447388,-15.320496423339844,-2.5426421630859375,8.444349255371094,15.221374045801527,-13.236641221374045,10.458015267175572,-9.689334118652344,1.0127473022460938,0.07900865478515624,2.732824427480916,19.770992366412212,19.61832061068702,0.0
11.480000734329224,-13.55357559814453,-1.1348515869140625,2.212242333984375,-14.01526717557252,-21.083969465648856,-2.7938931297709924,-11.396399902343749,-1.5753846923828123,1.0271125122070313,-0.7633587786259542,29.068702290076335,25.81679389312977,0.0
11.490000486373901,-10.915165368652342,-3.5673604736328124,-2.5665841796874997,-8.198473282442748,-17.404580152671755,-4.259541984732825,-12.46181964111328,-1.3862427612304686,-0.12689268798828124,13.114503816793894,20.717557251908396,21.64885496183206,0.0
11.500000476837158,-9.22485899658203,-3.507505432128906,-4.2880151733398435,14.748091603053435,-11.541984732824428,-1.816793893129771,-10.09395419921875,0.9935936889648437,0.7278373046875,11.129770992366412,26.778625954198475,16.47328244274809,0.0
11.510001420974731,-5.154716174316406,-5.580884069824219,-4.80755693359375,40.50381679389313,-4.99236641221374,-0.42748091603053434,-10.69968721923828,0.5482721801757812,0.8595183959960937,13.664122137404581,22.0,16.27480916030534,0.0
11.520000696182251,-5.65031591796875,-1.9297265380859374,-3.201047619628906,80.3206106870229,12.305343511450381,-3.282442748091603,-8.935160595703124,0.009576806640625,0.277727392578125,20.16793893129771,20.885496183206108,13.740458015267176,0.0
11.530001163482666,-6.574477758789062,2.602497204589844,-3.7708676147460936,84.76335877862596,23.52671755725191,-6.534351145038168,-10.364498986816406,0.4381389038085937,-1.5753846923828123,29.61832061068702,10.274809160305344,10.65648854961832,0.0
11.540000915527344,-9.835380419921874,9.004592443847656,-3.7397429931640622,59.00763358778626,32.152671755725194,-3.6946564885496183,-10.27830772705078,1.9895815795898437,0.3399766357421875,24.290076335877863,19.099236641221374,16.427480916030536,0.0
11.55000114440918,-9.605537060546874,8.377311608886718,-5.054159704589844,5.068702290076335,33.05343511450382,7.175572519083969,-11.513715783691406,1.4053963745117186,0.3758896606445312,21.022900763358777,15.98473282442748,20.15267175572519,0.0
11.560001611709595,-9.528922607421874,5.032611889648437,-3.191470812988281,-18.412213740458014,41.29770992366412,13.221374045801527,-11.348515869140625,0.8690952026367187,0.4381389038085937,18.519083969465647,14.702290076335878,20.702290076335878,0.0
11.570000648498535,-10.582371337890624,2.020706201171875,-0.9600748657226562,-27.770992366412212,46.50381679389313,12.778625954198473,-11.71482872314453,0.316034619140625,0.4477157104492187,16.763358778625953,11.145038167938932,20.48854961832061,0.0
11.580000638961792,-10.692504614257812,1.5035586425781249,0.7493851196289062,-37.06870229007634,47.29770992366412,9.511450381679388,-11.559205615234374,-0.2059013427734375,0.6200982299804687,18.412213740458014,8.381679389312977,18.137404580152673,0.0
11.590000629425049,-10.237606298828124,1.4820108276367188,1.4125789794921875,-45.969465648854964,46.44274809160305,5.190839694656488,-11.077971081542968,0.33039982910156246,0.7493851196289062,18.671755725190838,6.854961832061068,14.488549618320612,0.0
11.6000394821167,-10.448296044921875,0.7924807495117187,1.695094775390625,-54.595419847328245,44.47328244274809,-0.12213740458015267,-10.63025537109375,0.852335791015625,0.7134720947265625,18.702290076335878,5.633587786259542,11.114503816793894,0.0
11.61000108718872,-10.007762939453125,0.016759411621093748,0.7302315063476562,-64.44274809160305,39.847328244274806,-4.198473282442748,-10.062829577636718,1.4173673828125,0.45489831542968745,14.931297709923664,4.870229007633588,7.877862595419847,0.0
11.620000839233398,-9.229647399902344,-0.8092401611328125,-0.4285620971679687,-54.97709923664122,39.11450381679389,-2.519083969465649,-10.251971508789062,2.9496564453125,0.7589619262695312,11.099236641221374,5.358778625954199,5.755725190839694,0.0
11.630000352859497,-9.466673364257812,-0.9959878906249999,0.40462008056640625,-40.916030534351144,41.89312977099237,-1.7251908396946565,-9.706093530273437,2.980781066894531,0.2609679809570312,0.4580152671755725,5.541984732824427,5.511450381679389,0.0
11.640000820159912,-10.228029492187499,-0.3232172241210937,0.4572925170898437,-37.908396946564885,41.48091603053435,-0.8549618320610687,-9.524134204101562,3.421314172363281,0.4381389038085937,-7.4961832061068705,7.00763358778626,6.183206106870229,0.0
11.65000057220459,-10.838550915527343,-0.25139117431640623,0.9121908325195311,-30.106870229007633,41.70992366412214,1.0076335877862594,-9.382876306152344,2.6096798095703124,0.033518823242187495,-18.0,8.030534351145038,6.748091603053435,0.0
11.660000801086426,-9.004592443847656,-0.842758984375,0.46208092041015625,-23.49618320610687,36.10687022900763,3.984732824427481,-10.182539660644531,2.5043349365234375,0.9050082275390624,-22.396946564885496,8.122137404580153,9.038167938931299,0.0
11.670000553131104,-9.823409411621093,-0.4261678955078125,0.44053310546874996,-21.84732824427481,34.19847328244275,3.0076335877862594,-10.263942517089843,2.4253262817382812,1.2018892333984375,-25.236641221374047,6.33587786259542,10.641221374045802,0.0
11.68000054359436,-10.189722265624999,0.15562310791015624,0.7805097412109374,-27.51145038167939,28.595419847328245,1.3740458015267176,-10.55364091796875,0.63206923828125,1.024718310546875,-24.38167938931298,5.938931297709924,12.931297709923664,0.0
11.690000534057617,-8.923189587402343,-1.8626888916015625,1.1755530151367186,-6.99236641221374,29.49618320610687,2.0,-10.182539660644531,1.0342951171875,1.2234370483398436,-26.198473282442748,2.6412213740458017,12.80916030534351,0.0
11.700000524520874,-9.291896643066405,-0.5339069702148437,1.1563994018554686,-5.221374045801527,25.49618320610687,-0.549618320610687,-10.94868419189453,-0.33758243408203126,2.2840683837890623,-18.610687022900763,1.9694656488549618,13.16030534351145,0.0
11.71000051498413,-10.596736547851561,1.9871873779296874,1.0103531005859374,-3.801526717557252,22.015267175572518,-3.2519083969465647,-11.384428894042967,0.11731588134765625,1.8339584716796873,-11.725190839694656,-1.7404580152671756,10.778625954198473,0.0
11.720000267028809,-9.358934289550781,0.2825157958984375,0.03591302490234375,1.450381679389313,21.206106870229007,0.3053435114503817,-10.845733520507812,1.3431471313476562,1.8028338500976562,-16.259541984732824,-4.625954198473282,8.702290076335878,0.0
11.730000495910645,-10.12507882080078,2.588131994628906,0.30406361083984373,-6.870229007633588,19.81679389312977,0.42748091603053434,-11.221623181152344,0.9792284790039062,1.6017209106445311,-16.366412213740457,-8.473282442748092,8.67175572519084,0.0
11.740000247955322,-10.733206042480468,3.842693664550781,0.679953271484375,-10.931297709923664,21.114503816793892,-0.6259541984732825,-10.544064111328124,0.23223756103515625,2.2601263671875,-23.709923664122137,-7.083969465648855,10.67175572519084,0.0
11.750000715255737,-9.677363110351562,2.2673089721679687,-0.38307226562499996,-34.87022900763359,12.732824427480915,3.2977099236641223,-9.842563024902343,1.0271125122070313,1.3000515014648437,-22.0,-16.427480916030536,6.488549618320611,0.0
11.760000705718994,-9.80665,0.9648632690429687,-0.21068974609375,-28.137404580152673,13.389312977099237,5.282442748091603,-11.386823095703125,-0.32561142578124996,1.6232687255859375,-13.465648854961833,-18.671755725190838,6.732824427480916,0.0
11.77000093460083,-9.567229833984374,-0.028730419921875,0.09337386474609374,-20.3206106870229,13.877862595419847,4.3816793893129775,-10.802637890625,-0.6440402465820312,1.898601916503906,-11.572519083969466,-23.51145038167939,4.564885496183206,0.0
11.780000686645508,-9.935936889648437,0.15562310791015624,-0.34237083740234375,-18.83969465648855,13.068702290076336,3.236641221374046,-11.001356628417968,-2.4061726684570313,2.0973206542968748,3.3435114503816794,-28.549618320610687,1.1145038167938932,0.0
11.790000915527344,-10.160991845703125,-0.6248866333007812,-0.42377369384765623,-9.068702290076336,13.954198473282442,2.732824427480916,-11.71482872314453,-1.9895815795898437,2.1260510742187497,19.022900763358777,-39.66412213740458,-3.9083969465648853,0.0
11.8000009059906,-10.271125122070313,-0.09816226806640624,-0.430956298828125,-0.0916030534351145,14.564885496183207,1.0534351145038168,-9.184157568359375,1.8626888916015625,1.9536685546875,13.34351145038168,-43.70992366412214,-10.061068702290076,0.0
11.810000658035278,-9.957484704589843,1.4772224243164063,-0.040701428222656245,-5.694656488549619,15.374045801526718,0.7938931297709924,-9.466673364257812,0.26815058593749996,2.3870190551757813,8.473282442748092,-39.29770992366412,-5.022900763358779,0.0
11.820000886917114,-10.022128149414062,1.4628572143554686,-0.29927520751953124,-15.358778625954198,13.98473282442748,0.549618320610687,-11.731588134765625,-0.8667010009765624,1.7860744384765623,14.885496183206106,-45.63358778625954,-3.7709923664122136,0.0
11.830000638961792,-9.995791931152343,-0.15322890625,-0.00718260498046875,-8.16793893129771,15.541984732824428,1.0381679389312977,-8.820238916015624,2.6408044311523438,0.47165772705078124,10.122137404580153,-45.06870229007634,-10.01526717557252,0.0
11.840000629425049,-10.103531005859374,0.8834604125976562,0.13646949462890623,-14.305343511450381,14.916030534351146,-0.33587786259541985,-9.17458076171875,0.5817910034179687,1.9776105712890624,-1.0381679389312977,-36.50381679389313,-5.129770992366412,0.0
11.850000381469727,-9.919177478027343,1.0438719238281249,0.009576806640625,-19.984732824427482,14.610687022900763,-0.549618320610687,-11.075576879882812,-0.4165910888671875,2.806004345703125,4.061068702290076,-37.69465648854962,-2.3206106870229006,0.0
11.860000610351562,-9.612719665527344,-0.34715924072265625,-0.5339069702148437,-12.396946564885496,13.557251908396946,0.0916030534351145,-10.199299072265624,0.430956298828125,1.0103531005859374,6.824427480916031,-42.2442748091603,-9.755725190839694,0.0
11.870000839233398,-9.871293444824218,-0.5602431884765625,-0.23702596435546874,-1.3587786259541985,14.763358778625955,-0.7175572519083969,-8.59278975830078,1.5825672973632812,1.2689268798828124,7.267175572519084,-41.083969465648856,-11.312977099236642,0.0
11.880000829696655,-10.014945544433592,1.4772224243164063,-0.5722141967773438,-2.9770992366412212,14.259541984732824,-1.618320610687023,-8.444349255371094,1.886630908203125,1.848323681640625,-6.106870229007634,-36.18320610687023,-7.603053435114504,0.0
11.890000820159912,-9.74200655517578,2.7078420776367187,-0.49799394531249996,-10.916030534351146,14.274809160305344,-0.6412213740458015,-9.861716638183593,1.3096283081054687,3.201047619628906,1.984732824427481,-31.16030534351145,-4.458015267175573,0.0
11.900001049041748,-9.550470422363281,1.637633935546875,-0.47644613037109373,-13.389312977099237,14.687022900763358,0.21374045801526717,-11.010933435058593,-0.2346317626953125,1.946485949707031,8.641221374045802,-33.343511450381676,-6.213740458015267,0.0
11.910000562667847,-9.366116894531249,-0.0718260498046875,-0.6488286499023437,-6.305343511450381,15.618320610687023,0.21374045801526717,-10.172962854003906,0.3399766357421875,1.16837041015625,9.022900763358779,-36.56488549618321,-10.091603053435115,0.0
11.920000791549683,-9.667786303710937,0.3232172241210937,-0.296881005859375,-3.49618320610687,17.053435114503817,-0.8091603053435115,-8.535328918457031,2.31758720703125,0.41898529052734373,2.030534351145038,-35.37404580152672,-12.320610687022901,0.0
11.93000054359436,-9.86411083984375,1.3910311645507811,-0.09337386474609374,-8.885496183206106,17.923664122137403,-2.1068702290076335,-8.030152368164062,1.0223241088867188,1.0941501586914062,-11.526717557251908,-26.671755725190838,-6.778625954198473,0.0
11.940000295639038,-9.069235888671875,0.7278373046875,0.01915361328125,-8.320610687022901,21.389312977099237,-1.6946564885496183,-10.649408984374999,0.39983167724609375,1.7118541870117185,-5.221374045801527,-22.732824427480917,-2.7938931297709924,0.0
11.950000524520874,-8.568847741699217,0.8667010009765624,0.3591302490234375,-16.290076335877863,19.34351145038168,-3.3435114503816794,-9.409212524414063,-0.4860229370117187,0.9361328491210937,-4.809160305343512,-27.328244274809162,-6.885496183206107,0.0
11.960000276565552,-10.129867224121092,0.70868369140625,-0.016759411621093748,-20.442748091603054,17.480916030534353,-4.1679389312977095,-10.381258398437499,-0.16041151123046873,2.099714855957031,8.366412213740459,-29.541984732824428,-9.908396946564885,0.0
11.970000743865967,-10.091559997558592,0.08379705810546874,0.3687070556640625,-12.16793893129771,17.389312977099237,-3.099236641221374,-9.423577734375,0.6919242797851562,0.8068459594726562,8.702290076335878,-31.19083969465649,-13.48091603053435,0.0
11.980000734329224,-9.361328491210937,-0.20829554443359374,0.9792284790039062,-7.526717557251908,18.076335877862597,-4.198473282442748,-7.6279264892578125,2.4851813232421875,0.011971008300781249,-1.6793893129770991,-26.106870229007633,-13.572519083969466,0.0
11.990000486373901,-9.567229833984374,1.3144167114257812,1.6208745239257811,-11.633587786259541,17.129770992366414,-6.67175572519084,-9.030928662109375,1.8459294799804686,0.5674257934570313,-10.65648854961832,-17.19083969465649,-7.770992366412214,0.0
12.000000238418579,-9.572018237304688,1.9871873779296874,1.6448165405273436,-12.916030534351146,15.465648854961833,-7.801526717557252,-8.142679846191406,1.886630908203125,0.55545478515625,-19.0381679389313,-11.236641221374045,-6.885496183206107,0.0
12.010000944137573,-9.648632690429688,1.24498486328125,1.0031704956054688,-13.435114503816793,13.877862595419847,-4.977099236641221,-9.835380419921874,-0.105344873046875,1.678335363769531,-14.335877862595419,-5.0534351145038165,-4.244274809160306,0.0
12.020000696182251,-9.986215124511718,0.7350199096679687,1.5825672973632812,8.50381679389313,20.091603053435115,-3.099236641221374,-8.817844714355468,-0.29927520751953124,1.2234370483398436,-7.816793893129771,-6.229007633587786,-7.114503816793893,0.0
12.030000925064087,-10.096348400878906,1.8028338500976562,0.8690952026367187,7.541984732824427,16.671755725190838,-3.0229007633587788,-8.820238916015624,-0.8188169677734375,1.2234370483398436,0.2595419847328244,-4.641221374045801,-8.80916030534351,0.0
12.040000438690186,-11.142614526367186,4.146757275390625,2.31758720703125,-1.7251908396946565,16.091603053435115,-4.8396946564885495,-8.25520732421875,-0.00718260498046875,0.9744400756835937,-0.030534351145038167,-5.358778625954199,-10.320610687022901,0.0
12.0500009059906,-10.577582934570312,2.906560815429687,2.2553379638671873,-16.549618320610687,10.442748091603054,-2.6717557251908395,-9.160215551757812,0.076614453125,1.1156979736328125,2.0,-3.2213740458015265,-10.320610687022901,0.0
12.0600004196167,-10.654197387695312,1.8626888916015625,2.0063409912109376,-28.442748091603054,1.9083969465648856,-0.9465648854961832,-8.839392529296875,0.6416460449218749,0.6631938598632812,1.5725190839694656,-3.633587786259542,-10.702290076335878,0.0
12.070000886917114,-9.504980590820312,-0.7900865478515624,1.5753846923828123,-7.908396946564886,1.7251908396946565,3.2213740458015265,-9.428366137695312,0.8164227661132812,1.0295067138671874,-1.5725190839694656,0.32061068702290074,-8.900763358778626,0.0
12.080000638961792,-10.060435375976562,0.6464344482421874,1.7190367919921874,0.5343511450381679,1.6030534351145038,2.3206106870229006,-8.942343200683593,0.622492431640625,1.0199299072265624,-1.1145038167938932,2.015267175572519,-9.17557251908397,0.0
12.090000867843628,-9.854534033203125,1.3000515014648437,0.9696516723632812,6.229007633587786,0.8396946564885496,1.8473282442748091,-9.660603698730467,0.047884033203124995,1.5059528442382812,2.015267175572519,4.442748091603053,-7.343511450381679,0.0
12.100001096725464,-9.811438403320311,1.6998831787109374,0.3232172241210937,0.6564885496183206,-0.7786259541984732,2.2442748091603053,-8.935160595703124,-0.02633621826171875,1.438915197753906,4.1679389312977095,4.2748091603053435,-9.17557251908397,0.0
12.110000610351562,-9.45470235595703,0.852335791015625,0.26815058593749996,0.366412213740458,1.1145038167938932,2.213740458015267,-9.306261853027344,-0.44053310546874996,1.6448165405273436,5.877862595419847,6.076335877862595,-9.053435114503817,0.0
12.120001077651978,-9.598354455566406,0.7326257080078125,0.4165910888671875,-4.213740458015267,0.5343511450381679,0.3511450381679389,-8.734047656249999,-0.2561795776367187,1.43652099609375,7.1603053435114505,6.091603053435114,-11.297709923664122,0.0
12.130000591278076,-9.593566052246093,0.26815058593749996,0.1580173095703125,-4.0458015267175576,0.5038167938931297,-0.6717557251908397,-8.8872765625,-0.38307226562499996,1.448492004394531,7.312977099236641,8.65648854961832,-11.786259541984732,0.0
12.140000820159912,-10.335768566894531,1.1635820068359375,0.5147533569335937,-7.816793893129771,-0.2595419847328244,-2.7480916030534353,-9.176974963378905,-0.354341845703125,1.5586252807617187,9.34351145038168,10.687022900763358,-11.740458015267176,0.0
12.15000057220459,-10.070012182617187,1.2641384765625,0.46208092041015625,-12.702290076335878,-2.33587786259542,-4.244274809160306,-9.083601098632812,0.03591302490234375,1.695094775390625,15.435114503816793,9.83206106870229,-12.961832061068701,0.0
12.160001039505005,-9.512163195800781,1.7932570434570312,-0.8571241943359375,-28.427480916030536,-8.610687022900763,-3.9083969465648853,-8.877699755859375,-0.430956298828125,1.5155296508789062,14.488549618320612,10.717557251908397,-12.977099236641221,0.0
12.170000553131104,-10.601524951171875,1.2617442749023438,-0.033518823242187495,-30.213740458015266,-6.061068702290076,-3.3893129770992365,-8.499415893554687,0.5530605834960938,1.2761094848632812,11.664122137404581,11.206106870229007,-12.854961832061068,0.0
12.18000054359436,-9.17458076171875,0.4429273071289062,-0.6081272216796875,-27.221374045801525,-8.0,-1.0229007633587786,-9.514557397460937,-0.06464344482421874,1.7357962036132812,9.526717557251908,15.572519083969466,-10.030534351145038,0.0
12.190000534057617,-8.473079675292968,-0.086191259765625,-0.3687070556640625,-22.717557251908396,-4.351145038167939,-2.381679389312977,-8.1594392578125,-0.01915361328125,2.070984436035156,9.34351145038168,11.603053435114504,-10.16793893129771,0.0
12.200000286102295,-9.289502441406249,0.12210428466796874,0.2753331909179687,-10.931297709923664,0.061068702290076333,-2.9160305343511452,-9.124302526855468,-0.5099649536132812,2.6958710693359373,12.916030534351146,16.82442748091603,-10.13740458015267,0.0
12.21000051498413,-8.382100012207031,-0.842758984375,-0.43574470214843747,-12.01526717557252,-2.6717557251908395,-3.801526717557252,-8.688557824707031,-0.08858546142578125,2.3391350219726563,15.19083969465649,15.633587786259541,-12.427480916030534,0.0
12.220000505447388,-10.295067138671874,1.2521674682617188,0.39983167724609375,-10.977099236641221,-3.66412213740458,-4.870229007633588,-9.169792358398437,-0.7637503295898437,2.7198130859375,15.954198473282442,16.641221374045802,-11.022900763358779,0.0
12.230000495910645,-9.277531433105468,-0.7852981445312499,0.6512228515624999,4.259541984732825,-0.8702290076335878,-2.4885496183206106,-9.588777648925781,-0.6703764648437499,2.925714428710937,20.091603053435115,14.977099236641221,-10.381679389312977,0.0
12.240000486373901,-9.639055883789062,0.4213794921875,1.5945383056640625,11.541984732824428,-0.549618320610687,-2.763358778625954,-8.734047656249999,0.28490999755859375,2.7964275390625,22.106870229007633,13.068702290076336,-11.435114503816793,0.0
12.250000953674316,-10.287884533691406,1.0797849487304687,1.5131354492187499,10.931297709923664,-4.076335877862595,-2.7938931297709924,-8.604760766601562,1.3670891479492187,2.4133552734375,16.213740458015266,13.49618320610687,-10.122137404580153,0.0
12.260001182556152,-10.120290417480469,1.2138602416992186,1.8626888916015625,9.816793893129772,-6.778625954198473,-1.2213740458015268,-9.433154541015625,0.7948749511718749,2.4684219116210935,10.580152671755725,15.145038167938932,-7.374045801526718,0.0
12.270001411437988,-9.528922607421874,0.49320554199218747,2.0781670410156248,9.557251908396946,-9.312977099236642,-0.9465648854961832,-8.429984045410155,1.2976572998046874,2.817975354003906,2.9770992366412212,14.13740458015267,-7.236641221374046,0.0
12.280000925064087,-9.325415466308593,0.086191259765625,2.398990063476562,12.488549618320612,-11.618320610687023,-2.122137404580153,-7.673416320800781,1.6304513305664061,1.678335363769531,5.175572519083969,15.755725190839694,-7.32824427480916,0.0
12.290001153945923,-9.821015209960937,0.55545478515625,2.741360900878906,12.610687022900763,-15.694656488549619,-3.7709923664122136,-8.403647827148436,3.5338416503906247,2.6527754394531247,-8.244274809160306,30.061068702290076,-7.572519083969466,0.0
12.30000114440918,-10.098742602539062,1.6136919189453125,3.4739866088867184,9.282442748091603,-20.53435114503817,-3.7099236641221376,-8.884882360839843,0.9504980590820312,2.2026655273437497,-32.18320610687023,31.236641221374047,-2.4427480916030535,0.0
12.310000896453857,-10.175357055664062,1.3000515014648437,3.4835634155273434,12.717557251908397,-26.061068702290076,-1.5419847328244274,-11.432312927246093,-2.1811177124023438,3.373430139160156,-15.557251908396946,24.977099236641223,1.3282442748091603,0.0
12.320000648498535,-9.3086560546875,-0.7134720947265625,3.375824340820312,32.091603053435115,-29.46564885496183,1.1755725190839694,-10.359710583496094,-2.8562825805664063,3.1387983764648437,2.1526717557251906,12.351145038167939,-3.2061068702290076,0.0
12.330000638961792,-9.7683427734375,-0.4525041137695312,2.664746447753906,48.534351145038165,-31.709923664122137,0.7786259541984732,-10.467449658203124,-1.5586252807617187,1.5682020874023437,17.83206106870229,11.404580152671755,-5.66412213740458,0.0
12.340000629425049,-9.950302099609374,0.8571241943359375,2.3056161987304686,51.343511450381676,-34.213740458015266,-0.3511450381679389,-8.506598498535157,-0.055066638183593745,1.0558429321289062,13.969465648854962,9.694656488549619,-6.351145038167939,0.0
12.350000619888306,-9.90241806640625,2.1260510742187497,2.2361843505859373,48.12213740458015,-35.52671755725191,2.564885496183206,-7.948749511718749,0.9337386474609375,1.3718775512695311,5.083969465648855,16.625954198473284,-3.4656488549618323,0.0
12.360000610351562,-9.674968908691406,1.7357962036132812,2.473210314941406,42.47328244274809,-38.87022900763359,3.099236641221374,-10.62307276611328,-1.1013327636718748,2.959233251953125,16.015267175572518,16.9618320610687,0.8702290076335878,0.0
12.370000839233398,-10.17056865234375,1.4245499877929686,3.1938650146484373,45.74045801526717,-43.81679389312977,1.3435114503816794,-10.694898815917968,-1.005564697265625,1.93451494140625,31.984732824427482,10.748091603053435,-1.786259541984733,0.0
12.380000829696655,-10.529698901367187,2.1835119140624997,3.3351229125976563,32.93129770992366,-57.06870229007634,0.6106870229007634,-8.142679846191406,-0.7900865478515624,1.5753846923828123,27.16030534351145,4.061068702290076,-5.404580152671755,0.0
12.390000581741333,-11.403582507324218,1.407790576171875,4.091690637207031,30.33587786259542,-65.46564885496183,6.091603053435114,-8.63109698486328,2.384624853515625,1.936909143066406,26.229007633587788,5.648854961832061,-5.648854961832061,0.0
12.400001049041748,-10.01733974609375,-1.0175357055664063,5.204994409179688,35.86259541984733,-70.27480916030534,11.236641221374045,-6.603208178710937,3.5697546752929687,0.47884033203125,2.381679389312977,12.01526717557252,-6.244274809160306,0.0
12.410000562667847,-9.76116016845703,-2.437297290039062,5.614402893066406,37.93893129770992,-77.14503816793894,5.8320610687022905,-7.750030773925781,3.1076737548828124,2.2002713256835937,-13.48091603053435,18.671755725190838,-1.3587786259541985,0.0
12.420000553131104,-10.91037696533203,-2.5546131713867184,5.482721801757812,52.61068702290076,-82.04580152671755,1.282442748091603,-10.187328063964843,1.0941501586914062,2.8419173706054686,-11.816793893129772,14.564885496183207,-0.8854961832061069,0.0
12.43000054359436,-11.6070896484375,-1.944091748046875,3.749319799804687,67.43511450381679,-91.38931297709924,-0.9007633587786259,-7.843404638671874,1.886630908203125,1.1420341918945311,-22.244274809160306,5.282442748091603,-9.236641221374045,0.0
12.440000534057617,-12.828132495117186,0.4477157104492187,4.340687609863281,70.41221374045801,-97.86259541984732,-3.053435114503817,-8.489839086914062,1.455674609375,2.7557261108398436,-35.55725190839695,9.511450381679388,-12.473282442748092,0.0
12.450000762939453,-14.003685510253906,4.127603662109375,6.038176586914062,52.06106870229008,-111.29770992366412,-7.3893129770992365,-8.719682446289061,2.6815058593749996,2.578555187988281,-55.908396946564885,12.595419847328245,-13.221374045801527,0.0
12.46000051498413,-14.504073657226561,5.255272644042968,6.825868933105468,23.83206106870229,-129.3587786259542,-4.595419847328245,-8.760383874511719,3.4715924072265625,2.4253262817382812,-76.19847328244275,20.290076335877863,-11.007633587786259,0.0
12.470000505447388,-14.611812731933593,3.1866824096679687,7.249642626953125,5.984732824427481,-143.89312977099237,-0.16793893129770993,-11.161768139648437,-0.42377369384765623,2.3511060302734372,-79.72519083969466,21.541984732824428,-3.6946564885496183,0.0
12.480000734329224,-13.939042065429687,-0.8188169677734375,7.153874560546875,-2.8396946564885495,-161.31297709923663,-1.83206106870229,-12.389993591308594,-2.1260510742187497,2.4109610717773435,-60.74809160305343,12.01526717557252,-3.786259541984733,0.0
12.490000486373901,-14.252682482910155,-1.66636435546875,6.414066247558593,-2.564885496183206,-176.15267175572518,-7.816793893129771,-11.386823095703125,0.6607996582031249,2.9496564453125,-57.23664122137404,6.106870229007634,-7.511450381679389,0.0
12.500000476837158,-12.234370483398436,-0.488417138671875,3.8690298828125,-8.198473282442748,-189.00763358778627,-9.465648854961833,-10.529698901367187,1.0295067138671874,2.7748797241210936,-67.12977099236642,8.030534351145038,-3.3740458015267176,0.0
12.510000944137573,-11.959037292480469,-1.3024457031249999,1.1731588134765625,-5.847328244274809,-192.21374045801528,-9.877862595419847,-11.420341918945311,-1.2473790649414063,3.574543078613281,-52.54961832061068,3.9083969465648853,4.015267175572519,0.0
12.520000696182251,-10.654197387695312,-3.718195178222656,-1.927332336425781,19.81679389312977,-190.38167938931298,-7.465648854961832,-12.603077539062499,-2.9735984619140625,3.299209887695312,-31.908396946564885,-8.366412213740459,4.488549618320611,0.0
12.530000925064087,-10.175357055664062,-3.6583401367187496,-3.5913024902343746,44.19847328244275,-176.45801526717557,-9.32824427480916,-10.029310754394531,-1.388636962890625,2.7964275390625,-25.96946564885496,-15.49618320610687,-4.305343511450381,0.0
12.540000677108765,-9.085995300292968,-2.1164742675781247,-5.123591552734375,51.86259541984733,-163.25190839694656,-11.221374045801527,-9.813832604980469,-2.6886884643554687,2.473210314941406,-27.17557251908397,-14.748091603053435,-7.267175572519084,0.0
12.550000667572021,-8.013392956542969,-0.9696516723632812,-5.683834741210937,59.343511450381676,-146.18320610687022,-12.427480916030534,-10.500968481445312,-3.67749375,1.9776105712890624,-26.717557251908396,-13.740458015267176,-5.969465648854962,0.0
12.560000658035278,-7.592013464355468,0.24181436767578124,-6.382941625976562,58.83969465648855,-126.51908396946565,-16.03053435114504,-11.085153686523437,-5.351040710449219,0.06464344482421874,-10.793893129770993,-17.557251908396946,-6.717557251908397,0.0
12.570000410079956,-8.480262280273436,2.0638018310546875,-5.971138940429687,54.12213740458015,-103.40458015267176,-18.900763358778626,-9.624690673828125,-4.185064501953125,-0.023942016601562498,-1.0076335877862594,-18.33587786259542,-10.122137404580153,0.0
12.580000877380371,-7.812280017089844,2.0446482177734375,-5.051765502929687,46.06106870229008,-82.68702290076335,-15.557251908396946,-10.448296044921875,-2.741360900878906,0.16998831787109375,2.900763358778626,-7.679389312977099,-7.32824427480916,0.0
12.590000629425049,-6.986280444335937,2.3726538452148436,-4.206612316894531,38.99236641221374,-56.961832061068705,-10.992366412213741,-9.210493786621093,-1.6232687255859375,-0.6607996582031249,-0.8244274809160306,-2.3206106870229006,-6.442748091603053,0.0
12.600000619888306,-6.751648681640624,2.8275521606445313,-4.206612316894531,21.206106870229007,-39.48091603053435,-9.053435114503817,-10.319009155273436,-3.9408559326171875,-0.5195417602539062,4.625954198473282,1.5572519083969465,-3.2519083969465647,0.0
12.61000108718872,-6.655880615234374,2.693476867675781,-3.6080619018554687,1.8473282442748091,-21.236641221374047,-8.183206106870228,-10.62307276611328,-3.404554760742187,-0.16519991455078123,16.65648854961832,0.549618320610687,-2.8396946564885495,0.0
12.620001316070557,-7.764395983886718,3.6583401367187496,-2.3295582153320313,-21.755725190839694,-5.755725190839694,-8.122137404580153,-10.144232434082031,-2.27927998046875,-0.24899697265624998,23.129770992366414,0.10687022900763359,-3.801526717557252,0.0
12.630000591278076,-7.6470801025390625,3.418919970703125,-2.3511060302734372,-44.091603053435115,0.6259541984732825,-3.3740458015267176,-9.789890588378906,-1.2282254516601563,-0.2346317626953125,24.564885496183205,0.732824427480916,-3.3587786259541983,0.0
12.640000581741333,-4.661510632324219,0.603338818359375,-3.9312791259765625,-43.02290076335878,12.946564885496183,5.450381679389313,-9.8449572265625,0.39264907226562495,0.0718260498046875,23.81679389312977,2.7786259541984735,-1.3740458015267176,0.0
12.65000033378601,-5.398924743652343,1.4532804077148436,-2.8802245971679685,-46.93129770992366,34.99236641221374,3.984732824427481,-9.718064538574218,0.8882488159179687,0.2753331909179687,21.893129770992367,7.236641221374046,-0.12213740458015267,0.0
12.660001039505005,-4.735730883789063,1.2401964599609374,-3.641580725097656,-51.099236641221374,48.0763358778626,3.7099236641221376,-9.576806640625,0.9576806640625,0.26336218261718747,16.610687022900763,10.259541984732824,2.183206106870229,0.0
12.670000314712524,-5.214571215820312,1.3718775512695311,-2.9185318237304685,-50.87022900763359,65.29770992366412,3.5572519083969465,-9.421183532714844,0.6751648681640625,0.5291185668945312,12.488549618320612,11.877862595419847,4.442748091603053,0.0
12.68000054359436,-5.444414575195312,1.1468225952148436,-1.927332336425781,-56.06106870229008,78.3969465648855,3.3435114503816794,-9.916783276367187,-0.0909796630859375,0.699106884765625,11.129770992366412,13.969465648854962,6.229007633587786,0.0
12.690000534057617,-5.686228942871093,-0.1388636962890625,-0.39983167724609375,-61.20610687022901,91.49618320610686,4.1679389312977095,-9.931148486328125,-0.16280571289062498,1.0678139404296874,10.13740458015267,12.534351145038167,7.312977099236641,0.0
12.700000524520874,-5.91846650390625,-1.1133037719726562,1.1923124267578125,-62.76335877862596,100.73282442748092,2.885496183206107,-10.263942517089843,0.08379705810546874,1.6041151123046875,10.15267175572519,11.83206106870229,7.740458015267175,0.0
12.71000051498413,-6.189011291503906,-1.6472107421875,2.6336218261718747,-62.6412213740458,107.70992366412214,-0.33587786259541985,-9.809044201660155,0.8307879760742187,2.0757728393554684,6.213740458015267,9.648854961832061,8.732824427480915,0.0
12.720000505447388,-6.58884296875,-1.6735469604492186,3.488351818847656,-58.62595419847328,112.27480916030534,-4.015267175572519,-9.655815295410155,0.8834604125976562,1.9943699829101562,1.6641221374045803,7.32824427480916,9.49618320610687,0.0
12.730000257492065,-6.868964562988281,-1.5562310791015623,4.149151477050781,-49.43511450381679,114.06106870229007,-5.00763358778626,-9.3852705078125,0.8547299926757812,1.7501614135742187,-1.816793893129771,6.549618320610687,10.061068702290076,0.0
12.740000486373901,-7.762001782226562,-1.9393033447265624,4.92247861328125,-34.229007633587784,119.3587786259542,-3.2061068702290076,-9.588777648925781,0.19632453613281248,1.7166425903320313,-3.618320610687023,6.687022900763359,10.977099236641221,0.0
12.750000715255737,-8.20971749267578,-2.059013427734375,5.518634826660156,-16.53435114503817,120.2442748091603,-1.8015267175572518,-9.102754711914063,0.16998831787109375,1.659181750488281,-6.33587786259542,6.122137404580153,11.129770992366412,0.0
12.760000467300415,-8.963891015625,-1.5586252807617187,6.5577183471679685,0.21374045801526717,121.09923664122137,-0.2595419847328244,-9.272743029785156,-0.689530078125,1.3024457031249999,-7.32824427480916,6.854961832061068,11.053435114503817,0.0
12.77000093460083,-10.541669909667968,-1.7166425903320313,8.157045056152343,11.389312977099237,117.61832061068702,-2.4732824427480917,-9.488221179199218,-1.2473790649414063,1.3910311645507811,-4.870229007633588,6.534351145038168,10.687022900763358,0.0
12.780000686645508,-11.84890401611328,-0.8475473876953125,9.94072529296875,18.16793893129771,107.96946564885496,-3.145038167938931,-9.947907897949218,-1.6017209106445311,1.7549498168945312,-1.0381679389312977,6.213740458015267,9.48091603053435,0.0
12.790000677108765,-13.49611475830078,-0.6607996582031249,11.537657800292967,13.664122137404581,89.57251908396947,-4.5038167938931295,-9.524134204101562,-0.9816226806640624,1.6448165405273436,-0.8549618320610687,4.854961832061068,7.648854961832061,0.0
12.8000009059906,-13.61103643798828,-1.0965443603515623,11.571176623535155,43.98473282442748,83.90839694656489,1.5114503816793894,-9.064447485351561,-1.1348515869140625,1.3215993164062498,0.061068702290076333,5.694656488549619,7.297709923664122,0.0
12.810000896453857,-13.474566943359374,1.1156979736328125,11.858480822753906,47.19083969465649,61.3587786259542,1.6488549618320612,-9.165003955078124,-0.7302315063476562,1.3168109130859373,2.946564885496183,6.793893129770993,7.801526717557252,0.0
12.820000648498535,-13.632584252929687,2.442085693359375,10.673351000976561,42.94656488549618,37.93893129770992,5.083969465648855,-9.193734375,-0.8068459594726562,1.2497732666015624,3.4656488549618323,8.290076335877863,9.557251908396946,0.0
12.830000400543213,-11.671733093261718,1.70467158203125,7.0652890991210935,44.12213740458015,18.3206106870229,11.83206106870229,-8.590395556640624,0.25139117431640623,1.3335703247070312,0.1984732824427481,9.511450381679388,11.633587786259541,0.0
12.840000629425049,-10.062829577636718,0.8714894042968749,3.564966271972656,39.80152671755725,9.236641221374045,18.18320610687023,-9.18655177001953,0.1149216796875,1.1563994018554686,-2.33587786259542,11.17557251908397,14.412213740458014,0.0
12.850000858306885,-8.896853369140624,-0.23223756103515625,1.5753846923828123,49.83206106870229,15.19083969465649,21.450381679389313,-9.150638745117186,-2.023100402832031,2.3343466186523436,2.351145038167939,9.770992366412214,17.068702290076335,0.0
12.860000610351562,-9.713276135253906,1.678335363769531,0.93852705078125,50.80916030534351,17.251908396946565,21.72519083969466,-9.215282189941405,-1.8938135131835936,2.3415292236328122,8.396946564885496,9.938931297709924,17.72519083969466,0.0
12.87000060081482,-12.313379138183594,4.146757275390625,3.763685009765625,36.18320610687023,14.13740458015267,27.801526717557252,-9.272743029785156,-0.8714894042968749,2.0733786376953125,8.946564885496183,7.770992366412214,18.763358778625953,0.0
12.880000829696655,-12.540828295898438,2.5713725830078125,7.417236743164062,28.641221374045802,8.51908396946565,32.87022900763359,-10.414777221679687,-0.718260498046875,3.6248213134765623,4.8396946564885495,13.083969465648854,21.81679389312977,0.0
12.890000581741333,-10.359710583496094,-2.1883003173828124,9.49300958251953,14.83969465648855,-3.145038167938931,29.374045801526716,-11.089942089843749,-1.9823989746093749,4.458003491210937,3.984732824427481,9.694656488549619,21.923664122137403,0.0
12.900001049041748,-9.229647399902344,-4.5322237426757805,8.142679846191406,17.770992366412212,-8.01526717557252,16.38167938931298,-9.80665,-0.7637503295898437,3.3973721557617185,1.1297709923664123,0.42748091603053434,18.68702290076336,0.0
12.910001039505005,-9.746794958496093,-4.11802685546875,5.231330627441406,10.320610687022901,-9.404580152671755,2.9618320610687023,-10.563217724609375,-1.218648645019531,2.999934680175781,4.809160305343512,-7.557251908396947,17.389312977099237,0.0
12.920001029968262,-10.663774194335938,-3.9815573608398434,2.6815058593749996,7.648854961832061,-10.458015267175572,-5.480916030534351,-9.648632690429688,0.5147533569335937,2.2026655273437497,-1.0687022900763359,-12.213740458015268,13.969465648854962,0.0
12.93000078201294,-11.705251916503906,-3.3399113159179685,3.038241906738281,7.908396946564886,-10.473282442748092,-6.076335877862595,-9.392453112792968,1.1755530151367186,0.9074024291992187,-12.488549618320612,-15.206106870229007,15.49618320610687,0.0
12.940000772476196,-12.988544006347656,-0.6009446166992187,3.5793314819335937,18.53435114503817,-11.34351145038168,-4.748091603053435,-9.5384994140625,1.467645617675781,-0.201112939453125,-23.908396946564885,-16.778625954198475,16.85496183206107,0.0
12.950000524520874,-12.715605017089842,3.071760729980469,1.235408056640625,23.96946564885496,-11.022900763358779,0.8702290076335878,-10.582371337890624,1.0654197387695312,-1.1109095703125,-35.847328244274806,-14.854961832061068,19.61832061068702,0.0
12.96000075340271,-11.662156286621093,3.7110125732421873,-0.679953271484375,14.931297709923664,-7.923664122137405,4.458015267175573,-12.045228552246092,0.4572925170898437,-1.1755530151367186,-42.33587786259542,-12.885496183206106,19.52671755725191,0.0
12.970000505447388,-10.496180078124999,2.588131994628906,-1.659181750488281,-0.12213740458015267,-4.732824427480916,4.67175572519084,-12.8329208984375,-0.4955997436523437,-1.5610194824218748,-44.85496183206107,-11.49618320610687,19.022900763358777,0.0
12.980000495910645,-8.930372192382812,0.4429273071289062,-3.0238766967773434,-5.603053435114504,-0.7022900763358778,2.3969465648854964,-13.876792822265624,-1.4604630126953124,-1.6807295654296874,-32.396946564885496,-11.282442748091603,19.61832061068702,0.0
12.990000486373901,-9.560047229003906,1.8124106567382812,-2.844311572265625,-6.122137404580153,3.8473282442748094,-1.1603053435114503,-16.12015977783203,-1.6328455322265625,-2.3367408203125,-12.564885496183207,-7.908396946564886,19.374045801526716,0.0
13.000000476837158,-9.749189160156249,2.703053674316406,-3.1651345947265623,-3.068702290076336,9.83206106870229,-0.1984732824427481,-13.857639208984374,1.4149731811523436,-2.5234885498046875,-8.534351145038167,-7.603053435114504,14.83969465648855,0.0
13.010001182556152,-8.805873706054687,3.385401147460937,-2.913743420410156,4.916030534351145,19.328244274809162,5.038167938931298,-12.121843005371092,2.252943762207031,-1.9847931762695312,-13.022900763358779,2.2442748091603053,16.198473282442748,0.0
13.020074367523193,-8.700528833007812,3.5338416503906247,-3.402160559082031,-14.106870229007633,20.50381679389313,6.549618320610687,-11.820173596191406,1.1827356201171875,-2.1452046874999997,-7.709923664122138,6.687022900763359,15.236641221374045,0.0
13.030000925064087,-9.334992272949219,4.007893579101562,-2.925714428710937,-22.33587786259542,26.396946564885496,5.465648854961832,-11.528080993652344,-0.699106884765625,-1.8195932617187498,-0.8244274809160306,12.458015267175572,13.404580152671755,0.0
13.040000677108765,-9.275137231445312,1.8650830932617186,-2.616862414550781,-37.770992366412216,30.366412213740457,4.625954198473282,-11.322179650878905,-0.5027823486328125,-0.8307879760742187,9.389312977099237,11.450381679389313,8.335877862595419,0.0
13.050000429153442,-9.294290844726563,1.5753846923828123,-3.0430303100585934,-40.88549618320611,32.961832061068705,4.717557251908397,-12.299013928222655,-2.1021090576171875,1.2114660400390624,20.045801526717558,16.229007633587788,7.297709923664122,0.0
13.060000896453857,-8.729259252929687,0.0143652099609375,-3.009511486816406,-36.54961832061068,38.0763358778626,4.854961832061068,-10.797849487304687,-1.0749965454101562,1.7669208251953124,28.65648854961832,11.221374045801527,0.8549618320610687,0.0
13.070000648498535,-9.53131680908203,-0.29448680419921874,-1.608903515625,-32.56488549618321,45.02290076335878,4.656488549618321,-10.93671318359375,-0.9792284790039062,1.6807295654296874,38.99236641221374,4.183206106870229,-3.2213740458015265,0.0
13.080000877380371,-10.819397302246093,0.016759411621093748,-0.5410895751953124,-28.625954198473284,49.29770992366412,1.3740458015267176,-9.275137231445312,1.8291700683593748,2.243366955566406,35.465648854961835,3.5572519083969465,-5.526717557251908,0.0
13.090000867843628,-9.694122521972655,-0.7445967163085937,-0.2154781494140625,-38.2442748091603,45.51145038167939,1.6488549618320612,-9.473855969238281,2.7533319091796873,2.530671154785156,26.396946564885496,0.3511450381679389,-3.0076335877862594,0.0
13.100001096725464,-9.315838659667968,-2.0973206542968748,0.22026655273437498,-26.290076335877863,45.404580152671755,2.3053435114503817,-8.789114294433594,2.8945898071289062,2.3511060302734372,13.816793893129772,-1.83206106870229,-2.2595419847328246,0.0
13.110023736953735,-9.227253198242186,-2.612074011230469,1.180341418457031,-23.068702290076335,46.900763358778626,-1.4045801526717556,-8.961496813964843,2.3439234252929686,2.626439221191406,4.427480916030534,-3.1755725190839694,-0.8091603053435115,0.0
13.120000839233398,-10.378864196777343,-1.9201497314453124,1.7669208251953124,-18.366412213740457,45.221374045801525,-7.0534351145038165,-9.354145886230468,1.5322890624999999,2.9496564453125,0.4732824427480916,-4.564885496183206,0.4580152671755725,0.0
13.130000829696655,-10.414777221679687,-1.9201497314453124,1.8698714965820311,-13.969465648854962,42.412213740458014,-8.0,-9.306261853027344,0.45968671875,2.9664158569335934,-1.4045801526717556,-8.076335877862595,0.07633587786259542,0.0
13.140000820159912,-10.043675964355469,-1.2952630981445312,0.2920926025390625,-16.259541984732824,36.50381679389313,-10.122137404580153,-8.901641772460938,-0.55545478515625,2.3151930053710936,5.877862595419847,-19.022900763358777,-3.0381679389312977,0.0
13.15000057220459,-10.915165368652342,-0.6847416748046875,0.8690952026367187,-1.1755725190839694,36.06106870229008,-9.725190839694656,-9.418789331054686,0.05746083984375,2.7269956909179687,11.816793893129772,-17.786259541984734,-1.633587786259542,0.0
13.160001039505005,-9.512163195800781,0.7398083129882812,1.0223241088867188,7.923664122137405,35.6793893129771,-7.66412213740458,-8.44674345703125,0.40462008056640625,2.1356278808593747,4.076335877862595,-22.610687022900763,-1.2213740458015268,0.0
13.170001029968262,-9.634267480468749,1.8100164550781248,0.4213794921875,3.312977099236641,32.44274809160305,-6.137404580152672,-10.091559997558592,0.47884033203125,2.6312276245117188,14.854961832061068,-21.587786259541986,0.24427480916030533,0.0
13.18000078201294,-9.30147344970703,2.0829554443359375,-0.47884033203125,-5.7251908396946565,26.137404580152673,-2.2595419847328246,-9.830592016601562,-2.133233679199219,1.915361328125,18.946564885496183,-27.419847328244273,-1.1603053435114503,0.0
13.190000772476196,-10.146626635742187,2.166752502441406,0.354341845703125,-8.793893129770993,23.129770992366414,-1.2671755725190839,-11.494562170410155,-2.5163059448242184,2.0542250244140625,40.0763358778626,-37.49618320610687,-5.511450381679389,0.0
13.200001001358032,-9.76116016845703,-0.2825157958984375,0.8092401611328125,0.3053435114503817,21.267175572519083,0.5038167938931297,-8.480262280273436,1.2904746948242187,0.9528922607421875,38.51908396946565,-40.534351145038165,-10.961832061068701,0.0
13.21000051498413,-9.787496386718749,0.6775590698242188,2.0733786376953125,2.595419847328244,20.366412213740457,0.6870229007633588,-10.081983190917969,0.5889736083984375,1.2593500732421874,32.80916030534351,-36.534351145038165,-4.656488549618321,0.0
13.220000982284546,-9.773131176757811,1.0989385620117187,1.8938135131835936,3.7557251908396947,17.435114503816795,-2.2900763358778624,-10.884040747070312,0.076614453125,1.93451494140625,40.6412213740458,-39.786259541984734,-5.7251908396946565,0.0
13.230000734329224,-10.402806213378906,1.2521674682617188,1.905784521484375,9.770992366412214,14.580152671755725,-2.946564885496183,-8.528146313476562,2.1308394775390624,0.9169792358398436,34.19847328244275,-40.2442748091603,-10.13740458015267,0.0
13.240250587463379,-10.694898815917968,2.5258827514648434,2.3535002319335936,2.1526717557251906,11.053435114503817,-3.4198473282442747,-9.179369165039063,1.4604630126953124,0.51714755859375,22.442748091603054,-29.755725190839694,-5.8320610687022905,0.0
13.250000715255737,-10.139444030761718,2.7054478759765623,1.9800047729492187,-7.877862595419847,7.374045801526718,-1.9389312977099236,-10.177751257324218,-0.45010991210937495,0.6081272216796875,23.786259541984734,-31.14503816793893,-3.8625954198473282,0.0
13.260000944137573,-9.495403784179686,1.3335703247070312,1.0654197387695312,-2.50381679389313,5.633587786259542,0.32061068702290074,-9.255983618164063,-0.46686932373046874,0.4429273071289062,29.938931297709924,-35.12977099236641,-7.343511450381679,0.0
13.27000117301941,-9.006986645507812,0.814028564453125,0.9217676391601562,13.099236641221374,8.595419847328245,1.6030534351145038,-9.873687646484374,0.33518823242187495,1.2761094848632812,40.25954198473283,-36.3206106870229,-10.045801526717558,0.0
13.280000925064087,-9.696516723632811,3.833116857910156,0.7661445312499999,0.32061068702290074,3.5572519083969465,0.9465648854961832,-8.939948999023438,2.1452046874999997,0.6344634399414062,32.6412213740458,-34.61068702290076,-11.450381679389313,0.0
13.290001153945923,-9.399635717773437,4.383783239746093,1.3718775512695311,-3.6030534351145036,3.0839694656488548,5.557251908396947,-7.802703210449218,2.300827795410156,0.3687070556640625,14.305343511450381,-30.396946564885496,-7.343511450381679,0.0
13.300000667572021,-8.688557824707031,2.645592834472656,1.458068811035156,-12.793893129770993,2.5343511450381677,9.618320610687023,-8.769960681152343,2.0087351928710935,2.020706201171875,13.587786259541986,-23.984732824427482,-3.2061068702290076,0.0
13.310000658035278,-9.093177905273437,0.8116343627929687,1.0271125122070313,-15.541984732824428,2.931297709923664,9.267175572519085,-10.022128149414062,0.6344634399414062,2.6982652709960937,19.16030534351145,-24.916030534351144,-2.8244274809160306,0.0
13.320182085037231,-9.725247143554688,-0.4644751220703125,0.5602431884765625,-8.65648854961832,3.801526717557252,8.748091603053435,-9.823409411621093,0.229843359375,2.858676782226562,21.72519083969466,-32.091603053435115,-5.526717557251908,0.0
13.330000877380371,-10.20169327392578,-0.8978256225585937,0.40222587890625,-2.3969465648854964,4.137404580152672,7.709923664122138,-9.153032946777342,0.086191259765625,2.3295582153320313,25.984732824427482,-37.23664122137404,-8.229007633587786,0.0
13.340000867843628,-10.206481677246094,0.316034619140625,0.8882488159179687,1.633587786259542,4.67175572519084,5.175572519083969,-8.40843623046875,3.603273498535156,2.176329309082031,16.03053435114504,-35.80152671755725,-8.259541984732824,0.0
13.350000858306885,-9.916783276367187,1.8507178833007811,1.3215993164062498,-5.038167938931298,5.435114503816794,3.8625954198473282,-8.66940421142578,3.6391865234374996,2.0470424194335934,-7.404580152671755,-28.259541984732824,-2.0916030534351147,0.0
13.360000610351562,-9.636661682128906,1.8842367065429686,0.7781155395507812,-17.435114503816795,5.099236641221374,3.3587786259541983,-9.983820922851562,2.8012159423828122,2.817975354003906,-15.038167938931299,-28.244274809160306,2.0610687022900764,0.0
13.370001077651978,-9.710881933593749,0.10773907470703124,0.3447650390625,-18.091603053435115,6.549618320610687,2.33587786259542,-11.089942089843749,1.0726023437499999,2.480392919921875,-9.465648854961833,-27.572519083969464,1.9694656488549618,0.0
13.380000829696655,-9.821015209960937,-1.2330138549804688,0.16519991455078123,-10.488549618320612,7.633587786259542,0.8396946564885496,-9.86411083984375,0.6248866333007812,3.0837317382812497,-11.251908396946565,-35.52671755725191,-1.4198473282442747,0.0
13.390000820159912,-9.995791931152343,-0.33518823242187495,-0.086191259765625,-3.3282442748091605,8.900763358778626,-1.618320610687023,-8.951920007324219,2.7341782958984373,2.0877438476562498,-17.893129770992367,-34.0,-3.3435114503816794,0.0
13.400001049041748,-10.04846436767578,2.2553379638671873,0.12689268798828124,-8.244274809160306,10.061068702290076,-3.068702290076336,-8.63827958984375,1.4628572143554686,1.8914193115234375,-36.961832061068705,-27.31297709923664,1.8015267175572518,0.0
13.410000562667847,-9.782707983398437,3.1555577880859373,0.10295067138671875,-19.709923664122137,10.442748091603054,-3.5572519083969465,-9.732429748535155,0.4070142822265625,2.518700146484375,-39.16030534351145,-28.0,6.564885496183206,0.0
13.420000791549683,-9.97903251953125,2.1835119140624997,0.09576806640624999,-23.00763358778626,11.786259541984732,-3.0076335877862594,-10.94868419189453,-0.7158662963867187,3.191470812988281,-19.61832061068702,-25.740458015267176,5.66412213740458,0.0
13.43000078201294,-9.469067565917967,0.03591302490234375,-0.47884033203125,-17.954198473282442,12.229007633587786,-1.984732824427481,-9.562441430664062,-1.0534487304687499,2.6910826660156246,-16.427480916030536,-30.916030534351144,1.2366412213740459,0.0
13.440040588378906,-9.828197814941406,1.0223241088867188,-0.239420166015625,-16.259541984732824,13.603053435114504,-2.5343511450381677,-8.437166650390624,0.5458779785156249,1.5586252807617187,-15.297709923664122,-28.717557251908396,-1.8778625954198473,0.0
13.450000524520874,-9.866505041503906,2.7437551025390623,0.29927520751953124,-23.267175572519083,14.305343511450381,-3.5572519083969465,-8.79150849609375,1.4030021728515625,2.1021090576171875,-17.374045801526716,-18.99236641221374,1.4961832061068703,0.0
13.46000075340271,-9.220070593261719,2.0087351928710935,-0.1292868896484375,-33.23664122137404,14.16793893129771,-2.5801526717557253,-9.05965908203125,0.44532150878906246,1.8459294799804686,-21.52671755725191,-16.290076335877863,4.6106870229007635,0.0
13.470000505447388,-9.993397729492187,2.147598889160156,1.675941162109375,-21.923664122137403,22.47328244274809,-3.786259541984733,-8.712499841308594,-0.565031591796875,1.7501614135742187,-22.732824427480917,-8.458015267175572,4.809160305343512,0.0
13.480000495910645,-11.571176623535155,3.0071172851562498,1.4939818359375,-33.69465648854962,17.87786259541985,-4.549618320610687,-9.208099584960937,-0.44532150878906246,1.6136919189453125,-13.725190839694656,-7.908396946564886,2.9923664122137406,0.0
13.490000247955322,-10.213664282226562,1.599326708984375,0.06703764648437499,-37.05343511450382,13.099236641221374,-1.618320610687023,-8.8872765625,-1.4604630126953124,1.5442600708007812,-4.305343511450381,-6.33587786259542,0.7786259541984732,0.0
13.500000715255737,-9.330203869628905,-0.19632453613281248,0.44532150878906246,-30.30534351145038,14.16793893129771,1.0076335877862594,-8.279149340820313,-0.38786066894531246,1.3814543579101561,2.687022900763359,-4.366412213740458,-1.0534351145038168,0.0
13.510001420974731,-7.187393383789062,-3.2225954345703123,0.29927520751953124,-4.366412213740458,18.82442748091603,1.5725190839694656,-8.475473876953124,-0.7996633544921875,1.4413093994140624,11.32824427480916,-1.0381679389312977,-1.7251908396946565,0.0
13.52000117301941,-9.018957653808593,-1.4245499877929686,1.2593500732421874,12.83969465648855,24.35114503816794,-5.175572519083969,-8.339004382324218,-0.5793968017578125,1.458068811035156,17.34351145038168,1.7404580152671756,-3.3740458015267176,0.0
13.530111074447632,-10.395623608398436,0.63206923828125,1.39821376953125,16.396946564885496,23.358778625954198,-8.80916030534351,-8.537723120117187,-1.0702081420898437,1.1635820068359375,24.549618320610687,3.0381679389312977,-4.3816793893129775,0.0
13.540000677108765,-10.972626208496093,1.5035586425781249,1.6519991455078125,16.15267175572519,22.259541984732824,-8.412213740458014,-8.118737829589843,-0.3447650390625,1.0606313354492187,29.480916030534353,4.763358778625954,-6.351145038167939,0.0
13.5500009059906,-10.618284362792968,1.3862427612304686,2.511517541503906,14.885496183206106,20.580152671755727,-7.709923664122138,-8.303091357421874,-0.6560112548828124,1.0821791503906248,34.916030534351144,7.312977099236641,-7.251908396946565,0.0
13.560000658035278,-10.101136804199218,1.7812860351562498,2.1452046874999997,10.778625954198473,14.290076335877863,-8.0,-7.812280017089844,0.296881005859375,0.8307879760742187,36.50381679389313,8.687022900763358,-9.786259541984732,0.0
13.570000886917114,-11.137826123046874,3.641580725097656,3.189076611328125,-4.824427480916031,4.6106870229007635,-7.221374045801527,-8.532934716796875,0.05985504150390625,0.9983820922851562,39.29770992366412,11.236641221374045,-9.48091603053435,0.0
13.580000877380371,-10.024522351074218,1.2018892333984375,2.8131869506835936,-4.015267175572519,-3.1603053435114505,-2.885496183206107,-8.180987072753906,1.3311761230468748,1.1061211669921875,37.06870229007634,12.625954198473282,-9.114503816793894,0.0
13.590001106262207,-8.95670841064453,-0.3064578125,4.113238452148437,17.84732824427481,-2.2595419847328246,0.3511450381679389,-8.037334973144532,1.3742717529296875,1.5562310791015623,32.900763358778626,15.34351145038168,-8.549618320610687,0.0
13.600000619888306,-9.627084875488281,1.4341267944335936,5.027823486328125,22.702290076335878,-8.82442748091603,-2.5343511450381677,-8.001421948242188,1.3766659545898436,2.099714855957031,27.557251908396946,16.396946564885496,-8.091603053435115,0.0
13.610000610351562,-9.246406811523437,2.281674182128906,3.921702319335937,22.244274809160306,-21.251908396946565,-1.251908396946565,-7.783549597167968,1.867477294921875,2.0877438476562498,19.099236641221374,17.282442748091604,-7.206106870229007,0.0
13.620000839233398,-9.272743029785156,1.1133037719726562,5.513846423339843,32.10687022900763,-21.938931297709924,4.351145038167939,-7.972691528320312,2.3415292236328122,2.7820623291015623,3.1603053435114505,22.977099236641223,-5.450381679389313,0.0
13.630000591278076,-11.075576879882812,4.2521021484374995,6.823474731445312,19.83206106870229,-29.114503816793892,4.6106870229007635,-8.1594392578125,0.11013327636718749,3.9911341674804683,-13.19083969465649,25.328244274809162,-3.618320610687023,0.0
13.640000820159912,-9.81862100830078,3.8690298828125,5.655104321289063,2.7786259541984735,-43.93893129770992,8.106870229007633,-9.14824454345703,0.23223756103515625,3.7325603881835936,-6.641221374045801,21.19083969465649,-5.526717557251908,0.0
13.65000057220459,-8.839392529296875,1.5873557006835937,5.142745166015625,-4.809160305343512,-52.68702290076336,13.16030534351145,-8.643067993164061,-0.8834604125976562,4.460397692871093,-6.427480916030534,14.442748091603054,-11.129770992366412,0.0
13.660000801086426,-8.468291271972657,0.2920926025390625,3.4931402221679684,-11.938931297709924,-60.045801526717554,11.786259541984732,-7.445967163085937,0.46208092041015625,4.141968872070312,-12.793893129770993,7.480916030534351,-16.137404580152673,0.0
13.670000791549683,-6.193799694824218,-1.4006079711914061,2.221819140625,3.6793893129770994,-58.3206106870229,10.748091603053435,-7.843404638671874,0.28730419921875,3.782838623046875,-14.213740458015268,2.9160305343511452,-18.65648854961832,0.0
13.68000054359436,-7.3861121215820305,1.209071838378906,1.8507178833007811,-7.847328244274809,-66.30534351145039,5.099236641221374,-8.932766394042968,-0.6416460449218749,4.247313745117188,-18.47328244274809,1.099236641221374,-17.404580152671755,0.0
13.690000295639038,-7.089231115722656,-1.209071838378906,-1.2952630981445312,6.152671755725191,-57.45038167938932,8.213740458015268,-9.064447485351561,-0.6607996582031249,6.057330200195312,-16.717557251908396,1.618320610687023,-15.450381679389313,0.0
13.700000524520874,-6.816292126464844,-2.2768857788085937,-0.7805097412109374,17.908396946564885,-42.534351145038165,4.580152671755725,-9.093177905273437,-0.5506663818359374,6.121973645019531,-20.03053435114504,0.5954198473282443,-16.916030534351144,0.0
13.710000276565552,-6.579266162109374,-0.8906430175781249,-2.2649147705078123,20.732824427480917,-39.038167938931295,-2.3053435114503817,-7.6470801025390625,-0.45010991210937495,4.819527941894531,-29.801526717557252,-4.061068702290076,-20.625954198473284,0.0
13.720000505447388,-10.070012182617187,4.821922143554687,0.3495534423828125,21.282442748091604,-27.358778625954198,-7.984732824427481,-8.233659509277343,-1.4508862060546874,6.167463476562499,-33.52671755725191,-0.4122137404580153,-21.61832061068702,0.0
13.730000495910645,-11.171344946289063,6.119579443359375,0.18914193115234373,-17.0381679389313,-35.93893129770992,-5.343511450381679,-9.605537060546874,-2.568978381347656,5.7700260009765625,-22.412213740458014,-4.641221374045801,-21.64885496183206,0.0
13.740000247955322,-11.291055029296874,3.0310593017578125,0.21787235107421873,-21.267175572519083,-35.969465648854964,4.2748091603053435,-10.730811840820312,-2.3965958618164063,3.995922570800781,-10.045801526717558,-17.114503816793892,-21.129770992366414,0.0
13.750000715255737,-10.857704528808593,0.12689268798828124,0.9504980590820312,-15.557251908396946,-38.58015267175573,2.931297709923664,-10.321403356933594,-0.42377369384765623,4.331110803222656,1.0381679389312977,-16.50381679389313,-25.587786259541986,0.0
13.760000944137573,-11.822567797851562,0.13646949462890623,2.6384102294921874,-15.16030534351145,-45.64885496183206,-0.6564885496183206,-10.632649572753905,1.1707646118164061,4.65432802734375,-1.9083969465648856,-21.328244274809162,-28.198473282442748,0.0
13.770001411437988,-12.514492077636717,0.22744915771484372,3.787627026367187,-0.22900763358778625,-52.656488549618324,-0.5038167938931297,-11.520898388671874,2.0638018310546875,5.7149593627929685,-13.694656488549619,-21.114503816793892,-26.68702290076336,0.0
13.780000686645508,-13.357251062011718,0.7445967163085937,5.255272644042968,6.732824427480916,-61.61832061068702,-0.9007633587786259,-11.343727465820312,3.323151904296875,5.904101293945312,-24.9618320610687,-23.404580152671755,-23.862595419847327,0.0
13.790000677108765,-13.218387365722656,0.21068974609375,5.6574985229492185,17.19083969465649,-70.76335877862596,1.9389312977099236,-10.9941740234375,4.6447512207031245,4.7189714721679685,-35.31297709923664,-23.770992366412212,-18.870229007633586,0.0
13.8000009059906,-14.470554833984375,2.9568390502929685,6.263231542968749,-1.8625954198473282,-89.66412213740458,0.183206106870229,-10.472238061523436,4.987122058105468,2.8514941772460936,-49.969465648854964,-18.99236641221374,-11.83206106870229,0.0
13.810001134872437,-15.672444067382811,3.782838623046875,7.706935144042968,-23.87786259541985,-109.31297709923665,3.0076335877862594,-10.551246716308594,3.7421371948242186,0.718260498046875,-68.94656488549619,-11.465648854961833,-5.00763358778626,0.0
13.820001602172852,-15.784971545410155,0.8738836059570312,7.972691528320312,-42.56488549618321,-131.57251908396947,8.580152671755725,-11.54244620361328,1.484405029296875,-0.833182177734375,-77.7557251908397,-0.9618320610687023,-1.2366412213740459,0.0
13.830000877380371,-14.49928525390625,-3.5146880371093747,7.819462622070312,-38.3206106870229,-149.00763358778627,6.977099236641221,-12.349292163085936,-1.5514426757812498,-2.7916391357421872,-72.25954198473282,9.664122137404581,-1.8473282442748091,0.0
13.840000867843628,-12.689268798828124,-7.129932543945312,7.000645654296875,-25.236641221374047,-164.93129770992365,-0.0,-10.192116467285155,-1.149216796875,-2.583343591308594,-48.030534351145036,4.030534351145038,-6.824427480916031,0.0
13.850000858306885,-12.789825268554686,-7.091625317382812,5.305550878906249,6.137404580152672,-176.0763358778626,-11.83206106870229,-9.212887988281249,-0.10773907470703124,-1.8100164550781248,-44.10687022900763,8.473282442748092,-8.748091603053435,0.0
13.860000610351562,-13.769053747558592,-6.0142345703124995,3.124433166503906,24.519083969465647,-178.3053435114504,-20.931297709923665,-10.79545528564453,-2.2026655273437497,-1.0295067138671874,-33.06870229007634,14.763358778625955,-7.648854961832061,0.0
13.870116710662842,-12.782642663574219,-5.147533569335937,0.6512228515624999,51.81679389312977,-178.68702290076337,-25.587786259541986,-11.54244620361328,-4.735730883789063,0.5386953735351562,-16.946564885496183,7.206106870229007,-10.244274809160306,0.0
13.880024433135986,-11.712434521484374,-3.7014357666015623,-1.5346832641601562,77.69465648854961,-172.4885496183206,-27.83206106870229,-11.489773767089844,-4.11802685546875,1.8435352783203125,4.580152671755725,1.8473282442748091,-17.251908396946565,0.0
13.890000581741333,-11.604695446777344,-0.13407529296874998,-2.906560815429687,81.90839694656489,-162.18320610687022,-29.221374045801525,-11.405976708984374,-3.593696691894531,2.384624853515625,14.564885496183207,1.1755725190839694,-18.0,0.0
13.900001049041748,-9.952696301269532,1.659181750488281,-4.316745593261719,73.5114503816794,-151.12977099236642,-26.15267175572519,-9.634267480468749,-0.14125789794921875,2.6096798095703124,13.877862595419847,0.7175572519083969,-16.946564885496183,0.0
13.910000801086426,-8.904035974121093,3.39018955078125,-4.431667272949219,54.83969465648855,-131.9236641221374,-23.129770992366414,-10.156203442382813,0.63206923828125,2.133233679199219,12.564885496183207,2.427480916030534,-9.541984732824428,0.0
13.920000791549683,-7.682993127441406,1.4173673828125,-5.147533569335937,46.42748091603053,-112.7175572519084,-19.52671755725191,-10.568006127929687,0.41419688720703124,2.118868469238281,5.801526717557252,4.549618320610687,-2.9160305343511452,0.0
13.93000078201294,-7.522581616210937,0.4860229370117187,-4.383783239746093,48.900763358778626,-84.16793893129771,-17.64885496183206,-10.120290417480469,-0.11013327636718749,1.7645266235351562,-3.480916030534351,4.580152671755725,0.0916030534351145,0.0
13.940001010894775,-6.682216833496093,-0.19393033447265623,-4.599261389160156,51.099236641221374,-59.16030534351145,-18.30534351145038,-9.775525378417969,-1.7262193969726563,0.51714755859375,-6.33587786259542,7.404580152671755,1.251908396946565,0.0
13.950000762939453,-6.430825659179687,1.2330138549804688,-3.69664736328125,46.412213740458014,-34.51908396946565,-19.66412213740458,-9.682151513671874,-2.896984008789062,-0.028730419921875,-3.49618320610687,9.34351145038168,2.687022900763359,0.0
13.96000075340271,-6.2009822998046875,1.915361328125,-3.883395092773437,34.42748091603053,-15.801526717557252,-20.610687022900763,-9.557653027343749,-3.4548329956054684,-0.24181436767578124,3.66412213740458,11.099236641221374,3.1755725190839694,0.0
13.970001220703125,-8.702923034667968,5.72693037109375,-2.5617957763671875,-3.4198473282442747,-3.0381679389312977,-20.198473282442748,-9.777919580078125,-3.1651345947265623,0.3016694091796875,13.083969465648854,12.061068702290076,2.5801526717557253,0.0
13.980000734329224,-7.8362220336914055,4.783614916992187,-2.6910826660156246,-20.977099236641223,2.381679389312977,-10.366412213740459,-10.1131078125,-2.1308394775390624,0.7948749511718749,14.793893129770993,11.816793893129772,3.7099236641221376,0.0
13.990000486373901,-4.685452648925781,2.940079638671875,-3.4452561889648434,-26.717557251908396,14.106870229007633,-2.8396946564885495,-9.670180505371093,-1.0917559570312498,1.6328455322265625,14.67175572519084,12.916030534351146,3.435114503816794,0.0
14.000000953674316,-4.434061474609375,2.8107927490234372,-3.1268273681640624,-36.656488549618324,26.80916030534351,-0.8549618320610687,-9.696516723632811,-1.209071838378906,2.6599580444335937,14.442748091603054,13.801526717557252,4.488549618320611,0.0
14.010001182556152,-4.266467358398438,2.5905261962890624,-2.5258827514648434,-43.7557251908397,45.48091603053435,0.3816793893129771,-9.366116894531249,-1.1061211669921875,3.1387983764648437,12.641221374045802,12.045801526717558,5.908396946564886,0.0
14.020000696182251,-5.295974072265625,2.808398547363281,-1.4508862060546874,-62.595419847328245,54.99236641221374,-0.12213740458015267,-8.813056311035156,-0.5506663818359374,3.201047619628906,12.15267175572519,10.900763358778626,6.091603053435114,0.0
14.030001401901245,-5.269637854003906,1.3862427612304686,-0.4429273071289062,-67.7557251908397,68.3206106870229,5.282442748091603,-8.916006982421875,-0.4477157104492187,3.0310593017578125,10.381679389312977,9.511450381679388,6.3816793893129775,0.0
14.040000438690186,-4.589684582519531,-0.16519991455078123,0.7015010864257812,-67.37404580152672,78.76335877862596,8.076335877862595,-9.085995300292968,-0.4285620971679687,2.8131869506835936,8.076335877862595,8.366412213740459,6.061068702290076,0.0
14.05000114440918,-4.774038110351563,-0.7613561279296874,2.4899697265625,-61.083969465648856,89.32824427480917,7.297709923664122,-9.26316622314453,-0.41898529052734373,2.3535002319335936,6.366412213740458,7.1603053435114505,5.877862595419847,0.0
14.060024738311768,-4.3622354248046875,-1.7334020019531249,3.2249896362304686,-49.81679389312977,95.57251908396947,6.67175572519084,-9.840168823242188,-0.47644613037109373,2.798821740722656,6.916030534351145,6.763358778625954,6.916030534351145,0.0
14.070000886917114,-4.915296008300781,-1.458068811035156,4.707000463867187,-26.946564885496183,105.52671755725191,5.6183206106870225,-9.715670336914062,-0.7781155395507812,2.626439221191406,7.877862595419847,4.396946564885496,7.511450381679389,0.0
14.08000135421753,-5.825092639160156,-0.7805097412109374,5.288791467285156,-12.564885496183207,107.40458015267176,2.183206106870229,-9.576806640625,-1.0127473022460938,2.403778466796875,12.67175572519084,3.7709923664122136,6.488549618320611,0.0
14.090000629425049,-7.196970190429687,-0.35194764404296874,5.645527514648437,-3.1297709923664123,108.27480916030534,0.1984732824427481,-9.054870678710937,-0.9648632690429687,2.4444798950195312,14.427480916030534,2.8244274809160306,4.2748091603053435,0.0
14.100000381469727,-8.233659509277343,-0.3016694091796875,6.342240197753906,-5.0534351145038165,103.12977099236642,-2.564885496183206,-9.191340173339842,-0.5913678100585937,2.940079638671875,16.748091603053435,3.6946564885496183,3.3282442748091605,0.0
14.110000848770142,-9.334992272949219,-0.6081272216796875,6.957550024414062,-6.351145038167939,98.9618320610687,-4.564885496183206,-8.930372192382812,0.3232172241210937,2.961627453613281,14.305343511450381,3.2977099236641223,3.1755725190839694,0.0
14.120000839233398,-9.97184991455078,-0.6416460449218749,7.0102224609374995,-9.236641221374045,91.49618320610686,-5.022900763358779,-8.999804040527343,1.388636962890625,3.373430139160156,8.717557251908397,5.267175572519084,4.763358778625954,0.0
14.13000774383545,-10.615890161132812,-0.7445967163085937,7.117961535644531,-5.541984732824427,84.3969465648855,-3.0229007633587788,-9.473855969238281,0.7972691528320313,3.7014357666015623,-3.3740458015267176,9.34351145038168,9.450381679389313,0.0
14.140001058578491,-11.508927380371093,-0.7829039428710937,7.687781530761718,-6.213740458015267,76.09160305343511,-0.9312977099236641,-8.396465222167969,0.16280571289062498,3.289633081054687,-12.854961832061068,7.404580152671755,11.145038167938932,0.0
14.150000810623169,-12.674903588867187,-0.33518823242187495,8.283937744140625,7.221374045801527,68.90076335877863,3.801526717557252,-9.911994873046874,-2.281674182128906,4.180276098632812,-13.664122137404581,7.572519083969466,13.603053435114504,0.0
14.160001277923584,-12.871228125,-0.2825157958984375,8.061276989746093,17.14503816793893,60.13740458015267,10.488549618320612,-9.641450085449218,-3.3111808959960936,3.2513258544921873,-7.267175572519084,7.541984732824427,13.954198473282442,0.0
14.170000553131104,-13.3692220703125,1.4604630126953124,9.006986645507812,27.419847328244273,49.847328244274806,19.14503816793893,-8.662221606445312,-3.1675287963867187,1.4915876342773438,-1.450381679389313,6.519083969465649,11.49618320610687,0.0
14.18000054359436,-14.379575170898436,2.5641899780273434,10.297461340332031,36.67175572519084,37.11450381679389,28.213740458015266,-8.650250598144531,-2.7964275390625,0.8499415893554687,4.412213740458015,9.34351145038168,9.98473282442748,0.0
14.190000772476196,-12.253524096679687,2.3391350219726563,7.64229169921875,30.50381679389313,20.641221374045802,30.99236641221374,-9.193734375,-2.5234885498046875,-0.033518823242187495,11.068702290076336,12.778625954198473,8.51908396946565,0.0
14.200001001358032,-10.635043774414061,-0.5506663818359374,3.4715924072265625,21.14503816793893,20.27480916030534,26.763358778625953,-9.622296472167967,-2.5426421630859375,-0.5291185668945312,15.893129770992367,20.53435114503817,9.587786259541986,0.0
14.21000075340271,-10.467449658203124,-3.5817256835937497,3.6367923217773437,18.35114503816794,18.27480916030534,21.49618320610687,-11.109095703125,-2.319981408691406,-0.5219359619140624,20.83969465648855,32.12213740458015,13.34351145038168,0.0
14.220000743865967,-16.194380029296873,0.6440402465820312,10.304643945312499,34.99236641221374,23.236641221374047,15.969465648854962,-11.305420239257812,-2.952050646972656,0.45489831542968745,30.564885496183205,28.259541984732824,11.572519083969466,0.0
14.230000495910645,-12.995726611328124,-5.6574985229492185,6.244077929687499,33.541984732824424,4.732824427480916,14.702290076335878,-13.594277026367187,-3.1675287963867187,2.7724855224609373,49.57251908396947,31.34351145038168,10.564885496183207,0.0
14.24000072479248,-12.076353173828124,-4.446032482910156,6.754042883300781,56.83969465648855,4.916030534351145,7.908396946564886,-11.314997045898437,-0.12689268798828124,1.6256629272460936,52.534351145038165,28.931297709923665,6.137404580152672,0.0
14.250000953674316,-9.402029919433593,-6.823474731445312,4.627991809082031,59.00763358778626,7.7251908396946565,-3.572519083969466,-9.253589416503905,2.1404162841796874,1.2018892333984375,30.931297709923665,32.58015267175573,7.801526717557252,0.0
14.260000944137573,-9.382876306152344,0.8212111694335937,0.23702596435546874,41.32824427480916,9.786259541984732,-12.961832061068701,-9.945513696289062,1.5059528442382812,2.5163059448242184,21.0381679389313,36.44274809160305,13.022900763358779,0.0
14.27000117301941,-8.623914379882812,2.454056701660156,-2.35589443359375,32.0,12.625954198473282,-13.83206106870229,-12.00931552734375,-0.7445967163085937,4.204218115234375,20.442748091603054,30.610687022900763,17.206106870229007,0.0
14.280001163482666,-7.060500695800781,-1.5538368774414062,-2.834734765625,49.31297709923664,23.923664122137403,-7.022900763358779,-10.50815108642578,-0.4333505004882812,3.1387983764648437,22.580152671755727,20.48854961832061,14.290076335877863,0.0
14.290000915527344,-7.632714892578124,-0.0047884033203125,-2.6815058593749996,64.3206106870229,37.98473282442748,-8.0,-9.567229833984374,1.936909143066406,2.6791116577148437,11.709923664122137,14.274809160305344,14.274809160305344,0.0
14.3000009059906,-9.473855969238281,4.11802685546875,-1.8315642700195311,44.412213740458014,46.47328244274809,-10.076335877862595,-8.513781103515624,1.927332336425781,2.4875755249023435,-1.4961832061068703,11.923664122137405,17.49618320610687,0.0
14.310000896453857,-10.263942517089843,5.427655163574219,-1.1372457885742187,25.129770992366414,48.61068702290076,-3.3435114503816794,-9.085995300292968,1.9105729248046874,0.8714894042968749,-10.961832061068701,7.786259541984733,21.16030534351145,0.0
14.320000648498535,-10.149020837402343,4.860229370117187,-0.27293898925781246,9.038167938931299,50.62595419847328,3.267175572519084,-11.10191309814453,-0.20350714111328125,1.3766659545898436,-19.389312977099237,13.251908396946565,29.34351145038168,0.0
14.330000877380371,-10.395623608398436,2.882618798828125,0.29448680419921874,-11.053435114503817,50.33587786259542,2.9160305343511452,-11.422736120605467,-0.737414111328125,0.21068974609375,-12.900763358778626,4.9465648854961835,24.53435114503817,0.0
14.340000867843628,-11.068394274902342,1.8171990600585937,1.4867992309570313,-28.763358778625953,45.603053435114504,1.8015267175572518,-11.257536206054686,0.10295067138671875,-0.229843359375,-15.877862595419847,5.419847328244275,20.580152671755727,0.0
14.350001096725464,-10.608707556152343,1.1180921752929687,2.0973206542968748,-40.36641221374046,38.68702290076336,-0.4122137404580153,-11.3006318359375,0.27293898925781246,-0.316034619140625,-20.33587786259542,3.7099236641221376,18.412213740458014,0.0
14.36000108718872,-9.459490759277344,-0.6847416748046875,2.104503259277344,-32.717557251908396,33.343511450381676,-0.183206106870229,-11.664550488281249,1.3838485595703125,-0.05027823486328125,-21.114503816793892,3.5114503816793894,15.114503816793894,0.0
14.370000839233398,-10.180145458984374,0.21068974609375,2.9281086303710935,-20.076335877862597,32.87022900763359,-2.015267175572519,-11.391611499023437,1.5298948608398437,0.22744915771484372,-24.137404580152673,5.908396946564886,13.786259541984732,0.0
14.380000829696655,-10.36210478515625,1.7262193969726563,2.4588451049804685,-23.358778625954198,27.435114503816795,-3.9236641221374047,-11.082759484863281,1.0390835205078124,0.5291185668945312,-28.702290076335878,6.8396946564885495,12.061068702290076,0.0
14.390001058578491,-10.041281762695311,1.944091748046875,0.05746083984375,-29.267175572519083,19.770992366412212,-2.854961832061069,-11.034875451660156,0.6703764648437499,0.59376201171875,-29.46564885496183,7.969465648854962,10.580152671755725,0.0
14.400001049041748,-10.256759912109374,2.8850130004882812,0.181959326171875,-30.396946564885496,19.49618320610687,-1.8778625954198473,-10.520122094726561,-0.12449848632812499,0.22266075439453123,-27.358778625954198,6.854961832061068,7.267175572519084,0.0
14.410000801086426,-9.260772021484375,1.0630255371093749,-0.8714894042968749,-32.97709923664122,17.435114503816795,1.7251908396946565,-10.192116467285155,-0.7517793212890624,0.5746083984375,-23.31297709923664,5.694656488549619,5.083969465648855,0.0
14.420000791549683,-9.244012609863281,0.9624690673828125,-0.9097966308593749,-27.297709923664122,19.49618320610687,5.6183206106870225,-10.433930834960936,-1.2282254516601563,1.3072341064453123,-15.435114503816793,4.458015267175573,3.1755725190839694,0.0
14.43000054359436,-9.33978067626953,1.1348515869140625,-0.7900865478515624,-26.18320610687023,20.99236641221374,6.549618320610687,-10.218452685546874,-1.4053963745117186,1.668758557128906,-7.969465648854962,3.6030534351145036,0.3511450381679389,0.0
14.440000772476196,-8.963891015625,0.09337386474609374,-0.9816226806640624,-17.69465648854962,24.625954198473284,8.564885496183207,-10.065223779296874,-0.9002198242187499,1.70467158203125,-1.1603053435114503,0.7786259541984732,-3.0839694656488548,0.0
14.450000524520874,-9.447519750976562,0.9696516723632812,-1.4221557861328125,-25.083969465648856,24.045801526717558,7.679389312977099,-10.120290417480469,-0.16280571289062498,2.032677209472656,0.366412213740458,3.4198473282442747,-4.137404580152672,0.0
14.460000991821289,-9.49300958251953,0.7254431030273437,-1.637633935546875,-20.137404580152673,26.106870229007633,8.641221374045802,-9.612719665527344,-0.0430956298828125,1.1252747802734375,-0.4732824427480916,-0.8702290076335878,-6.137404580152672,0.0
14.470001220703125,-9.519345800781249,0.3232172241210937,0.0047884033203125,-18.03053435114504,31.083969465648856,8.122137404580153,-9.13627353515625,0.7924807495117187,1.5849614990234373,-1.6793893129770991,-0.5190839694656488,-6.900763358778626,0.0
14.480000734329224,-9.495403784179686,0.7685387329101562,-0.00239420166015625,-19.31297709923664,33.66412213740458,6.8396946564885495,-10.08677159423828,0.033518823242187495,1.9895815795898437,-2.213740458015267,-1.5572519083969465,-6.534351145038168,0.0
14.490001201629639,-10.204087475585936,1.120486376953125,1.2330138549804688,-22.106870229007633,32.030534351145036,6.1679389312977095,-9.560047229003906,0.25139117431640623,1.9297265380859374,-3.2213740458015265,-4.916030534351145,-7.511450381679389,0.0
14.500000476837158,-11.33175645751953,1.5586252807617187,2.1619640991210938,-34.48854961832061,29.206106870229007,4.900763358778626,-10.390835205078124,-0.7493851196289062,2.2361843505859373,-0.549618320610687,-6.061068702290076,-5.908396946564886,0.0
14.510000705718994,-11.544840405273437,1.0941501586914062,1.3239935180664062,-53.74045801526717,24.015267175572518,1.8015267175572518,-11.154585534667968,-1.0821791503906248,2.6288334228515624,6.305343511450381,-11.358778625954198,-7.114503816793893,0.0
14.52000093460083,-11.312602844238281,-1.5945383056640625,0.622492431640625,-61.770992366412216,16.519083969465647,1.8931297709923665,-11.235988391113281,0.21787235107421873,2.5067291381835934,11.893129770992367,-16.610687022900763,-9.038167938931299,0.0
14.530001163482666,-9.888052856445311,-4.2880151733398435,1.1109095703125,-27.984732824427482,19.557251908396946,2.519083969465649,-12.191274853515624,-3.0310593017578125,3.1507693847656246,23.114503816793892,-24.80916030534351,-8.442748091603054,0.0
14.540000677108765,-10.596736547851561,-2.0302830078125,0.6105214233398437,-15.099236641221374,17.114503816793892,-3.145038167938931,-12.598289135742187,-2.3535002319335936,3.1483751831054687,45.038167938931295,-36.51908396946565,-13.86259541984733,0.0
14.55000114440918,-10.321403356933594,-0.8643067993164062,-0.14604630126953125,8.748091603053435,18.076335877862597,-3.2213740458015265,-8.499415893554687,1.1851298217773436,2.051830822753906,36.56488549618321,-42.274809160305345,-18.0,0.0
14.560000658035278,-10.287884533691406,2.0661960327148434,0.6679822631835937,-0.732824427480916,17.908396946564885,-2.366412213740458,-11.281478222656249,-0.6775590698242188,2.5546131713867184,34.961832061068705,-41.74045801526717,-12.50381679389313,0.0
14.570000648498535,-10.070012182617187,3.2920272827148436,0.565031591796875,-14.992366412213741,14.946564885496183,-4.67175572519084,-8.147468249511718,3.1842882080078123,0.8116343627929687,29.572519083969464,-46.48854961832061,-16.366412213740457,0.0
14.580001592636108,-9.823409411621093,2.5761609863281247,1.4317325927734375,-29.267175572519083,13.053435114503817,-1.2061068702290076,-9.481038574218749,1.1875240234375,1.8315642700195311,15.49618320610687,-33.69465648854962,-8.244274809160306,0.0
14.590001106262207,-8.844180932617187,-0.1388636962890625,1.2473790649414063,-30.33587786259542,10.83969465648855,0.5648854961832062,-10.448296044921875,1.0654197387695312,2.104503259277344,20.427480916030536,-39.32824427480916,-6.67175572519084,0.0
14.600000619888306,-8.358157995605469,-2.3295582153320313,0.8954314208984374,-1.8473282442748091,12.793893129770993,4.656488549618321,-8.530540515136718,1.6017209106445311,0.622492431640625,14.549618320610687,-34.67175572519084,-9.145038167938932,0.0
14.610000610351562,-9.919177478027343,1.6472107421875,1.908178723144531,10.442748091603054,16.045801526717558,1.099236641221374,-7.9463553100585935,2.059013427734375,1.6304513305664061,3.1603053435114505,-26.519083969465647,-5.862595419847328,0.0
14.620000839233398,-9.744400756835937,3.4739866088867184,0.584185205078125,-9.740458015267176,9.49618320610687,2.763358778625954,-8.075642199707032,2.1068974609374997,1.0031704956054688,-2.045801526717557,-23.572519083969464,-2.4732824427480917,0.0
14.630000591278076,-8.836998327636719,2.9975404785156248,0.8307879760742187,-5.099236641221374,10.229007633587786,7.145038167938932,-8.951920007324219,0.6584054565429687,1.5753846923828123,-4.091603053435114,-13.587786259541986,1.8015267175572518,0.0
14.640000820159912,-8.896853369140624,0.14125789794921875,0.7350199096679687,-16.85496183206107,7.114503816793893,7.6183206106870225,-9.141061938476563,0.44532150878906246,0.93852705078125,0.44274809160305345,-15.633587786259541,0.3053435114503817,0.0
14.65000033378601,-9.821015209960937,0.5985504150390625,1.1563994018554686,-14.534351145038167,5.847328244274809,6.534351145038168,-9.318232861328125,-0.24660277099609373,0.689530078125,5.648854961832061,-11.206106870229007,0.549618320610687,0.0
14.660000801086426,-10.070012182617187,-0.2705447875976562,1.1635820068359375,-7.145038167938932,5.847328244274809,5.435114503816794,-8.836998327636719,0.4381389038085937,1.1372457885742187,6.9465648854961835,-10.610687022900763,0.32061068702290074,0.0
14.670000791549683,-9.64623848876953,-0.5195417602539062,1.2761094848632812,-0.16793893129770993,4.9465648854961835,4.763358778625954,-9.179369165039063,0.55545478515625,1.4221557861328125,10.564885496183207,-8.687022900763358,0.8549618320610687,0.0
14.68000054359436,-9.773131176757811,0.11013327636718749,1.2018892333984375,8.65648854961832,5.145038167938932,3.3282442748091605,-8.8872765625,0.7733271362304687,1.1276689819335937,10.213740458015268,-7.66412213740458,0.9465648854961832,0.0
14.690000534057617,-9.555258825683593,-0.18914193115234373,0.9457096557617187,16.137404580152673,5.786259541984733,3.3435114503816794,-9.600748657226562,0.22266075439453123,1.2856862915039062,11.709923664122137,-5.4961832061068705,2.732824427480916,0.0
14.700000524520874,-10.350133776855468,1.2952630981445312,1.4820108276367188,28.732824427480917,10.717557251908397,0.7786259541984732,-8.690952026367187,0.5578489868164063,1.35990654296875,12.946564885496183,-5.221374045801527,2.717557251908397,0.0
14.71000075340271,-9.414000927734374,1.465251416015625,1.01514150390625,23.81679389312977,11.34351145038168,0.16793893129770993,-9.514557397460937,-0.0526724365234375,2.032677209472656,16.076335877862597,-1.9389312977099236,3.877862595419847,0.0
14.720000267028809,-9.363722692871093,1.5873557006835937,0.39743747558593745,14.977099236641221,7.923664122137405,1.3740458015267176,-8.719682446289061,0.6057330200195312,1.5753846923828123,17.251908396946565,-5.00763358778626,2.7022900763358777,0.0
14.730000734329224,-10.670956799316405,3.2154128295898436,0.6200982299804687,-5.145038167938932,5.114503816793893,0.3511450381679389,-9.957484704589843,-0.086191259765625,2.1835119140624997,18.625954198473284,-2.763358778625954,4.091603053435114,0.0
14.740000486373901,-9.373299499511718,0.143652099609375,-0.4070142822265625,-3.0076335877862594,5.282442748091603,1.099236641221374,-9.117119921875,0.7900865478515624,2.1787235107421874,16.38167938931298,-3.5267175572519083,3.0076335877862594,0.0
14.750000715255737,-9.332598071289063,0.15083470458984374,0.19393033447265623,-1.5572519083969465,7.8320610687022905,1.0534351145038168,-9.557653027343749,0.5147533569335937,2.176329309082031,15.16030534351145,-3.1908396946564888,3.099236641221374,0.0
14.760000705718994,-9.9215716796875,0.9313444458007812,-0.11252747802734374,-0.32061068702290074,7.7251908396946565,-3.786259541984733,-9.816226806640625,0.2753331909179687,2.5641899780273434,13.648854961832061,-2.9618320610687023,3.3893129770992365,0.0
14.77000093460083,-9.720458740234374,1.209071838378906,-0.2442085693359375,0.8549618320610687,8.793893129770993,-3.0381679389312977,-9.325415466308593,1.0797849487304687,1.5729904907226562,16.99236641221374,-6.030534351145038,1.83206106870229,0.0
14.780000448226929,-9.900023864746093,1.2593500732421874,-0.11252747802734374,0.2748091603053435,8.946564885496183,-3.053435114503817,-9.435548742675781,1.13006318359375,1.2928688964843749,15.282442748091603,-6.99236641221374,1.8473282442748091,0.0
