timestamp,Thigh_L_Acc_X,Thigh_L_Acc_Y,Thigh_L_Acc_Z,Thigh_L_Gyr_X,Thigh_L_Gyr_Y,Thigh_L_Gyr_Z,Thigh_R_Acc_X,Thigh_R_Acc_Y,Thigh_R_Acc_Z,Thigh_R_Gyr_X,Thigh_R_Gyr_Y,Thigh_R_Gyr_Z,gpio_output
10.000000476837158,-1.4772224243164063,-2.1930887207031247,-5.233724829101562,50.51908396946565,170.68702290076337,-44.19847328244275,-7.141903552246093,2.224213342285156,2.0877438476562498,57.02290076335878,92.7175572519084,19.17557251908397,0.0
10.010000705718994,-3.9264907226562498,1.1133037719726562,-2.454056701660156,42.94656488549618,186.29007633587787,-49.52671755725191,-8.097190014648437,0.2442085693359375,2.5570073730468748,36.42748091603053,91.17557251908397,25.603053435114504,1.0
10.020000696182251,-4.9823336547851556,3.284844677734375,-0.48123453369140623,31.64885496183206,192.793893129771,-51.17557251908397,-9.236830004882812,-1.659181750488281,4.814739538574218,45.93893129770992,87.09923664122137,24.50381679389313,1.0
10.030000686645508,-6.873752966308594,5.61200869140625,1.68551796875,42.47328244274809,199.06870229007635,-40.48854961832061,-8.010998754882811,-0.6057330200195312,4.7955859252929685,46.38167938931298,75.92366412213741,17.083969465648856,1.0
10.040000915527344,-7.888894470214844,7.807491613769531,3.009511486816406,42.229007633587784,200.50381679389312,-23.328244274809162,-7.041347082519531,1.3335703247070312,5.947196923828125,35.48091603053435,75.7557251908397,14.229007633587786,1.0
10.050000667572021,-10.223241088867187,10.455478649902343,7.029376074218749,-6.366412213740458,186.90076335877862,-9.022900763358779,-6.562506750488281,2.1811177124023438,5.413289953613281,3.7251908396946565,70.59541984732824,15.877862595419847,1.0
10.060000658035278,-9.598354455566406,6.189011291503906,8.312668164062499,-42.54961832061068,174.0,7.984732824427481,-7.896077075195312,-1.2665326782226562,7.771578588867187,-2.9618320610687023,66.22900763358778,17.328244274809162,1.0
10.070000648498535,-7.991845141601562,2.061407629394531,10.151415039062499,-71.58778625954199,151.22137404580153,11.618320610687023,-7.498639599609374,-0.967257470703125,7.029376074218749,1.4198473282442747,49.17557251908397,9.32824427480916,1.0
10.080000400543213,-9.627084875488281,-0.8978256225585937,14.611812731933593,-80.6412213740458,121.93893129770993,1.6641221374045803,-6.746860278320312,0.9169792358398436,7.587225061035156,-16.47328244274809,41.74045801526717,5.633587786259542,1.0
10.09000039100647,-13.582306018066406,0.5913678100585937,19.864691174316405,-76.62595419847328,88.85496183206106,-0.061068702290076333,-7.012616662597656,3.086125939941406,7.108384729003906,-43.038167938931295,31.114503816793892,6.0458015267175576,1.0
10.100000858306885,-17.07784044189453,2.346317626953125,24.001871643066405,-46.030534351145036,46.97709923664122,11.404580152671755,-7.8170684204101555,0.9696516723632812,6.301538769531249,-60.68702290076336,23.129770992366414,14.977099236641221,1.0
10.110000610351562,-17.274164978027343,-1.0845733520507812,22.52464921875,-14.717557251908397,8.106870229007633,16.778625954198475,-7.410054138183593,-2.059013427734375,6.411672045898437,-55.12977099236641,9.893129770992367,17.404580152671755,1.0
10.12000060081482,-14.142549206542968,-3.366247534179687,15.789759948730469,24.610687022900763,-24.564885496183205,18.244274809160306,-4.766855505371093,-0.6248866333007812,5.566518859863281,-59.17557251908397,1.4961832061068703,19.770992366412212,1.0
10.130000829696655,-13.82172618408203,-0.3854664672851562,12.251129895019531,78.29007633587786,-36.16793893129771,35.465648854961835,-4.8506525634765625,-1.9776105712890624,3.1794998046874996,-71.64885496183206,-6.900763358778626,27.572519083969464,1.0
10.140000343322754,-10.235212097167969,-3.447650390625,6.586448767089843,70.53435114503817,-62.56488549618321,32.534351145038165,-5.080495922851562,-2.8850130004882812,1.9776105712890624,-64.99236641221374,-9.007633587786259,29.129770992366414,1.0
10.150000810623169,-5.571307263183593,-7.513004809570312,-6.842628344726562,48.13740458015267,-52.56488549618321,28.595419847328245,-5.724536169433593,-3.2632968627929686,0.8786720092773437,-58.61068702290076,-6.931297709923665,26.38167938931298,1.0
10.160000324249268,-3.4859576171874997,-10.850521923828124,-8.434772448730468,45.81679389312977,-24.732824427480917,29.099236641221374,-8.226476904296874,-4.522646936035156,-1.0103531005859374,-42.70229007633588,-2.549618320610687,24.580152671755727,1.0
10.170000791549683,-13.180080139160156,-2.3127988037109373,5.439626171875,93.69465648854961,-18.916030534351144,32.74809160305343,-10.941501586914061,-3.9815573608398434,-1.9488801513671874,-32.54961832061068,-2.045801526717557,20.671755725190838,1.0
10.18000054359436,-16.570269689941405,1.3623007446289062,12.727576025390624,142.6412213740458,-29.389312977099237,61.02290076335878,-13.730746520996092,-3.897760302734375,-2.877830395507812,-21.328244274809162,4.900763358778626,18.33587786259542,1.0
10.190000534057617,-16.61815372314453,0.9002198242187499,14.76025323486328,151.6793893129771,-25.801526717557252,61.969465648854964,-16.704344982910154,-5.963956335449218,-2.70065947265625,-5.984732824427481,8.183206106870228,19.19083969465649,1.0
10.200000524520874,-17.822437158203122,2.91134921875,5.549759448242187,78.51908396946565,-56.19847328244275,18.48854961832061,-15.46893692626953,-2.9496564453125,-4.185064501953125,8.564885496183207,11.450381679389313,16.015267175572518,1.0
10.210000276565552,-20.06101571044922,1.6112977172851561,0.47884033203125,52.030534351145036,-66.03053435114504,5.374045801526718,-16.352397338867185,-2.674323254394531,-3.651157531738281,11.32824427480916,11.603053435114504,18.076335877862597,0.0
10.220000505447388,-16.409858178710937,-1.6831237670898436,-2.8323405639648436,47.25190839694657,-65.2824427480916,7.221374045801527,-16.03157431640625,-1.5658078857421873,-3.009511486816406,10.854961832061068,8.65648854961832,12.198473282442748,0.0
10.230000495910645,-12.026074938964843,6.009446166992187,-12.370839978027343,38.396946564885496,-50.62595419847328,8.854961832061068,-17.451335900878906,-2.6886884643554687,-1.8602946899414061,3.786259541984733,8.564885496183207,7.847328244274809,0.0
10.240000486373901,-9.583989245605467,10.218452685546874,-14.317325927734375,-10.778625954198473,-28.99236641221374,5.755725190839694,-19.024326391601562,-3.1076737548828124,-1.467645617675781,6.030534351145038,3.49618320610687,1.8473282442748091,0.0
10.250000476837158,-5.679046337890624,1.6711527587890624,-13.158532324218749,-53.87786259541985,-3.8931297709923665,7.343511450381679,-19.776105712890622,-0.9169792358398436,-0.9337386474609375,12.122137404580153,-2.564885496183206,-3.282442748091603,0.0
10.260000944137573,-6.763619689941406,0.028730419921875,-11.75313594970703,-80.2442748091603,25.709923664122137,-3.1603053435114505,-18.689138159179688,0.9002198242187499,-1.4915876342773438,19.068702290076335,-10.091603053435115,-4.2748091603053435,0.0
10.270000696182251,-10.426748229980468,-1.0199299072265624,-11.346121667480467,-79.96946564885496,49.70992366412214,-8.091603053435115,-16.615759521484375,4.774038110351563,-2.5641899780273434,16.9618320610687,-15.419847328244275,-4.748091603053435,0.0
10.280000925064087,-10.199299072265624,-5.080495922851562,-7.726088757324218,-48.85496183206107,75.87786259541984,-8.15267175572519,-16.13931339111328,5.983109948730468,-1.697488977050781,4.687022900763359,-9.877862595419847,1.618320610687023,0.0
10.290000677108765,-11.573570825195311,-4.477157104492187,-5.659892724609374,-14.030534351145038,98.33587786259542,-18.061068702290076,-15.27740079345703,4.407725256347656,-1.0773907470703123,-4.595419847328245,-5.908396946564886,1.7709923664122138,0.0
10.3000009059906,-14.286201306152343,-0.9026140258789062,-3.689464758300781,3.480916030534351,110.41221374045801,-24.702290076335878,-13.804966772460936,4.620809204101562,-1.5562310791015623,-10.793893129770993,-0.3511450381679389,-3.0839694656488548,0.0
10.310000658035278,-14.777012646484375,2.2577321655273437,-2.808398547363281,-4.030534351145038,115.37404580152672,-27.908396946564885,-12.895170141601561,4.872200378417968,-0.8810662109374999,-22.610687022900763,5.877862595419847,-2.931297709923664,0.0
10.320000648498535,-12.476184851074217,1.3670891479492187,-2.7437551025390623,-33.267175572519086,112.13740458015268,-32.35114503816794,-14.22395206298828,3.816357446289062,-0.4955997436523437,-15.83206106870229,6.595419847328245,1.5114503816793894,0.0
10.330000400543213,-10.805032092285156,0.30406361083984373,-2.81558115234375,-43.099236641221374,107.92366412213741,-36.274809160305345,-12.734758630371093,5.092466931152344,-0.016759411621093748,-18.427480916030536,6.748091603053435,1.3435114503816794,0.0
10.34000039100647,-10.041281762695311,0.3136404174804687,-1.915361328125,-46.01526717557252,105.49618320610686,-36.6412213740458,-11.834538806152343,4.417302062988281,-0.0143652099609375,-24.213740458015266,4.183206106870229,5.8320610687022905,0.0
10.350000619888306,-8.84178673095703,0.9864110839843749,-2.042254016113281,-53.83206106870229,100.12213740458016,-35.19083969465649,-10.517727893066406,4.924872814941406,0.6584054565429687,-34.99236641221374,0.7633587786259542,11.34351145038168,0.0
10.360000610351562,-7.819462622070312,-0.1388636962890625,-2.384624853515625,-45.57251908396947,101.57251908396947,-30.595419847328245,-9.105148913574219,3.35188232421875,0.679953271484375,-45.099236641221374,-4.67175572519084,17.16030534351145,0.0
10.37000060081482,-7.819462622070312,0.9888052856445312,-1.5275006591796874,-33.74045801526717,103.34351145038168,-27.404580152671755,-8.734047656249999,2.4899697265625,3.0047230834960934,-44.38167938931298,-8.82442748091603,23.740458015267176,0.0
10.380000591278076,-8.547299926757812,1.419761584472656,-1.3575123413085937,-37.603053435114504,101.09923664122137,-25.81679389312977,-8.99501563720703,-3.0166940917968748,3.1076737548828124,-27.389312977099237,-25.099236641221374,25.603053435114504,0.0
10.390001058578491,-8.805873706054687,-0.5147533569335937,-1.158793603515625,-25.52671755725191,100.9618320610687,-21.61832061068702,-8.865728747558594,-4.146757275390625,4.879382983398437,4.977099236641221,-43.93893129770992,19.72519083969466,0.0
10.40000033378601,-9.107543115234375,-0.8762778076171874,0.34715924072265625,-9.954198473282442,101.12977099236642,-18.83969465648855,-7.493851196289062,-1.5634136840820312,3.071760729980469,15.282442748091603,-63.725190839694655,7.908396946564886,0.0
10.410000801086426,-8.59278975830078,0.05027823486328125,1.1468225952148436,-28.946564885496183,92.41221374045801,-20.3206106870229,-7.635109094238281,-1.867477294921875,2.1021090576171875,14.748091603053435,-80.65648854961832,1.3587786259541985,0.0
10.420000553131104,-10.869675537109375,2.5330653564453125,3.2321722412109373,-46.06106870229008,87.43511450381679,-26.03053435114504,-10.615890161132812,-0.7805097412109374,4.912901806640625,15.770992366412214,-83.72519083969466,3.6793893129770994,0.0
10.43000054359436,-8.042123376464843,-0.316034619140625,2.360682836914062,-63.770992366412216,77.72519083969466,-24.53435114503817,-9.49300958251953,-0.7493851196289062,2.7078420776367187,3.5419847328244276,-91.37404580152672,-3.3282442748091605,0.0
10.440000534057617,-8.781931689453124,0.38307226562499996,2.779668127441406,-59.86259541984733,72.44274809160305,-23.389312977099237,-9.212887988281249,-3.1771056030273437,1.6304513305664061,-7.648854961832061,-97.8473282442748,-7.816793893129771,0.0
10.450000524520874,-9.382876306152344,1.1444283935546875,3.2728736694335936,-55.20610687022901,68.09160305343511,-23.068702290076335,-7.596801867675781,-1.5035586425781249,2.0829554443359375,-8.977099236641221,-109.0381679389313,-18.137404580152673,0.0
10.46000075340271,-9.562441430664062,1.1180921752929687,1.9919757812499999,-52.54961832061068,62.30534351145038,-21.236641221374047,-6.49307490234375,-0.5123591552734374,1.3168109130859373,-14.045801526717558,-112.76335877862596,-24.763358778625953,0.0
10.470000505447388,-11.884817041015625,3.6559459350585937,3.4644098022460934,-42.595419847328245,64.3969465648855,-21.81679389312977,-6.710947253417968,0.7015010864257812,0.7541735229492187,-8.061068702290076,-111.37404580152672,-28.793893129770993,0.0
10.480000495910645,-11.628637463378906,3.708618371582031,3.756502404785156,-58.29007633587786,53.66412213740458,-20.870229007633586,-7.240065820312499,0.6392518432617187,-1.2521674682617188,-3.267175572519084,-108.77862595419847,-25.068702290076335,0.0
10.490000486373901,-10.807426293945312,1.1276689819335937,1.8124106567382812,-57.66412213740458,41.25190839694657,-14.992366412213741,-9.13627353515625,-0.6679822631835937,1.678335363769531,8.778625954198473,-97.86259541984732,-23.129770992366414,0.0
10.500000476837158,-11.341333264160156,1.3431471313476562,3.0909143432617188,-44.79389312977099,37.908396946564885,-10.564885496183207,-8.590395556640624,-0.9816226806640624,1.426944189453125,-1.2213740458015268,-87.09923664122137,-22.045801526717558,0.0
10.510000705718994,-11.496956372070311,-0.1388636962890625,3.7804444213867185,-61.02290076335878,25.114503816793892,-8.274809160305344,-8.992621435546875,0.36152445068359373,-0.354341845703125,8.030534351145038,-87.87786259541984,-20.748091603053435,0.0
10.52000093460083,-12.945448376464842,-0.9409212524414062,2.473210314941406,-37.89312977099237,20.748091603053435,-5.312977099236641,-9.7683427734375,-0.7038952880859375,1.608903515625,6.931297709923665,-71.52671755725191,-16.65648854961832,0.0
10.530000448226929,-11.844115612792969,-2.925714428710937,2.5043349365234375,-21.00763358778626,21.17557251908397,-4.030534351145038,-11.231199987792968,-0.584185205078125,1.0127473022460938,19.49618320610687,-74.77862595419847,-15.221374045801527,0.0
10.540000915527344,-12.318167541503906,-1.85790048828125,1.0606313354492187,1.633587786259542,16.671755725190838,-6.534351145038168,-9.619902270507811,0.06943184814453125,1.2018892333984375,19.572519083969464,-63.70992366412214,-16.16793893129771,0.0
10.550000667572021,-12.366051574707031,0.04548983154296875,0.6727706665039062,9.145038167938932,14.595419847328245,-9.740458015267176,-13.558364001464843,-2.770091320800781,2.099714855957031,32.152671755725194,-63.64885496183206,-10.16793893129771,0.0
10.560000658035278,-11.439495532226562,0.6703764648437499,-0.7661445312499999,18.47328244274809,13.816793893129772,-10.381679389312977,-10.04846436767578,0.6751648681640625,0.16998831787109375,41.31297709923664,-63.70992366412214,-17.740458015267176,0.0
10.570000648498535,-10.386046801757812,1.5442600708007812,-0.4333505004882812,23.755725190839694,18.3206106870229,-7.8320610687022905,-11.247959399414063,-1.2713210815429687,2.2577321655273437,42.534351145038165,-47.55725190839695,-13.450381679389313,0.0
10.580000638961792,-9.294290844726563,1.7405846069335937,-0.9816226806640624,19.541984732824428,19.572519083969464,-6.793893129770993,-11.221623181152344,-1.5586252807617187,0.21787235107421873,58.61068702290076,-54.274809160305345,-16.198473282442748,0.0
10.590000867843628,-9.018957653808593,2.549824768066406,-1.5107412475585937,27.068702290076335,24.35114503816794,-4.1679389312977095,-8.59278975830078,0.05027823486328125,0.24899697265624998,59.6793893129771,-36.6412213740458,-17.786259541984734,0.0
10.600000619888306,-9.088389501953124,3.1651345947265623,-0.8188169677734375,12.458015267175572,26.33587786259542,-3.5114503816793894,-9.437942944335937,-0.737414111328125,0.39743747558593745,58.58015267175573,-33.57251908396947,-14.305343511450381,0.0
10.61000108718872,-9.145850341796875,3.220201232910156,-0.7326257080078125,8.442748091603054,28.0,-0.916030534351145,-8.489839086914062,-1.4628572143554686,0.41419688720703124,74.94656488549619,-26.38167938931298,-13.267175572519085,0.0
10.62000036239624,-8.420407238769531,1.6831237670898436,-0.8714894042968749,4.2748091603053435,27.908396946564885,0.07633587786259542,-4.879382983398437,1.8076222534179687,-0.3447650390625,71.49618320610686,-25.31297709923664,-17.81679389312977,0.0
10.630000352859497,-8.796296899414061,2.3032219970703123,-0.21068974609375,9.633587786259541,32.18320610687023,-0.24427480916030533,-6.361393811035156,0.6631938598632812,1.429338391113281,64.58015267175573,-3.312977099236641,-10.580152671755725,0.0
10.640000343322754,-11.382034692382812,4.103661645507812,1.8219874633789062,-16.68702290076336,27.404580152671755,-5.480916030534351,-6.658274816894531,0.5458779785156249,2.0925322509765625,61.51145038167939,2.50381679389313,-9.236641221374045,0.0
10.650000810623169,-9.655815295410155,1.7669208251953124,0.5674257934570313,-23.862595419847327,22.717557251908396,-2.687022900763359,-6.177040283203125,0.2561795776367187,2.540247961425781,61.87786259541985,4.778625954198473,-8.916030534351146,0.0
10.660000562667847,-8.748412866210938,-0.22266075439453123,0.016759411621093748,-15.358778625954198,21.022900763358777,-0.9007633587786259,-5.928043310546875,0.8547299926757812,2.760514514160156,55.06870229007634,8.213740458015268,-8.67175572519084,0.0
10.670000791549683,-9.373299499511718,-1.0223241088867188,0.2705447875976562,-8.992366412213741,21.51145038167939,-1.8625954198473282,-5.2816088623046875,2.250549560546875,2.722207287597656,48.13740458015267,12.351145038167939,-8.488549618320612,0.0
10.68000054359436,-8.985438830566405,-1.7214309936523438,0.5602431884765625,12.870229007633588,30.778625954198475,-2.3053435114503817,-3.4907460205078125,3.229778039550781,2.2864625854492187,24.366412213740457,19.81679389312977,-7.587786259541985,0.0
10.690000534057617,-8.2743609375,-0.9337386474609375,0.5363011718749999,19.938931297709924,31.770992366412212,-3.1908396946564888,-6.7037646484375,0.2705447875976562,2.511517541503906,25.00763358778626,29.328244274809162,0.33587786259541985,0.0
10.700000524520874,-10.326191760253906,1.1755530151367186,2.1021090576171875,20.763358778625953,35.81679389312977,-7.893129770992366,-4.6639048339843745,4.091690637207031,2.47081611328125,19.557251908396946,24.931297709923665,-0.2748091603053435,0.0
10.710000276565552,-11.034875451660156,1.9584569580078124,2.8467057739257813,5.312977099236641,31.00763358778626,-5.251908396946565,-4.915296008300781,4.4005426513671875,3.366247534179687,-16.48854961832061,38.0,3.435114503816794,0.0
10.720000743865967,-11.394005700683593,2.7748797241210936,4.673481640625,-10.916030534351146,26.442748091603054,-1.5114503816793894,-5.176263989257812,3.4668040039062498,3.5625720703124997,-46.656488549618324,47.38931297709924,8.183206106870228,0.0
10.730000495910645,-11.238382592773437,2.7150246826171873,5.875370874023437,-33.541984732824424,14.763358778625955,1.2671755725190839,-8.09479581298828,-0.2442085693359375,4.4196962646484375,-44.44274809160305,45.32824427480916,14.641221374045802,0.0
10.740000486373901,-11.109095703125,0.9504980590820312,5.868188269042968,-23.389312977099237,10.366412213740459,4.534351145038168,-7.4699091796875,-0.2442085693359375,3.746925598144531,-57.083969465648856,44.85496183206107,12.534351145038167,0.0
10.750000476837158,-10.556035119628906,-0.74699091796875,5.767631799316406,-24.106870229007633,-1.0534351145038168,9.34351145038168,-9.306261853027344,-2.779668127441406,4.367023828124999,-47.770992366412216,37.786259541984734,15.557251908396946,0.0
10.760000705718994,-12.607865942382812,-0.03591302490234375,6.41646044921875,-2.6259541984732824,-8.702290076335878,8.16793893129771,-8.080430603027343,-3.0119056884765625,3.4955344238281247,-42.33587786259542,27.206106870229007,7.32824427480916,0.0
10.770000457763672,-13.010091821289063,-0.08858546142578125,7.5153990112304685,12.610687022900763,-20.213740458015266,9.877862595419847,-7.352593298339843,-3.1675287963867187,2.980781066894531,-32.61068702290076,20.671755725190838,4.687022900763359,0.0
10.780000925064087,-12.58392392578125,0.6967126831054687,8.544905725097657,32.94656488549618,-34.44274809160305,9.053435114503817,-7.953537915039062,-3.3686417358398435,3.5194764404296874,-28.38167938931298,12.900763358778626,3.7251908396946565,0.0
10.790000915527344,-12.143390820312499,1.5514426757812498,10.151415039062499,46.42748091603053,-51.786259541984734,10.13740458015267,-6.6893994384765625,-1.8459294799804686,3.4165257690429685,-31.297709923664122,6.152671755725191,0.5038167938931297,0.0
10.800000429153442,-13.96298408203125,3.574543078613281,14.425065002441405,35.00763358778626,-79.96946564885496,12.977099236641221,-4.630386010742187,-0.8379705810546875,2.0542250244140625,-33.404580152671755,-6.244274809160306,-3.5267175572519083,0.0
10.8100004196167,-15.60301221923828,6.794744311523437,17.599776403808594,45.12977099236641,-115.22137404580153,34.656488549618324,-6.720524060058593,-0.12689268798828124,3.296815686035156,-44.38167938931298,-6.5038167938931295,-5.038167938931298,0.0
10.820000648498535,-11.425130322265625,6.4643444824218745,12.746729638671875,23.31297709923664,-152.93129770992365,47.14503816793893,-7.931990100097655,-0.1292868896484375,4.328716601562499,-50.83969465648855,-9.816793893129772,-7.755725190839694,0.0
10.830000638961792,-8.40125362548828,5.607220288085937,9.13627353515625,-38.51908396946565,-192.4885496183206,31.87786259541985,-7.053318090820312,0.4381389038085937,1.3479355346679687,-48.97709923664122,-12.259541984732824,-11.465648854961833,0.0
10.840000629425049,-7.81467421875,0.63206923828125,8.013392956542969,-77.98473282442748,-228.50381679389312,18.47328244274809,-8.037334973144532,0.9792284790039062,0.3016694091796875,-28.748091603053435,-7.8320610687022905,-12.0,0.0
10.850000619888306,-5.6215854980468745,-4.857835168457031,9.129090930175781,-35.55725190839695,-251.70992366412213,16.610687022900763,-9.627084875488281,1.0845733520507812,1.4724340209960938,-10.977099236641221,-8.778625954198473,-15.511450381679388,0.0
10.860000610351562,-6.311115576171875,-4.364629626464843,4.314351391601562,27.404580152671755,-255.93893129770993,22.259541984732824,-12.679691992187498,0.9840168823242187,6.016628771972656,-0.7633587786259542,-15.435114503816793,-27.297709923664122,0.0
10.87000060081482,-8.09479581298828,-3.4093431640625,-4.802768530273437,23.893129770992367,-250.0916030534351,21.908396946564885,-14.58787071533203,2.511517541503906,9.945513696289062,8.030534351145038,-25.31297709923664,-38.656488549618324,0.0
10.880000591278076,-10.108319409179687,-4.161122485351562,-7.187393383789062,-5.862595419847328,-237.0229007633588,14.854961832061068,-17.111359265136716,1.158793603515625,13.520056774902343,1.099236641221374,-44.595419847328245,-45.05343511450382,0.0
10.890000820159912,-17.14248388671875,-0.699106884765625,-6.648698010253906,0.48854961832061067,-220.793893129771,-0.2900763358778626,-17.274164978027343,5.173869787597656,20.91335150146484,-83.83206106870229,-69.81679389312977,-55.61832061068702,0.0
10.90000057220459,-22.69463753662109,0.06943184814453125,-5.183446594238281,-3.1908396946564888,-208.3053435114504,-1.1145038167938932,-9.878476049804688,0.97683427734375,6.675034228515624,-131.6793893129771,-66.9618320610687,-41.80152671755725,0.0
10.910000801086426,-21.51429611816406,-3.21780703125,-4.426878869628906,10.01526717557252,-183.54198473282443,2.1526717557251906,-8.238447912597655,6.481103894042969,-1.3359645263671873,-87.98473282442748,-73.17557251908397,-8.274809160305344,0.0
10.920000553131104,-19.70906806640625,-4.527435339355469,-5.214571215820312,38.44274809160305,-163.61832061068702,-8.885496183206106,-10.098742602539062,11.037269653320312,-5.540182641601562,-108.3206106870229,-66.36641221374046,5.633587786259542,0.0
10.930000305175781,-15.87834541015625,-2.6216508178710938,-3.584119885253906,56.67175572519084,-142.33587786259542,-12.534351145038167,-5.961562133789062,6.351817004394531,-9.974244116210937,-146.4732824427481,-42.50381679389313,3.618320610687023,0.0
10.940000534057617,-14.712369201660156,0.7757213378906249,-1.2473790649414063,57.847328244274806,-123.02290076335878,-16.259541984732824,-7.352593298339843,-6.394912634277343,-11.501744775390625,-144.99236641221373,-18.12213740458015,15.786259541984732,0.0
10.950000524520874,-15.133748693847656,5.449202978515625,0.8595183959960937,28.3206106870229,-118.04580152671755,-16.50381679389313,-10.187328063964843,-13.4458365234375,-7.7979148071289055,-82.76335877862596,-7.1603053435114505,18.290076335877863,0.0
10.96000051498413,-15.854403393554687,6.756437084960937,1.7717092285156248,-1.83206106870229,-121.55725190839695,-7.801526717557252,-13.634978454589843,-11.820173596191406,-6.986280444335937,-23.358778625954198,7.8320610687022905,11.114503816793894,0.0
10.970000505447388,-15.25824718017578,3.88818349609375,1.5322890624999999,-13.801526717557252,-124.18320610687023,-0.6259541984732825,-15.770606335449218,-8.894459167480468,-4.192247106933594,31.053435114503817,18.091603053435115,0.5038167938931297,0.0
10.980000495910645,-13.814543579101562,1.8411410766601561,0.28012159423828126,-16.3206106870229,-121.06870229007633,1.8625954198473282,-14.33887374267578,-3.892971899414062,-3.6080619018554687,55.81679389312977,25.19083969465649,-4.564885496183206,0.0
10.990000247955322,-12.299013928222655,1.5011644409179687,-0.5051765502929687,-15.083969465648854,-111.29770992366412,3.2061068702290076,-12.715605017089842,1.3287819213867187,-3.555389465332031,43.52671755725191,43.770992366412216,-2.2900763358778624,0.0
11.000000476837158,-11.650185278320311,2.6982652709960937,-1.2138602416992186,-29.34351145038168,-98.58015267175573,4.534351145038168,-13.464990136718749,0.3950432739257812,-0.023942016601562498,42.18320610687023,64.09160305343511,12.717557251908397,0.0
11.010000705718994,-6.481103894042969,-2.729389892578125,-3.1938650146484373,-13.908396946564885,-83.54198473282443,12.778625954198473,-10.766724865722656,2.1164742675781247,-0.967257470703125,39.52671755725191,69.1145038167939,17.114503816793892,0.0
11.02000117301941,-5.530605834960937,-2.6288334228515624,-3.5697546752929687,23.587786259541986,-48.88549618320611,9.84732824427481,-10.838550915527343,-1.9991583862304687,-1.3527239379882812,40.36641221374046,84.70229007633588,20.549618320610687,0.0
11.030000686645508,-5.386953735351562,-2.1356278808593747,-3.1387983764648437,27.6793893129771,-26.15267175572519,5.969465648854962,-10.366893188476562,-2.5665841796874997,-0.3758896606445312,52.70229007633588,96.38167938931298,23.450381679389313,0.0
11.040000677108765,-7.228094812011718,0.07900865478515624,-2.4349030883789062,19.633587786259543,-3.816793893129771,4.320610687022901,-9.794678991699218,-1.9704279663085937,-2.04943662109375,72.19847328244275,93.52671755725191,22.15267175572519,0.0
11.050018072128296,-4.319139794921875,-1.6112977172851561,-3.892971899414062,18.610687022900763,15.053435114503817,7.145038167938932,-11.774683764648437,-1.6543933471679686,-0.9911994873046874,80.44274809160305,102.68702290076335,25.66412213740458,0.0
11.060000658035278,-3.3782185424804685,-2.7844565307617186,-3.7014357666015623,16.946564885496183,37.61832061068702,2.16793893129771,-8.367734802246094,0.7613561279296874,-0.24181436767578124,83.55725190839695,101.40458015267176,23.297709923664122,0.0
11.070000410079956,-3.0071172851562498,-2.9544448486328125,-4.240131140136718,13.893129770992367,46.94656488549618,-6.366412213740458,-9.928754284667969,-0.7493851196289062,-0.24899697265624998,82.85496183206106,99.57251908396947,23.206106870229007,0.0
11.080000638961792,-1.924938134765625,-3.7421371948242186,-3.9312791259765625,29.328244274809162,68.93129770992367,-15.923664122137405,-8.774749084472656,1.5945383056640625,1.8507178833007811,75.78625954198473,99.25190839694656,21.221374045801525,0.0
11.090000629425049,-1.4341267944335936,-3.718195178222656,-4.975151049804687,32.42748091603053,82.90076335877863,-26.106870229007633,-10.058041174316406,-1.898601916503906,2.0278888061523435,76.22900763358778,93.55725190839695,18.900763358778626,0.0
11.100000619888306,-2.5522189697265625,-3.287238879394531,-3.1483751831054687,50.06106870229008,102.67175572519083,-34.80916030534351,-8.482656481933594,1.20667763671875,2.817975354003906,70.77862595419847,81.6793893129771,11.908396946564885,0.0
11.110000371932983,-2.6336218261718747,-1.4915876342773438,-3.134009973144531,53.87786259541985,112.01526717557252,-41.32824427480916,-10.237606298828124,0.258573779296875,4.108450048828125,58.51908396946565,83.05343511450381,9.419847328244275,0.0
11.12000036239624,-3.995922570800781,-1.1252747802734375,-0.45968671875,49.61832061068702,120.18320610687023,-45.86259541984733,-10.66856259765625,-1.5322890624999999,5.427655163574219,66.59541984732824,69.89312977099236,7.541984732824427,0.0
11.130000829696655,-5.623979699707031,1.5873557006835937,0.28730419921875,50.36641221374046,121.19083969465649,-49.70992366412214,-9.708487731933593,-0.6296750366210937,5.499481213378906,62.58015267175573,53.725190839694655,1.282442748091603,0.0
11.140000820159912,-7.663839514160156,3.1651345947265623,2.085349645996094,46.6412213740458,124.93129770992367,-42.778625954198475,-6.3709706176757805,2.741360900878906,4.848258361816406,48.12213740458015,45.465648854961835,-2.900763358778626,0.0
11.15000057220459,-9.299079248046874,6.524199523925781,4.790797521972656,4.549618320610687,118.19847328244275,-33.41984732824427,-6.801926916503906,1.9752163696289062,5.5832782714843745,27.541984732824428,42.412213740458014,0.9923664122137404,0.0
11.160000562667847,-9.720458740234374,6.224924316406249,6.148309863281249,-42.595419847328245,102.10687022900764,-22.061068702290076,-5.267243652343749,2.3774422485351563,5.456385583496093,8.458015267175572,36.045801526717554,2.595419847328244,0.0
11.170000791549683,-8.86094034423828,5.396530541992187,6.68461103515625,-33.55725190839695,99.48091603053435,-2.2290076335877864,-5.863399865722656,0.8499415893554687,5.884947680664062,-9.786259541984732,30.85496183206107,4.854961832061068,0.0
11.18000054359436,-6.909665991210937,4.3813890380859375,8.339004382324218,-44.900763358778626,82.99236641221374,6.473282442748092,-6.143521459960938,0.45010991210937495,5.877765075683594,-24.412213740458014,23.740458015267176,4.702290076335878,0.0
11.190000534057617,-7.398083129882812,3.7325603881835936,9.852139831542969,-35.23664122137404,72.45801526717557,14.870229007633588,-6.964732629394531,-0.08858546142578125,5.279214660644531,-32.595419847328245,15.694656488549619,4.793893129770993,0.0
11.200000524520874,-8.513781103515624,5.556942053222656,13.0627642578125,-48.458015267175576,47.64885496183206,16.442748091603054,-8.192958081054687,-0.5099649536132812,5.087678527832031,-33.083969465648856,10.244274809160306,6.213740458015267,0.0
11.21000051498413,-10.709264025878905,3.086125939941406,14.669273571777342,-40.717557251908396,25.64885496183206,22.290076335877863,-8.068459594726562,0.01915361328125,4.316745593261719,-38.62595419847328,4.977099236641221,9.221374045801527,0.0
11.220000743865967,-10.735600244140624,3.1675287963867187,16.75222901611328,-27.00763358778626,3.1297709923664123,29.236641221374047,-7.491456994628906,-0.47165772705078124,3.3399113159179685,-36.70229007633588,1.3587786259541985,12.305343511450381,0.0
11.230000495910645,-11.58075343017578,-0.42377369384765623,15.866374401855468,0.5190839694656488,-21.51145038167939,37.12977099236641,-6.665457421875,0.17238251953125,1.7860744384765623,-36.33587786259542,-2.1526717557251906,16.442748091603054,0.0
11.240000486373901,-8.034940771484374,-0.2825157958984375,12.35408056640625,65.37404580152672,-25.221374045801525,49.86259541984733,-6.169857678222656,-0.6416460449218749,2.3439234252929686,-46.16793893129771,-1.8473282442748091,22.412213740458014,0.0
11.250000476837158,-3.421314172363281,-7.802703210449218,-2.729389892578125,52.88549618320611,-18.47328244274809,47.69465648854962,-6.37815322265625,-1.889025109863281,2.023100402832031,-34.916030534351144,-2.7786259541984735,20.82442748091603,0.0
11.260001182556152,-8.058882788085937,-9.830592016601562,-5.377376928710937,23.69465648854962,5.908396946564886,37.57251908396947,-7.977479931640625,-2.6575638427734374,1.8626888916015625,-18.82442748091603,-5.190839694656488,22.33587786259542,0.0
11.270000696182251,-19.28768857421875,-7.989450939941406,3.6846763549804686,46.19847328244275,2.1068702290076335,35.282442748091604,-9.425971936035156,-1.2761094848632812,-0.00239420166015625,-22.106870229007633,-9.49618320610687,23.068702290076335,0.0
11.280000925064087,-26.69774271240234,-4.754884497070313,20.879832678222655,119.81679389312977,-6.091603053435114,58.35114503816794,-10.867281335449219,-0.32082302246093747,-0.32561142578124996,-39.89312977099237,-4.488549618320611,23.49618320610687,0.0
11.290000677108765,-22.97715333251953,-5.870582470703124,20.156783776855466,129.63358778625954,-29.908396946564885,44.30534351145038,-12.801796276855468,-0.28012159423828126,-1.5466542724609373,-49.3587786259542,0.15267175572519084,23.72519083969466,0.0
11.3000009059906,-20.884621081542967,1.7908628417968748,6.512228515625,65.08396946564885,-63.038167938931295,-4.99236641221374,-14.867992309570312,-2.0470424194335934,-3.907337109375,-50.44274809160305,7.404580152671755,23.64885496183206,0.0
11.310000658035278,-14.26225928955078,-2.4396914916992185,-4.520252734375,18.48854961832061,-77.25190839694656,-22.9618320610687,-15.806519360351562,-3.7421371948242186,-2.961627453613281,-53.587786259541986,14.183206106870228,22.870229007633586,0.0
11.320000648498535,-10.465055456542968,-3.507505432128906,-8.389282617187499,36.82442748091603,-62.68702290076336,-21.572519083969464,-19.393033447265623,-7.048529687499999,-1.369483349609375,-37.16030534351145,10.366412213740459,14.763358778625955,0.0
11.330000400543213,-6.174646081542968,3.5601778686523438,-14.006079711914062,64.09160305343511,-41.23664122137404,-16.82442748091603,-20.21424461669922,-7.706935144042968,-0.3184288208007812,-7.1603053435114505,5.633587786259542,-0.22900763358778625,0.0
11.340000629425049,-5.791573815917968,10.905588562011719,-14.9015111328125,38.79389312977099,-17.84732824427481,-10.320610687022901,-18.351555725097654,-1.2306196533203124,-2.042254016113281,-5.755725190839694,-0.5648854961832062,-9.17557251908397,0.0
11.350000619888306,-7.40526573486328,13.33091484375,-13.912705847167969,-14.01526717557252,5.541984732824427,-0.030534351145038167,-20.44408797607422,-1.9105729248046874,-0.9792284790039062,7.770992366412214,1.9236641221374047,-0.9465648854961832,0.0
11.360000848770142,-7.9295958984374995,6.756437084960937,-11.020510241699219,-42.0763358778626,32.0763358778626,14.0,-17.717092285156248,0.0909796630859375,-1.0917559570312498,13.221374045801527,-4.824427480916031,-0.8549618320610687,0.0
11.37000060081482,-10.043675964355469,1.3120225097656248,-8.690952026367187,-47.282442748091604,54.67175572519084,17.61832061068702,-16.46013641357422,0.74699091796875,-1.0726023437499999,21.328244274809162,-1.5419847328244274,-0.4732824427480916,0.0
11.380000352859497,-13.002909216308593,-0.7302315063476562,-5.394136340332031,-32.6412213740458,75.43511450381679,11.877862595419847,-14.518438867187498,2.2290017456054687,-0.7900865478515624,20.671755725190838,-1.282442748091603,-3.633587786259542,0.0
11.390000820159912,-13.682862487792969,-2.3774422485351563,-3.7134067749023436,-22.48854961832061,88.67175572519083,6.091603053435114,-13.426682910156249,4.000710974121094,-0.6919242797851562,18.290076335877863,2.0916030534351147,-7.4961832061068705,0.0
11.40000033378601,-14.228740466308594,-1.4006079711914061,-1.6735469604492186,-16.717557251908396,100.06106870229007,-3.0839694656488548,-12.916717956542968,4.209006518554688,-0.9648632690429687,8.13740458015267,6.625954198473282,-11.267175572519085,0.0
11.410000801086426,-12.77546005859375,-1.5322890624999999,-1.1180921752929687,-17.297709923664122,104.2442748091603,-11.34351145038168,-13.656526269531248,4.563348364257812,-0.3280056274414062,1.8473282442748091,8.290076335877863,-11.374045801526718,0.0
11.420000553131104,-10.436325036621094,-2.7269956909179687,-0.5195417602539062,-17.923664122137403,102.94656488549619,-18.977099236641223,-12.670115185546875,5.061342309570312,-0.18914193115234373,-7.297709923664122,5.068702290076335,-12.274809160305344,0.0
11.43000054359436,-9.725247143554688,-1.1875240234375,-0.6679822631835937,-22.610687022900763,100.27480916030534,-29.51145038167939,-12.27746611328125,6.289567761230469,0.36391865234375,-13.419847328244275,3.480916030534351,-9.145038167938932,0.0
11.440000534057617,-9.490615380859374,-0.8762778076171874,-1.5466542724609373,-26.946564885496183,98.7175572519084,-33.6793893129771,-10.793061083984375,6.864176159667968,0.9600748657226562,-27.17557251908397,-0.5190839694656488,-4.442748091603053,0.0
11.450000524520874,-9.540893615722656,0.9720458740234375,-1.5370774658203123,-39.05343511450382,94.16793893129771,-35.282442748091604,-9.91438907470703,6.229712719726562,1.5490484741210937,-39.05343511450382,-2.8244274809160306,2.564885496183206,0.0
11.46000051498413,-8.726865051269531,-0.17956512451171874,-2.104503259277344,-45.038167938931295,91.16030534351145,-32.412213740458014,-8.48505068359375,5.432443566894531,1.7884686401367187,-54.3206106870229,-7.984732824427481,8.778625954198473,0.0
11.470000267028809,-9.792284790039062,0.9241618408203125,-0.08858546142578125,-48.83969465648855,90.27480916030534,-29.51145038167939,-8.161833459472655,2.808398547363281,2.3582886352539063,-56.87022900763359,-12.732824427480915,17.69465648854962,0.0
11.480000495910645,-8.544905725097657,-0.6177040283203125,-0.009576806640625,-51.282442748091604,83.95419847328245,-26.03053435114504,-7.726088757324218,0.3184288208007812,2.2673089721679687,-47.969465648854964,-25.435114503816795,19.984732824427482,0.0
11.490000247955322,-8.959102612304687,-2.492363928222656,0.6871358764648438,-33.61832061068702,84.59541984732824,-21.786259541984734,-7.955932116699218,-1.3000515014648437,3.497928625488281,-29.923664122137403,-29.31297709923664,20.35114503816794,0.0
11.500000476837158,-9.270348828125,-2.839523168945312,1.5442600708007812,-13.16030534351145,83.77099236641222,-19.31297709923664,-8.825027319335938,-4.254496350097656,3.7421371948242186,-12.916030534351146,-42.18320610687023,18.625954198473284,0.0
11.510000705718994,-9.739612353515625,-1.3263877197265623,2.4301146850585935,8.625954198473282,79.78625954198473,-19.740458015267176,-8.971073620605468,-3.545812658691406,2.7341782958984373,12.473282442748092,-62.51908396946565,8.290076335877863,0.0
11.52000093460083,-11.552023010253906,1.6352397338867186,2.138022082519531,12.702290076335878,71.31297709923665,-20.015267175572518,-8.650250598144531,-3.4572271972656248,2.152387292480469,19.64885496183206,-67.89312977099236,3.3740458015267176,0.0
11.530000448226929,-11.02529864501953,3.9600095458984375,1.915361328125,-14.595419847328245,58.091603053435115,-21.46564885496183,-9.785102185058593,-2.4253262817382812,2.8802245971679685,16.27480916030534,-75.43511450381679,-0.4580152671755725,0.0
11.540000915527344,-9.349357482910156,1.1372457885742187,0.718260498046875,-29.954198473282442,50.19847328244275,-17.541984732824428,-7.141903552246093,0.5243301635742187,1.0654197387695312,8.625954198473282,-86.06106870229007,-10.641221374045802,0.0
11.550000429153442,-10.299855541992187,1.9033903198242186,1.4149731811523436,-18.763358778625953,49.770992366412216,-14.748091603053435,-7.9655089233398435,0.28012159423828126,-0.5674257934570313,8.0,-89.8473282442748,-13.236641221374045,0.0
11.560000658035278,-10.012551342773437,2.39420166015625,1.6304513305664061,-20.641221374045802,46.6412213740458,-16.916030534351144,-9.172186560058593,-2.288856787109375,0.6512228515624999,11.603053435114504,-88.41221374045801,-12.732824427480915,0.0
11.570000648498535,-10.184933862304687,2.834734765625,0.97683427734375,-28.977099236641223,42.82442748091603,-17.00763358778626,-10.263942517089843,-4.084508032226562,1.0127473022460938,5.893129770992366,-80.10687022900764,-15.282442748091603,0.0
11.580000638961792,-9.536105212402344,1.5275006591796874,1.2210428466796874,-35.038167938931295,41.45038167938932,-12.412213740458014,-8.169016064453125,-1.3048399047851562,-0.316034619140625,14.01526717557252,-83.57251908396947,-21.923664122137403,0.0
11.590000629425049,-10.769119067382812,2.4899697265625,1.20667763671875,-38.12213740458015,36.85496183206107,-8.641221374045802,-10.280701928710936,-2.5139117431640625,-0.42377369384765623,23.984732824427482,-79.83206106870229,-22.442748091603054,0.0
11.600000619888306,-10.608707556152343,1.7166425903320313,0.97683427734375,-30.9618320610687,33.66412213740458,-8.458015267175572,-9.258377819824219,-1.3742717529296875,1.0223241088867188,22.717557251908396,-69.12977099236642,-22.732824427480917,0.0
11.610000610351562,-10.283096130371094,0.44053310546874996,1.2306196533203124,-36.33587786259542,29.572519083969464,-5.419847328244275,-10.060435375976562,0.13646949462890623,0.16998831787109375,34.76335877862596,-72.77862595419847,-22.3206106870229,0.0
11.62000060081482,-10.87925234375,0.5506663818359374,0.8475473876953125,-23.19083969465649,28.213740458015266,-5.923664122137405,-9.358934289550781,-0.17238251953125,1.2952630981445312,37.25190839694657,-57.80152671755725,-21.114503816793892,0.0
11.630000829696655,-10.144232434082031,-0.469263525390625,0.9552864624023437,-24.47328244274809,24.793893129770993,-6.488549618320611,-10.627861169433594,-0.5003881469726562,1.0199299072265624,48.74809160305343,-65.37404580152672,-19.938931297709924,0.0
11.640000581741333,-10.500968481445312,0.36391865234375,0.6177040283203125,-3.4656488549618323,26.18320610687023,-6.8396946564885495,-8.626308581542968,0.8044517578125,1.8124106567382812,45.343511450381676,-52.274809160305345,-20.625954198473284,0.0
11.65000057220459,-10.359710583496094,0.7541735229492187,0.9002198242187499,-7.267175572519084,23.72519083969466,-6.595419847328245,-11.614272253417967,-1.6232687255859375,1.2042834350585936,53.02290076335878,-54.51908396946565,-17.251908396946565,0.0
11.660000562667847,-9.986215124511718,0.8786720092773437,0.011971008300781249,3.282442748091603,23.419847328244273,-6.244274809160306,-8.889670764160156,1.5394716674804687,0.7062894897460937,60.44274809160305,-53.38931297709924,-22.900763358778626,0.0
11.670000791549683,-10.560823522949217,2.5665841796874997,0.469263525390625,0.8549618320610687,24.03053435114504,-6.015267175572519,-10.429142431640624,-1.1611878051757811,2.731784094238281,58.58015267175573,-41.17557251908397,-16.0,0.0
11.68000054359436,-9.576806640625,1.3024457031249999,-0.13646949462890623,-5.0534351145038165,23.389312977099237,-5.770992366412214,-9.655815295410155,0.0143652099609375,1.3670891479492187,74.25954198473282,-49.038167938931295,-16.549618320610687,0.0
11.690000295639038,-9.854534033203125,2.6288334228515624,0.0430956298828125,-1.7709923664122138,26.595419847328245,-4.198473282442748,-6.3901242309570305,2.142810485839844,0.5219359619140624,70.42748091603053,-36.916030534351144,-19.893129770992367,0.0
11.700000762939453,-9.943119494628906,2.987963671875,-0.18914193115234373,-27.572519083969464,20.946564885496183,-4.977099236641221,-8.310273962402343,0.8595183959960937,1.8148048583984373,62.030534351145036,-25.603053435114504,-11.145038167938932,0.0
11.710000276565552,-9.291896643066405,1.2593500732421874,0.12689268798828124,-19.64885496183206,25.69465648854962,-1.4351145038167938,-7.532158422851562,1.0319009155273438,1.2401964599609374,68.90076335877863,-27.068702290076335,-11.022900763358779,0.0
11.720000505447388,-8.429984045410155,-0.1867477294921875,0.33039982910156246,-9.618320610687023,28.564885496183205,-0.7786259541984732,-6.718129858398437,1.4221557861328125,1.407790576171875,71.48091603053435,-18.778625954198475,-11.038167938931299,0.0
11.730000495910645,-9.313444458007812,0.7757213378906249,0.9959878906249999,-7.557251908396947,29.938931297709924,-5.038167938931298,-4.742913488769531,4.510675927734375,0.1197100830078125,58.74809160305343,-13.282442748091603,-12.274809160305344,0.0
11.740000486373901,-8.801085302734375,0.26336218261718747,-0.28969840087890625,-17.236641221374047,26.47328244274809,-4.2748091603053435,-7.659051110839843,1.3407529296874998,3.8235400512695312,37.69465648854962,5.465648854961832,0.061068702290076333,0.0
11.750000238418579,-6.806715319824218,1.9321207397460936,0.6416460449218749,-12.916030534351146,23.83206106870229,-3.6946564885496183,-6.885723974609375,2.3918074584960936,3.086125939941406,34.93129770992366,-0.0,-0.24427480916030533,0.0
11.760000944137573,-9.251195214843749,0.9911994873046874,1.1037269653320312,-26.198473282442748,22.412213740458014,-5.450381679389313,-7.3478048950195305,1.5849614990234373,4.144363073730468,30.290076335877863,5.587786259541985,2.198473282442748,0.0
11.770000457763672,-9.150638745117186,-1.1923124267578125,0.3447650390625,-11.022900763358779,22.16793893129771,-2.4885496183206106,-5.7700260009765625,3.651157531738281,2.568978381347656,13.725190839694656,3.3893129770992365,2.0763358778625953,0.0
11.780000925064087,-10.66137999267578,-0.6536170532226562,1.697488977050781,1.83206106870229,26.35114503816794,-2.4732824427480917,-8.480262280273436,0.11013327636718749,4.80755693359375,-1.297709923664122,15.969465648854962,7.984732824427481,0.0
11.790000677108765,-8.935160595703124,0.15083470458984374,2.384624853515625,7.923664122137405,27.022900763358777,-5.374045801526718,-5.4899044067382805,2.592920397949219,3.8762124877929685,-2.0763358778625953,10.122137404580153,5.206106870229007,0.0
11.800000667572021,-11.121066711425781,1.9584569580078124,2.2936451904296873,-0.549618320610687,25.099236641221374,-6.33587786259542,-7.050923889160156,1.1252747802734375,2.808398547363281,-17.84732824427481,19.206106870229007,7.7251908396946565,0.0
11.810000658035278,-10.079588989257813,1.5777788940429687,2.1021090576171875,-0.3511450381679389,18.68702290076336,-4.366412213740458,-6.605602380371093,2.1260510742187497,2.2290017456054687,-30.076335877862597,19.267175572519083,5.480916030534351,0.0
11.820000648498535,-10.271125122070313,2.1619640991210938,3.3327287109375,-4.366412213740458,18.83969465648855,-1.7099236641221374,-6.9360022094726554,0.4572925170898437,2.6982652709960937,-70.45801526717557,36.38167938931298,3.5419847328244276,0.0
11.830000877380371,-11.652579479980469,2.398990063476562,4.4819455078125,-11.297709923664122,14.15267175572519,-2.1068702290076335,-8.44674345703125,-2.7246014892578123,4.446032482910156,-55.908396946564885,35.81679389312977,7.251908396946565,0.0
11.840000629425049,-11.274295617675781,2.2194249389648437,3.488351818847656,-10.595419847328245,1.9541984732824427,-0.5801526717557252,-8.55448253173828,-1.8052280517578123,3.4261025756835934,-47.37404580152672,27.541984732824428,2.564885496183206,0.0
11.850000858306885,-12.581529724121093,4.127603662109375,6.021417175292968,-7.083969465648855,-4.625954198473282,2.381679389312977,-8.090007409667969,-2.530671154785156,3.797203833007812,-43.70992366412214,26.564885496183205,0.07633587786259542,0.0
11.860000610351562,-10.448296044921875,1.608903515625,6.4834980957031245,-12.16793893129771,-19.19083969465649,5.908396946564886,-9.260772021484375,-4.036623999023437,5.430049365234375,-19.709923664122137,13.465648854961833,1.83206106870229,0.0
11.87000060081482,-10.09395419921875,-0.21068974609375,7.127538342285156,18.82442748091603,-28.931297709923665,13.49618320610687,-8.406042028808594,-3.6080619018554687,5.343858105468749,-1.3435114503816794,0.44274809160305345,-2.7022900763358777,0.0
11.880000352859497,-8.48505068359375,-1.9632453613281249,6.6702458251953125,49.48091603053435,-33.603053435114504,15.114503816793894,-7.874529260253905,-3.7229835815429686,4.771643908691406,11.557251908396946,-3.145038167938931,-6.763358778625954,0.0
11.890001058578491,-9.382876306152344,2.0063409912109376,6.593631372070312,53.221374045801525,-40.80916030534351,9.083969465648854,-8.01818135986328,-3.7038299682617186,4.620809204101562,22.213740458015266,-7.66412213740458,-10.854961832061068,0.0
11.90000057220459,-10.383652600097655,4.395754248046875,4.939238024902344,20.870229007633586,-59.7557251908397,4.931297709923665,-7.453149768066406,-2.868253588867187,1.85790048828125,22.48854961832061,-11.099236641221374,-11.099236641221374,0.0
11.910001039505005,-11.544840405273437,5.9974751586914055,4.357447021484375,-0.6564885496183206,-70.29007633587786,12.564885496183207,-6.713341455078124,-1.1252747802734375,2.0781670410156248,37.6793893129771,-12.641221374045802,-13.969465648854962,0.0
11.920000553131104,-10.558429321289061,3.873818286132812,2.8898014038085935,-24.9618320610687,-89.31297709923665,18.412213740458014,-7.362170104980469,-0.277727392578125,2.3965958618164063,37.70992366412214,-11.664122137404581,-14.961832061068701,0.0
11.93000054359436,-9.993397729492187,1.7381904052734374,3.450044592285156,-22.53435114503817,-99.52671755725191,21.923664122137403,-6.998251452636718,0.852335791015625,1.6328455322265625,34.48854961832061,-10.564885496183207,-16.916030534351144,0.0
11.940000534057617,-10.019733947753906,-0.26815058593749996,5.413289953613281,-12.381679389312977,-112.36641221374046,22.519083969465647,-6.426037255859375,2.319981408691406,0.7733271362304687,28.931297709923665,-5.6183206106870225,-19.083969465648856,0.0
11.950000524520874,-11.939883679199218,-0.14604630126953125,9.05965908203125,8.763358778625955,-123.70992366412214,20.9618320610687,-6.325480786132812,2.592920397949219,2.7629087158203123,4.519083969465649,4.3816793893129775,-18.35114503816794,0.0
11.96000051498413,-10.261548315429687,-3.172317199707031,9.370905297851563,12.778625954198473,-143.84732824427482,17.923664122137403,-4.647145422363281,6.081272216796875,3.536235852050781,-16.916030534351144,26.53435114503817,-18.702290076335878,0.0
11.970000505447388,-9.160215551757812,-4.455609289550781,10.237606298828124,15.923664122137405,-157.4198473282443,12.748091603053435,-4.493916516113281,3.8283284545898435,0.0526724365234375,-33.847328244274806,23.435114503816795,-9.786259541984732,0.0
11.980000257492065,-9.265560424804686,-5.679046337890624,7.117961535644531,33.541984732824424,-170.8854961832061,3.5267175572519083,-4.153939880371094,6.495469104003906,-4.039018200683594,-39.7557251908397,42.732824427480914,-14.335877862595419,0.0
11.990000486373901,-8.36294639892578,-3.797203833007812,2.8610709838867185,39.465648854961835,-176.90076335877862,-3.618320610687023,-8.671798413085938,2.636016027832031,-1.9201497314453124,-47.19083969465649,58.396946564885496,-19.51145038167939,0.0
12.000000476837158,-9.548076220703125,-2.4349030883789062,1.1013327636718748,40.62595419847328,-184.04580152671755,-13.099236641221374,-13.541604589843748,-0.12210428466796874,5.164292980957031,-61.14503816793893,66.91603053435115,-32.79389312977099,0.0
12.010000705718994,-10.94868419189453,-0.07422025146484375,1.5035586425781249,54.19847328244275,-189.87786259541986,-17.87786259541985,-19.156007482910155,-2.3151930053710936,13.508085766601562,-74.22900763358778,47.45038167938932,-52.74809160305343,0.0
12.02000093460083,-12.904746948242186,-0.4070142822265625,-0.4644751220703125,56.76335877862596,-191.6946564885496,-25.633587786259543,-25.63232297363281,-7.196970190429687,20.779276208496093,-67.25190839694656,25.64885496183206,-60.13740458015267,0.0
12.030000686645508,-15.734693310546874,0.5243301635742187,-2.7341782958984373,52.06106870229008,-186.2290076335878,-30.549618320610687,-22.979547534179687,-5.97592734375,16.795324645996093,-20.53435114503817,-31.587786259541986,-49.20610687022901,0.0
12.040000915527344,-18.49520782470703,3.641580725097656,-3.69664736328125,58.93129770992366,-177.58778625954199,-22.290076335877863,-15.198392138671874,1.1923124267578125,7.331045483398437,-10.15267175572519,-63.31297709923664,-29.00763358778626,0.0
12.050000667572021,-18.842367065429688,4.5585599609375,-3.440467785644531,68.94656488549619,-161.58778625954199,-1.9541984732824427,-3.9695863525390624,13.091494677734374,-3.555389465332031,-33.603053435114504,-68.7175572519084,-12.625954198473282,0.0
12.060000658035278,-19.227833532714843,6.533776330566406,-1.7597382202148437,60.80916030534351,-147.26717557251908,15.038167938931299,-5.6215854980468745,7.4794859863281244,-9.830592016601562,-75.54198473282443,-49.93893129770992,7.847328244274809,0.0
12.070000410079956,-16.773776831054686,4.161122485351562,-1.1037269653320312,35.49618320610687,-137.06870229007635,27.236641221374047,-5.293579870605469,0.316034619140625,-13.108254089355468,-79.95419847328245,-31.69465648854962,16.290076335877863,0.0
12.080000400543213,-16.455348010253907,1.7884686401367187,0.3232172241210937,6.793893129770993,-128.24427480916032,28.045801526717558,-6.823474731445312,-5.125985754394531,-10.421959826660157,-82.04580152671755,-4.458015267175573,17.022900763358777,0.0
12.090000629425049,-15.6293484375,-0.7541735229492187,0.32561142578124996,-27.69465648854962,-126.47328244274809,22.564885496183205,-9.107543115234375,-9.660603698730467,-10.144232434082031,-52.83969465648855,17.206106870229007,14.045801526717558,0.0
12.100000381469727,-14.975731384277342,-1.8650830932617186,-0.44053310546874996,-33.343511450381676,-118.09160305343511,17.267175572519083,-14.604630126953124,-9.358934289550781,-7.582436657714843,-7.648854961832061,30.549618320610687,9.893129770992367,0.0
12.110000371932983,-12.306196533203124,-2.8036101440429686,-1.1923124267578125,-15.17557251908397,-104.62595419847328,14.458015267175572,-14.669273571777342,-5.453991381835937,-6.751648681640624,23.52671755725191,40.01526717557252,0.24427480916030533,0.0
12.12000060081482,-10.726023437499999,-1.7621324218749999,-1.0797849487304687,6.549618320610687,-86.0,9.251908396946565,-13.213598962402344,-1.8339584716796873,-3.3327287109375,29.84732824427481,52.29007633587786,-2.4580152671755724,0.0
12.130000352859497,-8.085219006347655,0.17956512451171874,-1.5634136840820312,9.007633587786259,-70.13740458015268,9.694656488549619,-13.833697192382811,-1.20667763671875,0.15083470458984374,31.862595419847327,66.42748091603053,6.488549618320611,0.0
12.140000581741333,-8.796296899414061,0.622492431640625,0.33518823242187495,-2.366412213740458,-48.274809160305345,8.641221374045802,-13.606248034667967,-2.0446482177734375,1.6807295654296874,53.725190839694655,63.19083969465649,13.145038167938932,0.0
12.150000810623169,-8.157045056152343,-0.9864110839843749,-0.6943184814453125,1.297709923664122,-32.85496183206107,9.740458015267176,-10.984597216796875,0.2154781494140625,0.047884033203124995,62.534351145038165,59.70992366412214,12.045801526717558,0.0
12.160000562667847,-8.37012900390625,-0.028730419921875,-0.4477157104492187,-10.076335877862595,-20.366412213740457,10.854961832061068,-8.90643017578125,2.2170307373046874,0.0909796630859375,48.61068702290076,67.64885496183206,16.778625954198475,0.0
12.170000553131104,-7.1203557373046875,0.17477672119140625,-0.93852705078125,-28.412213740458014,-8.916030534351146,14.717557251908397,-11.17852755126953,-1.6927005737304686,0.33039982910156246,52.18320610687023,71.96946564885496,27.17557251908397,0.0
12.180000305175781,-6.062118603515625,-1.1947066284179686,-1.7334020019531249,-45.969465648854964,-0.9618320610687023,13.694656488549619,-10.043675964355469,-0.05027823486328125,-1.2689268798828124,59.00763358778626,64.3206106870229,25.603053435114504,0.0
12.190000534057617,-3.873818286132812,-3.105279553222656,-2.4564509033203126,-33.63358778625954,12.793893129770993,14.351145038167939,-8.20971749267578,3.3782185424804685,0.9193734375,41.55725190839695,74.87022900763358,23.297709923664122,0.0
12.200000524520874,-3.768473413085937,-2.252943762207031,-2.2601263671875,-52.458015267175576,20.671755725190838,5.633587786259542,-9.548076220703125,-0.30406361083984373,2.020706201171875,33.20610687022901,75.61832061068702,26.3206106870229,0.0
12.21000051498413,-1.388636962890625,-5.537788439941406,-4.584896179199219,-34.93129770992366,31.480916030534353,2.2748091603053435,-11.968614099121092,-3.603273498535156,2.1308394775390624,47.61832061068702,67.1145038167939,26.38167938931298,0.0
12.220000505447388,0.9552864624023437,-6.957550024414062,-5.856217260742187,15.312977099236642,56.38167938931298,-1.9389312977099236,-8.853757739257812,-0.34715924072265625,3.0789433349609374,47.465648854961835,57.00763358778626,17.893129770992367,0.0
12.230000495910645,0.3950432739257812,-4.855440966796874,-6.438008264160156,28.732824427480917,77.14503816793894,-16.12213740458015,-8.47786807861328,-0.011971008300781249,3.0813375366210938,41.93893129770992,54.229007633587784,14.931297709923664,0.0
12.240000247955322,-1.467645617675781,-1.3718775512695311,-5.662286926269531,27.770992366412212,98.12213740458016,-26.793893129770993,-8.283937744140625,0.8307879760742187,4.036623999023437,30.580152671755727,51.37404580152672,15.603053435114504,0.0
12.250000476837158,-2.032677209472656,0.0526724365234375,-4.393360046386719,25.6793893129771,110.19847328244275,-28.916030534351144,-7.79552060546875,1.2737152832031249,4.910507604980468,25.984732824427482,47.93893129770992,15.954198473282442,0.0
12.260000944137573,-2.8514941772460936,0.5865794067382812,-2.032677209472656,37.038167938931295,126.35114503816794,-28.519083969465647,-7.173028173828125,1.7717092285156248,5.68862314453125,15.694656488549619,44.79389312977099,16.061068702290076,0.0
12.270000696182251,-3.1962592163085937,2.3774422485351563,-0.2753331909179687,38.99236641221374,132.85496183206106,-29.480916030534353,-6.411672045898437,1.7597382202148437,6.349422802734375,12.977099236641221,44.2442748091603,16.03053435114504,0.0
12.280000686645508,-5.051765502929687,3.162740393066406,2.0566192260742184,42.10687022900763,141.05343511450383,-25.435114503816795,-5.973533142089844,0.8355763793945312,5.68862314453125,-3.5877862595419847,41.099236641221374,17.69465648854962,0.0
12.290000677108765,-6.457161877441406,4.2688615600585935,3.2513258544921873,32.83969465648855,141.1908396946565,-18.671755725190838,-6.737283471679687,-0.8571241943359375,6.60799658203125,-2.687022900763359,40.045801526717554,19.34351145038168,0.0
12.300000667572021,-6.9336080078124995,4.92247861328125,4.996698864746094,19.053435114503817,139.14503816793894,-9.312977099236642,-6.9527616210937495,-1.369483349609375,6.789955908203124,-3.7099236641221376,33.98473282442748,19.34351145038168,0.0
12.310000658035278,-8.456320263671875,5.398924743652343,6.907271789550781,-2.8396946564885495,133.3740458015267,-1.1145038167938932,-5.839457849121094,0.19393033447265623,5.561730456542969,-12.0,28.229007633587788,17.755725190839694,0.0
12.320000410079956,-9.861716638183593,5.547365246582031,9.514557397460937,-28.35114503816794,119.37404580152672,4.076335877862595,-7.42441934814453,0.19871873779296872,7.675810522460937,-22.82442748091603,28.259541984732824,20.68702290076336,0.0
12.330000400543213,-10.223241088867187,4.165910888671875,14.125789794921873,-44.152671755725194,98.90076335877863,4.67175572519084,-6.4092778442382805,1.8219874633789062,6.562506750488281,-32.58015267175573,28.045801526717558,24.65648854961832,0.0
12.34000039100647,-11.870451831054687,4.350264416503906,17.707515478515624,-44.70229007633588,72.65648854961832,8.687022900763358,-6.742071875,0.622492431640625,4.819527941894531,-44.0,27.14503816793893,26.47328244274809,0.0
12.350000619888306,-13.68765089111328,4.070142822265625,19.110517651367186,-26.0,43.587786259541986,15.129770992366412,-8.470685473632813,-2.616862414550781,5.513846423339843,-57.48091603053435,24.259541984732824,34.68702290076336,0.0
12.360000610351562,-15.650896252441406,0.6464344482421874,21.466412084960936,-11.297709923664122,8.396946564885496,17.557251908396946,-6.148309863281249,-2.7844565307617186,2.7724855224609373,-37.9236641221374,22.061068702290076,32.25954198473283,0.0
12.370001077651978,-15.777788940429687,-2.683900061035156,21.516690319824217,48.76335877862596,-13.17557251908397,29.603053435114504,-5.856217260742187,-4.6255976074218745,1.0295067138671874,-32.900763358778626,17.404580152671755,33.51145038167939,0.0
12.380000829696655,-13.642161059570311,-1.7669208251953124,19.194314709472653,79.81679389312977,-48.3206106870229,34.94656488549618,-6.909665991210937,-5.408501550292969,2.6479870361328124,-7.099236641221374,18.625954198473284,32.6412213740458,0.0
12.390000820159912,-8.106766821289062,-10.68053360595703,0.97683427734375,72.25954198473282,-72.29007633587786,27.801526717557252,-6.5577183471679685,-2.6384102294921874,0.38307226562499996,14.946564885496183,14.351145038167939,29.435114503816795,0.0
12.40000057220459,-12.220005273437499,-8.904035974121093,0.5889736083984375,113.2824427480916,-40.961832061068705,36.67175572519084,-7.060500695800781,2.1404162841796874,-2.7629087158203123,-3.0839694656488548,21.282442748091604,28.885496183206108,0.0
12.410000801086426,-20.70984436035156,-4.110844250488281,9.200916979980468,136.03053435114504,-57.9236641221374,48.091603053435115,-12.342109558105468,0.1292868896484375,-2.2290017456054687,-7.8320610687022905,31.52671755725191,36.25954198473283,0.0
12.420000314712524,-24.286781640624998,-1.9919757812499999,13.960589880371092,171.8320610687023,-78.09160305343511,59.89312977099237,-14.221557861328124,-1.5562310791015623,-4.747701892089843,-7.877862595419847,25.053435114503817,37.099236641221374,0.0
12.43000054359436,-15.47611953125,-8.55448253173828,12.413935607910156,207.84732824427482,-84.91603053435115,51.908396946564885,-14.700398193359375,0.5291185668945312,-5.758054992675781,-16.83969465648855,28.27480916030534,34.74809160305343,0.0
12.440000534057617,-14.982913989257812,6.030993981933594,3.545812658691406,186.0,-99.77099236641222,20.9618320610687,-17.255011364746093,-3.3159692993164063,-3.3255461059570313,-3.7251908396946565,32.54961832061068,33.3587786259542,0.0
12.450000524520874,-11.707646118164062,8.32463917236328,-4.92247861328125,134.29007633587787,-109.3587786259542,20.259541984732824,-17.46570111083984,-4.7117888671875,-3.201047619628906,21.786259541984734,20.82442748091603,22.65648854961832,0.0
12.46000051498413,-5.260061047363281,9.112331518554686,-14.693215588378905,95.20610687022901,-89.49618320610686,28.99236641221374,-17.93975303955078,-0.9959878906249999,-3.5529952636718747,18.076335877862597,13.34351145038168,5.908396946564886,0.0
12.470000505447388,-0.8068459594726562,6.854599353027344,-19.01235538330078,9.938931297709924,-64.7175572519084,25.46564885496183,-18.528726647949217,-0.41898529052734373,-1.9536685546875,10.854961832061068,16.045801526717558,-0.3511450381679389,0.0
12.480000495910645,-1.3383587280273437,2.157175695800781,-18.222268835449217,-47.61832061068702,-28.48854961832061,17.16030534351145,-18.581399084472654,-0.7900865478515624,-0.06464344482421874,25.984732824427482,6.6106870229007635,-1.6946564885496183,0.0
12.490000486373901,-4.6255976074218745,0.9121908325195311,-16.946159350585937,-42.50381679389313,17.46564885496183,12.366412213740459,-18.370709338378905,0.35194764404296874,0.181959326171875,44.900763358778626,-3.648854961832061,-1.2213740458015268,0.0
12.500000476837158,-12.914323754882812,5.358223315429687,-13.144167114257812,-52.62595419847328,49.98473282442748,3.954198473282443,-14.111424584960936,4.709394665527343,-3.5410242553710933,38.458015267175576,-18.213740458015266,-6.015267175572519,0.0
12.510000467300415,-17.561469177246092,5.6311623046875,-8.391676818847655,-59.70992366412214,73.80152671755725,10.13740458015267,-14.580688110351561,5.813121630859374,-2.3918074584960936,14.106870229007633,-12.564885496183207,1.099236641221374,0.0
12.52000093460083,-17.336414221191404,1.3096283081054687,-2.81558115234375,-65.52671755725191,91.5114503816794,10.916030534351146,-14.403517187499999,5.681440539550781,-1.1611878051757811,-3.9389312977099236,-10.305343511450381,6.0,0.0
12.530000686645508,-15.4378123046875,-3.4955344238281247,-0.7709329345703124,-66.16793893129771,101.0381679389313,0.5038167938931297,-15.598223815917969,2.6312276245117188,-1.4125789794921875,-8.13740458015267,-7.511450381679389,6.534351145038168,0.0
12.540000915527344,-13.795389965820311,-5.183446594238281,0.5003881469726562,-56.99236641221374,104.13740458015268,-11.648854961832061,-15.332467431640625,2.2098481323242187,-1.6400281372070311,-5.312977099236641,-8.274809160305344,-0.16793893129770993,0.0
12.550000429153442,-11.276689819335937,-5.331887097167969,-0.13407529296874998,-52.88549618320611,100.73282442748092,-22.717557251908396,-16.436194396972656,1.8004396484374998,-1.0941501586914062,3.4198473282442747,-9.923664122137405,-5.114503816793893,0.0
12.560000658035278,-10.512939489746094,-3.8762124877929685,-1.39821376953125,-48.458015267175576,97.19083969465649,-29.66412213740458,-14.494496850585938,5.7125651611328125,-0.9241618408203125,3.49618320610687,-15.145038167938932,-9.32824427480916,0.0
12.570000648498535,-9.773131176757811,-1.2401964599609374,-1.3575123413085937,-44.61068702290076,94.47328244274809,-33.6793893129771,-11.777077966308592,8.238447912597655,-0.7757213378906249,-21.022900763358777,-15.877862595419847,-7.4961832061068705,0.0
12.580000638961792,-10.321403356933594,1.4341267944335936,-1.6472107421875,-57.3587786259542,88.79389312977099,-35.908396946564885,-11.659762084960937,6.320692382812499,-0.10773907470703124,-32.18320610687023,-15.572519083969466,-0.7175572519083969,0.0
12.590000629425049,-9.380482104492186,-0.12449848632812499,-3.1004911499023438,-53.05343511450382,85.37404580152672,-32.79389312977099,-12.9095353515625,1.7836802368164062,0.6655880615234374,-28.595419847328245,-14.992366412213741,4.152671755725191,0.0
12.600000619888306,-9.421183532714844,-2.3439234252929686,-3.071760729980469,-31.282442748091604,85.98473282442748,-27.893129770992367,-9.878476049804688,1.254561669921875,-0.28730419921875,-25.938931297709924,-22.931297709923665,0.015267175572519083,0.0
12.610000610351562,-10.481814868164061,0.21787235107421873,-2.1547814941406247,-24.65648854961832,84.7175572519084,-25.46564885496183,-9.564835632324218,-0.3280056274414062,2.6312276245117188,-20.366412213740457,-25.0381679389313,1.7404580152671756,0.0
12.62000060081482,-11.5304751953125,1.139639990234375,-1.0869675537109373,-29.358778625954198,83.90839694656489,-26.03053435114504,-8.506598498535157,-0.21787235107421873,0.9959878906249999,-0.6106870229007634,-39.02290076335878,-3.3282442748091605,0.0
12.630000829696655,-11.528080993652344,1.5083470458984374,0.105344873046875,-17.83206106870229,85.74045801526718,-23.022900763358777,-8.051700183105469,1.7860744384765623,2.645592834472656,-4.3816793893129775,-39.31297709923664,-4.259541984732825,0.0
12.640000820159912,-8.769960681152343,-0.928950244140625,0.8068459594726562,-36.44274809160305,76.56488549618321,-22.0,-7.7787611938476555,1.7908628417968748,0.7445967163085937,-3.1603053435114505,-49.93893129770992,-9.251908396946565,0.0
12.650000810623169,-9.418789331054686,0.5889736083984375,1.1444283935546875,-24.290076335877863,73.0381679389313,-24.946564885496183,-9.423577734375,-0.21308394775390624,2.5139117431640625,-3.618320610687023,-52.16793893129771,-6.137404580152672,0.0
12.660000562667847,-8.616731774902343,-0.4381389038085937,2.389413256835937,-22.793893129770993,69.6793893129771,-26.702290076335878,-7.211335400390625,0.35673604736328124,2.7533319091796873,-10.854961832061068,-59.14503816793893,-9.129770992366412,0.0
12.670000791549683,-10.129867224121092,0.8259995727539062,3.284844677734375,-27.14503816793893,63.74045801526717,-27.81679389312977,-7.893682873535155,0.28730419921875,2.094926452636719,-5.770992366412214,-69.25190839694656,-11.435114503816793,0.0
12.68000054359436,-10.022128149414062,1.908178723144531,3.086125939941406,-19.923664122137403,60.16793893129771,-30.0,-10.407594616699217,-1.3263877197265623,2.4444798950195312,-3.3282442748091605,-75.3587786259542,-8.83969465648855,0.0
12.690000534057617,-9.785102185058593,1.7812860351562498,3.2130186279296873,-23.297709923664122,55.541984732824424,-28.80916030534351,-9.325415466308593,-2.152387292480469,4.129997863769531,-13.435114503816793,-77.58778625954199,-13.557251908396946,0.0
12.700000524520874,-9.399635717773437,1.5466542724609373,3.517082238769531,-30.50381679389313,50.29007633587786,-27.435114503816795,-6.349422802734375,0.47644613037109373,2.205059729003906,-17.251908396946565,-91.23664122137404,-24.595419847328245,0.0
12.71000051498413,-10.110713610839843,2.4349030883789062,3.4093431640625,-30.763358778625953,44.67175572519084,-27.206106870229007,-6.797138513183594,1.1659762084960936,-0.2346317626953125,-22.763358778625953,-99.96946564885496,-30.137404580152673,0.0
12.720000267028809,-11.489773767089844,3.878606689453125,4.129997863769531,-39.29770992366412,37.57251908396947,-26.977099236641223,-8.21690009765625,-2.176329309082031,0.7038952880859375,-20.748091603053435,-96.10687022900764,-28.641221374045802,0.0
12.730000495910645,-10.089165795898436,2.118868469238281,3.3782185424804685,-35.465648854961835,35.89312977099237,-23.69465648854962,-9.5001921875,-2.521094348144531,1.4963760375976562,-15.267175572519085,-90.80916030534351,-27.633587786259543,0.0
12.740000486373901,-8.659827404785156,1.9225439331054686,2.0566192260742184,-40.80916030534351,32.29007633587786,-18.442748091603054,-7.194575988769531,-0.7781155395507812,0.8212111694335937,-15.374045801526718,-90.68702290076335,-32.70229007633588,0.0
12.750000476837158,-8.966285217285156,3.0933085449218747,0.15322890625,-50.030534351145036,27.633587786259543,-15.32824427480916,-7.132326745605468,-1.6711527587890624,-0.5674257934570313,-10.351145038167939,-90.91603053435115,-35.29770992366412,0.0
12.760000944137573,-9.888052856445311,3.9600095458984375,0.14604630126953125,-48.38167938931298,28.641221374045802,-12.01526717557252,-9.926360083007811,-2.8802245971679685,0.5434837768554687,0.030534351145038167,-83.69465648854961,-32.42748091603053,0.0
12.770000696182251,-9.26316622314453,2.4899697265625,0.59376201171875,-57.51145038167939,28.061068702290076,-8.198473282442748,-8.458714465332031,-0.699106884765625,0.5339069702148437,4.3816793893129775,-78.42748091603053,-33.70992366412214,0.0
12.780000925064087,-9.524134204101562,1.6448165405273436,1.4628572143554686,-57.55725190839695,29.69465648854962,-4.106870229007634,-10.302249743652343,-1.6136919189453125,1.3239935180664062,16.9618320610687,-73.61832061068702,-30.38167938931298,0.0
12.790000677108765,-9.880870251464843,0.4525041137695312,1.0199299072265624,-48.3206106870229,26.9618320610687,-4.6106870229007635,-8.513781103515624,0.9121908325195311,1.0175357055664063,13.389312977099237,-65.37404580152672,-29.862595419847327,0.0
12.800000667572021,-9.81862100830078,-0.29927520751953124,1.2713210815429687,-46.74809160305343,28.595419847328245,-3.3435114503816794,-9.679757312011718,-0.7230489013671875,1.005564697265625,18.061068702290076,-59.343511450381676,-25.893129770992367,0.0
12.810000896453857,-10.685322009277343,-0.5051765502929687,0.49799394531249996,-37.6793893129771,27.923664122137403,-6.580152671755725,-7.4603323730468745,2.3295582153320313,0.055066638183593745,19.435114503816795,-56.70229007633588,-28.68702290076336,0.0
12.820000886917114,-10.328585961914062,-0.6344634399414062,0.5458779785156249,-28.885496183206108,31.251908396946565,-6.9465648854961835,-8.10197841796875,0.8882488159179687,1.1444283935546875,12.01526717557252,-39.38931297709924,-21.954198473282442,0.0
12.830000638961792,-10.038887561035155,0.21787235107421873,0.0047884033203125,-36.2442748091603,29.389312977099237,-11.358778625954198,-10.120290417480469,0.2705447875976562,1.1085153686523437,25.297709923664122,-40.83969465648855,-19.267175572519083,0.0
12.840000629425049,-9.861716638183593,-0.06464344482421874,-1.0031704956054688,-25.206106870229007,31.236641221374047,-11.267175572519085,-7.144297753906249,1.7645266235351562,0.8906430175781249,24.12213740458015,-30.580152671755727,-21.435114503816795,0.0
12.850000619888306,-10.9941740234375,1.5514426757812498,0.9074024291992187,-16.580152671755727,41.099236641221374,-13.633587786259541,-5.777208605957031,1.254561669921875,0.7134720947265625,6.702290076335878,-21.236641221374047,-17.862595419847327,0.0
12.860000371932983,-9.581595043945311,2.9975404785156248,0.3854664672851562,-46.99236641221374,33.69465648854962,-14.992366412213741,-8.291120349121094,-0.9576806640625,1.8626888916015625,17.908396946564885,-6.0,-11.16030534351145,0.0
12.87000060081482,-7.81467421875,0.086191259765625,-0.8930372192382812,-36.458015267175576,35.221374045801525,-9.083969465648854,-7.127538342285156,0.0430956298828125,1.7788918334960937,18.198473282442748,-5.984732824427481,-10.549618320610687,0.0
12.880000591278076,-8.317456567382813,-1.9129671264648436,0.5985504150390625,-14.992366412213741,45.00763358778626,-8.641221374045802,-6.842628344726562,0.17477672119140625,1.7094599853515624,22.396946564885496,-0.9618320610687023,-11.267175572519085,0.0
12.890000820159912,-8.851363537597656,-1.2497732666015624,0.7733271362304687,-0.8244274809160306,47.32824427480916,-13.419847328244275,-7.400477331542969,-0.8164227661132812,2.6910826660156246,23.72519083969466,6.137404580152672,-9.98473282442748,0.0
12.90000033378601,-9.464279162597656,0.16759411621093748,0.8906430175781249,3.648854961832061,47.87786259541985,-14.65648854961832,-7.615955480957031,-1.3814543579101561,3.0358477050781247,35.267175572519086,2.8702290076335877,-9.587786259541986,0.0
12.910000562667847,-9.696516723632811,1.455674609375,1.2832920898437499,11.938931297709924,47.11450381679389,-13.511450381679388,-5.552153649902343,0.9935936889648437,2.6599580444335937,30.99236641221374,5.893129770992366,-11.572519083969466,0.0
12.920000553131104,-10.103531005859374,1.7717092285156248,1.89620771484375,0.9312977099236641,42.29007633587786,-10.65648854961832,-7.089231115722656,-0.031124621582031248,3.42849677734375,29.709923664122137,8.564885496183207,-7.66412213740458,0.0
12.93000054359436,-9.239224206542968,1.6256629272460936,1.599326708984375,4.763358778625954,38.35114503816794,-8.320610687022901,-7.524975817871093,0.2346317626953125,3.8283284545898435,31.541984732824428,7.755725190839694,-5.740458015267175,0.0
12.940000772476196,-9.320627062988281,1.8602946899414061,2.8610709838867185,0.6106870229007634,35.9236641221374,-7.816793893129771,-6.117185241699218,1.9393033447265624,3.7038299682617186,30.717557251908396,8.106870229007633,-6.763358778625954,0.0
12.950000524520874,-7.371746911621093,1.6998831787109374,2.365471240234375,-6.6106870229007635,25.49618320610687,-4.763358778625954,-5.238513232421875,2.5953145996093747,2.877830395507812,5.480916030534351,14.198473282442748,-6.931297709923665,0.0
12.96000075340271,-7.259219433593749,1.8938135131835936,3.5506010620117183,-8.106870229007633,21.755725190839694,-3.6030534351145036,-5.142745166015625,2.9472622436523435,3.6559459350585937,-15.32824427480916,25.31297709923664,-0.015267175572519083,0.0
12.970000267028809,-8.197746484375,3.308786694335937,5.367800122070312,-8.82442748091603,18.106870229007633,-3.5877862595419847,-5.6958057495117185,1.656787548828125,3.5769372802734374,-16.68702290076336,29.51145038167939,3.8473282442748094,0.0
12.980000495910645,-7.235277416992187,2.0254946044921875,4.46279189453125,-11.022900763358779,5.679389312977099,0.5038167938931297,-7.481880187988281,-0.3327940307617187,4.309562988281249,-16.99236641221374,28.702290076335878,6.0458015267175576,0.0
12.990000247955322,-10.970232006835937,4.477157104492187,6.442796667480469,-15.725190839694656,-6.961832061068702,2.2748091603053435,-5.418078356933593,1.20667763671875,2.980781066894531,-24.213740458015266,25.389312977099237,3.5572519083969465,0.0
13.000000238418579,-9.579200842285156,1.6160861206054686,6.320692382812499,-6.106870229007634,-19.31297709923664,10.305343511450381,-7.074865905761718,-0.5865794067382812,5.307945080566406,-23.083969465648856,30.671755725190838,7.9541984732824424,0.0
13.010000705718994,-9.581595043945311,1.1947066284179686,8.243236315917969,3.114503816793893,-31.282442748091604,13.389312977099237,-7.764395983886718,-2.4588451049804685,4.2521021484374995,-10.01526717557252,17.49618320610687,6.900763358778626,0.0
13.020000696182251,-9.466673364257812,0.9313444458007812,8.180987072753906,16.900763358778626,-53.43511450381679,13.694656488549619,-6.294356164550781,-1.3646949462890625,2.9831752685546875,-4.152671755725191,13.49618320610687,2.183206106870229,0.0
13.030000686645508,-10.261548315429687,2.5665841796874997,10.608707556152343,24.16793893129771,-66.87022900763358,13.603053435114504,-7.769184387207031,-3.6679169433593746,3.6535517333984373,4.427480916030534,10.091603053435115,-0.6564885496183206,0.0
13.040000915527344,-9.141061938476563,2.4684219116210935,9.947907897949218,3.1297709923664123,-99.37404580152672,10.030534351145038,-7.153874560546875,-4.436455676269531,4.630386010742187,31.099236641221374,1.6030534351145038,-7.557251908396947,0.0
13.050000667572021,-10.407594616699217,3.0214824951171875,10.800243688964843,-8.580152671755725,-126.65648854961832,11.282442748091603,-12.169727038574218,-8.774749084472656,11.659762084960937,51.038167938931295,-10.15267175572519,-17.740458015267176,0.0
13.060000658035278,-11.326968054199218,1.1875240234375,11.324573852539062,4.076335877862595,-160.38167938931298,13.389312977099237,-7.520187414550781,-1.0845733520507812,7.220912207031249,61.02290076335878,-19.61832061068702,-32.94656488549618,0.0
13.070000410079956,-12.840103503417968,0.4644751220703125,14.793772058105468,18.99236641221374,-184.67175572519085,24.061068702290076,-6.37815322265625,1.9704279663085937,6.469132885742187,5.129770992366412,-26.48854961832061,-38.35114503816794,0.0
13.080000638961792,-13.134590307617186,-1.8195932617187498,14.188039038085936,30.549618320610687,-220.44274809160305,20.793893129770993,-6.232106921386718,5.023035083007812,3.787627026367187,-17.374045801526716,-25.49618320610687,-44.458015267175576,0.0
13.090000629425049,-13.82172618408203,-2.4756045166015626,5.681440539550781,31.51145038167939,-240.82442748091603,14.290076335877863,-10.172962854003906,6.138733056640625,6.189011291503906,-40.70229007633588,-25.923664122137403,-47.786259541984734,0.0
13.100000381469727,-14.590264916992187,-4.587290380859375,-0.8667010009765624,-2.1068702290076335,-258.44274809160305,3.1603053435114505,-16.79771884765625,2.138022082519531,13.785813159179687,-65.20610687022901,-41.725190839694655,-56.900763358778626,0.0
13.110000610351562,-14.89432852783203,-6.131550451660156,-2.731784094238281,6.564885496183206,-258.44274809160305,-2.854961832061069,-16.551116076660154,2.767697119140625,14.010868115234373,-81.89312977099236,-68.4885496183206,-62.99236641221374,0.0
13.12000060081482,-18.011579089355468,-6.208164904785156,-4.029441394042968,43.099236641221374,-246.5648854961832,-3.9389312977099236,-17.978060266113282,1.9728221679687499,10.644620581054687,-91.2824427480916,-86.13740458015268,-52.18320610687023,0.0
13.13008427619934,-17.527950354003906,-4.364629626464843,-2.310404602050781,73.74045801526718,-222.6412213740458,-4.122137404580153,-12.811373083496093,-1.3000515014648437,0.6009446166992187,-116.87022900763358,-99.69465648854961,-35.45038167938932,0.0
13.140000581741333,-16.548721875,-2.518700146484375,-3.3542765258789062,101.12977099236642,-202.8091603053435,-1.6793893129770991,-4.302380383300781,-1.695094775390625,-10.271125122070313,-81.64885496183206,-77.95419847328245,-28.47328244274809,0.0
13.150000810623169,-16.8168724609375,-0.11252747802734374,-1.7836802368164062,101.58778625954199,-179.55725190839695,-4.2748091603053435,-3.19865341796875,-3.7158009765625,-12.531251489257812,-66.36641221374046,-49.89312977099237,-25.450381679389313,0.0
13.160000562667847,-17.13530128173828,-0.11731588134765625,-1.2952630981445312,83.86259541984732,-168.18320610687022,-11.374045801526718,-6.440402465820312,-4.565742565917969,-8.192958081054687,-35.45038167938932,-29.206106870229007,-18.259541984732824,0.0
13.170000791549683,-17.99721387939453,-1.1037269653320312,-0.06943184814453125,79.77099236641222,-157.78625954198472,-20.53435114503817,-10.153809240722655,-3.0430303100585934,-7.524975817871093,-14.870229007633588,-16.900763358778626,-19.053435114503817,0.0
13.18000078201294,-18.440141186523437,0.6272808349609375,0.9552864624023437,75.64885496183206,-147.93893129770993,-23.633587786259543,-13.833697192382811,-1.235408056640625,-1.4915876342773438,-18.412213740458014,12.427480916030534,-19.17557251908397,0.0
13.190000534057617,-17.233463549804686,2.8658593872070313,2.1116858642578125,60.80916030534351,-137.93893129770993,-18.290076335877863,-14.870386511230468,-0.86191259765625,-1.3407529296874998,-15.557251908396946,25.862595419847327,-11.129770992366412,0.0
13.200000524520874,-15.327679028320311,3.526659045410156,2.2290017456054687,45.05343511450382,-132.3206106870229,-9.816793893129772,-17.867926989746092,-3.153163586425781,-0.19393033447265623,5.374045801526718,37.725190839694655,3.236641221374046,0.0
13.21000051498413,-13.721169714355469,0.2442085693359375,0.74699091796875,37.14503816793893,-124.68702290076335,-4.473282442748092,-14.444218615722656,-1.8028338500976562,-1.3144167114257812,28.18320610687023,35.41984732824427,5.755725190839694,0.0
13.220000505447388,-13.019668627929686,0.2561795776367187,-0.4333505004882812,30.18320610687023,-115.20610687022901,-5.7251908396946565,-12.184092248535155,-2.0183119995117185,-2.9927520751953125,38.6412213740458,49.770992366412216,6.0,0.0
13.230000257492065,-11.559205615234374,0.49799394531249996,-1.1563994018554686,15.725190839694656,-102.29007633587786,-6.244274809160306,-11.884817041015625,-1.3120225097656248,-4.402936853027343,47.969465648854964,55.48091603053435,7.114503816793893,0.0
13.240000486373901,-10.876858142089842,2.5713725830078125,-1.2808978881835937,5.801526717557252,-82.99236641221374,-7.786259541984733,-10.022128149414062,0.8475473876953125,-4.189852905273438,39.41984732824427,72.9618320610687,8.732824427480915,0.0
13.250000476837158,-6.256048937988281,0.5027823486328125,-2.5713725830078125,-2.366412213740458,-63.55725190839695,-1.450381679389313,-13.333309045410155,-2.499546533203125,-3.1603461914062496,42.900763358778626,80.82442748091603,16.244274809160306,0.0
13.260000944137573,-5.576095666503906,-1.1252747802734375,-2.980781066894531,15.267175572519085,-33.66412213740458,-2.16793893129771,-11.920730065917969,-0.8786720092773437,-2.2553379638671873,47.89312977099237,84.16793893129771,14.778625954198473,0.0
13.270000696182251,-5.963956335449218,1.1156979736328125,-2.4301146850585935,18.106870229007633,-7.7251908396946565,-7.236641221374046,-13.402740893554686,-3.4524387939453125,0.09816226806640624,57.786259541984734,94.12213740458016,15.419847328244275,0.0
13.280000925064087,-6.581660363769531,0.74699091796875,-3.4763808105468748,-6.122137404580153,-0.22900763358778625,-7.297709923664122,-11.537657800292967,-1.3144167114257812,-0.7517793212890624,70.82442748091603,83.6793893129771,11.740458015267176,0.0
13.290000438690186,-4.548983154296875,0.6057330200195312,-4.1946413085937495,-12.580152671755725,18.03053435114504,-1.7251908396946565,-10.931924780273437,0.7493851196289062,0.6775590698242188,63.404580152671755,93.41984732824427,12.320610687022901,0.0
13.300000429153442,-3.009511486816406,0.12449848632812499,-5.370194323730469,-27.66412213740458,38.458015267175576,-2.6106870229007635,-12.303802331542968,-2.262520568847656,0.737414111328125,66.99236641221374,88.62595419847328,15.877862595419847,0.0
13.310000896453857,-1.8004396484374998,-2.403778466796875,-5.6215854980468745,-24.50381679389313,54.030534351145036,-4.961832061068702,-9.758765966796874,0.7326257080078125,1.2282254516601563,71.98473282442748,84.27480916030534,11.435114503816793,0.0
13.320000648498535,-1.6352397338867186,-2.195482922363281,-6.054935998535156,-17.17557251908397,79.89312977099236,-10.351145038167939,-8.410830432128906,2.4492682983398435,1.3814543579101561,54.88549618320611,89.89312977099236,14.488549618320612,0.0
13.330000638961792,-2.2577321655273437,-0.8259995727539062,-5.3390697021484375,-26.137404580152673,97.16030534351145,-17.14503816793893,-9.076418493652342,0.5913678100585937,2.7054478759765623,44.54961832061068,84.61068702290076,19.572519083969464,0.0
13.340000629425049,-1.22583125,-2.750937707519531,-5.03740029296875,-12.106870229007633,112.82442748091603,-17.114503816793892,-8.453926062011718,0.699106884765625,3.2225954345703123,46.56488549618321,82.29007633587786,18.50381679389313,0.0
13.350000619888306,-1.024718310546875,-3.4524387939453125,-3.2225954345703123,25.755725190839694,138.04580152671755,-17.16030534351145,-7.967903124999999,2.27927998046875,3.5098996337890624,33.221374045801525,83.16030534351145,19.282442748091604,0.0
13.360000371932983,-1.7836802368164062,-0.86191259765625,-1.4508862060546874,39.282442748091604,153.34351145038167,-23.267175572519083,-7.955932116699218,1.70467158203125,4.647145422363281,14.65648854961832,84.51908396946565,22.68702290076336,0.0
13.37000060081482,-2.6791116577148437,1.3000515014648437,0.2657563842773437,36.38167938931298,158.85496183206106,-25.221374045801525,-10.292672937011718,-4.6447512207031245,6.050147595214844,23.358778625954198,81.23664122137404,25.603053435114504,0.0
13.380000591278076,-3.883395092773437,1.3048399047851562,2.0781670410156248,64.50381679389314,171.31297709923663,-20.65648854961832,-9.133879333496093,-4.637568615722656,7.266402038574219,44.56488549618321,66.0,13.954198473282442,0.0
13.390000820159912,-6.1650692749023435,3.9169139160156248,3.134009973144531,67.58778625954199,172.85496183206106,-17.068702290076335,-6.603208178710937,-1.4532804077148436,4.766855505371093,26.580152671755727,56.42748091603053,7.480916030534351,0.0
13.40000033378601,-9.785102185058593,8.722076647949219,6.555324145507812,10.412213740458014,160.4885496183206,-14.580152671755725,-6.773196496582031,0.7493851196289062,4.402936853027343,11.786259541984732,47.29770992366412,6.717557251908397,0.0
13.410000801086426,-9.758765966796874,7.467514978027343,8.48505068359375,-28.442748091603054,150.25954198473283,-5.374045801526718,-7.196970190429687,0.3064578125,5.552153649902343,-2.4885496183206106,47.847328244274806,6.5038167938931295,0.0
13.420000553131104,-9.030928662109375,6.4475850708007805,9.852139831542969,-69.93893129770993,125.80152671755725,0.8702290076335878,-8.276755139160155,-1.0295067138671874,6.042964990234375,-1.83206106870229,39.17557251908397,2.1068702290076335,0.0
13.430000305175781,-10.888829150390624,4.177881896972656,13.275848205566405,-73.05343511450381,102.10687022900764,3.053435114503817,-6.912060192871094,0.8690952026367187,5.736507177734374,-11.648854961832061,28.03053435114504,-4.870229007633588,0.0
13.440000534057617,-13.539210388183593,2.281674182128906,17.67160245361328,-68.50381679389314,76.33587786259542,7.786259541984733,-6.969521032714844,1.66636435546875,5.106832141113281,-29.755725190839694,24.061068702290076,-0.183206106870229,0.0
13.450000286102295,-16.673220361328124,2.7150246826171873,22.45282316894531,-47.49618320610687,41.969465648854964,17.450381679389313,-7.216123803710937,1.9105729248046874,3.5242648437499997,-46.16793893129771,20.53435114503817,8.916030534351146,0.0
13.46000051498413,-16.352397338867185,1.4700398193359374,19.323601599121094,-37.221374045801525,0.8244274809160306,23.541984732824428,-7.110778930664062,0.033518823242187495,2.4684219116210935,-47.847328244274806,20.396946564885496,14.793893129770993,0.0
13.470000743865967,-11.465831750488281,-2.578555187988281,11.757924353027343,-22.885496183206108,-33.93893129770992,26.519083969465647,-6.744466076660156,-2.1116858642578125,2.1021090576171875,-41.86259541984733,19.00763358778626,20.748091603053435,0.0
13.480000495910645,-10.43153663330078,-2.645592834472656,8.667010009765624,47.45038167938932,-34.916030534351144,38.61068702290076,-3.854664672851562,-0.33758243408203126,0.9911994873046874,-43.64885496183206,15.48091603053435,22.213740458015266,0.0
13.490000486373901,-8.353369592285155,-1.4125789794921875,6.189011291503906,74.93129770992367,-46.88549618320611,46.213740458015266,-7.714117749023437,-1.2976572998046874,0.8930372192382812,-36.274809160305345,20.15267175572519,26.259541984732824,0.0
13.500000238418579,-4.460397692871093,-4.515464331054687,-3.5960908935546874,69.05343511450381,-41.43511450381679,43.98473282442748,-8.329427575683594,0.0718260498046875,0.8643067993164062,-37.099236641221374,19.297709923664122,24.427480916030536,0.0
13.510000705718994,-1.1611878051757811,-9.464279162597656,-9.306261853027344,37.7557251908397,-19.206106870229007,33.89312977099237,-9.696516723632811,-0.22744915771484372,1.0438719238281249,-43.969465648854964,19.114503816793892,25.862595419847327,0.0
13.52000093460083,-9.323021264648437,-5.710170959472656,0.46208092041015625,52.0,-2.8244274809160306,24.0,-10.146626635742187,-1.1635820068359375,0.814028564453125,-49.969465648854964,15.603053435114504,29.17557251908397,0.0
13.530000686645508,-20.496760412597656,6.584054565429687,12.854468713378905,102.1526717557252,-7.679389312977099,52.06106870229008,-11.188104357910156,-0.6751648681640625,1.8531120849609375,-41.465648854961835,17.587786259541986,32.0763358778626,0.0
13.540000915527344,-19.239804541015623,3.1292215698242187,13.919888452148436,99.6030534351145,-13.908396946564885,69.14503816793894,-12.071564770507813,-1.1827356201171875,0.22026655273437498,-50.2442748091603,16.213740458015266,31.61832061068702,0.0
13.550000667572021,-19.52471453857422,-0.0430956298828125,10.66856259765625,15.816793893129772,-44.80916030534351,30.763358778625953,-12.19366905517578,-0.5722141967773438,-0.4165910888671875,-55.908396946564885,19.755725190839694,32.25954198473283,0.0
13.5600004196167,-20.561403857421872,-4.879382983398437,2.6695348510742187,-18.641221374045802,-58.94656488549618,2.427480916030534,-15.490484741210937,-5.746083984375,0.7541735229492187,-54.83969465648855,16.85496183206107,37.74045801526717,0.0
13.570000410079956,-18.849549670410155,-9.054870678710937,0.258573779296875,8.549618320610687,-59.29770992366412,-8.351145038167939,-18.05467471923828,-7.651868505859374,1.5825672973632812,-26.0,2.2748091603053435,31.31297709923664,0.0
13.580000638961792,-13.199233752441405,-3.797203833007812,-7.9846625366210935,60.12213740458015,-44.732824427480914,-9.221374045801527,-15.962142468261717,-2.4684219116210935,-0.13407529296874998,-22.900763358778626,-9.954198473282442,19.083969465648856,0.0
13.590000629425049,-7.407659936523437,10.963049401855468,-14.03959853515625,47.64885496183206,-27.419847328244273,-8.931297709923664,-19.97482445068359,-3.7804444213867185,1.5658078857421873,-23.34351145038168,-7.4961832061068705,20.48854961832061,0.0
13.600000619888306,-6.320692382812499,14.183250634765624,-12.933477368164061,-17.938931297709924,-3.9236641221374047,-1.8625954198473282,-20.81758343505859,-1.5179238525390624,-1.4173673828125,-9.114503816793894,-18.458015267175572,13.114503816793894,0.0
13.610000610351562,-4.44363828125,6.174646081542968,-13.417106103515625,-69.37404580152672,17.770992366412212,6.366412213740458,-18.883068493652342,-0.07900865478515624,-1.8195932617187498,-12.916030534351146,-23.87786259541985,10.67175572519084,0.0
13.62000060081482,-5.087678527832031,-0.30885201416015623,-11.920730065917969,-67.34351145038168,46.93129770992366,7.32824427480916,-17.341202624511716,1.1468225952148436,-2.0829554443359375,-5.679389312977099,-27.053435114503817,14.229007633587786,0.0
13.630000829696655,-9.284714038085937,-0.9002198242187499,-8.722076647949219,-53.64885496183206,70.51908396946565,1.9541984732824427,-15.782577343749999,2.1811177124023438,-3.632003918457031,0.7480916030534351,-28.33587786259542,13.32824427480916,0.0
13.640000343322754,-12.624625354003905,-0.13646949462890623,-6.64630380859375,-36.48854961832061,93.19083969465649,-1.618320610687023,-14.441824414062499,2.5067291381835934,-1.5873557006835937,-3.5267175572519083,-19.96946564885496,15.282442748091603,0.0
13.650000810623169,-13.168109130859374,-1.0486603271484374,-5.063736511230468,-30.366412213740457,107.19083969465649,-3.3587786259541983,-13.175291735839844,1.6519991455078125,-2.0063409912109376,0.2595419847328244,-15.938931297709924,11.755725190839694,0.0
13.660000562667847,-14.144943408203124,-1.1324573852539062,-3.3446997192382812,-18.091603053435115,121.02290076335878,-7.404580152671755,-11.990161914062499,2.4756045166015626,-1.5873557006835937,1.2213740458015268,-7.541984732824427,7.6183206106870225,0.0
13.670001029968262,-12.674903588867187,-1.7812860351562498,-1.0175357055664063,-20.763358778625953,123.93893129770993,-16.519083969465647,-11.401188305664062,2.8610709838867185,-1.8914193115234375,1.5114503816793894,-2.2290076335877864,4.213740458015267,0.0
13.68000054359436,-12.090718383789062,-1.85790048828125,1.0558429321289062,-26.65648854961832,118.45801526717557,-27.786259541984734,-11.822567797851562,2.5857377929687497,-1.9704279663085937,2.564885496183206,0.5190839694656488,2.0763358778625953,0.0
13.690000534057617,-10.307038146972655,-2.221819140625,0.4429273071289062,-32.3206106870229,108.80916030534351,-34.99236641221374,-11.03248125,4.261678955078125,-0.4572925170898437,-4.580152671755725,0.5801526717557252,0.2900763358778626,0.0
13.700000524520874,-10.153809240722655,-0.2442085693359375,-0.00239420166015625,-39.63358778625954,98.0,-39.083969465648856,-11.180921752929686,2.961627453613281,-0.13646949462890623,-8.564885496183207,-0.7938931297709924,2.2595419847328246,0.0
13.71000075340271,-9.124302526855468,0.6296750366210937,-0.8379705810546875,-43.465648854961835,89.23664122137404,-38.44274809160305,-9.227253198242186,3.6008792968749996,0.42377369384765623,-15.19083969465649,-5.984732824427481,4.183206106870229,0.0
13.720000267028809,-10.194510668945313,3.1172505615234374,0.3280056274414062,-50.6412213740458,84.09160305343511,-35.32824427480916,-9.17458076171875,1.695094775390625,2.5474305664062498,-10.229007633587786,-5.114503816793893,12.183206106870228,0.0
13.730000734329224,-9.440337145996093,0.6727706665039062,-0.5506663818359374,-56.16793893129771,71.63358778625954,-29.83206106870229,-9.600748657226562,-1.0917559570312498,1.936909143066406,10.320610687022901,-15.557251908396946,10.412213740458014,0.0
13.740000486373901,-8.951920007324219,-2.8993782104492185,-0.6272808349609375,-22.80916030534351,71.26717557251908,-21.083969465648856,-9.337386474609374,-1.9393033447265624,2.24097275390625,24.38167938931298,-31.61832061068702,4.564885496183206,0.0
13.750000476837158,-9.006986645507812,-3.488351818847656,0.49799394531249996,15.770992366412214,72.10687022900764,-15.83206106870229,-6.519411120605469,0.699106884765625,2.940079638671875,23.221374045801525,-40.396946564885496,-0.6717557251908397,0.0
13.760000944137573,-9.758765966796874,-0.9074024291992187,1.7693150268554687,17.053435114503817,68.44274809160305,-16.48854961832061,-6.347028601074219,1.5897499023437498,2.50912333984375,22.244274809160306,-54.51908396946565,-1.3435114503816794,0.0
13.770000696182251,-10.520122094726561,2.50912333984375,1.2689268798828124,12.641221374045802,63.969465648854964,-20.076335877862597,-8.233659509277343,1.2952630981445312,2.2026655273437497,22.290076335877863,-66.56488549618321,-0.5190839694656488,0.0
13.780000925064087,-9.552864624023437,2.2266075439453124,0.9050082275390624,3.312977099236641,60.80916030534351,-17.435114503816795,-8.963891015625,-0.023942016601562498,3.5051112304687497,15.312977099236642,-66.25954198473282,2.6259541984732824,0.0
13.790000677108765,-9.540893615722656,2.5258827514648434,1.9656395629882812,-5.00763358778626,60.6412213740458,-16.16793893129771,-8.480262280273436,0.08858546142578125,3.797203833007812,-0.6870229007633588,-77.2824427480916,-0.7786259541984732,0.0
13.800000667572021,-9.81862100830078,3.507505432128906,1.905784521484375,-27.450381679389313,53.51145038167939,-16.748091603053435,-8.564059338378906,-0.9313444458007812,1.5107412475585937,3.6793893129770994,-85.70992366412214,-5.236641221374046,0.0
13.810000658035278,-9.861716638183593,3.6248213134765623,1.139639990234375,-42.01526717557252,48.778625954198475,-17.297709923664122,-10.386046801757812,-2.2673089721679687,2.6312276245117188,10.351145038167939,-88.36641221374046,-6.396946564885496,0.0
13.820000648498535,-10.120290417480469,3.1028853515624997,1.3814543579101561,-53.74045801526717,44.045801526717554,-16.916030534351144,-10.089165795898436,-2.085349645996094,2.980781066894531,-3.8625954198473282,-89.3587786259542,-10.366412213740459,0.0
13.830000638961792,-9.603142858886718,1.1516109985351561,1.697488977050781,-65.55725190839695,40.35114503816794,-13.84732824427481,-8.80347950439453,0.062249243164062495,0.9457096557617187,3.648854961832061,-97.92366412213741,-16.366412213740457,0.0
13.840000629425049,-12.301408129882812,4.613626599121093,2.5809493896484375,-68.93129770992367,36.534351145038165,-14.351145038167939,-11.188104357910156,-1.407790576171875,1.62805712890625,15.465648854961833,-93.37404580152672,-17.419847328244273,0.0
13.850000619888306,-11.86805762939453,2.4684219116210935,1.9512743530273435,-75.22137404580153,30.53435114503817,-12.80916030534351,-10.656591589355468,-1.0079588989257813,0.6584054565429687,3.9236641221374047,-89.80152671755725,-18.229007633587788,0.0
13.860000610351562,-10.560823522949217,0.105344873046875,2.0159177978515626,-64.47328244274809,31.81679389312977,-6.793893129770993,-8.192958081054687,1.0845733520507812,-0.7110778930664062,5.038167938931298,-96.9618320610687,-23.068702290076335,0.0
13.87000060081482,-10.014945544433592,-0.612915625,0.6607996582031249,-59.00763358778626,25.404580152671755,-7.908396946564886,-10.292672937011718,-0.9504980590820312,0.22744915771484372,5.221374045801527,-80.80916030534351,-19.206106870229007,0.0
13.880000591278076,-10.781090075683593,0.36152445068359373,1.5801730957031248,-43.45038167938932,29.480916030534353,-10.442748091603054,-7.79552060546875,1.8267758666992187,-1.5801730957031248,1.5267175572519085,-84.29007633587786,-24.519083969465647,0.0
13.890000820159912,-11.257536206054686,1.4724340209960938,1.8938135131835936,-40.61068702290076,27.267175572519083,-9.389312977099237,-10.582371337890624,-0.29927520751953124,0.74699091796875,8.0,-63.770992366412216,-18.076335877862597,0.0
13.90000057220459,-10.790666882324219,0.928950244140625,1.5969325073242187,-42.48854961832061,23.603053435114504,-10.641221374045802,-8.468291271972657,1.7741034301757812,-1.936909143066406,3.5572519083969465,-72.1526717557252,-23.0381679389313,0.0
13.910000801086426,-10.481814868164061,1.1109095703125,1.2808978881835937,-29.572519083969464,25.480916030534353,-6.67175572519084,-7.841010437011718,1.7214309936523438,-0.03591302490234375,-9.679389312977099,-41.17557251908397,-18.427480916030536,0.0
13.920000553131104,-10.151415039062499,1.2785036865234374,1.7908628417968748,-37.541984732824424,24.106870229007633,-7.374045801526718,-10.158597644042969,-0.27293898925781246,0.8020575561523438,-5.572519083969466,-38.656488549618324,-13.786259541984732,0.0
13.93000078201294,-9.437942944335937,0.05746083984375,0.35673604736328124,-28.30534351145038,23.206106870229007,-6.183206106870229,-10.273519323730468,-0.5363011718749999,1.668758557128906,19.419847328244273,-30.16793893129771,-14.885496183206106,0.0
13.940000534057617,-9.76116016845703,-0.28730419921875,0.6775590698242188,-16.137404580152673,23.938931297709924,-6.244274809160306,-6.725312463378906,1.2880804931640624,-0.6919242797851562,17.84732824427481,-33.41984732824427,-19.46564885496183,0.0
13.950000286102295,-9.859322436523437,0.15322890625,0.469263525390625,-5.190839694656488,25.389312977099237,-5.603053435114504,-8.049305981445311,1.6065093139648436,1.6352397338867186,18.35114503816794,-11.877862595419847,-12.381679389312977,0.0
13.96000051498413,-7.869740856933594,1.8722656982421875,0.8259995727539062,1.4961832061068703,29.81679389312977,-5.32824427480916,-5.892130285644531,1.9704279663085937,0.4070142822265625,7.709923664122138,-5.877862595419847,-8.625954198473282,0.0
13.970000267028809,-10.050858569335936,4.211400720214844,0.5363011718749999,-19.709923664122137,23.480916030534353,-6.442748091603053,-8.9255837890625,-0.612915625,2.920926025390625,21.297709923664122,4.687022900763359,-1.251908396946565,0.0
13.980000495910645,-8.978256225585938,1.9225439331054686,-0.2825157958984375,-22.16793893129771,23.053435114503817,-5.770992366412214,-5.595249279785156,1.8626888916015625,0.0430956298828125,20.259541984732824,-2.4427480916030535,-4.885496183206107,0.0
13.990000486373901,-9.054870678710937,0.19871873779296872,0.30406361083984373,-18.244274809160306,24.519083969465647,-2.6259541984732824,-7.0078282592773435,0.6775590698242188,1.8531120849609375,21.129770992366414,8.931297709923664,-1.83206106870229,0.0
14.000000476837158,-8.978256225585938,-0.7661445312499999,0.2059013427734375,-11.282442748091603,25.81679389312977,-3.9083969465648853,-6.347028601074219,1.1947066284179686,1.7238251953125,15.725190839694656,11.374045801526718,-1.465648854961832,0.0
14.010000705718994,-9.521740002441407,-0.05027823486328125,1.0007762939453124,1.2366412213740459,32.76335877862596,-4.641221374045801,-6.675034228515624,0.5458779785156249,2.2074539306640624,15.038167938931299,15.923664122137405,0.6564885496183206,0.0
14.02000117301941,-8.853757739257812,0.9050082275390624,0.3950432739257812,-0.061068702290076333,32.01526717557252,-8.076335877862595,-3.5290532470703124,2.789244934082031,0.13646949462890623,-1.8931297709923665,18.27480916030534,-0.8854961832061069,0.0
14.030000448226929,-11.006145031738281,3.1962592163085937,2.1883003173828124,-16.778625954198475,34.48854961832061,-11.312977099236642,-6.904877587890625,-0.373495458984375,1.7525556152343749,-12.885496183206106,33.11450381679389,5.038167938931298,0.0
14.040001153945923,-11.980585107421874,3.746925598144531,2.935291235351562,-35.25190839694657,29.633587786259543,-12.702290076335878,-7.900865478515625,-1.5083470458984374,3.6080619018554687,-13.068702290076336,31.236641221374047,5.251908396946565,0.0
14.050000667572021,-10.838550915527343,2.446874096679687,3.5960908935546874,-46.12213740458015,23.984732824427482,-10.442748091603054,-7.4603323730468745,-1.4006079711914061,4.261678955078125,-12.748091603053435,32.79389312977099,1.1908396946564885,0.0
14.0600004196167,-9.617508068847656,0.2920926025390625,3.2537200561523436,-54.29007633587786,14.763358778625955,-7.251908396946565,-6.766013891601562,-0.4860229370117187,3.392583752441406,-28.717557251908396,36.19847328244275,-2.4732824427480917,0.0
14.070000648498535,-9.832986218261718,1.2234370483398436,4.733336682128906,-43.00763358778626,11.938931297709924,-3.954198473282443,-7.682993127441406,-2.2457611572265623,5.257666845703125,-34.900763358778626,40.916030534351144,-1.7709923664122138,0.0
14.080000638961792,-10.280701928710936,1.0797849487304687,5.91846650390625,-43.81679389312977,2.0763358778625953,-4.763358778625954,-9.832986218261718,-4.0222587890625,7.050923889160156,-12.549618320610687,31.64885496183206,0.12213740458015267,0.0
14.090000629425049,-10.441113439941406,0.55545478515625,6.344634399414062,-19.435114503816795,-5.145038167938932,-1.3740458015267176,-8.355763793945313,-2.29843359375,5.085284326171875,-2.50381679389313,13.450381679389313,-3.0839694656488548,0.0
14.100000619888306,-11.645396875,0.9816226806640624,7.867346655273437,-0.9770992366412213,-14.366412213740459,2.687022900763359,-8.176198669433592,-2.0350714111328125,5.5545478515625,3.0076335877862594,5.755725190839694,-5.557251908396947,0.0
14.110000610351562,-10.946289990234375,0.11252747802734374,9.17458076171875,21.908396946564885,-28.229007633587788,7.450381679389313,-6.382941625976562,-0.4213794921875,5.286397265624999,2.2442748091603053,1.5572519083969465,-7.3893129770992365,0.0
14.12000060081482,-11.044452258300781,3.0526071166992184,11.326968054199218,15.83206106870229,-48.68702290076336,12.290076335877863,-6.303932971191406,-1.197100830078125,4.651933825683593,-3.236641221374046,-1.0687022900763359,-5.374045801526718,0.0
14.130000829696655,-12.045228552246092,3.5290532470703124,12.80658468017578,12.198473282442748,-75.31297709923665,16.53435114503817,-6.737283471679687,-1.7549498168945312,4.259284753417968,-5.893129770992366,-4.366412213740458,-2.5801526717557253,0.0
14.140000581741333,-12.387599389648436,4.881777185058594,13.922282653808592,11.129770992366412,-103.05343511450381,25.954198473282442,-5.360617517089843,-1.5586252807617187,2.4899697265625,-2.427480916030534,-8.641221374045802,-2.763358778625954,0.0
14.150000810623169,-10.726023437499999,2.8419173706054686,12.00931552734375,-16.53435114503817,-138.42748091603053,26.366412213740457,-5.298368273925781,-0.97683427734375,2.844311572265625,1.0687022900763359,-8.900763358778626,-4.8396946564885495,0.0
14.160000562667847,-8.678981018066406,1.388636962890625,8.667010009765624,-44.48854961832061,-167.00763358778627,22.045801526717558,-6.813897924804687,-0.5363011718749999,5.6958057495117185,-2.6717557251908395,-7.297709923664122,-8.67175572519084,0.0
14.170000553131104,-7.003039855957031,-1.8028338500976562,5.099649536132812,-75.6030534351145,-199.78625954198472,10.763358778625955,-4.254496350097656,0.7038952880859375,2.863465185546875,-33.282442748091604,-1.6641221374045803,-9.19083969465649,0.0
14.18000054359436,-6.133944653320312,-4.7022120605468745,6.782773303222656,-56.12213740458015,-214.04580152671755,7.679389312977099,-2.5761609863281247,3.73495458984375,1.2952630981445312,-35.74045801526717,4.198473282442748,-11.129770992366412,0.0
14.190000295639038,-7.879317663574218,-6.6151791870117185,6.770802294921874,4.198473282442748,-220.44274809160305,11.572519083969466,-7.8170684204101555,2.3511060302734372,4.448426684570312,-36.68702290076336,7.450381679389313,-11.893129770992367,0.0
14.200000524520874,-8.262389929199218,-5.3390697021484375,0.9696516723632812,51.19083969465649,-215.08396946564886,15.32824427480916,-11.566388220214844,3.404554760742187,9.366116894531249,-43.282442748091604,-5.099236641221374,-27.236641221374047,0.0
14.21000051498413,-10.55364091796875,-4.264073156738281,-4.374206433105469,50.83969465648855,-210.15267175572518,10.870229007633588,-18.595764294433593,-1.7405846069335937,18.837578662109372,-77.29770992366412,-13.282442748091603,-39.00763358778626,0.0
14.220000267028809,-14.535198278808593,-0.5770026000976562,-5.384559533691406,50.68702290076336,-195.05343511450383,4.625954198473282,-23.59006895751953,-4.979939453125,17.068263635253906,-67.19083969465649,-44.76335877862596,-50.47328244274809,0.0
14.230000495910645,-17.8894748046875,-0.6344634399414062,-6.809109521484374,62.88549618320611,-179.6946564885496,5.404580152671755,-22.716185351562498,-0.6488286499023437,11.413159313964844,-41.908396946564885,-87.6030534351145,-41.38931297709924,0.0
14.240000486373901,-21.581333764648438,-2.2457611572265623,-4.393360046386719,77.58778625954199,-156.0763358778626,9.541984732824428,-14.937424157714842,4.266467358398438,3.4261025756835934,-59.81679389312977,-117.7557251908397,-13.618320610687023,0.0
14.250000476837158,-19.065027819824216,-1.2569558715820313,-3.19865341796875,94.91603053435115,-139.70992366412213,11.541984732824428,-8.396465222167969,5.092466931152344,-8.463502868652343,-91.3587786259542,-104.97709923664122,5.236641221374046,0.0
14.260000944137573,-19.13924807128906,2.8754361938476563,-0.6679822631835937,73.43511450381679,-127.86259541984732,8.717557251908397,-3.095702746582031,1.7190367919921874,-14.8248966796875,-100.59541984732824,-81.12977099236642,3.7557251908396947,0.0
14.270000457763672,-20.010737475585938,4.259284753417968,1.6041151123046875,33.05343511450382,-126.70229007633588,10.290076335877863,-2.442085693359375,-5.7317187744140625,-14.022839123535155,-103.31297709923665,-50.80916030534351,-1.4198473282442747,0.0
14.280000925064087,-19.086575634765623,1.70467158203125,2.6240450195312497,11.938931297709924,-131.55725190839695,11.572519083969466,-5.137956762695312,-10.333374365234375,-12.696451403808593,-75.93893129770993,-26.35114503816794,-9.725190839694656,0.0
14.290000677108765,-18.727445385742186,0.8188169677734375,2.5258827514648434,-9.099236641221374,-135.08396946564886,6.213740458015267,-9.138667736816405,-8.257601525878906,-9.428366137695312,-41.9236641221374,-5.587786259541985,-18.80916030534351,0.0
14.300000667572021,-17.793706738281248,1.9297265380859374,1.1228805786132812,-35.57251908396947,-138.3206106870229,2.946564885496183,-13.555969799804688,-5.791573815917968,-5.88015927734375,-20.3206106870229,14.198473282442748,-21.52671755725191,0.0
14.310000658035278,-14.401122985839843,1.2521674682617188,-0.430956298828125,-40.79389312977099,-133.5267175572519,5.038167938931298,-18.547880261230468,-6.265625744628906,0.3902548706054687,11.389312977099237,29.862595419847327,-12.931297709923664,0.0
14.320000648498535,-10.529698901367187,-2.01112939453125,-2.1212626708984375,-29.053435114503817,-124.01526717557252,7.7251908396946565,-19.405004455566406,-4.695029455566406,1.9943699829101562,54.030534351145036,24.778625954198475,-8.091603053435115,0.0
14.330000638961792,-9.208099584960937,-3.5721488769531247,-2.6958710693359373,0.4580152671755725,-105.25190839694656,6.442748091603053,-12.176909643554687,0.05027823486328125,1.5945383056640625,78.1526717557252,20.946564885496183,-7.648854961832061,0.0
14.340000629425049,-7.453149768066406,-4.110844250488281,-4.414907861328125,16.061068702290076,-88.73282442748092,6.244274809160306,-7.639897497558593,5.1882349975585935,0.1580173095703125,78.2442748091603,24.9618320610687,-3.1908396946564888,0.0
14.350000381469727,-5.877765075683594,-2.1883003173828124,-3.5721488769531247,25.83206106870229,-61.404580152671755,2.9160305343511452,-7.532158422851562,6.514622717285156,-1.956062756347656,66.42748091603053,40.67175572519084,7.679389312977099,0.0
14.360000610351562,-4.120421057128906,-1.5418658691406248,-4.070142822265625,24.870229007633586,-39.221374045801525,2.6717557251908395,-7.175422375488281,7.64229169921875,-1.6400281372070311,37.37404580152672,61.20610687022901,20.442748091603054,0.0
14.37000036239624,-5.499481213378906,1.4820108276367188,-2.7820623291015623,13.679389312977099,-14.259541984732824,-1.6488549618320612,-10.86009873046875,2.9544448486328125,-1.5203180541992187,27.49618320610687,74.36641221374046,33.37404580152672,0.0
14.380000352859497,-4.613626599121093,0.8116343627929687,-3.679887951660156,1.4961832061068703,-2.564885496183206,-0.10687022900763359,-10.211270080566406,3.294421484375,-0.040701428222656245,19.480916030534353,84.01526717557252,37.343511450381676,0.0
14.390000820159912,-3.4093431640625,-0.5003881469726562,-3.9695863525390624,12.244274809160306,22.763358778625953,1.083969465648855,-10.66856259765625,1.4987702392578124,-0.18914193115234373,17.297709923664122,84.83969465648855,37.23664122137404,0.0
14.40000033378601,-0.201112939453125,-3.0430303100585934,-6.471527087402343,20.625954198473284,39.083969465648856,-7.404580152671755,-11.980585107421874,-0.9361328491210937,2.96881005859375,16.9618320610687,89.3587786259542,39.11450381679389,0.0
14.410000801086426,0.42377369384765623,-3.134009973144531,-6.196193896484375,31.282442748091604,66.76335877862596,-20.35114503816794,-10.599130749511717,-1.1875240234375,2.6982652709960937,28.763358778625953,76.99236641221374,32.6412213740458,0.0
14.420000314712524,0.3280056274414062,-3.5314474487304683,-6.737283471679687,48.36641221374046,91.06870229007633,-33.69465648854962,-9.617508068847656,0.07900865478515624,5.140350964355468,32.13740458015267,75.8473282442748,29.69465648854962,0.0
14.43000054359436,-0.6751648681640625,-2.8467057739257813,-4.802768530273437,61.404580152671755,115.61832061068702,-43.16030534351145,-9.0021982421875,-1.2880804931640624,5.616797094726562,35.786259541984734,62.68702290076336,27.81679389312977,0.0
14.440000534057617,-2.8562825805664063,-0.7852981445312499,-2.2864625854492187,76.29007633587786,129.4198473282443,-53.69465648854962,-9.916783276367187,-0.8020575561523438,7.024587670898437,52.42748091603053,53.282442748091604,25.480916030534353,0.0
14.450000524520874,-5.307945080566406,3.323151904296875,1.2282254516601563,86.2442748091603,141.87786259541986,-55.083969465648856,-7.089231115722656,0.9097966308593749,6.234501123046875,30.0,45.17557251908397,20.53435114503817,0.0
14.460000276565552,-6.691793640136718,6.818686328125,3.4356793823242184,81.19083969465649,143.14503816793894,-44.10687022900763,-6.9168485961914055,-0.28730419921875,5.410895751953125,18.366412213740457,39.465648854961835,20.47328244274809,0.0
14.470000505447388,-9.050082275390624,9.363722692871093,6.349422802734375,73.58778625954199,143.16030534351145,-26.30534351145038,-6.303932971191406,-0.6368576416015624,4.979939453125,8.213740458015268,35.404580152671755,19.49618320610687,0.0
14.480011940002441,-8.55448253173828,7.6614453125,6.9168485961914055,30.106870229007633,132.38167938931298,-9.267175572519085,-5.779602807617187,-1.0869675537109373,4.328716601562499,1.8931297709923665,35.267175572519086,17.328244274809162,0.0
14.49000072479248,-9.576806640625,8.825027319335938,8.702923034667968,-13.969465648854962,117.38931297709924,-6.412213740458015,-3.768473413085937,-0.7996633544921875,3.8690298828125,-13.49618320610687,34.42748091603053,14.01526717557252,0.0
14.500000953674316,-8.628702783203124,8.643067993164061,12.052411157226562,-55.02290076335878,89.80152671755725,-1.6793893129770991,-5.078101721191406,0.4572925170898437,5.705382556152343,-19.00763358778626,44.47328244274809,16.015267175572518,0.0
14.510000705718994,-8.760383874511719,6.888118176269531,14.034810131835936,-69.09923664122137,64.77862595419847,2.732824427480916,-7.3094976684570305,-2.607285607910156,5.741295581054687,-25.84732824427481,40.88549618320611,16.366412213740457,0.0
14.52000093460083,-9.519345800781249,4.520252734375,15.294160205078125,-61.14503816793893,39.099236641221374,3.7404580152671754,-8.276755139160155,-2.2481553588867187,7.194575988769531,-4.152671755725191,30.900763358778626,13.908396946564885,0.0
14.530000448226929,-12.018892333984374,1.9009961181640624,17.62850682373047,-28.82442748091603,18.442748091603054,14.916030534351146,-7.410054138183593,0.04548983154296875,5.358223315429687,-13.19083969465649,22.03053435114504,12.458015267175572,0.0
14.540000915527344,-12.689268798828124,-0.06943184814453125,21.844695947265624,-1.8473282442748091,-15.34351145038168,19.557251908396946,-8.224082702636718,-1.5251064575195312,7.445967163085937,-14.778625954198473,19.587786259541986,15.251908396946565,0.0
14.550000667572021,-8.846575134277343,-3.881000891113281,16.055516333007812,42.38167938931298,-52.717557251908396,21.297709923664122,-8.228871105957031,-2.7054478759765623,5.346252307128906,-6.061068702290076,1.9389312977099236,16.916030534351144,0.0
14.560000658035278,-1.9393033447265624,-5.444414575195312,-6.756437084960937,66.79389312977099,-42.2442748091603,26.015267175572518,-9.076418493652342,-2.3918074584960936,6.861781958007812,7.083969465648855,-4.748091603053435,15.908396946564885,0.0
14.570000648498535,-4.726154077148437,-11.6837041015625,-6.112396838378906,49.70992366412214,-9.526717557251908,31.587786259541986,-7.7763669921875,0.8164227661132812,3.555389465332031,2.030534351145038,-11.648854961832061,14.961832061068701,0.0
14.580000400543213,-16.074669946289063,-5.954379528808594,5.2456958374023435,65.32824427480917,-24.198473282442748,30.3206106870229,-10.32379755859375,0.32561142578124996,1.8148048583984373,-11.541984732824428,-15.541984732824428,18.82442748091603,0.0
14.590000629425049,-27.303475732421873,1.446097802734375,23.59006895751953,142.7175572519084,-43.465648854961835,63.89312977099237,-9.76116016845703,2.4779987182617185,-1.1707646118164061,-32.274809160305345,-19.908396946564885,14.946564885496183,0.0
14.600000619888306,-23.65950080566406,1.1013327636718748,21.894974182128905,167.49618320610688,-54.01526717557252,79.70992366412214,-13.64934366455078,-1.0199299072265624,-0.30406361083984373,-70.44274809160305,-13.770992366412214,19.053435114503817,0.0
14.610000610351562,-22.297200061035156,10.374075793457031,6.5768719604492185,80.90076335877863,-81.2824427480916,32.778625954198475,-16.055516333007812,-2.5043349365234375,-0.7398083129882812,-48.68702290076336,-17.46564885496183,18.625954198473284,0.0
14.62000036239624,-17.719486486816404,5.054159704589844,-3.220201232910156,-12.702290076335878,-107.52671755725191,8.778625954198473,-18.025944299316404,-4.963180041503906,-0.5363011718749999,-46.61068702290076,-17.923664122137403,15.770992366412214,0.0
14.630000829696655,-8.805873706054687,-0.08858546142578125,-13.280636608886718,-29.00763358778626,-94.58015267175573,7.297709923664122,-18.310854296875,-6.272808349609375,-1.0821791503906248,-38.030534351145036,-20.015267175572518,3.236641221374046,0.0
14.640000581741333,-0.5363011718749999,-0.4477157104492187,-19.05066260986328,-18.106870229007633,-57.343511450381676,7.816793893129771,-17.654843041992187,-5.506663818359375,-0.8212111694335937,-25.938931297709924,-16.03053435114504,-9.877862595419847,0.0
14.650000810623169,-1.3455413330078123,2.0087351928710935,-14.200010046386717,-7.32824427480916,-7.0534351145038165,1.297709923664122,-16.412252380371093,-2.418143676757812,-1.9297265380859374,-5.6183206106870225,-15.938931297709924,-15.511450381679388,0.0
14.660000562667847,-6.366182214355469,4.074931225585937,-11.966219897460936,-31.16030534351145,20.83969465648855,-2.3053435114503817,-16.685191369628907,0.2537853759765625,-1.9895815795898437,17.64885496183206,-13.358778625954198,-14.213740458015268,0.0
14.670000791549683,-11.135431921386719,4.426878869628906,-9.737218151855469,-36.030534351145036,47.11450381679389,0.5038167938931297,-15.440206506347655,2.8658593872070313,-2.8275521606445313,22.442748091603054,-10.0,-13.648854961832061,0.0
14.68000054359436,-13.517662573242188,1.7262193969726563,-7.596801867675781,-41.64885496183206,65.45038167938931,0.8549618320610687,-16.74504641113281,-1.2330138549804688,-2.5354595581054684,16.946564885496183,1.9083969465648856,-4.870229007633588,0.0
14.690000772476196,-16.462530615234375,-1.8938135131835936,-4.374206433105469,-26.80916030534351,84.77862595419847,-4.564885496183206,-14.441824414062499,2.8036101440429686,-1.0726023437499999,31.786259541984734,8.83969465648855,-11.32824427480916,0.0
14.700000762939453,-13.73314072265625,-3.3710359375,-3.1004911499023438,-17.83206106870229,90.91603053435115,-10.259541984732824,-12.389993591308594,3.9408559326171875,-1.7214309936523438,13.664122137404581,17.267175572519083,-13.923664122137405,0.0
14.71000075340271,-13.237540979003905,-1.235408056640625,-2.7365724975585937,-7.587786259541985,100.87022900763358,-16.16793893129771,-13.467384338378906,3.1507693847656246,-0.4429273071289062,4.534351145038168,22.47328244274809,-9.664122137404581,0.0
14.720000743865967,-10.824185705566405,-0.13407529296874998,-3.306392492675781,-12.366412213740459,102.19847328244275,-19.099236641221374,-13.82172618408203,3.277662072753906,-0.8259995727539062,22.213740458015266,32.80916030534351,-8.290076335877863,0.0
14.730000495910645,-9.406818322753905,-0.18914193115234373,-3.1100679565429687,-14.687022900763358,103.5114503816794,-20.9618320610687,-12.126631408691406,5.365405920410156,-0.7230489013671875,16.27480916030534,27.862595419847327,-9.755725190839694,0.0
14.74000096321106,-8.580818749999999,-0.14604630126953125,-2.863465185546875,-14.931297709923664,104.16793893129771,-20.198473282442748,-11.870451831054687,4.110844250488281,0.5961562133789062,9.34351145038168,31.17557251908397,-3.633587786259542,0.0
14.750000238418579,-9.414000927734374,1.7932570434570312,-2.8036101440429686,-19.435114503816795,103.86259541984732,-20.580152671755727,-10.419565624999999,7.584830859375,2.9472622436523435,12.061068702290076,35.847328244274806,1.7557251908396947,0.0
14.760001182556152,-9.191340173339842,2.786850732421875,-2.042254016113281,-31.19083969465649,103.38931297709924,-19.053435114503817,-10.812214697265624,5.03740029296875,2.729389892578125,-8.305343511450381,38.778625954198475,14.687022900763358,0.0
14.770000696182251,-9.023746057128905,0.967257470703125,-1.3670891479492187,-36.54961832061068,101.81679389312977,-15.526717557251908,-10.93671318359375,-0.3758896606445312,3.2034418212890623,-5.145038167938932,30.396946564885496,21.053435114503817,0.0
14.780000925064087,-9.988609326171874,-1.5394716674804687,0.11013327636718749,-23.00763358778626,102.38167938931298,-13.618320610687023,-9.497797985839844,0.2825157958984375,3.4261025756835934,6.290076335877862,16.213740458015266,16.916030534351144,0.0
