timestamp,Thigh_L_Acc_X,Thigh_L_Acc_Y,Thigh_L_Acc_Z,Thigh_L_Gyr_X,Thigh_L_Gyr_Y,Thigh_L_Gyr_Z,Thigh_R_Acc_X,Thigh_R_Acc_Y,Thigh_R_Acc_Z,Thigh_R_Gyr_X,Thigh_R_Gyr_Y,Thigh_R_Gyr_Z,gpio_output
10.000000476837158,-12.289437121582031,-0.1580173095703125,2.7916391357421872,114.77862595419847,111.8473282442748,-35.541984732824424,-12.248735693359373,1.0558429321289062,0.40222587890625,12.305343511450381,4.99236641221374,15.770992366412214,0.0
10.010000705718994,-15.205574743652344,4.9823336547851556,4.314351391601562,91.74045801526718,108.53435114503817,-39.25190839694657,-10.579977136230468,2.3439234252929686,0.82360537109375,-0.4122137404580153,-2.2900763358778624,15.465648854961833,1.0
10.02000117301941,-13.40034669189453,6.208164904785156,3.3399113159179685,60.396946564885496,101.48091603053435,-34.916030534351144,-9.694122521972655,2.6336218261718747,0.6751648681640625,-19.34351145038168,-6.870229007633588,14.274809160305344,1.0
10.030000925064087,-12.753912243652342,6.804321118164062,3.9049429077148434,25.862595419847327,95.8473282442748,-33.45038167938932,-9.483432775878907,2.0159177978515626,0.8667010009765624,-34.10687022900763,-7.862595419847328,13.404580152671755,1.0
10.040001153945923,-10.625466967773438,6.2201359130859375,0.9337386474609375,-1.465648854961832,86.41221374045801,-27.72519083969466,-9.459490759277344,1.2018892333984375,1.3311761230468748,-41.847328244274806,-10.106870229007633,12.061068702290076,1.0
10.0500009059906,-8.95670841064453,4.630386010742187,0.8092401611328125,-9.557251908396946,89.2824427480916,-20.3206106870229,-10.070012182617187,-1.2737152832031249,1.6615759521484375,-38.6412213740458,-16.870229007633586,10.458015267175572,1.0
10.060000896453857,-5.664681127929687,0.39743747558593745,-1.3144167114257812,0.04580152671755725,91.0381679389313,-14.534351145038167,-9.26316622314453,-0.7062894897460937,0.6679822631835937,-26.870229007633586,-28.580152671755727,4.99236641221374,1.0
10.070000410079956,-6.459556079101562,0.29927520751953124,1.7501614135742187,33.12977099236641,108.73282442748092,-13.511450381679388,-7.900865478515625,1.7525556152343749,-0.12449848632812499,-31.84732824427481,-33.908396946564885,3.1908396946564888,1.0
10.080000400543213,-5.719747766113281,0.009576806640625,0.6057330200195312,40.778625954198475,107.66412213740458,-15.435114503816793,-6.37815322265625,3.1579519897460937,-1.3144167114257812,-48.62595419847328,-32.412213740458014,2.717557251908397,1.0
10.09000039100647,-8.090007409667969,3.114856359863281,2.722207287597656,50.79389312977099,117.17557251908397,-13.450381679389313,-7.977479931640625,0.9816226806640624,-0.679953271484375,-54.412213740458014,-27.17557251908397,6.33587786259542,1.0
10.100000619888306,-9.334992272949219,3.545812658691406,2.157175695800781,47.06870229007634,116.22900763358778,-12.412213740458014,-8.130708837890625,0.13168109130859373,-1.9488801513671874,-51.93893129770992,-29.557251908396946,3.7709923664122136,1.0
10.110000610351562,-11.690886706542969,5.494692810058593,3.6631285400390623,43.25190839694657,120.58015267175573,-7.526717557251908,-9.287108239746093,-1.8363526733398436,-1.1228805786132812,-45.87786259541985,-26.229007633587788,3.3282442748091605,1.0
10.12000036239624,-11.4538607421875,5.480327600097656,3.287238879394531,14.83969465648855,109.46564885496183,-7.358778625954199,-8.276755139160155,-1.254561669921875,-1.7836802368164062,-29.740458015267176,-27.34351145038168,-1.0229007633587786,1.0
10.130000591278076,-11.79862578125,5.408501550292969,3.8474820678710935,-7.862595419847328,102.59541984732824,-4.595419847328245,-7.826645227050781,0.3950432739257812,-2.360682836914062,-22.82442748091603,-28.015267175572518,-1.2061068702290076,1.0
10.140000581741333,-10.651803186035156,4.352658618164062,4.086902233886718,-41.7557251908397,83.3587786259542,-6.900763358778626,-7.8170684204101555,1.7238251953125,-2.492363928222656,-20.259541984732824,-25.129770992366414,-0.22900763358778625,1.0
10.150001049041748,-9.923965881347655,2.798821740722656,3.986345764160156,-57.81679389312977,72.59541984732824,-7.694656488549619,-8.240842114257813,2.0925322509765625,-2.722207287597656,-19.740458015267176,-21.31297709923664,1.5419847328244274,1.0
10.160000801086426,-10.64222637939453,2.578555187988281,4.024652990722656,-76.50381679389314,59.98473282442748,-9.068702290076336,-8.214505895996094,2.4971523315429685,-2.437297290039062,-17.938931297709924,-17.69465648854962,2.1526717557251906,1.0
10.170001029968262,-7.671022119140624,-1.5131354492187499,1.9847931762695312,-74.8854961832061,51.57251908396947,-4.534351145038168,-8.564059338378906,1.9033903198242186,-2.6503812377929687,-15.389312977099237,-15.419847328244275,2.213740458015267,1.0
10.180001020431519,-7.881711865234375,-0.5961562133789062,2.9281086303710935,-50.30534351145038,52.83969465648855,-3.633587786259542,-8.767566479492187,1.0821791503906248,-1.9656395629882812,-9.98473282442748,-13.358778625954198,1.5419847328244274,1.0
10.190000772476196,-8.130708837890625,-0.3854664672851562,1.6472107421875,-50.83969465648855,45.099236641221374,-4.351145038167939,-8.269572534179687,-0.4955997436523437,-0.6344634399414062,1.618320610687023,-13.755725190839694,0.2748091603053435,1.0
10.200000524520874,-7.4028715332031245,-2.0302830078125,1.216254443359375,-27.34351145038168,49.099236641221374,-0.8702290076335878,-9.986215124511718,-0.5434837768554687,0.6943184814453125,31.129770992366414,-19.46564885496183,-3.3893129770992365,1.0
10.21000075340271,-9.428366137695312,-0.25139117431640623,2.9951462768554684,-0.3511450381679389,56.36641221374046,-2.6564885496183206,-9.76116016845703,-0.19153613281249998,0.15562310791015624,46.091603053435115,-26.9618320610687,-9.068702290076336,0.0
10.220000743865967,-9.145850341796875,0.584185205078125,1.7238251953125,11.068702290076336,56.58015267175573,-3.236641221374046,-7.4220251464843745,2.4061726684570313,-1.7669208251953124,41.52671755725191,-32.76335877862596,-13.374045801526718,0.0
10.230000495910645,-10.359710583496094,4.695029455566406,3.6846763549804686,2.0916030534351147,55.06870229007634,-6.396946564885496,-7.127538342285156,3.342305517578125,-1.2210428466796874,20.793893129770993,-26.30534351145038,-10.305343511450381,0.0
10.240000486373901,-11.496956372070311,6.3709706176757805,2.760514514160156,-49.32824427480916,41.847328244274806,-11.221374045801527,-8.827421520996094,2.291250988769531,-0.2609679809570312,11.877862595419847,-15.740458015267176,-2.366412213740458,0.0
10.250000715255737,-10.20169327392578,3.038241906738281,1.9488801513671874,-71.90839694656489,35.55725190839695,-9.633587786259541,-8.738836059570312,2.8993782104492185,-1.0103531005859374,5.801526717557252,-17.69465648854962,-1.1297709923664123,0.0
10.260000705718994,-12.923900561523437,4.173093493652344,3.5027170288085934,-76.53435114503817,31.6793893129771,-8.274809160305344,-10.081983190917969,1.1468225952148436,-0.6727706665039062,3.954198473282443,-15.587786259541986,-1.297709923664122,0.0
10.270000696182251,-9.986215124511718,0.16041151123046873,1.6711527587890624,-67.81679389312977,26.580152671755727,-4.732824427480916,-9.114725720214842,2.1547814941406247,-0.3232172241210937,0.24427480916030533,-14.442748091603054,-3.6793893129770994,0.0
10.280000925064087,-10.041281762695311,-0.39743747558593745,1.4628572143554686,-54.16793893129771,24.885496183206108,-1.1755725190839694,-9.272743029785156,1.1923124267578125,0.32561142578124996,-0.9770992366412213,-13.618320610687023,-4.030534351145038,0.0
10.290000677108765,-10.467449658203124,0.565031591796875,1.1563994018554686,-47.93893129770992,22.366412213740457,-2.6717557251908395,-10.812214697265624,-1.2593500732421874,1.2018892333984375,15.083969465648854,-18.106870229007633,-4.3816793893129775,0.0
10.30000114440918,-10.544064111328124,-0.27293898925781246,0.3854664672851562,-36.717557251908396,20.80916030534351,-3.1755725190839694,-11.628637463378906,-1.369483349609375,1.2521674682617188,34.06106870229008,-25.022900763358777,-9.282442748091603,0.0
10.310000658035278,-9.7683427734375,-1.6472107421875,0.679953271484375,-23.099236641221374,22.625954198473284,-2.8702290076335877,-9.986215124511718,1.2952630981445312,0.7110778930664062,34.18320610687023,-34.47328244274809,-17.267175572519083,0.0
10.320000886917114,-9.753977563476562,0.2561795776367187,0.7733271362304687,-19.52671755725191,23.72519083969466,-5.740458015267175,-8.702923034667968,5.286397265624999,0.6057330200195312,15.48091603053435,-31.87786259541985,-18.65648854961832,0.0
10.330000638961792,-10.019733947753906,2.750937707519531,1.2880804931640624,-33.23664122137404,23.099236641221374,-8.900763358778626,-9.694122521972655,3.21780703125,1.0582371337890624,-4.458015267175573,-26.38167938931298,-10.83969465648855,0.0
10.340000629425049,-10.366893188476562,2.020706201171875,-0.6488286499023437,-47.603053435114504,19.236641221374047,-10.320610687022901,-10.134655627441406,1.5418658691406248,0.6919242797851562,-7.709923664122138,-30.412213740458014,-8.854961832061068,0.0
10.350000858306885,-9.543287817382812,-0.0047884033203125,-1.2952630981445312,-37.83206106870229,23.587786259541986,-7.221374045801527,-9.6151138671875,2.231395947265625,-0.0430956298828125,-9.648854961832061,-34.732824427480914,-11.786259541984732,0.0
10.360000848770142,-10.575188732910156,2.24097275390625,0.28730419921875,-42.33587786259542,23.419847328244273,-7.6183206106870225,-7.979874133300781,2.940079638671875,0.2537853759765625,-27.328244274809162,-32.56488549618321,-11.541984732824428,0.0
10.370001077651978,-9.634267480468749,1.9871873779296874,0.35194764404296874,-46.19847328244275,27.282442748091604,-8.641221374045802,-9.141061938476563,3.0023288818359375,0.45489831542968745,-32.25954198473283,-27.83206106870229,-6.99236641221374,0.0
10.380000829696655,-10.338162768554687,3.1100679565429687,0.6272808349609375,-61.3587786259542,24.244274809160306,-10.198473282442748,-9.993397729492187,0.5315127685546874,-0.24899697265624998,-30.641221374045802,-26.15267175572519,-4.3816793893129775,0.0
10.390000343322754,-10.295067138671874,1.2138602416992186,0.16280571289062498,-60.76335877862596,23.61832061068702,-7.511450381679389,-10.850521923828124,-1.4700398193359374,-0.29448680419921874,-18.68702290076336,-29.52671755725191,-6.183206106870229,0.0
10.40000057220459,-10.409988818359375,-1.1707646118164061,1.0917559570312498,-44.54961832061068,26.625954198473284,-4.656488549618321,-12.445060229492187,-2.8227637573242186,0.63206923828125,9.007633587786259,-34.01526717557252,-10.442748091603054,0.0
10.410001039505005,-10.31661495361328,-1.7549498168945312,1.9608511596679685,-23.450381679389313,29.34351145038168,-5.435114503816794,-10.632649572753905,-1.8555062866210936,-0.05746083984375,26.793893129770993,-46.68702290076336,-19.022900763358777,0.0
10.420000791549683,-11.506533178710937,0.97683427734375,2.9975404785156248,-7.603053435114504,30.564885496183205,-9.145038167938932,-9.119514123535156,1.426944189453125,-0.316034619140625,24.458015267175572,-47.70992366412214,-21.61832061068702,0.0
10.430001020431519,-10.405200415039062,1.8219874633789062,1.8507178833007811,-25.16030534351145,21.52671755725191,-9.114503816793894,-10.340556970214843,0.05027823486328125,0.7948749511718749,30.0,-43.603053435114504,-17.16030534351145,0.0
10.440000534057617,-9.289502441406249,0.17477672119140625,1.0199299072265624,-11.053435114503817,22.244274809160306,-7.526717557251908,-11.01332763671875,-0.5458779785156249,0.09816226806640624,34.29007633587786,-52.97709923664122,-17.72519083969466,0.0
10.450000762939453,-9.79946739501953,0.5889736083984375,1.1037269653320312,-6.122137404580153,19.740458015267176,-8.458015267175572,-7.8529814453124995,3.277662072753906,-0.689530078125,23.31297709923664,-46.88549618320611,-20.259541984732824,0.0
10.46000051498413,-9.907206469726562,2.4157494750976563,1.458068811035156,-16.229007633587788,17.16030534351145,-8.15267175572519,-10.04846436767578,0.5506663818359374,0.5961562133789062,24.091603053435115,-38.2442748091603,-14.580152671755725,0.0
10.470000505447388,-9.552864624023437,1.3263877197265623,0.5626373901367188,-13.86259541984733,14.351145038167939,-7.297709923664122,-10.66137999267578,-0.20829554443359374,0.3758896606445312,27.480916030534353,-46.61068702290076,-15.358778625954198,0.0
10.480000495910645,-8.322244970703125,-0.9576806640625,0.2154781494140625,10.045801526717558,18.3206106870229,-3.282442748091603,-7.706935144042968,3.4356793823242184,-1.0606313354492187,23.786259541984734,-42.36641221374046,-19.00763358778626,0.0
10.490000486373901,-8.678981018066406,0.9888052856445312,0.8188169677734375,11.633587786259541,19.083969465648856,-5.251908396946565,-9.332598071289063,2.0542250244140625,-0.7685387329101562,23.541984732824428,-27.954198473282442,-13.86259541984733,0.0
10.500000476837158,-8.425195642089843,1.7118541870117185,0.08140285644531249,8.625954198473282,19.17557251908397,-5.923664122137405,-9.320627062988281,0.4740519287109375,-0.41898529052734373,17.770992366412212,-31.267175572519083,-12.488549618320612,0.0
10.510000705718994,-9.208099584960937,0.48123453369140623,-0.1388636962890625,14.870229007633588,18.870229007633586,-3.9389312977099236,-9.193734375,-0.11013327636718749,0.44532150878906246,27.0381679389313,-29.053435114503817,-14.290076335877863,0.0
10.520000696182251,-9.89523546142578,-0.14604630126953125,0.29927520751953124,25.46564885496183,19.17557251908397,-4.213740458015267,-10.283096130371094,-0.718260498046875,0.0718260498046875,43.099236641221374,-26.99236641221374,-16.27480916030534,0.0
10.530000448226929,-11.0707884765625,0.6153098266601562,1.22583125,26.900763358778626,18.671755725190838,-6.427480916030534,-9.943119494628906,0.6344634399414062,0.5889736083984375,46.458015267175576,-32.54961832061068,-20.076335877862597,0.0
10.540000915527344,-9.294290844726563,0.8906430175781249,0.7996633544921875,27.16030534351145,13.572519083969466,-7.1603053435114505,-8.82263311767578,2.4253262817382812,0.8164227661132812,33.19083969465649,-31.129770992366414,-19.84732824427481,0.0
10.550000667572021,-9.157821350097656,1.1444283935546875,0.5195417602539062,20.38167938931298,10.366412213740459,-7.145038167938932,-10.0748005859375,3.3446997192382812,0.7517793212890624,24.213740458015266,-23.938931297709924,-16.366412213740457,0.0
10.560000896453857,-10.144232434082031,2.5163059448242184,0.9911994873046874,14.687022900763358,7.251908396946565,-7.786259541984733,-10.505756884765624,1.9393033447265624,1.4867992309570313,7.480916030534351,-18.091603053435115,-12.595419847328245,0.0
10.570000886917114,-10.603919152832031,2.3367408203125,1.5370774658203123,17.709923664122137,8.595419847328245,-8.351145038167939,-10.237606298828124,2.281674182128906,1.37906015625,5.206106870229007,-18.27480916030534,-13.740458015267176,0.0
10.580000638961792,-9.70369932861328,0.354341845703125,0.047884033203124995,17.709923664122137,3.099236641221374,-7.068702290076335,-9.828197814941406,1.656787548828125,0.9361328491210937,4.732824427480916,-16.366412213740457,-15.893129770992367,0.0
10.590000629425049,-10.809820495605468,1.8938135131835936,1.2832920898437499,29.46564885496183,5.190839694656488,-7.8320610687022905,-9.880870251464843,0.7924807495117187,0.814028564453125,3.404580152671756,-15.84732824427481,-16.03053435114504,0.0
10.600000619888306,-9.631873278808593,1.1109095703125,-0.08140285644531249,24.9618320610687,2.6412213740458017,-7.465648854961832,-9.763554370117188,1.6735469604492186,1.1563994018554686,3.8931297709923665,-14.198473282442748,-16.519083969465647,0.0
10.610000610351562,-10.544064111328124,3.114856359863281,0.5482721801757812,21.908396946564885,3.7251908396946565,-9.053435114503817,-9.859322436523437,1.3072341064453123,0.8810662109374999,2.8702290076335877,-13.48091603053435,-16.763358778625953,0.0
10.62000060081482,-9.497797985839844,0.7134720947265625,-0.833182177734375,13.267175572519085,1.3587786259541985,-9.435114503816793,-10.606313354492187,0.51714755859375,1.8339584716796873,6.6106870229007635,-11.32824427480916,-15.755725190839694,0.0
10.630000829696655,-9.80665,0.4261678955078125,-0.258573779296875,18.12213740458015,4.717557251908397,-9.34351145038168,-10.881646545410156,1.0319009155273438,0.6703764648437499,14.992366412213741,-16.137404580152673,-18.045801526717558,0.0
10.640000581741333,-10.065223779296874,0.13646949462890623,-0.507570751953125,25.19083969465649,7.66412213740458,-11.679389312977099,-10.714052429199219,0.33758243408203126,0.9744400756835937,17.49618320610687,-16.65648854961832,-18.748091603053435,0.0
10.65000057220459,-9.935936889648437,0.3136404174804687,-0.9552864624023437,24.564885496183205,9.145038167938932,-13.603053435114504,-11.461043347167967,-0.430956298828125,0.5003881469726562,22.595419847328245,-25.206106870229007,-19.419847328244273,0.0
10.660000562667847,-10.237606298828124,0.5530605834960938,-0.967257470703125,26.946564885496183,12.274809160305344,-14.961832061068701,-8.489839086914062,1.3910311645507811,-0.316034619140625,15.374045801526718,-28.30534351145038,-23.51145038167939,0.0
10.670000314712524,-10.656591589355468,1.6998831787109374,-0.1005564697265625,21.61832061068702,14.702290076335878,-16.80916030534351,-9.18655177001953,2.4301146850585935,0.36152445068359373,0.7175572519083969,-16.717557251908396,-20.610687022900763,0.0
10.68000054359436,-10.388441003417968,3.1699229980468746,0.13407529296874998,-0.04580152671755725,14.213740458015268,-18.793893129770993,-8.166621862792969,3.1292215698242187,-0.5243301635742187,-16.900763358778626,-16.763358778625953,-19.31297709923664,0.0
10.690000772476196,-10.120290417480469,3.2441432495117186,0.0,-12.977099236641221,13.068702290076336,-19.083969465648856,-10.187328063964843,0.3112462158203125,0.737414111328125,-20.244274809160306,-4.2748091603053435,-13.251908396946565,0.0
10.700000524520874,-9.521740002441407,1.13006318359375,0.354341845703125,-20.15267175572519,11.587786259541986,-17.801526717557252,-9.935936889648437,0.7948749511718749,0.6440402465820312,-13.618320610687023,-7.3893129770992365,-15.633587786259541,0.0
10.71000051498413,-9.842563024902343,0.1867477294921875,0.5530605834960938,-12.106870229007633,10.366412213740459,-16.519083969465647,-8.999804040527343,-0.055066638183593745,0.07900865478515624,-10.748091603053435,-2.6717557251908395,-17.52671755725191,0.0
10.720000505447388,-9.76116016845703,0.07422025146484375,0.9337386474609375,-7.022900763358779,9.84732824427481,-17.419847328244273,-9.334992272949219,-0.05027823486328125,0.3136404174804687,-3.114503816793893,-2.854961832061069,-16.85496183206107,0.0
10.730000495910645,-9.9215716796875,0.737414111328125,1.4772224243164063,1.099236641221374,8.67175572519084,-16.290076335877863,-8.923189587402343,0.29927520751953124,0.32561142578124996,2.1068702290076335,0.8549618320610687,-15.893129770992367,0.0
10.740000486373901,-10.220846887207031,1.1923124267578125,2.080561242675781,6.061068702290076,5.8320610687022905,-15.572519083969466,-8.365340600585936,0.7134720947265625,0.23702596435546874,2.015267175572519,2.2900763358778624,-15.618320610687023,0.0
10.750000715255737,-10.467449658203124,1.2138602416992186,2.5258827514648434,10.916030534351146,2.854961832061069,-14.763358778625955,-8.192958081054687,0.7996633544921875,0.11731588134765625,3.1755725190839694,4.183206106870229,-14.854961832061068,0.0
10.760000705718994,-10.627861169433594,1.0702081420898437,3.35188232421875,14.091603053435115,-2.4427480916030535,-14.091603053435115,-8.367734802246094,0.3591302490234375,0.2920926025390625,6.793893129770993,6.824427480916031,-13.572519083969466,0.0
10.770000696182251,-10.919953771972656,0.842758984375,4.4196962646484375,20.35114503816794,-8.992366412213741,-12.15267175572519,-8.276755139160155,0.13407529296874998,0.47884033203125,8.961832061068701,7.740458015267175,-12.50381679389313,0.0
10.780001163482666,-11.439495532226562,0.9864110839843749,5.906495495605468,25.87786259541985,-16.53435114503817,-9.725190839694656,-7.879317663574218,-0.11731588134765625,0.258573779296875,9.19083969465649,7.847328244274809,-12.50381679389313,0.0
10.790000915527344,-11.796231579589843,1.0175357055664063,7.170633972167968,34.274809160305345,-24.610687022900763,-7.0534351145038165,-8.489839086914062,-1.1707646118164061,1.1707646118164061,12.625954198473282,7.877862595419847,-12.16793893129771,0.0
10.80000114440918,-11.473014355468749,0.9552864624023437,7.924807495117187,44.82442748091603,-34.6412213740458,-3.2977099236641223,-7.453149768066406,-0.6153098266601562,0.8307879760742187,11.541984732824428,5.633587786259542,-15.770992366412214,0.0
10.8100004196167,-12.732364428710937,4.240131140136718,9.866505041503906,43.41984732824427,-47.37404580152672,-1.450381679389313,-6.023811376953125,0.6679822631835937,0.814028564453125,-1.9389312977099236,11.145038167938932,-17.46564885496183,0.0
10.820000886917114,-13.639766857910155,6.121973645019531,10.769119067382812,14.793893129770993,-71.77099236641222,1.5877862595419847,-7.003039855957031,0.2537853759765625,-0.07422025146484375,-17.0381679389313,16.229007633587788,-13.17557251908397,0.0
10.830000400543213,-13.632584252929687,5.951985327148437,11.604695446777344,-9.755725190839694,-97.26717557251908,7.923664122137405,-7.520187414550781,-0.6464344482421874,-1.924938134765625,-10.412213740458014,17.862595419847327,-9.679389312977099,0.0
10.840000629425049,-13.074735266113281,2.3726538452148436,11.554417211914062,-9.923664122137405,-124.67175572519083,17.358778625954198,-4.024652990722656,-0.00718260498046875,-5.061342309570312,-2.1374045801526718,18.18320610687023,-10.091603053435115,0.0
10.850000858306885,-12.983755603027342,0.4740519287109375,12.152967626953124,-2.198473282442748,-145.4351145038168,23.938931297709924,-3.8235400512695312,2.1691467041015624,-6.9360022094726554,21.221374045801525,24.9618320610687,-5.541984732824427,0.0
10.860000371932983,-12.988544006347656,-0.9720458740234375,13.450624926757811,1.9236641221374047,-169.23664122137404,27.69465648854962,-2.4660277099609376,3.5889082885742187,-7.230489013671875,31.374045801526716,39.51145038167939,1.6793893129770991,0.0
10.87000036239624,-14.003685510253906,-0.28490999755859375,14.132972399902343,4.442748091603053,-198.1679389312977,29.404580152671755,-3.8474820678710935,4.505887524414062,-3.4069489624023435,18.65648854961832,51.770992366412216,11.068702290076336,0.0
10.880000352859497,-12.670115185546875,0.6536170532226562,11.180921752929686,-2.3969465648854964,-225.3740458015267,26.38167938931298,-10.714052429199219,0.8690952026367187,5.595249279785156,0.916030534351145,53.02290076335878,11.389312977099237,0.0
10.890000581741333,-12.603077539062499,-0.4285620971679687,10.441113439941406,7.358778625954199,-249.206106870229,20.946564885496183,-9.696516723632811,0.39264907226562495,6.110002636718749,-18.732824427480917,44.74809160305343,-1.633587786259542,0.0
10.90000057220459,-12.358868969726561,0.3950432739257812,6.885723974609375,35.954198473282446,-259.19083969465646,27.709923664122137,-10.505756884765624,1.2018892333984375,1.3263877197265623,-10.992366412213741,53.43511450381679,0.24427480916030533,0.0
10.910000801086426,-11.9135474609375,-1.9201497314453124,-0.7781155395507812,45.29770992366412,-259.7557251908397,33.83206106870229,-13.63019005126953,3.0693665283203124,1.8602946899414061,-4.183206106870229,48.70229007633588,-1.3587786259541985,0.0
10.920000553131104,-11.961431494140625,-5.729324572753906,-8.32463917236328,52.412213740458014,-248.94656488549617,31.984732824427482,-17.994819677734373,3.787627026367187,6.720524060058593,-29.480916030534353,45.6793893129771,-0.4580152671755725,0.0
10.93000078201294,-11.731588134765625,-7.273584643554687,-6.028599780273437,62.091603053435115,-230.793893129771,18.977099236641223,-17.144878088378906,3.5051112304687497,5.279214660644531,-64.06106870229007,30.015267175572518,-7.190839694656488,0.0
10.940000772476196,-12.828132495117186,-5.372588525390625,-7.285555651855469,82.73282442748092,-209.54198473282443,9.297709923664122,-7.256825231933593,4.446032482910156,2.4684219116210935,-108.59541984732824,21.923664122137403,1.5419847328244274,0.0
10.950000524520874,-12.81376728515625,2.114080065917969,-6.5768719604492185,67.92366412213741,-185.0229007633588,1.9083969465648856,-5.805939025878906,4.510675927734375,-0.3447650390625,-150.94656488549617,25.374045801526716,17.709923664122137,0.0
10.96000051498413,-14.020444921874999,7.237671618652343,-2.5905261962890624,53.51145038167939,-156.87022900763358,4.427480916030534,-6.7085530517578125,2.0638018310546875,-0.46686932373046874,-188.53435114503816,44.70229007633588,37.12977099236641,0.0
10.970000505447388,-13.038822241210937,5.45877978515625,-0.6272808349609375,44.80916030534351,-132.44274809160305,19.17557251908397,-3.564966271972656,-2.269703173828125,-4.714183068847656,-193.61832061068702,42.94656488549618,38.732824427480914,0.0
10.980000734329224,-13.59188282470703,3.9456443359374997,1.218648645019531,36.25954198473283,-109.6793893129771,28.290076335877863,-6.512228515625,-8.817844714355468,-6.198588098144531,-157.22137404580153,48.36641221374046,35.954198473282446,0.0
10.990000486373901,-11.307814440917968,1.3455413330078123,0.5961562133789062,31.00763358778626,-94.68702290076335,33.63358778625954,-8.307879760742187,-10.922347973632812,-7.105990527343749,-94.50381679389314,50.01526717557252,27.404580152671755,0.0
11.000000715255737,-10.692504614257812,0.6416460449218749,1.0941501586914062,22.519083969465647,-79.09923664122137,30.48854961832061,-12.655749975585938,-16.40028137207031,-6.76122548828125,-46.79389312977099,61.63358778625954,23.099236641221374,0.0
11.010000705718994,-11.130643518066405,1.4532804077148436,2.408566870117187,8.16793893129771,-70.70229007633588,25.603053435114504,-14.290989709472655,-14.03959853515625,-4.407725256347656,20.519083969465647,64.80916030534351,14.65648854961832,0.0
11.02000117301941,-10.196904870605469,0.1484405029296875,1.6160861206054686,0.2595419847328244,-67.64885496183206,26.702290076335878,-10.603919152832031,-7.635109094238281,-4.520252734375,79.77099236641222,52.06106870229008,7.00763358778626,0.0
11.030000925064087,-9.49300958251953,0.7134720947265625,2.6767174560546874,-2.0763358778625953,-57.099236641221374,25.389312977099237,-10.98699141845703,-2.806004345703125,-0.36391865234375,101.80152671755725,55.38931297709924,11.603053435114504,0.0
11.040001153945923,-9.804255798339844,0.6871358764648438,3.421314172363281,-21.236641221374047,-59.587786259541986,24.35114503816794,-10.702081420898438,-0.6871358764648438,-0.41898529052734373,130.1679389312977,47.16030534351145,10.213740458015268,0.0
11.05000114440918,-5.913678100585937,-1.8028338500976562,2.4779987182617185,-21.740458015267176,-63.51145038167939,26.900763358778626,-10.864887133789061,3.31357509765625,-0.8858546142578124,121.16030534351145,40.62595419847328,11.17557251908397,0.0
11.060001134872437,-5.353434912109375,-1.209071838378906,3.852270471191406,-24.48854961832061,-57.7557251908397,23.6793893129771,-9.399635717773437,7.225700610351562,-0.9552864624023437,93.48091603053435,37.099236641221374,15.267175572519085,0.0
11.070000886917114,-4.2497079467773435,-2.2744915771484373,3.287238879394531,-40.30534351145038,-62.44274809160305,19.419847328244273,-11.257536206054686,5.200206005859375,1.4796166259765624,76.85496183206106,42.51908396946565,22.946564885496183,0.0
11.080000638961792,-2.89219560546875,-4.120421057128906,3.105279553222656,-36.61068702290076,-57.37404580152672,15.206106870229007,-9.246406811523437,4.534617944335937,0.603338818359375,61.847328244274806,36.01526717557252,23.633587786259543,0.0
11.09000039100647,-2.50912333984375,-4.8314989501953125,3.0813375366210938,-22.885496183206108,-50.900763358778626,6.458015267175573,-10.271125122070313,3.8043864379882812,1.6903063720703124,40.732824427480914,37.17557251908397,26.229007633587788,0.0
11.100000619888306,-1.9728221679687499,-4.414907861328125,3.356670727539062,-7.358778625954199,-41.05343511450382,0.916030534351145,-9.744400756835937,2.5737667846679684,0.6967126831054687,27.69465648854962,35.343511450381676,23.801526717557252,0.0
11.110000610351562,-2.868253588867187,-2.9185318237304685,4.13718046875,5.740458015267175,-34.3206106870229,-7.374045801526718,-10.551246716308594,-0.6703764648437499,1.3335703247070312,14.091603053435115,37.786259541984734,25.129770992366414,0.0
11.12000060081482,-2.446874096679687,-2.231395947265625,4.201823913574218,25.16030534351145,-24.519083969465647,-11.068702290076336,-9.701305126953125,-1.2880804931640624,1.1109095703125,17.954198473282442,28.137404580152673,20.33587786259542,0.0
11.130000591278076,-3.5913024902343746,-0.699106884765625,4.582501977539062,38.35114503816794,-18.900763358778626,-15.419847328244275,-10.639832177734375,-3.383006945800781,0.9409212524414062,22.885496183206108,24.396946564885496,17.81679389312977,0.0
11.140000343322754,-5.413289953613281,2.8730419921875,5.468356591796875,44.0763358778626,-11.236641221374045,-17.00763358778626,-9.02135185546875,-3.5482068603515624,0.6344634399414062,35.3587786259542,12.259541984732824,13.34351145038168,0.0
11.15000057220459,-4.7884033203125,4.915296008300781,5.882553479003906,44.0,-6.6106870229007635,-12.992366412213741,-10.426748229980468,-1.5418658691406248,0.8882488159179687,38.12213740458015,8.748091603053435,8.977099236641221,0.0
11.160000562667847,-5.662286926269531,6.9360022094726554,5.774814404296874,31.770992366412212,-7.175572519083969,-5.893129770992366,-9.02135185546875,0.9744400756835937,0.6751648681640625,26.68702290076336,11.404580152671755,5.541984732824427,0.0
11.170000791549683,-6.866570361328125,8.552088330078124,6.291961962890625,1.4809160305343512,-13.84732824427481,-0.3969465648854962,-9.658209497070311,0.9026140258789062,1.4341267944335936,18.68702290076336,16.748091603053435,7.114503816793893,0.0
11.18000078201294,-6.849810949707031,6.883329772949218,6.687005236816406,-22.870229007633586,-16.946564885496183,8.534351145038167,-11.494562170410155,-2.8850130004882812,3.3255461059570313,16.610687022900763,17.49618320610687,10.732824427480915,0.0
11.190000772476196,-6.222530114746093,4.2880151733398435,6.385335827636719,-32.0,-19.541984732824428,12.381679389312977,-10.376469995117187,-0.9864110839843749,1.8435352783203125,28.12213740458015,9.083969465648854,8.16793893129771,0.0
11.200000524520874,-5.9783215454101555,3.5865140869140624,6.1818286865234375,-34.80916030534351,-18.16793893129771,13.404580152671755,-10.345345373535155,0.39743747558593745,1.3407529296874998,17.923664122137403,8.763358778625955,6.458015267175573,0.0
11.21000075340271,-4.936843823242187,3.9528269409179684,5.710170959472656,-42.42748091603053,-17.282442748091604,15.099236641221374,-10.63025537109375,0.7302315063476562,2.592920397949219,1.5267175572519085,20.68702290076336,11.129770992366412,0.0
11.220000505447388,-4.412513659667969,2.4061726684570313,5.178658190917968,-47.61832061068702,-13.34351145038168,18.213740458015266,-11.439495532226562,-1.1372457885742187,1.3814543579101561,5.679389312977099,16.33587786259542,13.236641221374045,0.0
11.230000495910645,-4.053383410644531,1.3263877197265623,4.390965844726562,-32.2442748091603,-0.9770992366412213,18.290076335877863,-11.6837041015625,-0.8116343627929687,1.4221557861328125,3.1908396946564888,15.236641221374045,14.67175572519084,0.0
11.240000247955322,-3.3494881225585935,1.7884686401367187,3.23696064453125,-21.14503816793893,11.86259541984733,19.206106870229007,-11.511321582031249,-0.4213794921875,-0.01915361328125,0.9770992366412213,12.732824427480915,12.778625954198473,0.0
11.250000476837158,-4.0988732421875,2.4349030883789062,3.1196447631835937,-18.931297709923665,28.916030534351144,19.31297709923664,-10.263942517089843,-0.34715924072265625,-0.34715924072265625,-4.625954198473282,12.80916030534351,12.610687022900763,0.0
11.260000705718994,-3.5769372802734374,2.6527754394531247,1.9895815795898437,-23.358778625954198,40.595419847328245,23.984732824427482,-10.678139404296875,0.6607996582031249,-0.5267243652343749,-7.603053435114504,11.83206106870229,12.83969465648855,0.0
11.270000696182251,-1.3910311645507811,-0.6823474731445313,0.016759411621093748,-19.14503816793893,63.7557251908397,29.51145038167939,-10.493785876464843,1.189918225097656,-0.8714894042968749,-13.114503816793894,12.106870229007633,13.022900763358779,0.0
11.280000925064087,-3.6655227416992187,-5.884947680664062,4.299986181640625,-13.206106870229007,79.26717557251908,23.16030534351145,-10.345345373535155,1.6304513305664061,-1.01514150390625,-22.213740458015266,13.19083969465649,12.442748091603054,0.0
11.290000915527344,-8.798691101074219,-10.527304699707031,16.270994482421873,39.19083969465649,80.16793893129771,19.740458015267176,-10.582371337890624,1.6112977172851561,-1.4413093994140624,-28.83969465648855,13.83206106870229,14.320610687022901,0.0
11.3000009059906,-12.337321154785155,-4.814739538574218,16.364368347167968,109.66412213740458,84.13740458015268,14.80916030534351,-11.360486877441405,0.8714894042968749,-1.9416975463867185,-34.97709923664122,13.633587786259541,18.793893129770993,0.0
11.310000658035278,-17.764976318359373,7.989450939941406,8.827421520996094,101.25190839694656,80.01526717557252,8.412213740458014,-11.745953344726562,-0.3806780639648437,-1.9105729248046874,-32.06106870229008,12.564885496183207,22.85496183206107,0.0
11.320000648498535,-16.35000313720703,8.104372619628906,1.8459294799804686,75.08396946564885,74.74809160305344,10.01526717557252,-11.386823095703125,-0.93852705078125,-1.7453730102539062,-30.82442748091603,12.763358778625955,24.12213740458015,0.0
11.330000638961792,-14.487314245605468,3.816357446289062,5.552153649902343,22.106870229007633,55.954198473282446,2.4732824427480917,-10.565611926269531,-0.55545478515625,-1.7836802368164062,-29.954198473282442,17.84732824427481,17.282442748091604,0.0
11.340000629425049,-11.470620153808593,2.032677209472656,6.081272216796875,-11.84732824427481,49.98473282442748,-1.4961832061068703,-13.520056774902343,-2.808398547363281,-0.3950432739257812,-24.80916030534351,22.244274809160306,16.137404580152673,0.0
11.350000858306885,-4.3813890380859375,-2.422932080078125,-0.5602431884765625,-13.48091603053435,45.083969465648856,-0.6412213740458015,-14.700398193359375,-1.0342951171875,-0.4213794921875,-10.748091603053435,13.938931297709924,10.854961832061068,0.0
11.360000371932983,-3.9169139160156248,-3.9145197143554684,0.06943184814453125,-0.5954198473282443,61.00763358778626,-8.061068702290076,-15.136142895507811,1.6711527587890624,-1.3120225097656248,-4.091603053435114,5.862595419847328,7.862595419847328,0.0
11.37000036239624,-6.112396838378906,-3.881000891113281,1.2378022583007813,14.748091603053435,72.4885496183206,-12.931297709923664,-15.705962890624999,2.4875755249023435,-0.9457096557617187,0.5190839694656488,3.404580152671756,8.213740458015268,0.0
11.380000591278076,-8.185775476074218,-3.3207577026367185,2.9855694702148434,30.732824427480917,81.74045801526718,-19.083969465648856,-14.841656091308593,3.4332851806640625,-1.0366893188476562,2.0763358778625953,-2.427480916030534,9.099236641221374,0.0
11.390000581741333,-9.655815295410155,-3.4428619873046875,2.300827795410156,49.908396946564885,86.77862595419847,-26.0,-13.347674255371093,3.4739866088867184,-0.814028564453125,0.015267175572519083,-4.793893129770993,10.961832061068701,0.0
11.40000057220459,-11.86805762939453,-1.369483349609375,3.1603461914062496,62.87022900763359,94.68702290076335,-34.94656488549618,-12.179303845214843,2.5809493896484375,-0.1580173095703125,-0.6717557251908397,-7.740458015267175,12.106870229007633,0.0
11.410000324249268,-10.675745202636719,0.6584054565429687,2.31758720703125,74.30534351145039,95.48091603053435,-37.83206106870229,-10.960655200195312,1.7501614135742187,0.59376201171875,0.12213740458015267,-12.15267175572519,12.412213740458014,0.0
11.420000791549683,-11.049240661621093,3.6056677001953124,2.2170307373046874,75.02290076335878,98.56488549618321,-38.595419847328245,-9.8449572265625,2.4564509033203126,0.6727706665039062,-5.923664122137405,-15.007633587786259,11.419847328244275,0.0
11.43000078201294,-10.390835205078124,6.179434484863281,1.0271125122070313,58.0763358778626,98.3206106870229,-35.908396946564885,-9.081206896972656,1.39821376953125,-0.44532150878906246,-13.236641221374045,-18.702290076335878,11.86259541984733,0.0
11.440000534057617,-9.871293444824218,6.68461103515625,1.6639701538085936,41.908396946564885,99.55725190839695,-31.328244274809162,-9.473855969238281,2.094926452636719,0.30885201416015623,-18.80916030534351,-20.717557251908396,10.748091603053435,0.0
11.450000762939453,-7.493851196289062,2.5522189697265625,0.12210428466796874,31.358778625954198,95.48091603053435,-25.72519083969466,-9.265560424804686,2.9831752685546875,0.2705447875976562,-37.80152671755725,-16.519083969465647,9.664122137404581,0.0
11.46000051498413,-8.164227661132813,1.8267758666992187,2.588131994628906,36.091603053435115,105.98473282442748,-26.18320610687023,-10.321403356933594,0.4285620971679687,-0.20350714111328125,-43.02290076335878,-19.557251908396946,8.534351145038167,0.0
11.470000505447388,-8.882488159179687,1.1348515869140625,2.602497204589844,37.847328244274806,105.80152671755725,-30.442748091603054,-10.874463940429687,-1.0462661254882812,0.03591302490234375,-34.62595419847328,-23.984732824427482,4.961832061068702,0.0
11.480000495910645,-8.52335791015625,1.0199299072265624,2.9496564453125,38.0,103.45038167938931,-29.114503816793892,-9.777919580078125,-2.020706201171875,-0.9169792358398436,-20.778625954198475,-38.29007633587786,-2.183206106870229,0.0
11.490000486373901,-8.231265307617187,0.8116343627929687,2.068590234375,41.64885496183206,102.19847328244275,-29.557251908396946,-10.029310754394531,-1.675941162109375,-0.16519991455078123,-2.946564885496183,-45.267175572519086,-7.038167938931298,0.0
11.500000476837158,-10.211270080566406,3.394977954101562,4.2688615600585935,45.57251908396947,105.96946564885496,-31.633587786259543,-8.353369592285155,-0.2561795776367187,-1.6998831787109374,5.114503816793893,-52.10687022900763,-12.305343511450381,0.0
11.510000467300415,-11.130643518066405,4.446032482910156,2.913743420410156,27.404580152671755,98.65648854961832,-32.42748091603053,-6.572083557128906,1.0103531005859374,-2.398990063476562,21.51145038167939,-67.49618320610686,-17.129770992366414,0.0
11.52000117301941,-11.121066711425781,5.422866760253906,3.2249896362304686,4.8396946564885495,91.23664122137404,-31.633587786259543,-6.8210805297851556,4.132392065429687,-3.517082238769531,-3.0229007633587788,-53.63358778625954,-17.022900763358777,0.0
11.530000686645508,-11.437101330566406,5.796362219238281,4.091690637207031,-35.038167938931295,80.61068702290076,-33.69465648854962,-8.805873706054687,2.916137622070312,-2.588131994628906,-6.442748091603053,-42.030534351145036,-11.389312977099237,0.0
11.540000915527344,-10.01733974609375,3.42849677734375,3.0502129150390624,-64.87022900763358,69.57251908396947,-35.282442748091604,-8.70771143798828,4.752490295410156,-2.607285607910156,-3.282442748091603,-43.41984732824427,-10.396946564885496,0.0
11.550000667572021,-8.796296899414061,1.1659762084960936,2.549824768066406,-65.37404580152672,65.20610687022901,-32.717557251908396,-7.070077502441406,6.552929943847656,-3.323151904296875,-27.083969465648856,-35.725190839694655,-8.396946564885496,0.0
11.560000896453857,-8.590395556640624,1.4413093994140624,2.588131994628906,-65.57251908396947,62.76335877862596,-30.83969465648855,-7.072471704101562,6.105214233398437,-2.6144682128906247,-41.343511450381676,-23.61832061068702,-2.2290076335877864,0.0
11.570000648498535,-9.181763366699219,1.9488801513671874,1.47482822265625,-60.717557251908396,61.86259541984733,-27.31297709923664,-8.688557824707031,2.942473840332031,-1.637633935546875,-45.404580152671755,-16.564885496183205,4.519083969465649,0.0
11.580000638961792,-7.752424975585937,-0.6368576416015624,0.9576806640625,-38.50381679389313,66.30534351145039,-22.778625954198475,-8.058882788085937,1.6735469604492186,-1.9895815795898437,-39.48091603053435,-15.969465648854962,3.801526717557252,0.0
11.590000867843628,-10.036493359375,1.898601916503906,1.9393033447265624,-16.931297709923665,69.41984732824427,-20.519083969465647,-8.29351455078125,0.10295067138671875,-1.5729904907226562,-29.099236641221374,-13.954198473282442,3.0381679389312977,0.0
11.600000619888306,-10.122684619140625,2.446874096679687,2.1164742675781247,-22.229007633587788,65.06870229007633,-20.412213740458014,-10.845733520507812,-2.379836450195312,-0.1197100830078125,-15.511450381679388,-12.030534351145038,4.473282442748092,0.0
11.610000610351562,-10.951078393554686,3.1316157714843746,2.731784094238281,-28.061068702290076,62.778625954198475,-19.572519083969464,-9.8449572265625,-1.5442600708007812,-0.699106884765625,0.1984732824427481,-22.35114503816794,-0.48854961832061067,0.0
11.62000060081482,-10.220846887207031,2.1643583007812497,2.27927998046875,-39.57251908396947,53.7557251908397,-18.30534351145038,-9.016563452148437,-0.05027823486328125,-0.7015010864257812,16.16793893129771,-30.9618320610687,-5.267175572519084,0.0
11.630000591278076,-11.578359228515625,2.157175695800781,3.5984850952148437,-36.79389312977099,54.94656488549618,-16.900763358778626,-8.382100012207031,3.1364041748046874,-1.8243816650390623,11.404580152671755,-34.732824427480914,-8.458015267175572,0.0
11.640000581741333,-10.314220751953124,3.2441432495117186,3.0142998901367184,-44.68702290076336,49.7557251908397,-15.84732824427481,-8.1594392578125,3.2728736694335936,-1.0223241088867188,-6.900763358778626,-27.770992366412212,-3.0381679389312977,0.0
11.65000057220459,-10.218452685546874,3.806780639648437,1.35990654296875,-67.37404580152672,40.30534351145038,-16.045801526717558,-10.105925207519531,1.158793603515625,0.5482721801757812,-4.259541984732825,-30.671755725190838,1.0076335877862594,0.0
11.660000562667847,-9.418789331054686,0.8738836059570312,0.5339069702148437,-54.229007633587784,40.29007633587786,-12.198473282442748,-9.014169250488282,1.8100164550781248,-0.5722141967773438,-6.091603053435114,-35.98473282442748,-5.893129770992366,0.0
11.670000791549683,-10.366893188476562,1.70467158203125,2.0781670410156248,-47.786259541984734,41.00763358778626,-10.381679389312977,-8.343792785644531,1.9416975463867185,-0.1771709228515625,-14.106870229007633,-29.954198473282442,-5.450381679389313,0.0
11.68000054359436,-9.749189160156249,2.0661960327148434,1.9297265380859374,-57.541984732824424,37.267175572519086,-9.801526717557252,-8.908824377441405,-0.6919242797851562,0.6631938598632812,-15.358778625954198,-32.01526717557252,-1.633587786259542,0.0
11.690000772476196,-10.182539660644531,1.656787548828125,1.0989385620117187,-57.343511450381676,33.587786259541986,-7.8320610687022905,-10.716446630859375,-1.6232687255859375,1.1468225952148436,2.366412213740458,-37.61832061068702,-5.083969465648855,0.0
11.700000524520874,-9.969455712890625,-0.26336218261718747,1.4413093994140624,-42.83969465648855,33.37404580152672,-5.129770992366412,-8.039729174804688,0.9433154541015625,-0.6703764648437499,0.8854961832061069,-40.87022900763359,-13.251908396946565,0.0
11.71000075340271,-10.82179150390625,1.6065093139648436,2.731784094238281,-47.87786259541985,29.69465648854962,-5.1603053435114505,-9.394847314453125,-0.45489831542968745,0.8212111694335937,-0.6564885496183206,-34.56488549618321,-8.50381679389313,0.0
11.720000267028809,-10.16338604736328,0.7589619262695312,1.5945383056640625,-60.56488549618321,23.557251908396946,-6.580152671755725,-10.333374365234375,-1.0821791503906248,0.9528922607421875,8.885496183206106,-42.44274809160305,-8.290076335877863,0.0
11.730000257492065,-10.182539660644531,-1.3048399047851562,1.608903515625,-36.50381679389313,26.519083969465647,-3.8625954198473282,-8.801085302734375,1.5538368774414062,0.679953271484375,16.946564885496183,-48.36641221374046,-15.633587786259541,0.0
11.740000486373901,-10.105925207519531,-0.9097966308593749,2.3223756103515623,-22.259541984732824,25.52671755725191,-5.114503816793893,-7.881711865234375,1.7693150268554687,0.9074024291992187,7.175572519083969,-41.038167938931295,-15.465648854961833,0.0
11.750000238418579,-10.75714805908203,1.120486376953125,2.114080065917969,-31.87786259541985,20.35114503816794,-7.297709923664122,-10.575188732910156,-0.5602431884765625,1.7788918334960937,13.450381679389313,-42.030534351145036,-10.381679389312977,0.0
11.760000467300415,-10.345345373535155,0.4572925170898437,0.8906430175781249,-21.541984732824428,19.34351145038168,-5.4961832061068705,-9.835380419921874,0.2657563842773437,0.59376201171875,19.450381679389313,-49.587786259541986,-14.412213740458014,0.0
11.770000696182251,-10.690110412597656,1.5203180541992187,1.2282254516601563,-16.732824427480917,18.641221374045802,-3.5267175572519083,-8.118737829589843,1.1324573852539062,0.0909796630859375,8.946564885496183,-45.00763358778626,-16.50381679389313,0.0
11.780000925064087,-10.108319409179687,2.4253262817382812,1.0797849487304687,-27.52671755725191,16.244274809160306,-0.6564885496183206,-10.292672937011718,-0.6727706665039062,1.2593500732421874,10.961832061068701,-42.74809160305343,-11.16030534351145,0.0
11.790000677108765,-10.120290417480469,3.1196447631835937,0.9528922607421875,-33.61832061068702,14.122137404580153,0.33587786259541985,-9.76116016845703,-0.7613561279296874,0.5003881469726562,19.083969465648856,-50.13740458015267,-13.969465648854962,0.0
11.800001382827759,-8.497021691894531,0.16519991455078123,-0.10773907470703124,-19.450381679389313,14.122137404580153,5.541984732824427,-8.166621862792969,1.5346832641601562,-0.7613561279296874,11.404580152671755,-48.10687022900763,-17.938931297709924,0.0
11.810001134872437,-9.993397729492187,3.1603461914062496,2.7150246826171873,-18.83969465648855,18.106870229007633,7.1603053435114505,-10.457872851562499,-0.3711012573242187,0.48123453369140623,13.251908396946565,-39.32824427480916,-11.709923664122137,0.0
11.820001125335693,-9.421183532714844,2.1164742675781247,1.9416975463867185,-32.01526717557252,12.335877862595419,5.709923664122138,-11.164162341308593,-0.9313444458007812,0.45010991210937495,23.69465648854962,-43.61832061068702,-12.732824427480915,0.0
11.830000638961792,-9.287108239746093,0.6057330200195312,2.1116858642578125,-24.900763358778626,11.603053435114504,7.587786259541985,-8.583212951660157,1.2401964599609374,-0.3687070556640625,28.580152671755727,-47.404580152671755,-17.954198473282442,0.0
11.840000629425049,-9.402029919433593,-0.1771709228515625,2.5737667846679684,-19.389312977099237,11.572519083969466,6.259541984732825,-8.738836059570312,2.626439221191406,-0.15083470458984374,16.16793893129771,-34.717557251908396,-15.206106870229007,0.0
11.850000619888306,-9.270348828125,-0.296881005859375,2.2864625854492187,-22.458015267175572,11.129770992366412,5.145038167938932,-8.473079675292968,2.971204260253906,-0.6631938598632812,3.3435114503816794,-32.62595419847328,-13.465648854961833,0.0
11.860000848770142,-9.612719665527344,1.7812860351562498,2.319981408691406,-20.99236641221374,10.01526717557252,2.030534351145038,-10.615890161132812,0.4644751220703125,0.7326257080078125,3.8473282442748094,-23.786259541984734,-10.595419847328245,0.0
11.87000060081482,-10.532093103027343,0.5027823486328125,1.5275006591796874,-32.30534351145038,6.213740458015267,-0.9465648854961832,-10.129867224121092,0.679953271484375,0.6967126831054687,7.66412213740458,-24.35114503816794,-13.068702290076336,0.0
11.880000591278076,-9.753977563476562,-1.1468225952148436,0.8762778076171874,-21.984732824427482,5.893129770992366,1.5572519083969465,-11.631031665039062,0.0,1.13006318359375,17.282442748091604,-23.389312977099237,-13.038167938931299,0.0
11.890000581741333,-8.738836059570312,-2.786850732421875,0.3112462158203125,-5.740458015267175,8.15267175572519,0.2748091603053435,-10.103531005859374,1.0726023437499999,1.0486603271484374,25.61832061068702,-30.061068702290076,-16.12213740458015,0.0
11.90000057220459,-9.519345800781249,-0.6248866333007812,0.6823474731445313,10.122137404580153,12.885496183206106,-4.320610687022901,-9.09796630859375,2.3295582153320313,0.16280571289062498,21.61832061068702,-30.946564885496183,-17.908396946564885,0.0
11.910000801086426,-10.402806213378906,1.6448165405273436,0.8283937744140625,14.274809160305344,14.442748091603054,-7.9541984732824424,-9.050082275390624,3.986345764160156,0.5027823486328125,7.816793893129771,-21.786259541984734,-15.526717557251908,0.0
11.920000314712524,-9.828197814941406,2.77727392578125,0.7302315063476562,-2.6106870229007635,10.946564885496183,-7.770992366412214,-10.17056865234375,3.1794998046874996,1.39821376953125,-14.931297709923664,-9.893129770992367,-10.564885496183207,0.0
11.93000078201294,-8.877699755859375,1.5538368774414062,0.6847416748046875,-11.221374045801527,9.755725190839694,-5.755725190839694,-10.740388647460938,2.001552587890625,0.8403647827148437,-16.33587786259542,-13.099236641221374,-9.679389312977099,0.0
11.940000295639038,-8.90643017578125,-0.70868369140625,-0.22026655273437498,-5.435114503816794,8.381679389312977,-4.137404580152672,-9.928754284667969,1.5945383056640625,1.2401964599609374,-18.30534351145038,-7.374045801526718,-11.099236641221374,0.0
11.950001001358032,-9.794678991699218,0.009576806640625,0.22744915771484372,1.1297709923664123,9.740458015267176,-3.877862595419847,-9.861716638183593,1.1180921752929687,1.01514150390625,-19.068702290076335,-8.748091603053435,-9.954198473282442,0.0
11.96000051498413,-10.627861169433594,2.384624853515625,0.47644613037109373,-2.9770992366412212,10.16793893129771,-5.801526717557252,-9.138667736816405,1.0654197387695312,1.2832920898437499,-17.862595419847327,-7.267175572519084,-8.900763358778626,0.0
11.970000505447388,-9.696516723632811,1.3455413330078123,0.1867477294921875,-1.8015267175572518,13.32824427480916,-4.137404580152672,-8.808267907714843,1.9847931762695312,1.6615759521484375,-21.31297709923664,-7.984732824427481,-7.221374045801527,0.0
11.980000495910645,-9.509768994140625,1.5346832641601562,0.11013327636718749,-12.122137404580153,11.022900763358779,-3.648854961832061,-8.70771143798828,1.62805712890625,1.3455413330078123,-24.16793893129771,-6.900763358778626,-5.435114503816794,0.0
11.990000486373901,-10.733206042480468,2.9281086303710935,0.8906430175781249,-14.641221374045802,12.50381679389313,-4.67175572519084,-8.729259252929687,1.467645617675781,1.599326708984375,-30.47328244274809,-5.847328244274809,-4.2748091603053435,0.0
12.000000715255737,-9.41639512939453,1.6328455322265625,-0.10295067138671875,-29.801526717557252,8.396946564885496,-2.519083969465649,-9.105148913574219,0.8475473876953125,1.4604630126953124,-30.229007633587788,-5.526717557251908,-4.290076335877862,0.0
12.010000467300415,-9.119514123535156,0.6871358764648438,-0.02633621826171875,-26.061068702290076,11.816793893129772,-0.21374045801526717,-8.777143286132812,0.4333505004882812,1.43652099609375,-33.11450381679389,-5.923664122137405,-3.969465648854962,0.0
12.02000117301941,-8.856151940917968,-0.1580173095703125,0.14604630126953125,-28.12213740458015,13.404580152671755,-1.2366412213740459,-9.121908325195312,-0.36631285400390623,1.388636962890625,-28.48854961832061,-5.938931297709924,-3.4656488549618323,0.0
12.030000686645508,-9.526528405761718,0.3687070556640625,0.20350714111328125,-31.31297709923664,14.106870229007633,-3.83206106870229,-8.772354882812499,-0.34715924072265625,1.697488977050781,-25.00763358778626,-5.679389312977099,-3.2977099236641223,0.0
12.040000915527344,-9.425971936035156,-0.0526724365234375,-0.03591302490234375,-30.83969465648855,14.870229007633588,-3.816793893129771,-8.757989672851561,-0.4381389038085937,1.944091748046875,-21.221374045801525,-6.641221374045801,-2.9923664122137406,0.0
12.050000667572021,-8.113949426269532,-2.6479870361328124,-0.5770026000976562,-17.862595419847327,18.85496183206107,-2.8702290076335877,-8.037334973144532,-0.1149216796875,1.8435352783203125,-18.33587786259542,-6.549618320610687,-4.030534351145038,0.0
12.060001134872437,-8.942343200683593,-1.6160861206054686,0.8930372192382812,-6.870229007633588,26.396946564885496,-7.969465648854962,-8.851363537597656,-1.0127473022460938,1.8195932617187498,-12.702290076335878,-5.099236641221374,-4.122137404580153,0.0
12.070101737976074,-9.81862100830078,-0.27293898925781246,0.430956298828125,2.900763358778626,28.12213740458015,-11.49618320610687,-8.463502868652343,-0.6584054565429687,1.4724340209960938,-8.564885496183207,-4.015267175572519,-5.526717557251908,0.0
12.080000400543213,-9.878476049804688,0.07422025146484375,0.16759411621093748,4.67175572519084,30.946564885496183,-11.877862595419847,-8.88009395751953,-0.8667010009765624,1.5682020874023437,-2.6564885496183206,-3.3282442748091605,-5.312977099236641,0.0
12.090002059936523,-10.168174450683592,0.9145850341796874,0.11013327636718749,3.5572519083969465,31.46564885496183,-13.114503816793894,-9.038111267089842,-0.8092401611328125,1.0965443603515623,2.381679389312977,-2.2900763358778624,-5.816793893129771,0.0
12.100000858306885,-10.24000050048828,0.7254431030273437,0.1771709228515625,-0.9770992366412213,31.17557251908397,-12.16793893129771,-8.923189587402343,-0.6871358764648438,1.0941501586914062,5.816793893129771,-0.7938931297709924,-5.908396946564886,0.0
12.11000108718872,-10.141838232421874,1.1037269653320312,0.13407529296874998,-4.8396946564885495,29.52671755725191,-12.305343511450381,-8.765172277832031,-0.3806780639648437,0.9074024291992187,6.015267175572519,1.1450381679389312,-6.549618320610687,0.0
12.120001077651978,-9.667786303710937,0.47644613037109373,0.009576806640625,-6.656488549618321,28.259541984732824,-11.557251908396946,-9.023746057128905,-0.354341845703125,0.8547299926757812,7.984732824427481,3.435114503816794,-7.206106870229007,0.0
12.13000202178955,-10.857704528808593,0.45489831542968745,1.43652099609375,-4.030534351145038,27.66412213740458,-12.396946564885496,-9.05965908203125,-0.6967126831054687,1.0606313354492187,7.7251908396946565,6.33587786259542,-8.076335877862595,0.0
12.140000581741333,-9.141061938476563,-0.05746083984375,1.2234370483398436,2.9160305343511452,23.6793893129771,-11.358778625954198,-9.150638745117186,-0.7134720947265625,0.9816226806640624,10.351145038167939,8.549618320610687,-9.251908396946565,0.0
12.150001287460327,-11.262324609375,0.33518823242187495,2.6384102294921874,5.923664122137405,23.17557251908397,-12.610687022900763,-9.057264880371093,-1.1109095703125,0.8020575561523438,15.34351145038168,10.763358778625955,-10.900763358778626,0.0
12.160001039505005,-10.036493359375,0.19393033447265623,2.4205378784179685,13.816793893129772,16.244274809160306,-11.923664122137405,-9.512163195800781,-0.7398083129882812,1.5275006591796874,20.595419847328245,11.435114503816793,-12.320610687022901,0.0
12.17000126838684,-10.036493359375,-0.033518823242187495,3.0693665283203124,16.0,10.290076335877863,-11.725190839694656,-8.973467822265624,-0.3016694091796875,1.24498486328125,20.748091603053435,11.954198473282442,-14.50381679389313,0.0
12.180001020431519,-11.437101330566406,1.944091748046875,4.685452648925781,5.801526717557252,-0.4580152671755725,-13.450381679389313,-9.045293872070312,0.23702596435546874,1.0869675537109373,18.229007633587788,13.587786259541986,-15.068702290076336,0.0
12.190001249313354,-10.522516296386717,-0.34237083740234375,4.69263525390625,14.366412213740459,-9.755725190839694,-11.083969465648854,-8.602366564941406,0.4860229370117187,1.6998831787109374,9.206106870229007,20.50381679389313,-14.106870229007633,0.0
12.200000762939453,-10.319009155273436,-0.9840168823242187,6.272808349609375,25.603053435114504,-15.572519083969466,-10.854961832061068,-8.336610180664062,0.55545478515625,0.4525041137695312,11.251908396946565,15.893129770992367,-15.267175572519085,0.0
12.210001230239868,-10.89122335205078,-0.9744400756835937,6.653486413574218,42.61068702290076,-24.045801526717558,-15.022900763358779,-8.827421520996094,-0.565031591796875,0.6368576416015624,13.740458015267176,22.18320610687023,-13.19083969465649,0.0
12.220000743865967,-10.826579907226561,-0.9504980590820312,7.637503295898437,49.221374045801525,-33.25190839694657,-16.396946564885496,-7.884106066894531,-0.9337386474609375,0.36631285400390623,15.618320610687023,23.709923664122137,-12.412213740458014,0.0
12.230000972747803,-12.713210815429687,2.446874096679687,8.89924757080078,34.19847328244275,-54.42748091603053,-17.52671755725191,-6.294356164550781,-0.201112939453125,-0.928950244140625,20.519083969465647,20.732824427480917,-13.938931297709924,0.0
12.24000072479248,-13.953407275390624,3.303998291015625,9.811438403320311,16.732824427480917,-76.04580152671755,-15.572519083969466,-5.358223315429687,0.10295067138671875,-1.0726023437499999,16.061068702290076,26.30534351145038,-12.946564885496183,0.0
12.250000953674316,-13.000515014648437,2.6719290527343746,10.299855541992187,-1.7557251908396947,-100.6412213740458,-9.694656488549619,-5.820304235839844,1.448492004394531,-1.7022773803710936,16.061068702290076,29.221374045801525,-10.900763358778626,0.0
12.260001420974731,-12.38520518798828,0.9696516723632812,9.952696301269532,-13.938931297709924,-123.31297709923665,-6.549618320610687,-4.7884033203125,2.592920397949219,-2.109291662597656,12.961832061068701,36.732824427480914,-9.511450381679388,0.0
12.27000117301941,-11.808202587890625,0.4572925170898437,10.345345373535155,-15.465648854961833,-140.87022900763358,-5.511450381679389,-5.834669445800781,2.2026655273437497,0.12449848632812499,-10.473282442748092,44.67175572519084,-7.221374045801527,0.0
12.280001163482666,-10.467449658203124,-2.4205378784179685,8.214505895996094,-18.0,-159.74045801526717,-7.541984732824427,-11.312602844238281,-2.7246014892578123,4.651933825683593,-15.16030534351145,42.54961832061068,-8.259541984732824,0.0
12.290001153945923,-11.439495532226562,-3.749319799804687,8.307879760742187,-6.961832061068702,-174.8854961832061,-17.00763358778626,-10.287884533691406,-1.448492004394531,4.754884497070313,-1.9541984732824427,28.458015267175572,-15.251908396946565,0.0
12.30000114440918,-13.503297363281249,-4.568136767578125,8.458714465332031,9.893129770992367,-190.0763358778626,-24.061068702290076,-10.46984385986328,4.438849877929687,4.1946413085937495,5.847328244274809,25.633587786259543,-14.961832061068701,0.0
12.310000896453857,-16.249446667480466,-3.3877953491210935,10.805032092285156,33.52671755725191,-198.2290076335878,-22.763358778625953,-13.754688537597655,7.472303381347656,5.868188269042968,4.900763358778626,19.083969465648856,-5.022900763358779,0.0
12.320001363754272,-16.651672546386717,-4.383783239746093,11.731588134765625,87.6030534351145,-205.05343511450383,-12.870229007633588,-17.702727075195313,4.680664245605469,8.20971749267578,-17.083969465648856,11.129770992366412,0.12213740458015267,0.0
12.330000877380371,-17.240646154785153,-0.9600748657226562,6.086060620117187,126.65648854961832,-205.23664122137404,-3.786259541984733,-13.213598962402344,2.5570073730468748,3.6631285400390623,-51.61832061068702,-4.687022900763359,-7.816793893129771,0.0
12.340001106262207,-17.120936071777344,3.7900212280273435,-0.6751648681640625,116.2442748091603,-205.98473282442748,-1.0381679389312977,-12.50012686767578,5.360617517089843,11.805808386230469,-97.92366412213741,41.3587786259542,-6.213740458015267,0.0
12.350000619888306,-16.23508145751953,3.9240965209960934,-3.162740393066406,39.038167938931295,-209.57251908396947,7.480916030534351,-4.034229797363281,6.021417175292968,-1.5083470458984374,-173.23664122137404,43.23664122137404,6.305343511450381,0.0
12.360000610351562,-16.191985827636717,1.7932570434570312,-3.411737365722656,34.06106870229008,-198.25954198473283,19.419847328244273,-6.076483813476562,1.1923124267578125,-2.8610709838867185,-221.14503816793894,67.69465648854961,20.65648854961832,0.0
12.37000036239624,-12.220005273437499,-4.647145422363281,-6.816292126464844,50.534351145038165,-178.5801526717557,26.18320610687023,-10.319009155273436,-6.119579443359375,-1.8650830932617186,-201.49618320610688,74.90076335877863,25.72519083969466,0.0
12.380000352859497,-11.21683477783203,-3.9169139160156248,-7.247248425292969,63.38931297709924,-160.38167938931298,14.763358778625955,-13.517662573242188,-14.429853405761717,-1.7956512451171873,-124.68702290076335,65.20610687022901,24.671755725190838,0.0
12.39000129699707,-10.977414611816405,-1.93451494140625,-5.774814404296874,72.93129770992367,-139.40458015267177,8.946564885496183,-11.86805762939453,-14.393940380859375,-1.3311761230468748,-33.37404580152672,53.221374045801525,17.51145038167939,0.0
12.400001049041748,-11.133037719726563,0.277727392578125,-3.7038299682617186,71.2824427480916,-118.29007633587786,7.190839694656488,-10.941501586914061,-10.527304699707031,-3.3590649291992185,30.259541984732824,45.81679389312977,9.679389312977099,0.0
12.410001277923584,-12.746729638671875,3.019088293457031,-1.0271125122070313,56.97709923664122,-103.48091603053435,10.198473282442748,-12.19366905517578,-7.948749511718749,-3.5721488769531247,82.97709923664122,37.465648854961835,10.13740458015267,0.0
12.420001029968262,-12.753912243652342,3.323151904296875,0.8379705810546875,53.49618320610687,-91.58778625954199,22.580152671755727,-11.748347546386718,-4.8314989501953125,-4.927267016601562,112.9618320610687,29.099236641221374,8.244274809160306,0.0
12.43000078201294,-10.644620581054687,3.6559459350585937,1.4125789794921875,44.93129770992366,-84.10687022900764,30.977099236641223,-11.793837377929687,0.18914193115234373,-3.7804444213867185,115.0381679389313,27.49618320610687,3.0381679389312977,0.0
12.440001010894775,-10.194510668945313,4.651933825683593,1.6232687255859375,14.473282442748092,-81.54198473282443,32.13740458015267,-11.465831750488281,2.29843359375,-1.6112977172851561,104.51908396946565,32.091603053435115,5.038167938931298,0.0
12.450001239776611,-7.900865478515625,1.838746875,0.5410895751953124,-12.702290076335878,-80.82442748091603,35.74045801526717,-12.993332409667968,2.214636535644531,-1.66636435546875,99.48091603053435,35.41984732824427,10.549618320610687,0.0
12.460000991821289,-7.283161450195312,0.21787235107421873,0.32561142578124996,-27.893129770992367,-74.16793893129771,31.66412213740458,-11.860875024414062,3.1555577880859373,-0.8714894042968749,93.81679389312977,32.3206106870229,15.389312977099237,0.0
12.470000982284546,-4.690241052246093,-3.411737365722656,-0.4477157104492187,-28.091603053435115,-67.93893129770993,27.358778625954198,-12.310984936523436,3.8235400512695312,-0.076614453125,91.90839694656489,33.06870229007634,20.198473282442748,0.0
12.480000495910645,-3.660734338378906,-4.031835595703125,-0.10295067138671875,-16.137404580152673,-51.43511450381679,17.72519083969466,-10.627861169433594,4.141968872070312,-1.0007762939453124,76.06106870229007,33.11450381679389,22.259541984732824,0.0
12.49000096321106,-4.264073156738281,-2.6719290527343746,-0.2561795776367187,-8.473282442748092,-39.49618320610687,11.48091603053435,-10.532093103027343,3.6487633300781246,-0.6248866333007812,63.603053435114504,34.74809160305343,22.595419847328245,0.0
12.500000715255737,-4.000710974121094,-2.032677209472656,0.7158662963867187,-2.5343511450381677,-22.198473282442748,10.0,-10.146626635742187,3.7924154296875,-1.5418658691406248,46.10687022900763,33.847328244274806,19.541984732824428,0.0
12.510001182556152,-3.4859576171874997,-1.407790576171875,1.1180921752929687,-1.9694656488549618,-8.458015267175572,6.625954198473282,-9.064447485351561,3.3542765258789062,-0.3447650390625,26.870229007633586,38.67175572519084,19.0381679389313,0.0
12.520001411437988,-3.373430139160156,-2.1068974609374997,1.5777788940429687,-0.0916030534351145,4.305343511450381,3.4656488549618323,-10.204087475585936,1.0223241088867188,-0.42377369384765623,27.87786259541985,31.87786259541985,19.603053435114504,0.0
12.530000686645508,-4.347870214843749,-1.0319009155273438,2.9089550170898435,-3.5267175572519083,11.770992366412214,-5.770992366412214,-12.373234179687499,-1.149216796875,0.6943184814453125,30.870229007633586,31.099236641221374,21.480916030534353,0.0
12.540001392364502,-5.204994409179688,1.2521674682617188,3.6200329101562496,-13.129770992366412,13.511450381679388,-11.022900763358779,-9.804255798339844,0.9792284790039062,0.49320554199218747,15.389312977099237,28.396946564885496,19.557251908396946,0.0
12.55000114440918,-4.319139794921875,1.5107412475585937,3.5003228271484375,-11.206106870229007,18.213740458015266,-7.267175572519084,-11.468225952148437,-0.6416460449218749,1.2976572998046874,13.129770992366412,25.61832061068702,20.366412213740457,0.0
12.560000896453857,-6.045359191894531,2.935291235351562,4.575319372558593,-12.030534351145038,19.450381679389313,-5.236641221374046,-9.545682019042967,-2.8131869506835936,0.7350199096679687,23.435114503816795,11.694656488549619,17.61832061068702,0.0
12.570001125335693,-5.647921716308593,2.5953145996093747,4.398148449707031,1.9541984732824427,24.03053435114504,3.450381679389313,-11.784260571289062,-2.308010400390625,2.2266075439453124,29.31297709923664,9.740458015267176,16.27480916030534,0.0
12.580000638961792,-5.561730456542969,2.6719290527343746,5.0014872680664055,2.8702290076335877,25.66412213740458,9.16030534351145,-9.624690673828125,0.9241618408203125,0.9504980590820312,29.49618320610687,4.33587786259542,10.702290076335878,0.0
12.590001106262207,-5.837063647460937,3.9647979492187497,5.590460876464843,-3.7251908396946565,27.557251908396946,11.32824427480916,-9.955090502929687,-0.16759411621093748,1.0797849487304687,13.099236641221374,10.091603053435115,13.32824427480916,0.0
12.600001096725464,-6.066907006835937,4.259284753417968,6.093243225097656,-22.290076335877863,24.16793893129771,14.13740458015267,-9.165003955078124,-1.2832920898437499,1.8100164550781248,8.488549618320612,6.5038167938931295,14.076335877862595,0.0
12.61000108718872,-6.1650692749023435,3.603273498535156,6.133944653320312,-26.27480916030534,23.49618320610687,16.931297709923665,-10.204087475585936,-1.2306196533203124,2.7341782958984373,20.091603053435115,3.114503816793893,14.091603053435115,0.0
12.620001077651978,-5.643133312988281,3.4811692138671875,5.209782812499999,-28.106870229007633,23.221374045801525,20.259541984732824,-8.595183959960938,0.833182177734375,0.7924807495117187,19.374045801526716,-3.4656488549618323,8.458015267175572,0.0
12.630001306533813,-4.7022120605468745,3.0885201416015624,4.244919543457031,-31.419847328244273,26.580152671755727,23.236641221374047,-8.224082702636718,1.0773907470703123,0.45489831542968745,-0.42748091603053434,0.7633587786259542,8.13740458015267,0.0
12.640000820159912,-5.760449194335937,3.593696691894531,5.331887097167969,-36.83969465648855,34.091603053435115,23.908396946564885,-8.82981572265625,2.0566192260742184,0.8307879760742187,-11.022900763358779,8.717557251908397,10.564885496183207,0.0
12.650001049041748,-4.651933825683593,3.4763808105468748,3.181894006347656,-42.85496183206107,34.88549618320611,29.87786259541985,-10.412383020019531,1.2497732666015624,0.5123591552734374,-17.404580152671755,11.587786259541986,15.725190839694656,0.0
12.660000801086426,-2.7964275390625,1.149216796875,0.0143652099609375,-45.89312977099237,44.045801526717554,34.732824427480914,-9.773131176757811,1.024718310546875,-0.5291185668945312,-26.519083969465647,9.618320610687023,16.580152671755727,0.0
12.670001029968262,-2.0757728393554684,-4.278438366699218,-1.0390835205078124,-38.88549618320611,62.045801526717554,33.43511450381679,-9.188945971679686,1.6328455322265625,-0.5985504150390625,-22.12213740458015,8.366412213740459,15.068702290076336,0.0
12.68000078201294,-4.898536596679687,-6.639121203613281,3.31357509765625,-17.16030534351145,72.61068702290076,23.66412213740458,-10.196904870605469,0.9002198242187499,-0.4740519287109375,-23.297709923664122,6.717557251908397,15.725190839694656,0.0
12.690000772476196,-10.374075793457031,-6.481103894042969,12.152967626953124,30.793893129770993,75.6030534351145,21.419847328244273,-10.407594616699217,0.9145850341796874,-0.6296750366210937,-24.900763358778626,7.480916030534351,17.984732824427482,0.0
12.700000286102295,-14.149731811523436,-2.1643583007812497,15.804125158691406,93.19083969465649,74.59541984732824,21.740458015267176,-11.164162341308593,-0.1197100830078125,-1.4987702392578124,-28.778625954198475,6.824427480916031,20.519083969465647,0.0
12.71000075340271,-15.782577343749999,4.685452648925781,10.599130749511717,92.9618320610687,67.72519083969466,16.671755725190838,-11.908759057617187,-0.8475473876953125,-0.93852705078125,-31.267175572519083,15.465648854961833,23.34351145038168,0.0
12.720000743865967,-11.860875024414062,1.5298948608398437,2.1164742675781247,51.603053435114504,50.10687022900763,17.267175572519083,-10.740388647460938,-2.5522189697265625,-1.8363526733398436,-26.65648854961832,14.51908396946565,20.137404580152673,0.0
12.730000495910645,-14.027627526855468,-0.28969840087890625,4.5968671875,28.38167938931298,50.61068702290076,6.580152671755725,-11.257536206054686,-2.3822306518554686,-0.8092401611328125,-6.244274809160306,17.87786259541985,18.045801526717558,0.0
12.74000072479248,-11.219228979492186,0.4381389038085937,2.863465185546875,20.916030534351144,46.656488549618324,5.038167938931298,-10.105925207519531,0.6296750366210937,-1.5705962890624998,-9.282442748091603,25.022900763358777,14.305343511450381,0.0
12.750000715255737,-5.439626171875,-0.411802685546875,-1.8052280517578123,6.0,44.33587786259542,4.0458015267175576,-10.632649572753905,1.8148048583984373,-0.8188169677734375,-16.85496183206107,33.19083969465649,17.374045801526716,0.0
12.760000705718994,-5.667075329589843,-1.5753846923828123,0.12449848632812499,3.053435114503817,59.49618320610687,-2.3206106870229006,-12.598289135742187,-0.6775590698242188,0.35194764404296874,-4.519083969465649,35.770992366412216,20.38167938931298,0.0
12.77000093460083,-4.9823336547851556,-6.373364819335937,-1.1276689819335937,28.03053435114504,68.79389312977099,-5.022900763358779,-11.899182250976562,-0.6081272216796875,-0.6847416748046875,10.992366412213741,26.748091603053435,15.816793893129772,0.0
12.780000925064087,-7.996633544921875,-4.151545678710937,0.8212111694335937,65.31297709923665,86.82442748091603,-11.526717557251908,-10.311826550292968,1.8555062866210936,-2.492363928222656,6.213740458015267,20.244274809160306,13.236641221374045,0.0
12.790000915527344,-11.341333264160156,2.398990063476562,2.480392919921875,68.13740458015268,89.64885496183206,-20.53435114503817,-9.512163195800781,2.779668127441406,-1.9967641845703124,-4.717557251908397,23.099236641221374,17.61832061068702,0.0
12.8000009059906,-13.350068457031249,6.461950280761719,2.6216508178710938,44.18320610687023,84.65648854961832,-18.30534351145038,-10.862492932128905,1.3024457031249999,-0.8212111694335937,-4.351145038167939,23.450381679389313,24.48854961832061,0.0
12.810000896453857,-12.332532751464843,3.593696691894531,0.181959326171875,32.88549618320611,82.16793893129771,-9.389312977099237,-10.929530578613281,0.3016694091796875,-1.0486603271484374,-0.030534351145038167,10.717557251908397,21.52671755725191,0.0
12.820001125335693,-12.504915270996094,2.559401574707031,2.6240450195312497,30.977099236641223,87.26717557251908,-6.595419847328245,-10.967837805175781,0.15083470458984374,-0.6655880615234374,3.2061068702290076,6.427480916030534,19.389312977099237,0.0
12.830000638961792,-10.378864196777343,2.4349030883789062,1.8124106567382812,17.64885496183206,85.1145038167939,-6.030534351145038,-8.94473740234375,2.2649147705078123,-0.3758896606445312,-1.7709923664122138,2.9923664122137406,16.30534351145038,0.0
12.840000629425049,-10.809820495605468,4.410119458007812,2.1739351074218747,6.259541984732825,86.30534351145039,-5.572519083969466,-8.98304462890625,2.1787235107421874,-0.277727392578125,-11.86259541984733,1.1297709923664123,18.15267175572519,0.0
12.850000619888306,-7.048529687499999,0.20829554443359374,-0.7757213378906249,3.7557251908396947,85.96946564885496,-1.3587786259541985,-9.217676391601563,2.1308394775390624,0.15083470458984374,-18.290076335877863,-1.2213740458015268,20.106870229007633,0.0
12.860000610351562,-8.2360537109375,-0.0047884033203125,1.3120225097656248,28.0,103.17557251908397,-1.450381679389313,-9.380482104492186,1.419761584472656,0.411802685546875,-23.938931297709924,-5.1603053435114505,19.49618320610687,0.0
12.87000060081482,-9.291896643066405,0.6536170532226562,1.1516109985351561,30.977099236641223,104.79389312977099,-5.9541984732824424,-9.686939916992188,0.9193734375,0.5626373901367188,-26.15267175572519,-9.679389312977099,16.366412213740457,0.0
12.880000591278076,-8.923189587402343,2.5043349365234375,1.7525556152343749,29.6793893129771,104.97709923664122,-4.885496183206107,-9.437942944335937,1.2401964599609374,0.6416460449218749,-32.396946564885496,-16.106870229007633,13.17557251908397,0.0
12.890000581741333,-8.985438830566405,1.0271125122070313,1.0845733520507812,21.068702290076335,102.90076335877863,-4.0,-9.10993731689453,0.8499415893554687,0.20350714111328125,-38.33587786259542,-20.213740458015266,9.679389312977099,0.0
12.90000033378601,-10.491391674804687,2.403778466796875,3.5889082885742187,23.221374045801525,102.91603053435115,-3.0229007633587788,-10.364498986816406,-0.9792284790039062,1.3024457031249999,-36.045801526717554,-23.17557251908397,8.595419847328245,0.0
12.910001039505005,-10.675745202636719,1.9488801513671874,2.5617957763671875,8.916030534351146,94.45801526717557,-6.030534351145038,-8.743624462890624,1.2832920898437499,-0.5123591552734374,-36.42748091603053,-35.05343511450382,1.0229007633587786,0.0
12.920000791549683,-11.508927380371093,3.1387983764648437,3.907337109375,-16.549618320610687,81.17557251908397,-8.473282442748092,-8.389282617187499,0.8714894042968749,-0.7589619262695312,-44.87022900763359,-35.83206106870229,-0.10687022900763359,0.0
12.930001020431519,-10.43153663330078,2.29843359375,3.0550013183593747,-41.11450381679389,65.81679389312977,-11.557251908396946,-9.70369932861328,0.7015010864257812,-0.16519991455078123,-43.80152671755725,-31.221374045801525,0.9770992366412213,0.0
12.940000772476196,-9.624690673828125,0.41419688720703124,2.6695348510742187,-54.82442748091603,56.213740458015266,-13.450381679389313,-8.765172277832031,1.0366893188476562,-2.243366955566406,-44.10687022900763,-36.82442748091603,-1.0534351145038168,0.0
12.950001001358032,-9.624690673828125,-0.6177040283203125,2.176329309082031,-52.36641221374046,48.80916030534351,-13.450381679389313,-9.464279162597656,-0.13646949462890623,-2.0781670410156248,-34.76335877862596,-33.267175572519086,-0.7633587786259542,0.0
12.96000075340271,-9.392453112792968,-2.3726538452148436,1.5849614990234373,-26.15267175572519,50.47328244274809,-10.488549618320612,-11.884817041015625,-3.1124621582031247,-3.892971899414062,16.458015267175572,-39.00763358778626,-5.603053435114504,0.0
12.970000743865967,-9.358934289550781,-0.2561795776367187,0.8068459594726562,4.809160305343512,52.99236641221374,-9.49618320610687,-9.121908325195312,1.944091748046875,-1.1540052001953125,3.648854961832061,-40.13740458015267,-12.229007633587786,0.0
12.980000495910645,-10.350133776855468,2.683900061035156,2.29843359375,-11.358778625954198,49.221374045801525,-11.86259541984733,-7.580042456054687,3.6631285400390623,-2.398990063476562,-14.80916030534351,-30.137404580152673,-10.106870229007633,0.0
12.99000072479248,-10.144232434082031,4.094084838867187,1.5490484741210937,-31.450381679389313,42.38167938931298,-14.702290076335878,-8.55448253173828,1.1156979736328125,-1.8531120849609375,-19.66412213740458,-23.603053435114504,-4.106870229007634,0.0
13.000000715255737,-9.212887988281249,0.584185205078125,0.5602431884765625,-33.32824427480916,38.19847328244275,-13.877862595419847,-10.735600244140624,1.5394716674804687,-0.10295067138671875,0.7938931297709924,-19.755725190839694,-3.0229007633587788,0.0
13.010000944137573,-10.266336718749999,-0.4836287353515625,1.2785036865234374,-9.709923664122137,43.63358778625954,-11.17557251908397,-9.011775048828124,-0.5961562133789062,-1.2473790649414063,-4.1679389312977095,-23.633587786259543,-5.9541984732824424,0.0
13.020000457763672,-10.165780249023436,-0.17238251953125,1.2330138549804688,-0.183206106870229,41.786259541984734,-11.129770992366412,-8.911218579101561,-0.603338818359375,-1.7812860351562498,0.6259541984732825,-23.72519083969466,-9.022900763358779,0.0
13.030000925064087,-11.609483850097655,3.6631285400390623,1.2401964599609374,-9.541984732824428,36.396946564885496,-13.618320610687023,-8.180987072753906,2.6431986328124997,-1.714248388671875,0.44274809160305345,-21.114503816793892,-10.67175572519084,0.0
13.040000438690186,-9.832986218261718,2.913743420410156,0.3902548706054687,-41.20610687022901,26.061068702290076,-14.106870229007633,-8.372523205566406,2.3391350219726563,-2.262520568847656,-3.2519083969465647,-18.870229007633586,-9.34351145038168,0.0
13.0500009059906,-10.817003100585938,2.767697119140625,1.3000515014648437,-42.74809160305343,25.328244274809162,-14.335877862595419,-9.430760339355468,1.6711527587890624,-1.3814543579101561,-5.0534351145038165,-11.465648854961833,-6.0458015267175576,0.0
13.060001134872437,-9.739612353515625,0.12449848632812499,1.4053963745117186,-43.221374045801525,24.427480916030536,-13.145038167938932,-9.6917283203125,0.181959326171875,-0.6368576416015624,2.7786259541984735,-9.465648854961833,-5.8320610687022905,0.0
13.070000886917114,-10.194510668945313,0.22266075439453123,0.7541735229492187,-35.00763358778626,24.061068702290076,-13.893129770992367,-8.762778076171875,0.6416460449218749,-1.6807295654296874,12.106870229007633,-14.366412213740459,-10.396946564885496,0.0
13.080000877380371,-10.263942517089843,0.928950244140625,0.6368576416015624,-24.870229007633586,23.87786259541985,-12.351145038167939,-10.587159741210938,-0.055066638183593745,-0.5027823486328125,22.442748091603054,-12.15267175572519,-10.458015267175572,0.0
13.090000867843628,-10.635043774414061,0.7206546997070312,1.407790576171875,-14.748091603053435,26.30534351145038,-11.709923664122137,-9.555258825683593,-0.0143652099609375,-0.316034619140625,29.31297709923664,-17.053435114503817,-13.48091603053435,0.0
13.100000858306885,-10.778695874023438,2.3965958618164063,1.898601916503906,-11.603053435114504,26.3206106870229,-11.725190839694656,-9.962273107910155,-0.8475473876953125,0.565031591796875,42.36641221374046,-21.52671755725191,-17.083969465648856,0.0
13.110000848770142,-10.067617980957031,1.0031704956054688,-0.33758243408203126,-21.17557251908397,18.977099236641223,-11.419847328244275,-10.587159741210938,0.584185205078125,0.8475473876953125,53.969465648854964,-28.778625954198475,-21.541984732824428,0.0
13.120000839233398,-9.849745629882811,1.2761094848632812,0.22505495605468748,-5.175572519083969,24.778625954198475,-8.564885496183207,-8.40125362548828,3.1842882080078123,-1.1611878051757811,39.11450381679389,-31.557251908396946,-24.748091603053435,0.0
13.130001306533813,-10.66856259765625,3.6655227416992187,1.3575123413085937,-22.50381679389313,22.35114503816794,-10.366412213740459,-10.187328063964843,2.5258827514648434,0.8475473876953125,28.916030534351144,-24.717557251908396,-17.69465648854962,0.0
13.140001058578491,-9.045293872070312,1.7429788085937499,-0.6177040283203125,-27.83206106870229,21.0381679389313,-9.648854961832061,-11.020510241699219,0.488417138671875,0.46686932373046874,27.954198473282442,-30.732824427480917,-17.114503816793892,0.0
13.150001049041748,-10.570400329589843,3.3159692993164063,0.7781155395507812,-29.6793893129771,20.045801526717558,-9.16030534351145,-9.598354455566406,2.6096798095703124,0.01915361328125,21.6793893129771,-33.969465648854964,-23.022900763358777,0.0
13.160000801086426,-10.654197387695312,2.612074011230469,0.8595183959960937,-62.54961832061068,9.450381679389313,-11.618320610687023,-9.842563024902343,4.199429711914062,0.5195417602539062,9.038167938931299,-28.732824427480917,-20.35114503816794,0.0
13.170000791549683,-10.156203442382813,2.4061726684570313,0.7062894897460937,-68.3969465648855,6.961832061068702,-8.488549618320612,-11.750741748046874,1.2737152832031249,0.5363011718749999,3.3587786259541983,-24.259541984732824,-12.442748091603054,0.0
13.18000054359436,-8.846575134277343,-0.55545478515625,0.7757213378906249,-55.25190839694657,6.748091603053435,-5.297709923664122,-11.896788049316406,0.603338818359375,1.8148048583984373,5.633587786259542,-30.30534351145038,-13.694656488549619,0.0
13.190001010894775,-10.180145458984374,-0.6607996582031249,0.8714894042968749,-31.69465648854962,8.900763358778626,-4.793893129770993,-10.551246716308594,-0.2753331909179687,-0.16998831787109375,6.5038167938931295,-40.0,-20.442748091603054,0.0
13.200000762939453,-11.511321582031249,0.3112462158203125,1.5610194824218748,-22.717557251908396,6.8396946564885495,-6.442748091603053,-8.214505895996094,2.070984436035156,0.6488286499023437,3.404580152671756,-40.25954198473283,-23.72519083969466,0.0
13.210000991821289,-11.722011328125,2.6958710693359373,2.655169641113281,-28.885496183206108,6.793893129770993,-6.351145038167939,-10.089165795898436,-0.55545478515625,0.9576806640625,-0.8396946564885496,-39.31297709923664,-19.14503816793893,0.0
13.220000505447388,-10.32379755859375,1.2808978881835937,1.2737152832031249,-36.70229007633588,1.450381679389313,-6.442748091603053,-10.781090075683593,0.239420166015625,0.13168109130859373,10.213740458015268,-49.43511450381679,-23.801526717557252,0.0
13.230000495910645,-10.357316381835936,0.8906430175781249,1.467645617675781,-17.31297709923664,5.541984732824427,-3.435114503816794,-8.080430603027343,1.8435352783203125,-0.12449848632812499,0.8854961832061069,-42.74809160305343,-26.610687022900763,0.0
13.240000486373901,-8.398859423828124,0.6967126831054687,0.8547299926757812,-19.251908396946565,3.5877862595419847,-2.0610687022900764,-10.91037696533203,-0.6967126831054687,0.6392518432617187,4.442748091603053,-43.43511450381679,-22.732824427480917,0.0
13.250000476837158,-9.160215551757812,1.1252747802734375,0.6727706665039062,-10.061068702290076,6.549618320610687,-3.480916030534351,-9.658209497070311,1.0199299072265624,0.3280056274414062,12.763358778625955,-49.98473282442748,-27.389312977099237,0.0
13.260000705718994,-8.125920434570313,0.4525041137695312,-0.08140285644531249,-4.152671755725191,7.251908396946565,-0.8549618320610687,-9.014169250488282,1.2497732666015624,-0.1867477294921875,-0.24427480916030533,-38.76335877862596,-25.908396946564885,0.0
13.270000696182251,-9.842563024902343,3.268085266113281,1.695094775390625,-8.854961832061068,11.84732824427481,-3.3435114503816794,-11.336544860839844,-0.47165772705078124,0.6368576416015624,6.687022900763359,-37.00763358778626,-21.17557251908397,0.0
13.280001163482666,-9.404424121093749,1.697488977050781,0.40222587890625,-23.00763358778626,6.870229007633588,-4.091603053435114,-9.586383447265625,0.8595183959960937,0.63206923828125,16.259541984732824,-42.0763358778626,-25.893129770992367,0.0
13.290000677108765,-9.543287817382812,0.38786066894531246,0.5698199951171875,-13.34351145038168,8.381679389312977,-1.6030534351145038,-9.07163009033203,2.7365724975585937,0.36631285400390623,12.13740458015267,-37.17557251908397,-25.0381679389313,0.0
13.3000009059906,-9.792284790039062,0.15083470458984374,1.4915876342773438,-7.877862595419847,10.01526717557252,-1.816793893129771,-10.046070166015625,2.5426421630859375,0.36631285400390623,2.4122137404580153,-27.755725190839694,-20.580152671755727,0.0
13.310000658035278,-11.113884106445312,1.9752163696289062,1.9895815795898437,-13.541984732824428,9.664122137404581,-3.7709923664122136,-10.824185705566405,1.5586252807617187,1.0989385620117187,-4.305343511450381,-24.366412213740457,-17.251908396946565,0.0
13.320001125335693,-9.986215124511718,1.3120225097656248,1.0678139404296874,-20.412213740458014,4.091603053435114,-5.0534351145038165,-9.035717065429687,2.1452046874999997,0.18435352783203124,-10.320610687022901,-21.557251908396946,-18.82442748091603,0.0
13.330000877380371,-10.462661254882812,0.47165772705078124,0.6655880615234374,-20.16793893129771,2.2595419847328246,-4.076335877862595,-10.335768566894531,0.2442085693359375,1.6400281372070311,-7.938931297709924,-17.770992366412212,-14.458015267175572,0.0
13.340000629425049,-10.357316381835936,-0.5865794067382812,0.7852981445312499,-10.580152671755725,2.6106870229007635,-4.015267175572519,-11.264718811035156,-0.033518823242187495,1.4149731811523436,8.061068702290076,-22.35114503816794,-16.53435114503817,0.0
13.350000858306885,-10.606313354492187,-1.0366893188476562,0.8690952026367187,4.931297709923665,2.900763358778626,-3.2061068702290076,-10.223241088867187,-1.3024457031249999,1.0941501586914062,18.519083969465647,-28.229007633587788,-17.00763358778626,0.0
13.360000610351562,-10.498574279785156,-1.1611878051757811,0.6081272216796875,21.84732824427481,3.282442748091603,-5.511450381679389,-9.744400756835937,0.7996633544921875,-0.4165910888671875,20.83969465648855,-35.20610687022901,-19.572519083969464,0.0
13.37000060081482,-10.297461340332031,0.0909796630859375,0.3902548706054687,26.931297709923665,3.8473282442748094,-8.610687022900763,-8.513781103515624,2.901772412109375,0.45968671875,0.9618320610687023,-26.65648854961832,-18.885496183206108,0.0
13.380000829696655,-10.058041174316406,2.4061726684570313,0.5267243652343749,15.572519083969466,3.66412213740458,-11.145038167938932,-9.600748657226562,3.153163586425781,0.3399766357421875,-15.083969465648854,-20.82442748091603,-15.17557251908397,0.0
13.390000581741333,-10.115502014160155,2.6192566162109374,0.277727392578125,1.0534351145038168,2.0763358778625953,-12.396946564885496,-9.821015209960937,2.1547814941406247,0.6847416748046875,-30.15267175572519,-10.625954198473282,-12.564885496183207,0.0
13.40000057220459,-9.713276135253906,1.24498486328125,-0.0718260498046875,-7.3893129770992365,1.633587786259542,-11.740458015267176,-10.836156713867187,1.5777788940429687,0.9241618408203125,-28.106870229007633,-11.450381679389313,-12.625954198473282,0.0
13.410000801086426,-9.868899243164062,0.3591302490234375,-0.9145850341796874,-2.519083969465649,2.7480916030534353,-11.648854961832061,-9.387664709472656,1.20667763671875,0.9241618408203125,-31.19083969465649,-7.908396946564886,-14.687022900763358,0.0
13.420000791549683,-9.97903251953125,0.9888052856445312,-0.9888052856445312,-5.114503816793893,4.595419847328245,-12.198473282442748,-9.842563024902343,0.7565677246093749,0.44532150878906246,-29.984732824427482,-8.534351145038167,-13.358778625954198,0.0
13.430001258850098,-9.883264453125,1.5562310791015623,-1.2234370483398436,-9.145038167938932,5.938931297709924,-13.114503816793894,-9.038111267089842,1.3383587280273437,0.040701428222656245,-28.65648854961832,-6.549618320610687,-12.702290076335878,0.0
13.440001010894775,-9.495403784179686,1.7836802368164062,-1.1540052001953125,-14.595419847328245,8.244274809160306,-14.50381679389313,-8.935160595703124,1.388636962890625,-0.45968671875,-28.916030534351144,-4.564885496183206,-10.01526717557252,0.0
13.450001239776611,-9.452308154296874,1.8267758666992187,-1.4437036010742186,-19.374045801526716,10.045801526717558,-15.98473282442748,-8.219294299316406,1.8195932617187498,-1.0103531005859374,-32.091603053435115,-1.297709923664122,-8.946564885496183,0.0
13.46000075340271,-9.1554271484375,1.68551796875,-1.455674609375,-23.52671755725191,11.816793893129772,-14.80916030534351,-9.191340173339842,0.6512228515624999,-0.6775590698242188,-31.603053435114504,2.7786259541984735,-6.931297709923665,0.0
13.470000982284546,-8.571241943359375,0.41898529052734373,-1.3958195678710936,-21.52671755725191,14.717557251908397,-13.206106870229007,-8.987833032226561,-0.04548983154296875,-0.3711012573242187,-29.81679389312977,5.557251908396947,-7.6183206106870225,0.0
13.480000972747803,-9.397241516113281,0.7445967163085937,-0.24899697265624998,-14.366412213740459,20.48854961832061,-15.19083969465649,-9.562441430664062,-1.1827356201171875,-0.0718260498046875,-23.297709923664122,6.061068702290076,-8.045801526717558,0.0
13.49000096321106,-8.98304462890625,0.8188169677734375,0.086191259765625,-12.687022900763358,21.587786259541986,-17.46564885496183,-8.597578161621094,-1.1133037719726562,-0.05746083984375,-15.923664122137405,5.603053435114504,-9.603053435114504,0.0
13.500000715255737,-8.71489404296875,1.3527239379882812,0.9097966308593749,-18.412213740458014,23.16030534351145,-18.290076335877863,-9.428366137695312,-1.886630908203125,0.59376201171875,-4.732824427480916,4.458015267175573,-10.030534351145038,0.0
13.510001182556152,-11.264718811035156,2.4396914916992185,1.697488977050781,-26.229007633587788,21.404580152671755,-19.00763358778626,-8.59278975830078,-1.0390835205078124,0.7398083129882812,0.8702290076335878,3.6793893129770994,-12.091603053435115,0.0
13.52000117301941,-11.195286962890624,1.9033903198242186,2.0733786376953125,-37.66412213740458,13.893129770992367,-17.709923664122137,-8.825027319335938,-1.2617442749023438,1.0271125122070313,6.198473282442748,2.7022900763358777,-11.664122137404581,0.0
13.530001163482666,-11.128249316406249,1.2832920898437499,2.808398547363281,-33.37404580152672,13.221374045801527,-18.213740458015266,-7.716511950683593,-0.36631285400390623,0.7900865478515624,8.213740458015268,2.6259541984732824,-12.977099236641221,0.0
13.540001153945923,-10.982203015136719,0.2705447875976562,2.863465185546875,-42.56488549618321,4.137404580152672,-18.03053435114504,-8.157045056152343,-0.48123453369140623,1.1707646118164061,9.251908396946565,3.4656488549618323,-10.977099236641221,0.0
13.55000114440918,-10.862492932128905,-0.354341845703125,2.901772412109375,-31.52671755725191,-1.8015267175572518,-15.435114503816793,-6.624755993652343,1.0630255371093749,0.3806780639648437,4.366412213740458,4.106870229007634,-10.900763358778626,0.0
13.560001373291016,-10.805032092285156,-0.14604630126953125,3.6152445068359373,-24.16793893129771,-5.740458015267175,-14.396946564885496,-7.3932947265625,0.507570751953125,0.44532150878906246,0.5038167938931297,8.244274809160306,-7.480916030534351,0.0
13.570001125335693,-10.869675537109375,-0.2537853759765625,4.405331054687499,-18.778625954198475,-11.801526717557252,-14.610687022900763,-6.536170532226562,-0.27293898925781246,0.5003881469726562,-1.6946564885496183,9.86259541984733,-5.083969465648855,0.0
13.58000111579895,-10.517727893066406,-0.4908113403320312,5.137956762695312,-8.458015267175572,-19.6793893129771,-13.099236641221374,-6.442796667480469,-0.4644751220703125,0.42377369384765623,6.396946564885496,7.572519083969466,-3.6030534351145036,0.0
13.590000629425049,-10.900800158691405,-0.4333505004882812,5.722141967773437,4.961832061068702,-28.12213740458015,-12.51908396946565,-7.034164477539062,-1.1827356201171875,0.34715924072265625,15.923664122137405,10.0,-1.5877862595419847,0.0
13.600001096725464,-9.842563024902343,-2.5043349365234375,5.66946953125,15.618320610687023,-37.55725190839695,-8.870229007633588,-5.717353564453124,0.8978256225585937,0.03591302490234375,22.106870229007633,8.687022900763358,-1.9389312977099236,0.0
13.610000610351562,-10.64222637939453,-1.5753846923828123,6.777984899902344,39.63358778625954,-41.63358778625954,-5.083969465648855,-6.150704064941406,1.9009961181640624,0.9624690673828125,18.778625954198475,12.83969465648855,-0.8854961832061069,0.0
13.62000060081482,-13.503297363281249,1.9033903198242186,9.624690673828125,24.366412213740457,-58.16793893129771,-6.916030534351145,-6.56968935546875,1.9704279663085937,1.254561669921875,6.076335877862595,19.282442748091604,1.5572519083969465,0.0
13.630001306533813,-14.535198278808593,2.24097275390625,10.517727893066406,0.6106870229007634,-84.12213740458016,-2.198473282442748,-8.221688500976562,1.7645266235351562,0.1292868896484375,-6.290076335877862,23.587786259541986,3.404580152671756,0.0
13.640001058578491,-14.695609790039061,1.1516109985351561,10.66137999267578,0.8091603053435115,-109.92366412213741,5.541984732824427,-8.544905725097657,1.9752163696289062,-0.8714894042968749,-23.19083969465649,28.610687022900763,0.6259541984732825,0.0
13.650001287460327,-15.275006591796874,0.6200982299804687,11.669338891601562,-5.862595419847328,-132.9770992366412,5.312977099236641,-9.931148486328125,2.73896669921875,-1.6903063720703124,-35.37404580152672,37.02290076335878,1.2061068702290076,0.0
13.660000562667847,-14.678850378417968,-0.8738836059570312,10.658985791015624,-10.381679389312977,-158.6259541984733,1.3129770992366412,-11.305420239257812,2.109291662597656,0.143652099609375,-53.541984732824424,47.06870229007634,6.320610687022901,0.0
13.670001029968262,-14.451401220703124,-1.8507178833007811,9.605537060546874,-15.282442748091603,-182.7175572519084,-4.961832061068702,-14.360421557617187,-2.5857377929687497,2.2170307373046874,-48.18320610687023,46.25954198473283,8.335877862595419,0.0
13.68000078201294,-14.432247607421875,-2.839523168945312,8.889670764160156,13.206106870229007,-203.06870229007635,-8.67175572519084,-12.816161486816405,-3.028665100097656,2.0374656127929685,-35.786259541984734,37.63358778625954,3.0839694656488548,0.0
13.690001010894775,-15.397110876464843,-3.1699229980468746,8.032546569824218,45.267175572519086,-209.96946564885496,-6.809160305343512,-13.5224509765625,-5.671863732910156,4.42448466796875,-9.511450381679388,29.0381679389313,-1.2366412213740459,0.0
13.700000762939453,-15.322890625,-2.85388837890625,4.223371728515625,73.12977099236642,-216.15267175572518,-4.458015267175573,-12.368445776367187,-2.748543505859375,4.2688615600585935,18.198473282442748,14.366412213740459,-2.9923664122137406,0.0
13.710000991821289,-15.267823986816405,-0.5291185668945312,0.0143652099609375,88.09160305343511,-211.08396946564886,2.5801526717557253,-7.6279264892578125,2.5043349365234375,1.7717092285156248,3.114503816793893,14.992366412213741,-8.16793893129771,0.0
13.720000505447388,-14.992490795898437,0.296881005859375,-3.6655227416992187,71.40458015267176,-209.55725190839695,4.320610687022901,-10.82179150390625,0.8164227661132812,2.5546131713867184,-0.183206106870229,23.480916030534353,-0.4580152671755725,0.0
13.730000495910645,-14.044386938476562,-1.0103531005859374,-5.916072302246094,62.030534351145036,-198.50381679389312,5.923664122137405,-4.855440966796874,5.9017070922851556,-4.7931917236328125,-21.908396946564885,14.076335877862595,-4.427480916030534,0.0
13.740000486373901,-13.220781567382812,-0.63206923828125,-5.8083332275390624,64.70229007633588,-179.57251908396947,8.931297709923664,-9.332598071289063,4.295197778320312,-1.2521674682617188,-97.58778625954199,58.412213740458014,6.137404580152672,0.0
13.750000238418579,-10.014945544433592,-0.9792284790039062,-5.774814404296874,52.25954198473283,-162.74809160305344,7.251908396946565,-5.504269616699219,6.567295153808593,-2.935291235351562,-127.48091603053435,73.66412213740458,13.98473282442748,0.0
13.760001182556152,-9.054870678710937,0.37828386230468747,-3.42849677734375,47.954198473282446,-145.4351145038168,5.312977099236641,-11.288660827636718,0.239420166015625,-1.2785036865234374,-168.67175572519085,109.81679389312977,19.236641221374047,0.0
13.77000093460083,-7.829039428710937,-0.23702596435546874,-1.915361328125,57.29770992366412,-124.13740458015268,6.534351145038168,-11.432312927246093,-5.645527514648437,-4.759672900390624,-128.5801526717557,102.61068702290076,26.106870229007633,0.0
13.780001163482666,-8.626308581542968,-0.2609679809570312,0.20829554443359374,69.12977099236642,-103.0381679389313,6.427480916030534,-12.291831323242187,-8.327033374023436,-4.520252734375,-60.19847328244275,90.33587786259542,33.25190839694657,0.0
13.790000915527344,-9.713276135253906,-1.5897499023437498,0.8188169677734375,74.50381679389314,-91.78625954198473,7.190839694656488,-10.417171423339843,-8.12113203125,-2.8227637573242186,24.137404580152673,73.66412213740458,33.05343511450382,0.0
13.80000114440918,-10.022128149414062,-2.0159177978515626,1.0821791503906248,86.07633587786259,-83.0381679389313,8.778625954198473,-11.49216796875,-8.05648858642578,-1.8698714965820311,84.38167938931298,57.25190839694657,31.221374045801525,0.0
13.810000896453857,-9.10993731689453,-1.3958195678710936,1.369483349609375,95.26717557251908,-73.00763358778626,7.343511450381679,-10.244788903808594,-3.9240965209960934,-3.3782185424804685,86.38167938931298,56.62595419847328,22.48854961832061,0.0
13.820001125335693,-11.29344923095703,3.3016040893554686,3.3877953491210935,62.48854961832061,-76.77862595419847,2.427480916030534,-8.959102612304687,-1.5682020874023437,-0.6727706665039062,104.73282442748092,43.37404580152672,19.923664122137403,0.0
13.830000638961792,-8.961496813964843,3.2130186279296873,2.231395947265625,30.9618320610687,-85.55725190839695,7.923664122137405,-15.128960290527344,-4.333505004882812,3.191470812988281,129.87786259541986,42.35114503816794,24.519083969465647,0.0
13.840000867843628,-7.448361364746093,1.848323681640625,2.3223756103515623,13.679389312977099,-85.66412213740458,7.175572519083969,-9.720458740234374,2.602497204589844,-0.8834604125976562,108.21374045801527,32.045801526717554,17.16030534351145,0.0
13.850000858306885,-7.086836914062499,0.7062894897460937,1.8746598999023436,-8.259541984732824,-91.38931297709924,4.809160305343512,-11.587936035156249,1.5634136840820312,-0.2059013427734375,102.87022900763358,28.900763358778626,18.213740458015266,0.0
13.860000848770142,-5.374982727050781,-0.8164227661132812,1.5610194824218748,-9.251908396946565,-83.43511450381679,5.343511450381679,-10.304643945312499,2.4253262817382812,0.13646949462890623,86.68702290076335,27.0381679389313,17.908396946564885,0.0
13.870000839233398,-4.690241052246093,-2.442085693359375,0.7158662963867187,-3.3740458015267176,-78.3206106870229,3.2519083969465647,-11.29344923095703,1.3527239379882812,1.675941162109375,85.98473282442748,23.740458015267176,18.061068702290076,0.0
13.880000829696655,-4.347870214843749,-2.9472622436523435,1.1348515869140625,11.816793893129772,-62.87022900763359,0.9618320610687023,-10.82179150390625,1.9871873779296874,-0.2154781494140625,63.63358778625954,19.251908396946565,13.786259541984732,0.0
13.890001058578491,-4.881777185058594,-1.3215993164062498,2.0374656127929685,15.435114503816793,-51.63358778625954,-4.244274809160306,-9.050082275390624,2.2649147705078123,0.2753331909179687,32.67175572519084,24.27480916030534,10.549618320610687,0.0
13.90000057220459,-4.146757275390625,-0.8882488159179687,2.1212626708984375,11.34351145038168,-48.36641221374046,-5.1603053435114505,-9.763554370117188,0.6727706665039062,-0.06703764648437499,22.137404580152673,22.18320610687023,8.854961832061068,0.0
13.910001039505005,-4.8889597900390624,-0.584185205078125,3.536235852050781,23.84732824427481,-35.52671755725191,-6.656488549618321,-10.958260998535156,-0.47884033203125,0.948103857421875,12.641221374045802,18.625954198473284,9.32824427480916,0.0
13.920000553131104,-3.9145197143554684,0.201112939453125,2.96881005859375,28.68702290076336,-29.87786259541985,-7.938931297709924,-10.230423693847655,-1.1156979736328125,1.1013327636718748,3.450381679389313,13.770992366412214,5.236641221374046,0.0
13.93000078201294,-4.065354418945312,0.8116343627929687,2.942473840332031,27.435114503816795,-24.763358778625953,-6.854961832061068,-12.777854260253905,-4.44363828125,1.9632453613281249,18.35114503816794,5.969465648854962,5.236641221374046,0.0
13.940000534057617,-6.358999609374999,3.5242648437499997,4.584896179199219,21.480916030534353,-19.022900763358777,-6.778625954198473,-10.019733947753906,-2.408566870117187,-0.7757213378906249,18.50381679389313,-5.00763358778626,0.44274809160305345,0.0
13.950000762939453,-4.608838195800781,2.7557261108398436,3.4763808105468748,21.69465648854962,-16.68702290076336,1.2366412213740459,-9.95987890625,-2.0566192260742184,0.7924807495117187,4.183206106870229,-5.511450381679389,-1.816793893129771,0.0
13.96000051498413,-5.221753820800781,2.6815058593749996,4.094084838867187,17.19083969465649,-12.0,5.541984732824427,-10.46984385986328,-2.3223756103515623,1.4796166259765624,25.893129770992367,-15.648854961832061,-2.0610687022900764,0.0
13.970000743865967,-8.406042028808594,5.013458276367187,5.5449710449218745,6.061068702290076,-10.13740458015267,6.106870229007634,-11.997344519042969,-3.7014357666015623,2.1643583007812497,45.19083969465649,-22.244274809160306,-0.3053435114503817,0.0
13.980000734329224,-6.900089184570312,3.6846763549804686,4.587290380859375,-2.6717557251908395,-14.366412213740459,11.694656488549619,-9.540893615722656,1.5227122558593749,-0.6440402465820312,45.9236641221374,-33.9236641221374,-7.175572519083969,0.0
13.990000486373901,-7.560888842773437,4.853046765136718,5.894524487304687,-19.81679389312977,-14.198473282442748,14.366412213740459,-9.737218151855469,0.9528922607421875,-0.1484405029296875,16.763358778625953,-26.35114503816794,-6.809160305343512,0.0
14.000000953674316,-7.182604980468749,4.04141240234375,6.081272216796875,-37.7557251908397,-17.206106870229007,16.18320610687023,-10.479420666503906,-0.17477672119140625,0.6967126831054687,20.732824427480917,-26.427480916030536,-4.396946564885496,0.0
14.010000944137573,-5.4515971801757805,1.697488977050781,5.49708701171875,-39.61832061068702,-16.15267175572519,17.51145038167939,-10.345345373535155,1.2737152832031249,-0.8451531860351562,8.931297709923664,-25.908396946564885,-4.076335877862595,0.0
14.02000117301941,-5.341463903808593,1.4700398193359374,5.906495495605468,-35.725190839694655,-10.290076335877863,17.16030534351145,-8.853757739257812,3.308786694335937,-0.18435352783203124,-16.03053435114504,-18.625954198473284,-4.5038167938931295,0.0
14.030000925064087,-5.204994409179688,1.1156979736328125,6.047753393554687,-40.67175572519084,-7.587786259541985,17.0381679389313,-10.711658227539061,-0.06464344482421874,0.507570751953125,-21.19083969465649,-4.717557251908397,0.15267175572519084,0.0
14.040001153945923,-5.1523219726562495,-0.13646949462890623,6.275202551269531,-29.984732824427482,0.9312977099236641,16.85496183206107,-10.146626635742187,-2.7437551025390623,-0.584185205078125,-17.31297709923664,-11.221374045801527,1.8625954198473282,0.0
14.0500009059906,-5.2456958374023435,-0.1292868896484375,6.064512805175781,-20.3206106870229,7.404580152671755,14.778625954198473,-8.9255837890625,-1.9895815795898437,-1.4437036010742186,-12.977099236641221,-12.488549618320612,0.2748091603053435,0.0
14.060001134872437,-2.789244934082031,-1.9991583862304687,4.331110803222656,-14.473282442748092,9.053435114503817,16.732824427480917,-7.4770917846679685,0.928950244140625,-2.5665841796874997,-9.312977099236642,-11.450381679389313,-2.3969465648854964,0.0
14.070000648498535,-5.913678100585937,1.6903063720703124,7.129932543945312,-26.35114503816794,14.83969465648855,9.526717557251908,-7.841010437011718,1.7741034301757812,-1.6615759521484375,-18.106870229007633,-0.48854961832061067,0.8244274809160306,0.0
14.080000877380371,-6.186617089843749,1.5705962890624998,8.276755139160155,-30.9618320610687,15.404580152671755,12.793893129770993,-8.935160595703124,1.7429788085937499,-2.2960393920898436,-21.66412213740458,6.106870229007634,7.099236641221374,0.0
14.090000867843628,-6.131550451660156,0.15322890625,9.445125549316407,-22.580152671755727,15.694656488549619,16.35114503816794,-8.63827958984375,0.86191259765625,-2.2768857788085937,-22.885496183206108,8.793893129770993,10.244274809160306,0.0
14.100000858306885,-6.988674645996094,0.10773907470703124,9.591171850585937,-16.3206106870229,11.236641221374045,16.229007633587788,-10.536881506347656,-0.17956512451171874,-1.0749965454101562,-20.977099236641223,16.916030534351144,14.885496183206106,0.0
14.110000610351562,-7.48906279296875,-0.9433154541015625,9.390058911132812,7.679389312977099,16.702290076335878,19.328244274809162,-10.117896215820313,-0.9145850341796874,-2.0278888061523435,-7.129770992366412,14.916030534351146,15.679389312977099,0.0
14.120001077651978,-8.564059338378906,-1.0295067138671874,9.167398156738281,15.877862595419847,12.534351145038167,15.816793893129772,-10.390835205078124,-1.0510545288085937,-1.7214309936523438,-1.1145038167938932,15.786259541984732,16.610687022900763,0.0
14.130000829696655,-9.737218151855469,-0.12449848632812499,9.631873278808593,10.16793893129771,4.564885496183206,14.931297709923664,-10.28549033203125,0.21787235107421873,-2.195482922363281,-1.2366412213740459,16.290076335877863,16.213740458015266,0.0
14.140000581741333,-8.82263311767578,-0.6607996582031249,9.370905297851563,14.564885496183207,3.0076335877862594,15.48091603053435,-10.184933862304687,0.28012159423828126,-1.8124106567382812,-10.931297709923664,22.427480916030536,19.389312977099237,0.0
14.15000057220459,-7.105990527343749,-2.6910826660156246,8.456320263671875,24.82442748091603,3.0229007633587788,12.687022900763358,-9.976638317871092,-0.33518823242187495,-1.43652099609375,-2.946564885496183,24.045801526717558,18.610687022900763,0.0
14.160000562667847,-7.44357296142578,-1.7118541870117185,7.750030773925781,34.25954198473283,2.7786259541984735,6.717557251908397,-10.168174450683592,-0.016759411621093748,-2.3918074584960936,3.7557251908396947,22.03053435114504,16.732824427480917,0.0
14.170000791549683,-6.495469104003906,-0.33758243408203126,5.84185205078125,37.282442748091604,4.488549618320611,3.6793893129770994,-10.888829150390624,-0.40940848388671874,-2.061407629394531,8.274809160305344,23.358778625954198,15.679389312977099,0.0
14.18000054359436,-5.015852478027344,-0.699106884765625,4.714183068847656,42.10687022900763,10.51908396946565,3.0839694656488548,-12.157756030273436,0.70868369140625,-0.5722141967773438,6.534351145038168,28.68702290076336,17.603053435114504,0.0
14.190000772476196,-5.408501550292969,0.4285620971679687,5.157110375976562,45.00763358778626,14.641221374045802,3.6946564885496183,-12.588712329101561,1.9943699829101562,-0.6823474731445313,0.10687022900763359,28.427480916030536,19.129770992366414,0.0
14.200000524520874,-5.202600207519531,1.7453730102539062,5.5449710449218745,53.29770992366412,22.106870229007633,5.923664122137405,-10.919953771972656,2.1260510742187497,-1.1228805786132812,-19.068702290076335,27.236641221374047,20.65648854961832,0.0
14.210000991821289,-4.402936853027343,1.1875240234375,3.347093920898437,57.32824427480916,31.66412213740458,8.83969465648855,-10.426748229980468,3.1364041748046874,-1.350329736328125,-31.572519083969464,30.519083969465647,23.862595419847327,0.0
14.220000505447388,-6.366182214355469,2.6144682128906247,2.1068974609374997,49.70992366412214,44.778625954198475,5.8320610687022905,-11.67652149658203,-0.143652099609375,-0.40940848388671874,-29.51145038167939,34.87022900763359,29.00763358778626,0.0
14.230000734329224,-7.81467421875,3.095702746582031,1.2976572998046874,35.12977099236641,48.778625954198475,3.0839694656488548,-12.473790649414061,-0.8571241943359375,-0.0909796630859375,-15.938931297709924,29.557251908396946,27.64885496183206,0.0
14.240000486373901,-7.230489013671875,0.7781155395507812,1.1228805786132812,30.870229007633586,55.20610687022901,7.511450381679389,-10.989385620117186,-0.7637503295898437,-1.0654197387695312,-16.870229007633586,20.03053435114504,24.519083969465647,0.0
14.250000476837158,-7.259219433593749,-0.40222587890625,2.0446482177734375,46.68702290076336,69.66412213740458,10.030534351145038,-12.272677709960936,0.16519991455078123,-0.5099649536132812,-18.53435114503817,20.977099236641223,25.81679389312977,0.0
14.260001420974731,-10.467449658203124,3.2345664428710936,4.1563340820312495,51.14503816793893,80.36641221374046,5.236641221374046,-12.196063256835936,1.2880804931640624,-0.4381389038085937,-24.885496183206108,21.083969465648856,26.717557251908396,0.0
14.27000117301941,-7.948749511718749,1.9967641845703124,1.889025109863281,48.6412213740458,82.90076335877863,9.099236641221374,-11.027692846679686,1.2114660400390624,-1.3742717529296875,-44.87022900763359,17.480916030534353,28.9618320610687,0.0
14.280001163482666,-9.93354268798828,3.31357509765625,3.670311145019531,48.534351145038165,95.43511450381679,7.1603053435114505,-11.863269226074218,-0.17238251953125,-0.19393033447265623,-48.916030534351144,21.923664122137403,33.98473282442748,0.0
14.290000677108765,-10.615890161132812,2.3295582153320313,2.0302830078125,34.97709923664122,93.00763358778626,3.7099236641221376,-12.258312499999999,-3.1483751831054687,0.5051765502929687,-39.49618320610687,18.83969465648855,32.900763358778626,0.0
14.30000114440918,-10.024522351074218,1.9704279663085937,1.7501614135742187,24.519083969465647,96.07633587786259,2.4427480916030535,-12.782642663574219,-2.461239306640625,-0.08140285644531249,-17.51145038167939,8.229007633587786,27.923664122137403,0.0
14.310000896453857,-8.40125362548828,0.6344634399414062,0.6775590698242188,16.458015267175572,92.8854961832061,3.450381679389313,-12.610260144042968,-1.7908628417968748,-0.28730419921875,-5.175572519083969,1.7099236641221374,22.198473282442748,0.0
14.320001125335693,-8.858546142578124,0.9241618408203125,3.201047619628906,22.259541984732824,99.80152671755725,2.9618320610687023,-10.831368310546875,1.7717092285156248,-1.2593500732421874,-2.7022900763358777,-5.251908396946565,17.801526717557252,0.0
14.330000638961792,-9.746794958496093,2.4205378784179685,3.488351818847656,9.923664122137405,92.50381679389314,-0.2595419847328244,-11.14022032470703,2.999934680175781,-1.1420341918945311,-9.801526717557252,-4.198473282442748,19.404580152671755,0.0
14.340000867843628,-10.520122094726561,2.4396914916992185,4.280832568359375,-0.7633587786259542,89.31297709923665,1.8778625954198473,-10.69968721923828,2.96881005859375,-1.0630255371093749,-17.14503816793893,-5.32824427480916,22.778625954198475,0.0
14.350000619888306,-11.051634863281249,2.645592834472656,3.986345764160156,-16.793893129770993,81.43511450381679,0.4732824427480916,-10.556035119628906,2.6408044311523438,-1.1563994018554686,-22.259541984732824,-7.66412213740458,23.954198473282442,0.0
14.360000848770142,-9.038111267089842,-0.7613561279296874,2.5330653564453125,-22.412213740458014,78.6412213740458,1.816793893129771,-9.91438907470703,2.308010400390625,-1.0414777221679687,-25.603053435114504,-8.01526717557252,24.18320610687023,0.0
14.37000036239624,-9.595960253906249,-1.8219874633789062,3.0741549316406247,-18.290076335877863,80.33587786259542,-3.0839694656488548,-9.306261853027344,1.68551796875,-0.8810662109374999,-28.15267175572519,-8.473282442748092,23.16030534351145,0.0
14.380000829696655,-9.26316622314453,-1.8531120849609375,2.655169641113281,-9.86259541984733,81.77099236641222,-8.213740458015268,-9.878476049804688,-0.28969840087890625,0.0430956298828125,-23.908396946564885,-9.282442748091603,22.732824427480917,0.0
14.390000581741333,-9.600748657226562,-0.7206546997070312,2.2768857788085937,-0.22900763358778625,84.35114503816794,-12.564885496183207,-9.406818322753905,-0.9337386474609375,0.8475473876953125,-19.114503816793892,-11.877862595419847,20.48854961832061,0.0
14.400000810623169,-9.68454571533203,0.5674257934570313,2.7078420776367187,-5.648854961832061,79.58778625954199,-15.969465648854962,-9.516951599121093,0.5386953735351562,-0.5195417602539062,-10.931297709923664,-21.053435114503817,14.595419847328245,0.0
14.410001039505005,-10.51533369140625,2.2385785522460937,3.172317199707031,-13.725190839694656,78.29007633587786,-17.786259541984734,-8.192958081054687,0.7422025146484375,-0.7733271362304687,-21.267175572519083,-23.908396946564885,13.129770992366412,0.0
14.420000791549683,-10.390835205078124,1.695094775390625,3.1196447631835937,-22.412213740458014,75.40458015267176,-17.49618320610687,-9.028534460449219,0.507570751953125,0.2609679809570312,-22.580152671755727,-21.480916030534353,12.793893129770993,0.0
14.430001020431519,-9.95987890625,1.9321207397460936,2.8419173706054686,-24.732824427480917,72.42748091603053,-17.633587786259543,-9.60793126220703,0.8978256225585937,-0.5889736083984375,-18.900763358778626,-25.221374045801525,10.67175572519084,0.0
14.440000772476196,-10.788272680664061,1.9800047729492187,2.8036101440429686,-28.458015267175572,68.0,-17.0381679389313,-9.315838659667968,-0.6248866333007812,-0.18914193115234373,-19.083969465648856,-29.84732824427481,7.175572519083969,0.0
14.450001239776611,-11.59990704345703,2.750937707519531,2.882618798828125,-32.44274809160305,64.74809160305344,-17.633587786259543,-11.717222924804688,-4.92247861328125,-0.40222587890625,9.633587786259541,-38.595419847328245,4.625954198473282,0.0
14.46000075340271,-10.450690246582031,0.584185205078125,2.176329309082031,-26.198473282442748,61.541984732824424,-15.587786259541986,-9.713276135253906,0.6200982299804687,0.181959326171875,18.50381679389313,-52.76335877862596,-7.083969465648855,0.0
14.470000743865967,-10.216058483886718,2.940079638671875,3.8379052612304685,-32.47328244274809,59.55725190839695,-16.748091603053435,-8.48505068359375,1.3575123413085937,-0.12210428466796874,2.015267175572519,-46.10687022900763,-8.488549618320612,0.0
14.480000495910645,-11.353304272460937,3.6655227416992187,3.2800562744140622,-54.595419847328245,50.656488549618324,-18.68702290076336,-10.809820495605468,-2.001552587890625,0.19153613281249998,13.114503816793894,-48.396946564885496,-10.610687022900763,0.0
14.49000072479248,-11.015721838378905,1.7764976318359373,1.7932570434570312,-48.62595419847328,47.6793893129771,-14.045801526717558,-9.361328491210937,1.9776105712890624,-0.6296750366210937,13.816793893129772,-55.64885496183206,-15.572519083969466,0.0
14.500000715255737,-10.426748229980468,2.0757728393554684,2.798821740722656,-50.48854961832061,44.85496183206107,-12.50381679389313,-9.828197814941406,1.177947216796875,-0.7733271362304687,6.458015267175573,-48.83969465648855,-16.290076335877863,0.0
14.510001182556152,-9.514557397460937,0.46208092041015625,1.6711527587890624,-50.35114503816794,41.63358778625954,-11.969465648854962,-10.68053360595703,0.02633621826171875,-1.8555062866210936,20.137404580152673,-53.49618320610687,-19.740458015267176,0.0
14.52000117301941,-8.908824377441405,-0.8858546142578124,1.6041151123046875,-24.290076335877863,47.61832061068702,-9.816793893129772,-9.248801013183593,3.095702746582031,-2.588131994628906,11.725190839694656,-46.87022900763359,-22.763358778625953,0.0
14.530001163482666,-8.901641772460938,0.12449848632812499,2.6886884643554687,-23.022900763358777,47.25190839694657,-14.366412213740459,-9.947907897949218,1.39821376953125,-1.0726023437499999,10.763358778625955,-40.99236641221374,-21.221374045801525,0.0
14.540000915527344,-9.861716638183593,0.6536170532226562,1.7812860351562498,-22.03053435114504,46.229007633587784,-17.541984732824428,-10.189722265624999,3.189076611328125,-1.5490484741210937,21.14503816793893,-46.18320610687023,-25.84732824427481,0.0
14.55000114440918,-13.433865515136718,4.563348364257812,3.883395092773437,-19.282442748091604,50.88549618320611,-18.549618320610687,-7.762001782226562,5.839457849121094,-1.9225439331054686,6.198473282442748,-35.954198473282446,-25.740458015267176,0.0
14.560000896453857,-10.115502014160155,1.5418658691406248,1.2401964599609374,-46.50381679389313,36.29007633587786,-15.923664122137405,-10.022128149414062,2.961627453613281,-1.85790048828125,-4.870229007633588,-31.0381679389313,-18.396946564885496,0.0
14.570000886917114,-10.395623608398436,0.8667010009765624,2.0470424194335934,-39.06870229007634,37.63358778625954,-12.83969465648855,-10.711658227539061,0.8116343627929687,-1.0773907470703123,8.641221374045802,-35.603053435114504,-20.12213740458015,0.0
14.580000877380371,-9.655815295410155,-0.9169792358398436,1.9129671264648436,-19.328244274809162,41.20610687022901,-14.106870229007633,-8.061276989746093,2.8850130004882812,-2.6886884643554687,9.709923664122137,-36.045801526717554,-24.18320610687023,0.0
14.590000629425049,-9.662997900390625,0.4165910888671875,2.398990063476562,-12.259541984732824,41.06870229007634,-16.38167938931298,-8.607154968261717,2.0374656127929685,-1.4939818359375,0.3969465648854962,-28.213740458015266,-19.81679389312977,0.0
14.600000858306885,-11.614272253417967,3.768473413085937,3.5625720703124997,-24.595419847328245,37.17557251908397,-19.267175572519083,-10.960655200195312,-0.22026655273437498,-0.09337386474609374,12.061068702290076,-26.641221374045802,-16.18320610687023,0.0
14.610000610351562,-9.993397729492187,1.3766659545898436,1.3670891479492187,-18.198473282442748,35.87786259541985,-15.450381679389313,-10.388441003417968,0.7733271362304687,-1.5322890624999999,21.801526717557252,-36.274809160305345,-21.083969465648856,0.0
14.62000060081482,-9.469067565917967,0.9074024291992187,1.3742717529296875,-3.3435114503816794,37.51145038167939,-12.473282442748092,-8.010998754882811,3.6272155151367187,-1.1731588134765625,16.99236641221374,-31.66412213740458,-22.900763358778626,0.0
14.630000591278076,-10.512939489746094,3.5673604736328124,1.9823989746093749,-13.526717557251908,36.961832061068705,-13.17557251908397,-9.732429748535155,1.1563994018554686,-0.32082302246093747,14.122137404580153,-29.52671755725191,-16.213740458015266,0.0
14.640000820159912,-9.7683427734375,2.626439221191406,0.7613561279296874,-19.358778625954198,36.67175572519084,-10.51908396946565,-10.536881506347656,1.4413093994140624,1.3311761230468748,27.770992366412212,-34.534351145038165,-14.748091603053435,0.0
14.65000057220459,-8.971073620605468,0.12689268798828124,0.833182177734375,-3.7404580152671754,40.94656488549618,-5.648854961832061,-8.657433203124999,3.423708374023437,-0.928950244140625,20.35114503816794,-36.18320610687023,-18.366412213740457,0.0
14.660000801086426,-9.823409411621093,1.438915197753906,2.04943662109375,1.4351145038167938,45.11450381679389,-7.709923664122138,-9.708487731933593,1.458068811035156,0.38786066894531246,6.198473282442748,-29.6793893129771,-12.15267175572519,0.0
14.670001029968262,-10.539275708007812,3.1220389648437497,2.3127988037109373,-10.351145038167939,44.97709923664122,-11.374045801526718,-10.66137999267578,0.3184288208007812,1.0223241088867188,13.221374045801527,-37.282442748091604,-11.755725190839694,0.0
14.68000054359436,-10.338162768554687,2.4756045166015626,1.5131354492187499,-19.31297709923664,35.93893129770992,-9.786259541984732,-10.072406384277343,0.8451531860351562,0.8834604125976562,19.572519083969464,-41.66412213740458,-16.48854961832061,0.0
14.690000772476196,-9.698910925292969,1.2042834350585936,2.446874096679687,-6.854961832061068,40.3206106870229,-5.694656488549619,-8.164227661132813,2.2649147705078123,-0.6679822631835937,1.6793893129770991,-43.45038167938932,-18.793893129770993,0.0
14.700000524520874,-10.165780249023436,2.844311572265625,3.0789433349609374,-17.419847328244273,37.908396946564885,-6.549618320610687,-9.789890588378906,1.429338391113281,1.0654197387695312,-1.2671755725190839,-38.3206106870229,-14.229007633587786,0.0
14.71000051498413,-11.494562170410155,2.2601263671875,3.248931652832031,-34.229007633587784,32.091603053435115,-8.274809160305344,-10.20169327392578,-0.354341845703125,1.35990654296875,6.99236641221374,-45.64885496183206,-14.931297709923664,0.0
14.720000743865967,-9.169792358398437,-0.30406361083984373,1.5370774658203123,-26.076335877862597,26.564885496183205,-5.343511450381679,-9.708487731933593,1.37906015625,0.3806780639648437,12.687022900763358,-50.62595419847328,-18.99236641221374,0.0
14.730000495910645,-10.28549033203125,0.22026655273437498,2.250549560546875,-17.328244274809162,28.33587786259542,-7.374045801526718,-7.742848168945312,3.1699229980468746,0.7661445312499999,-1.5877862595419847,-44.274809160305345,-18.229007633587788,0.0
14.74000072479248,-10.072406384277343,1.158793603515625,2.1260510742187497,-24.290076335877863,26.412213740458014,-8.610687022900763,-10.000580334472655,1.6136919189453125,1.7741034301757812,-9.282442748091603,-41.12977099236641,-12.427480916030534,0.0
14.750000953674316,-10.532093103027343,0.30406361083984373,1.8914193115234375,-19.786259541984734,24.38167938931298,-8.305343511450381,-10.01733974609375,0.181959326171875,1.0366893188476562,-2.7022900763358777,-44.0763358778626,-14.366412213740459,0.0
14.760000705718994,-8.63109698486328,-1.5610194824218748,0.679953271484375,4.8396946564885495,23.297709923664122,-7.175572519083969,-9.935936889648437,0.9074024291992187,1.1851298217773436,1.618320610687023,-44.900763358778626,-17.19083969465649,0.0
14.77000093460083,-10.649408984374999,-0.011971008300781249,1.467645617675781,14.351145038167939,26.580152671755727,-11.923664122137405,-7.302315063476562,3.019088293457031,0.24181436767578124,-10.351145038167939,-41.41984732824427,-18.793893129770993,0.0
