timestamp,Thigh_L_Acc_X,Thigh_L_Acc_Y,Thigh_L_Acc_Z,Thigh_L_Gyr_X,Thigh_L_Gyr_Y,Thigh_L_Gyr_Z,Thigh_R_Acc_X,Thigh_R_Acc_Y,Thigh_R_Acc_Z,Thigh_R_Gyr_X,Thigh_R_Gyr_Y,Thigh_R_Gyr_Z,gpio_output
10.000000476837158,-12.437877624511717,6.873752966308594,-7.589619262695312,-70.10687022900764,-122.09160305343511,59.038167938931295,-22.558168041992186,1.915361328125,0.8188169677734375,-17.64885496183206,30.80916030534351,3.801526717557252,0.0
10.010000705718994,-4.474762902832031,0.8930372192382812,-10.886434948730468,-94.25954198473282,-104.76335877862596,56.10687022900763,-21.44965267333984,3.1196447631835937,1.2018892333984375,-10.717557251908397,12.854961832061068,-1.3587786259541985,1.0
10.020000696182251,1.2976572998046874,-4.764461303710937,-15.751452722167969,-106.36641221374046,-65.74045801526718,52.030534351145036,-18.71308017578125,6.002263562011718,2.70065947265625,-12.931297709923664,0.8244274809160306,-3.9083969465648853,1.0
10.030000925064087,1.7812860351562498,-6.5409589355468745,-15.282189196777344,-117.64885496183206,-28.99236641221374,36.36641221374046,-15.203180541992186,9.356540087890625,3.8570588745117185,-24.778625954198475,-2.549618320610687,2.4427480916030535,1.0
10.040000438690186,-2.152387292480469,-3.342305517578125,-15.751452722167969,-113.1145038167939,12.534351145038167,19.206106870229007,-13.072341064453123,9.957484704589843,3.6583401367187496,-38.25954198473283,-8.13740458015267,13.679389312977099,1.0
10.050081491470337,-9.991003527832031,-1.6065093139648436,-10.189722265624999,-115.17557251908397,41.603053435114504,7.893129770992366,-12.160150231933594,9.157821350097656,3.1316157714843746,-49.51145038167939,-16.35114503816794,25.053435114503817,1.0
10.060000896453857,-14.633360546874998,-3.0813375366210938,-6.9144543945312495,-108.27480916030534,60.030534351145036,4.106870229007634,-11.540052001953125,7.551312036132812,3.725377783203125,-68.18320610687023,-12.641221374045802,35.541984732824424,1.0
10.070000410079956,-16.596605908203124,-4.438849877929687,-4.881777185058594,-87.81679389312977,81.12977099236642,-1.6488549618320612,-11.233594189453123,7.948749511718749,0.8379705810546875,-74.77862595419847,-22.519083969465647,37.70992366412214,1.0
10.080000877380371,-18.11213555908203,-2.6096798095703124,-1.5586252807617187,-73.70992366412214,94.93129770992367,-8.473282442748092,-11.822567797851562,6.030993981933594,1.687912170410156,-93.20610687022901,-14.16793893129771,42.0,1.0
10.090000629425049,-15.914258435058592,-0.5458779785156249,0.10773907470703124,-70.59541984732824,93.72519083969466,-7.435114503816794,-12.842497705078124,3.7301661865234372,2.185906115722656,-94.9618320610687,-12.854961832061068,45.12977099236641,1.0
10.10001516342163,-15.272612390136718,0.8690952026367187,2.1978771240234374,-74.29007633587786,88.36641221374046,-7.190839694656488,-12.550405102539061,3.6272155151367187,-0.28969840087890625,-86.73282442748092,-19.328244274809162,41.66412213740458,1.0
10.110000371932983,-13.148955517578123,-0.12449848632812499,2.35589443359375,-83.19083969465649,74.53435114503817,-5.648854961832061,-12.066776367187499,3.564966271972656,0.05746083984375,-85.86259541984732,-12.229007633587786,37.37404580152672,1.0
10.12000060081482,-12.289437121582031,-1.2425906616210938,1.8339584716796873,-82.90076335877863,64.70229007633588,-6.396946564885496,-12.320561743164061,2.722207287597656,-0.7445967163085937,-75.00763358778626,-8.687022900763358,34.54961832061068,1.0
10.130000591278076,-9.619902270507811,-3.9647979492187497,-0.8571241943359375,-74.97709923664122,53.48091603053435,-6.488549618320611,-10.912771166992187,1.927332336425781,-2.2936451904296873,-62.88549618320611,-8.870229007633588,31.16030534351145,1.0
10.140000581741333,-8.781931689453124,-4.584896179199219,-1.5490484741210937,-51.847328244274806,57.19083969465649,-11.038167938931299,-8.724470849609375,1.2138602416992186,-2.779668127441406,-50.732824427480914,-8.870229007633588,28.137404580152673,1.0
10.15000057220459,-8.327033374023436,-3.9360675292968748,-1.6256629272460936,-26.931297709923665,62.30534351145038,-16.83969465648855,-7.668627917480468,1.2832920898437499,-2.906560815429687,-35.64885496183206,-6.091603053435114,26.259541984732824,1.0
10.160000562667847,-9.179369165039063,-1.4245499877929686,-1.407790576171875,-17.954198473282442,62.93129770992366,-21.328244274809162,-7.0078282592773435,0.181959326171875,-1.927332336425781,-25.633587786259543,3.7709923664122136,26.748091603053435,1.0
10.170000553131104,-8.74601866455078,-0.430956298828125,-0.9624690673828125,-1.297709923664122,70.7175572519084,-22.045801526717558,-7.153874560546875,-1.915361328125,-1.3910311645507811,-11.618320610687023,9.908396946564885,24.900763358778626,1.0
10.180000305175781,-8.894459167480468,0.9935936889648437,-0.430956298828125,-2.122137404580153,70.44274809160305,-19.96946564885496,-6.160280871582031,-1.3934253662109375,-3.1316157714843746,1.1297709923664123,6.1679389312977095,15.221374045801527,1.0
10.190000772476196,-8.243236315917969,0.8283937744140625,-0.6296750366210937,6.900763358778626,74.87022900763358,-16.549618320610687,-8.468291271972657,-4.096479040527344,-0.5099649536132812,21.83206106870229,12.641221374045802,11.404580152671755,1.0
10.200000286102295,-8.190563879394531,1.2018892333984375,0.36391865234375,10.412213740458014,78.76335877862596,-17.603053435114504,-6.732495068359374,-2.978386865234375,-1.438915197753906,29.633587786259543,9.267175572519085,-1.83206106870229,1.0
10.21000051498413,-8.180987072753906,1.0199299072265624,0.9504980590820312,7.358778625954199,79.02290076335878,-18.213740458015266,-7.888894470214844,-3.380612744140625,-0.8164227661132812,38.74809160305343,11.511450381679388,-10.870229007633588,0.0
10.220000505447388,-8.135497241210937,1.180341418457031,1.5921441040039062,2.687022900763359,79.89312977099236,-20.076335877862597,-5.195417602539062,0.00718260498046875,-3.2321722412109373,30.68702290076336,8.870229007633588,-23.6793893129771,0.0
10.230000495910645,-8.992621435546875,1.7334020019531249,2.999934680175781,-4.427480916030534,79.40458015267176,-19.938931297709924,-7.857769848632812,-0.5985504150390625,-1.2856862915039062,19.66412213740458,24.045801526717558,-27.099236641221374,0.0
10.240000486373901,-9.533711010742186,0.6392518432617187,3.114856359863281,-6.458015267175573,74.65648854961832,-19.267175572519083,-8.109161022949218,-0.4477157104492187,1.005564697265625,16.244274809160306,29.068702290076335,-31.66412213740458,0.0
10.250000476837158,-10.66137999267578,0.7685387329101562,3.5290532470703124,-2.885496183206107,71.19083969465649,-18.793893129770993,-10.417171423339843,-2.0446482177734375,1.4006079711914061,26.85496183206107,23.282442748091604,-34.58015267175573,0.0
10.260000705718994,-11.896788049316406,1.8004396484374998,3.995922570800781,-3.068702290076336,66.73282442748092,-18.717557251908396,-8.628702783203124,-1.209071838378906,1.7836802368164062,40.47328244274809,10.961832061068701,-39.89312977099237,0.0
10.270000696182251,-11.966219897460936,1.3215993164062498,3.73495458984375,-13.083969465648854,54.88549618320611,-14.274809160305344,-8.394071020507813,1.9752163696289062,3.0645781249999997,50.458015267175576,-0.4580152671755725,-40.595419847328245,0.0
10.280000686645508,-14.836867687988281,4.821922143554687,5.839457849121094,-28.68702290076336,47.954198473282446,-13.312977099236642,-6.907271789550781,5.178658190917968,2.501940734863281,40.85496183206107,-10.229007633587786,-37.969465648854964,0.0
10.290000677108765,-14.104241979980468,4.7931917236328125,5.863399865722656,-60.42748091603053,21.6793893129771,-5.648854961832061,-8.774749084472656,5.674257934570313,4.759672900390624,31.61832061068702,-12.045801526717558,-28.015267175572518,0.0
10.3000009059906,-12.014103930664062,0.5889736083984375,5.260061047363281,-57.05343511450382,9.908396946564885,3.435114503816794,-8.334215979003906,5.961562133789062,4.2880151733398435,13.404580152671755,-11.404580152671755,-21.801526717557252,0.0
10.3100004196167,-9.212887988281249,-1.4125789794921875,3.641580725097656,-44.717557251908396,-2.763358778625954,9.389312977099237,-7.812280017089844,6.179434484863281,3.21780703125,-0.7786259541984732,-13.450381679389313,-14.870229007633588,0.0
10.320000648498535,-12.097900988769531,0.38307226562499996,5.439626171875,-36.900763358778626,-0.0,5.893129770992366,-9.150638745117186,4.010287780761718,2.77727392578125,-9.389312977099237,-11.908396946564885,-8.458015267175572,0.0
10.330000638961792,-10.596736547851561,-0.1197100830078125,3.948038537597656,-39.74045801526717,-17.740458015267176,9.587786259541986,-8.06367119140625,3.907337109375,1.1611878051757811,-17.236641221374047,-13.603053435114504,-5.145038167938932,0.0
10.340000629425049,-10.8409451171875,-0.15322890625,3.459621398925781,-27.709923664122137,-19.099236641221374,10.427480916030534,-9.41639512939453,-1.3287819213867187,3.921702319335937,-10.641221374045802,-10.061068702290076,-0.6870229007633588,0.0
10.350000381469727,-9.0788126953125,-2.1308394775390624,1.5658078857421873,-18.778625954198475,-26.53435114503817,9.725190839694656,-9.698910925292969,-0.6440402465820312,0.7637503295898437,9.908396946564885,-29.129770992366414,-7.877862595419847,0.0
10.360000610351562,-9.631873278808593,-0.7661445312499999,1.1635820068359375,-6.0458015267175576,-19.34351145038168,5.435114503816794,-11.180921752929686,-1.9632453613281249,2.4253262817382812,9.114503816793894,-23.480916030534353,-11.16030534351145,0.0
10.37000060081482,-8.913612780761719,-0.5051765502929687,1.2378022583007813,-6.763358778625954,-21.0381679389313,1.83206106870229,-9.382876306152344,-1.5729904907226562,0.41419688720703124,14.305343511450381,-32.51908396946565,-19.52671755725191,0.0
10.380000591278076,-8.549694128417968,-0.4908113403320312,1.3359645263671873,8.83969465648855,-13.48091603053435,0.12213740458015267,-11.427524523925781,-5.204994409179688,2.7557261108398436,33.221374045801525,-35.603053435114504,-22.442748091603054,0.0
10.390000581741333,-8.212111694335936,0.44053310546874996,0.814028564453125,16.16793893129771,-10.916030534351146,-2.3969465648854964,-8.310273962402343,-0.45489831542968745,-0.8834604125976562,46.87022900763359,-51.23664122137404,-34.62595419847328,0.0
10.400000810623169,-8.844180932617187,1.3359645263671873,1.005564697265625,19.908396946564885,-5.7251908396946565,-1.4809160305343512,-7.874529260253905,1.005564697265625,-0.0143652099609375,32.62595419847328,-37.98473282442748,-33.52671755725191,0.0
10.410000324249268,-8.82981572265625,1.7357962036132812,2.1452046874999997,27.053435114503817,4.198473282442748,-2.717557251908397,-10.187328063964843,-0.5817910034179687,1.1372457885742187,42.62595419847328,-36.70229007633588,-30.18320610687023,0.0
10.420000553131104,-9.363722692871093,1.9967641845703124,2.2002713256835937,20.83969465648855,1.099236641221374,-2.6259541984732824,-8.705317236328124,2.798821740722656,-0.33039982910156246,50.656488549618324,-41.14503816793893,-33.587786259541986,0.0
10.43000078201294,-8.798691101074219,1.180341418457031,2.224213342285156,17.328244274809162,-0.3053435114503817,0.2595419847328244,-7.690175732421874,3.3542765258789062,-0.06943184814453125,41.038167938931295,-31.34351145038168,-28.48854961832061,0.0
10.440000534057617,-9.241618408203124,0.7589619262695312,3.1292215698242187,14.687022900763358,-1.4351145038167938,-2.198473282442748,-10.04846436767578,1.1827356201171875,1.5562310791015623,45.3587786259542,-26.9618320610687,-22.916030534351144,0.0
10.450000524520874,-9.334992272949219,-0.08379705810546874,3.0262708984374997,20.65648854961832,-4.534351145038168,-3.969465648854962,-9.035717065429687,2.6096798095703124,0.5674257934570313,53.38931297709924,-33.41984732824427,-25.14503816793893,0.0
10.46000051498413,-8.916006982421875,-0.2537853759765625,3.21780703125,28.290076335877863,-3.9236641221374047,-4.473282442748092,-7.60398447265625,2.710236279296875,0.6679822631835937,46.045801526717554,-24.16793893129771,-22.793893129770993,0.0
10.470000743865967,-9.445125549316407,0.6727706665039062,3.948038537597656,30.015267175572518,-3.786259541984733,-6.99236641221374,-7.259219433593749,2.3415292236328122,0.35673604736328124,39.41984732824427,-20.412213740458014,-18.30534351145038,0.0
10.480000495910645,-9.495403784179686,0.8499415893554687,3.897760302734375,33.98473282442748,-6.687022900763359,-6.900763358778626,-9.5001921875,-0.08140285644531249,2.085349645996094,47.725190839694655,-15.587786259541986,-14.610687022900763,0.0
10.490009546279907,-10.82179150390625,1.7429788085937499,3.756502404785156,33.52671755725191,-9.221374045801527,-7.6183206106870225,-8.801085302734375,-0.29448680419921874,1.8435352783203125,63.267175572519086,-26.793893129770993,-18.3206106870229,0.0
10.500000476837158,-8.856151940917968,0.14125789794921875,3.4955344238281247,37.83206106870229,-14.320610687022901,-5.893129770992366,-7.240065820312499,0.718260498046875,1.4030021728515625,60.87022900763359,-24.80916030534351,-19.87786259541985,0.0
10.510000467300415,-10.893617553710937,1.9009961181640624,5.2265422241210935,29.251908396946565,-16.137404580152673,-8.900763358778626,-6.852205151367187,2.4875755249023435,0.30406361083984373,47.6793893129771,-19.954198473282442,-18.412213740458014,0.0
10.520060539245605,-9.373299499511718,0.8690952026367187,5.887341882324218,29.984732824427482,-22.85496183206107,-7.236641221374046,-6.294356164550781,2.3223756103515623,0.7996633544921875,26.442748091603054,-11.389312977099237,-16.015267175572518,0.0
10.530000686645508,-9.5384994140625,0.1005564697265625,6.732495068359374,27.282442748091604,-32.33587786259542,-9.267175572519085,-7.256825231933593,2.731784094238281,1.3623007446289062,18.99236641221374,-7.435114503816794,-17.0381679389313,0.0
10.540000438690186,-9.545682019042967,-0.3016694091796875,7.613561279296874,34.656488549618324,-41.00763358778626,-12.076335877862595,-7.096413720703125,3.438073583984375,2.042254016113281,7.984732824427481,-3.816793893129771,-17.64885496183206,0.0
10.550000667572021,-7.896077075195312,-2.310404602050781,6.849810949707031,46.68702290076336,-50.717557251908396,-12.65648854961832,-8.836998327636719,1.8650830932617186,3.430890979003906,3.099236641221374,-7.099236641221374,-16.778625954198475,0.0
10.560000896453857,-8.300697155761718,-2.6671406494140624,7.6087728759765625,60.56488549618321,-60.0,-18.106870229007633,-7.967903124999999,1.388636962890625,4.537012145996093,-5.938931297709924,-8.702290076335878,-16.977099236641223,0.0
10.570000648498535,-9.038111267089842,-1.4939818359375,7.924807495117187,64.36641221374046,-66.87022900763358,-23.114503816793892,-11.094730493164063,0.2059013427734375,6.0333881835937495,-5.6183206106870225,-21.17557251908397,-13.557251908396946,0.0
10.580000638961792,-6.998251452636718,-2.9472622436523435,7.651868505859374,58.045801526717554,-88.91603053435115,-25.46564885496183,-6.864176159667968,2.5043349365234375,4.704606262207031,-27.358778625954198,-23.282442748091604,-20.106870229007633,0.0
10.59000039100647,-8.054094384765625,-1.2737152832031249,9.37808790283203,72.73282442748092,-91.12977099236642,-30.35114503816794,-5.9950809570312495,2.7748797241210936,3.897760302734375,-47.63358778625954,-31.16030534351145,-20.900763358778626,0.0
10.600000619888306,-10.223241088867187,4.106055847167968,8.750807067871094,54.29007633587786,-110.77862595419847,-35.69465648854962,-6.567295153808593,2.023100402832031,1.8195932617187498,-62.16793893129771,-12.320610687022901,-19.450381679389313,0.0
10.610000371932983,-10.982203015136719,2.7365724975585937,8.039729174804688,39.725190839694655,-131.22137404580153,-28.580152671755727,-9.715670336914062,2.0302830078125,1.6160861206054686,-59.29770992366412,0.10687022900763359,-22.671755725190838,0.0
10.62000060081482,-10.347739575195313,1.3192051147460937,4.551377355957031,47.83206106870229,-136.82442748091603,-21.404580152671755,-16.421829187011717,-3.0502129150390624,6.617573388671874,-45.52671755725191,-8.885496183206106,-29.862595419847327,0.0
10.630000591278076,-13.096283081054686,0.6344634399414062,2.8945898071289062,38.93129770992366,-143.38931297709922,-19.053435114503817,-19.297265380859375,-5.849034655761718,8.336610180664062,-32.35114503816794,-19.34351145038168,-41.3587786259542,0.0
10.640000581741333,-14.290989709472655,0.19871873779296872,0.93852705078125,42.44274809160305,-148.6412213740458,-9.236641221374045,-18.375497741699217,-6.663063220214843,7.682993127441406,-3.8625954198473282,-37.52671755725191,-24.931297709923665,0.0
10.65000033378601,-14.427459204101561,-0.3016694091796875,-1.1228805786132812,51.786259541984734,-147.0229007633588,3.66412213740458,-13.350068457031249,-4.642357019042969,2.375048046875,20.977099236641223,-50.900763358778626,-17.557251908396946,0.0
10.660000562667847,-14.635754748535156,0.08140285644531249,-1.3527239379882812,59.343511450381676,-138.18320610687022,16.198473282442748,-8.549694128417968,-2.916137622070312,-2.4971523315429685,43.267175572519086,-45.20610687022901,-12.778625954198473,0.0
10.670000553131104,-13.47696114501953,-2.042254016113281,-0.7924807495117187,67.38931297709924,-129.64885496183206,24.82442748091603,-5.504269616699219,-2.7174188842773437,-6.801926916503906,64.22900763358778,-30.458015267175572,-11.358778625954198,0.0
10.68000054359436,-12.313379138183594,-5.078101721191406,-0.22266075439453123,81.72519083969466,-119.41984732824427,27.00763358778626,-6.179434484863281,-4.094084838867187,-6.586448767089843,73.14503816793894,-8.50381679389313,-14.061068702290076,0.0
10.690000295639038,-12.447454431152343,-4.517858532714843,-0.00239420166015625,96.4885496183206,-105.57251908396947,21.786259541984734,-7.072471704101562,-5.2648494506835934,-6.706158850097656,100.22900763358778,8.549618320610687,-20.82442748091603,0.0
10.700000524520874,-12.289437121582031,-3.864241479492187,1.3551181396484375,102.38167938931298,-91.05343511450381,16.778625954198475,-8.690952026367187,-2.798821740722656,-5.487510205078125,106.45801526717557,21.221374045801525,-23.84732824427481,0.0
10.71000075340271,-11.75313594970703,-2.1164742675781247,2.3487118286132813,105.26717557251908,-80.3969465648855,14.0,-9.885658654785155,-1.4101847778320311,-3.7301661865234372,98.13740458015268,39.17557251908397,-21.236641221374047,0.0
10.720000267028809,-10.378864196777343,-0.34715924072265625,1.7621324218749999,96.87022900763358,-71.1145038167939,10.50381679389313,-11.389217297363281,0.00239420166015625,-2.3151930053710936,101.90839694656489,44.900763358778626,-18.916030534351144,0.0
10.730000495910645,-8.540117321777343,0.5746083984375,1.0319009155273438,77.46564885496183,-63.74045801526717,5.587786259541985,-10.972626208496093,4.242525341796875,-0.33518823242187495,100.45801526717557,47.55725190839695,-15.511450381679388,0.0
10.740000247955322,-6.433219860839843,0.8547299926757812,0.40222587890625,51.51145038167939,-55.48091603053435,2.183206106870229,-10.87925234375,5.9376201171875,-1.7381904052734374,84.91603053435115,45.17557251908397,-7.923664122137405,0.0
10.750000476837158,-5.49708701171875,1.7525556152343749,-0.03591302490234375,25.450381679389313,-43.29770992366412,-1.0687022900763359,-11.86805762939453,4.8889597900390624,-0.48123453369140623,68.35114503816794,54.274809160305345,4.229007633587786,0.0
10.760000705718994,-3.4428619873046875,1.0103531005859374,-1.599326708984375,4.748091603053435,-34.99236641221374,-0.3053435114503817,-11.65736788330078,3.4356793823242184,0.076614453125,60.595419847328245,47.25190839694657,10.977099236641221,0.0
10.770000696182251,-3.0526071166992184,-0.143652099609375,-2.6312276245117188,-5.923664122137405,-22.259541984732824,-0.7938931297709924,-11.786654772949218,2.722207287597656,0.6512228515624999,56.732824427480914,39.98473282442748,14.198473282442748,0.0
10.780000686645508,-2.8993782104492185,-0.0718260498046875,-2.6384102294921874,-15.435114503816793,-8.366412213740459,-4.885496183206107,-12.998120812988281,0.24660277099609373,2.5522189697265625,56.152671755725194,38.900763358778626,16.9618320610687,0.0
10.790000915527344,-3.4069489624023435,0.20350714111328125,-3.2632968627929686,-24.244274809160306,6.625954198473282,-8.442748091603054,-8.84178673095703,3.438073583984375,0.4908113403320312,43.89312977099237,26.16793893129771,11.541984732824428,0.0
10.800000429153442,-1.6448165405273436,-0.7493851196289062,-4.321533996582031,-24.427480916030536,21.96946564885496,-8.030534351145038,-9.289502441406249,1.7645266235351562,1.24498486328125,28.80916030534351,27.419847328244273,15.374045801526718,0.0
10.810000658035278,-1.4628572143554686,-0.6368576416015624,-4.671087438964843,-25.740458015267176,39.64885496183206,-12.595419847328245,-8.339004382324218,1.3383587280273437,1.2713210815429687,16.946564885496183,24.793893129770993,15.358778625954198,0.0
10.820000886917114,-1.0223241088867188,-1.4053963745117186,-4.771643908691406,-20.35114503816794,58.82442748091603,-13.022900763358779,-7.893682873535155,0.7757213378906249,1.1875240234375,6.5038167938931295,23.358778625954198,14.83969465648855,0.0
10.830000638961792,-1.695094775390625,-2.346317626953125,-4.304774584960938,2.9160305343511452,87.57251908396947,-12.854961832061068,-7.086836914062499,-0.3902548706054687,1.695094775390625,0.4732824427480916,23.022900763358777,13.664122137404581,0.0
10.840013027191162,-2.142810485839844,-2.568978381347656,-2.8802245971679685,7.938931297709924,97.78625954198473,-17.755725190839694,-6.524199523925781,-1.35990654296875,2.0566192260742184,-1.633587786259542,20.641221374045802,11.145038167938932,0.0
10.850000619888306,-4.273649963378906,-0.7230489013671875,1.0797849487304687,16.16793893129771,118.97709923664122,-23.31297709923664,-6.823474731445312,-2.1164742675781247,2.6910826660156246,-2.4732824427480917,16.564885496183205,9.374045801526718,0.0
10.860000610351562,-2.133233679199219,-1.8507178833007811,1.2928688964843749,16.870229007633586,121.38931297709924,-20.549618320610687,-5.68862314453125,-0.9840168823242187,1.8722656982421875,-6.519083969465649,12.381679389312977,4.473282442748092,0.0
10.87000036239624,-5.463568188476562,0.6751648681640625,3.289633081054687,29.587786259541986,139.96946564885496,-19.923664122137403,-7.4770917846679685,-1.68551796875,2.7054478759765623,-7.572519083969466,13.236641221374045,3.1297709923664123,0.0
10.880000591278076,-4.570530969238281,-0.7972691528320313,4.266467358398438,36.61068702290076,138.0763358778626,-14.80916030534351,-6.119579443359375,1.3670891479492187,1.0223241088867188,-13.419847328244275,7.083969465648855,-3.7099236641221376,0.0
10.890120267868042,-6.617573388671874,2.023100402832031,9.272743029785156,69.3587786259542,147.22137404580153,-10.045801526717558,-7.484274389648437,1.898601916503906,0.8212111694335937,-30.12213740458015,19.46564885496183,0.5801526717557252,0.0
10.90000057220459,-8.044517578125,4.7764323120117185,10.275913525390624,59.786259541984734,132.3969465648855,-6.488549618320611,-8.152256652832031,2.750937707519531,-0.7158662963867187,-40.44274809160305,15.358778625954198,-0.030534351145038167,0.0
10.910000324249268,-9.651026892089844,5.5641246582031245,13.189656945800781,25.923664122137403,107.3587786259542,-10.595419847328245,-6.931213806152344,5.528211633300781,-0.35194764404296874,-64.50381679389314,28.30534351145038,4.854961832061068,0.0
10.920000314712524,-13.388375683593749,7.1203557373046875,16.168043811035155,-30.12213740458015,76.6412213740458,-14.045801526717558,-8.796296899414061,3.5482068603515624,0.0909796630859375,-73.95419847328245,38.62595419847328,12.335877862595419,0.0
10.93000078201294,-14.092270971679687,6.6893994384765625,16.402675573730466,-69.8473282442748,36.656488549618324,-10.992366412213741,-7.445967163085937,6.270414147949219,0.2059013427734375,-90.56488549618321,38.534351145038165,16.65648854961832,0.0
10.940000295639038,-14.425065002441405,5.116408947753906,14.767435839843749,-72.3206106870229,5.770992366412214,2.595419847328244,-9.789890588378906,0.7422025146484375,1.6903063720703124,-89.22137404580153,40.85496183206107,32.0,0.0
10.950000762939453,-12.105083593749999,2.360682836914062,11.966219897460936,-34.19847328244275,-15.572519083969466,16.946564885496183,-6.198588098144531,2.4444798950195312,-0.5674257934570313,-85.92366412213741,25.297709923664122,32.47328244274809,0.0
10.96000051498413,-10.572794531249999,2.437297290039062,9.045293872070312,5.00763358778626,-25.557251908396946,29.31297709923664,-7.369352709960937,-1.0199299072265624,0.6560112548828124,-82.94656488549619,31.00763358778626,46.56488549618321,0.0
10.970017910003662,-8.793902697753905,2.3535002319335936,6.019022973632812,20.33587786259542,-32.82442748091603,34.06106870229008,-7.37414111328125,-4.659116430664063,-0.4429273071289062,-58.74809160305343,21.251908396946565,45.847328244274806,0.0
10.980000257492065,-9.665392102050781,0.5674257934570313,8.796296899414061,34.778625954198475,-42.732824427480914,43.25190839694657,-6.452373474121093,-2.3822306518554686,-2.080561242675781,-41.98473282442748,7.3893129770992365,48.29007633587786,0.0
10.990000247955322,-7.8529814453124995,1.7597382202148437,4.673481640625,62.717557251908396,-39.7557251908397,60.18320610687023,-7.094019519042968,-2.2385785522460937,-2.43250888671875,-39.51145038167939,14.061068702290076,42.732824427480914,0.0
11.000000476837158,-9.670180505371093,5.039794494628906,1.5131354492187499,30.38167938931298,-35.02290076335878,65.66412213740458,-9.37808790283203,-3.0262708984374997,-2.1978771240234374,-35.80152671755725,20.045801526717558,37.64885496183206,0.0
11.010000467300415,-16.72110439453125,7.173028173828125,10.319009155273436,14.580152671755725,-40.6412213740458,81.0381679389313,-12.770671655273437,-3.2824504760742186,-2.205059729003906,-37.87786259541985,29.129770992366414,31.16030534351145,0.0
11.020041942596436,-24.435222143554686,16.067487341308592,15.945383056640624,4.3816793893129775,-41.29770992366412,94.59541984732824,-15.887922216796873,-3.4811692138671875,-1.678335363769531,-32.80916030534351,32.3206106870229,24.748091603053435,0.0
11.030000448226929,-23.85103693847656,12.488155859374999,9.023746057128905,-68.42748091603053,-86.38167938931298,86.77862595419847,-19.431340673828124,-3.6487633300781246,0.22505495605468748,-20.366412213740457,28.580152671755727,20.763358778625953,0.0
11.040000915527344,-21.619640991210936,1.1827356201171875,4.630386010742187,-122.18320610687023,-116.62595419847328,70.94656488549619,-19.06981622314453,-1.6017209106445311,1.37906015625,-2.16793893129771,14.366412213740459,14.442748091603054,0.0
11.050000429153442,-26.02976044921875,-3.84987626953125,8.690952026367187,-104.94656488549619,-124.3969465648855,65.6030534351145,-17.453730102539062,-0.143652099609375,1.1563994018554686,10.229007633587786,3.2213740458015265,10.580152671755725,0.0
11.060000658035278,-19.024326391601562,2.5665841796874997,-1.9800047729492187,-85.19083969465649,-119.61832061068702,66.77862595419847,-16.962918762207032,5.317521887207031,1.199495031738281,2.015267175572519,-7.938931297709924,-1.5572519083969465,0.0
11.070000410079956,-10.108319409179687,4.192247106933594,-6.169857678222656,-108.9618320610687,-117.17557251908397,58.94656488549618,-19.10812344970703,8.358157995605469,2.212242333984375,-32.01526717557252,-7.694656488549619,-8.13740458015267,0.0
11.080000877380371,-2.1212626708984375,-7.637503295898437,-11.020510241699219,-114.36641221374046,-87.70992366412214,65.54198473282443,-19.232621936035155,7.560888842773437,3.4572271972656248,-45.06870229007634,-14.122137404580153,-4.320610687022901,0.0
11.09000039100647,-0.33039982910156246,-12.514492077636717,-11.741164941406248,-95.49618320610686,-50.412213740458014,46.79389312977099,-16.98925498046875,6.775590698242187,3.986345764160156,-42.656488549618324,-24.38167938931298,0.4122137404580153,0.0
11.100000381469727,-1.1372457885742187,-9.363722692871093,-15.406687683105467,-80.56488549618321,-21.709923664122137,24.702290076335878,-14.07790576171875,9.787496386718749,2.844311572265625,-40.42748091603053,-36.06106870229008,7.526717557251908,0.0
11.110000610351562,-9.49300958251953,-3.0142998901367184,-12.196063256835936,-63.969465648854964,24.748091603053435,1.8778625954198473,-12.380416784667968,8.099584216308592,3.6296097167968746,-49.31297709923664,-36.045801526717554,21.129770992366414,0.0
11.12000060081482,-10.647014782714843,-3.375824340820312,-9.315838659667968,-49.6793893129771,42.47328244274809,-7.114503816793893,-11.93270107421875,7.321468676757812,1.1731588134765625,-52.87022900763359,-44.83969465648855,30.015267175572518,0.0
11.130000591278076,-14.30056651611328,-0.2561795776367187,-4.299986181640625,-33.14503816793893,72.41221374045801,-15.022900763358779,-11.513715783691406,7.888894470214844,-0.16519991455078123,-64.21374045801527,-45.98473282442748,35.66412213740458,0.0
11.140000581741333,-15.653290454101562,1.189918225097656,-2.070984436035156,-27.14503816793893,83.06870229007633,-13.709923664122137,-12.38520518798828,5.659892724609374,0.3591302490234375,-76.21374045801527,-37.98473282442748,43.69465648854962,0.0
11.15000057220459,-15.538368774414062,2.214636535644531,-0.5985504150390625,-23.984732824427482,94.09160305343511,-8.977099236641221,-13.960589880371092,2.5857377929687497,0.296881005859375,-74.0,-35.74045801526717,46.030534351145036,0.0
11.160000562667847,-15.610194824218748,2.817975354003906,1.37906015625,-32.6412213740458,95.52671755725191,-7.847328244274809,-14.041992736816406,2.39420166015625,-1.024718310546875,-65.0381679389313,-36.93129770992366,38.70229007633588,0.0
11.170000553131104,-15.071499450683593,1.3048399047851562,2.4109610717773435,-55.038167938931295,83.08396946564885,-4.564885496183206,-13.057975854492186,3.488351818847656,-1.8219874633789062,-68.54961832061069,-33.603053435114504,27.938931297709924,0.0
11.18000054359436,-12.253524096679687,-1.0773907470703123,3.1675287963867187,-55.14503816793893,81.74045801526718,-4.458015267175573,-11.58075343017578,3.871424084472656,-2.7078420776367187,-75.31297709923665,-27.770992366412212,21.6793893129771,0.0
11.190000772476196,-13.424288708496093,1.467645617675781,1.6160861206054686,-67.74045801526718,71.37404580152672,-10.427480916030534,-11.228805786132812,3.67749375,-3.361459130859375,-73.86259541984732,-20.68702290076336,16.106870229007633,0.0
11.200000286102295,-9.871293444824218,-1.5705962890624998,-0.5746083984375,-66.85496183206106,64.3206106870229,-8.748091603053435,-10.271125122070313,1.7501614135742187,-2.5665841796874997,-64.54961832061069,-10.80916030534351,14.732824427480915,0.0
11.21000075340271,-8.705317236328124,-1.0749965454101562,-1.0390835205078124,-75.96946564885496,52.152671755725194,-10.717557251908397,-9.0021982421875,1.2569558715820313,-2.070984436035156,-45.51145038167939,-5.740458015267175,11.664122137404581,0.0
11.220000505447388,-9.337386474609374,-1.5083470458984374,-0.3136404174804687,-55.00763358778626,63.954198473282446,-11.618320610687023,-7.211335400390625,2.73896669921875,-3.4524387939453125,-42.76335877862596,-2.1526717557251906,6.259541984732825,0.0
11.230000495910645,-9.3852705078125,-0.6488286499023437,0.07900865478515624,-42.56488549618321,70.41221374045801,-13.404580152671755,-8.078036401367187,0.7062894897460937,-1.898601916503906,-24.931297709923665,5.770992366412214,8.412213740458014,0.0
11.240000486373901,-9.739612353515625,0.062249243164062495,0.4740519287109375,-31.450381679389313,75.83206106870229,-14.50381679389313,-6.87614716796875,-0.19871873779296872,-1.2928688964843749,-17.297709923664122,7.6183206106870225,5.32824427480916,0.0
11.250000476837158,-8.645462194824217,-0.39983167724609375,-0.22744915771484372,-27.49618320610687,74.68702290076335,-13.129770992366412,-7.137115148925781,-1.0678139404296874,-0.622492431640625,-5.038167938931298,8.916030534351146,3.0381679389312977,0.0
11.260000705718994,-9.069235888671875,1.5825672973632812,1.7884686401367187,-23.52671755725191,82.21374045801527,-16.610687022900763,-1.4772224243164063,4.3813890380859375,-5.284003063964843,-17.328244274809162,-1.9236641221374047,-8.580152671755725,0.0
11.270000696182251,-9.409212524414063,2.549824768066406,2.3056161987304686,-39.267175572519086,73.57251908396947,-15.450381679389313,-7.429207751464843,0.8212111694335937,-0.7900865478515624,-41.404580152671755,39.847328244274806,2.2442748091603053,0.0
11.280000448226929,-8.497021691894531,1.1851298217773436,3.0933085449218747,-41.343511450381676,69.95419847328245,-14.305343511450381,-8.520963708496094,-3.7158009765625,0.7900865478515624,-11.297709923664122,27.862595419847327,3.480916030534351,0.0
11.290000677108765,-9.634267480468749,-0.1771709228515625,3.9336733276367184,-34.412213740458014,64.97709923664122,-14.687022900763358,-6.919242797851562,-1.5562310791015623,-0.5386953735351562,2.1374045801526718,19.66412213740458,-10.244274809160306,0.0
11.3000009059906,-9.37808790283203,-0.6751648681640625,3.4548329956054684,-23.770992366412212,64.07633587786259,-13.648854961832061,-9.014169250488282,-3.071760729980469,3.0142998901367184,9.679389312977099,24.793893129770993,-17.297709923664122,0.0
11.310000658035278,-9.018957653808593,-1.388636962890625,3.8235400512695312,-20.35114503816794,59.541984732824424,-15.099236641221374,-8.94473740234375,-3.7900212280273435,3.4524387939453125,23.236641221374047,16.33587786259542,-25.862595419847327,0.0
11.320000886917114,-10.54645831298828,1.218648645019531,3.9839515624999997,-16.977099236641223,55.17557251908397,-17.923664122137403,-7.60398447265625,-1.2689268798828124,2.1643583007812497,24.717557251908396,7.32824427480916,-33.43511450381679,0.0
11.330000400543213,-11.061211669921875,2.461239306640625,4.235342736816406,-31.206106870229007,42.85496183206107,-15.374045801526718,-7.091625317382812,0.38786066894531246,2.2290017456054687,20.229007633587788,3.114503816793893,-34.85496183206107,0.0
11.340000867843628,-10.922347973632812,1.9129671264648436,3.612850305175781,-32.900763358778626,37.55725190839695,-9.541984732824428,-11.389217297363281,-3.284844677734375,5.825092639160156,32.76335877862596,-0.24427480916030533,-31.72519083969466,0.0
11.350000381469727,-9.974244116210937,0.5003881469726562,2.8371289672851563,-28.27480916030534,33.7557251908397,-7.32824427480916,-10.041281762695311,-2.3726538452148436,5.279214660644531,56.0763358778626,-20.83969465648855,-38.10687022900763,0.0
11.360000610351562,-9.952696301269532,-0.23223756103515625,2.4947581298828125,-23.49618320610687,29.81679389312977,-5.770992366412214,-10.955866796875,-1.956062756347656,4.800374328613281,78.99236641221374,-35.83206106870229,-42.030534351145036,0.0
11.37000060081482,-9.011775048828124,-0.9097966308593749,2.114080065917969,-16.931297709923665,28.977099236641223,-6.015267175572519,-7.960720520019531,3.6559459350585937,2.863465185546875,72.79389312977099,-47.00763358778626,-49.83206106870229,0.0
11.380000352859497,-9.334992272949219,-0.5674257934570313,3.3877953491210935,-18.03053435114504,26.702290076335878,-8.473282442748092,-10.802637890625,0.8283937744140625,4.979939453125,65.54198473282443,-44.534351145038165,-40.85496183206107,0.0
11.390000581741333,-9.586383447265625,-0.17956512451171874,3.919308117675781,-12.748091603053435,22.229007633587788,-11.557251908396946,-8.489839086914062,5.645527514648437,2.3582886352539063,61.52671755725191,-58.6412213740458,-42.717557251908396,0.0
11.40000033378601,-9.627084875488281,0.41419688720703124,3.763685009765625,-8.198473282442748,18.3206106870229,-10.488549618320612,-10.058041174316406,3.8953661010742184,3.612850305175781,39.969465648854964,-43.61832061068702,-33.465648854961835,0.0
11.410000562667847,-9.382876306152344,0.24181436767578124,4.055777612304687,-2.0763358778625953,14.80916030534351,-9.236641221374045,-9.337386474609374,4.218583325195312,1.7405846069335937,38.01526717557252,-51.83206106870229,-31.0381679389313,0.0
11.420000314712524,-9.356540087890625,0.22505495605468748,3.1459809814453124,8.625954198473282,13.419847328244275,-6.015267175572519,-7.141903552246093,6.011840368652344,0.7924807495117187,19.34351145038168,-42.68702290076336,-27.31297709923664,0.0
11.430000305175781,-8.892064965820312,0.5482721801757812,3.0693665283203124,11.954198473282442,13.053435114503817,-4.595419847328245,-8.927977990722656,3.5769372802734374,1.5011644409179687,4.6106870229007635,-33.25190839694657,-18.47328244274809,0.0
11.440000534057617,-9.457096557617186,0.8379705810546875,2.3295582153320313,13.648854961832061,12.396946564885496,-5.908396946564886,-9.682151513671874,1.5466542724609373,1.70467158203125,11.053435114503817,-36.595419847328245,-14.396946564885496,0.0
11.450000762939453,-9.062053283691405,0.7972691528320313,1.9752163696289062,18.366412213740457,12.80916030534351,-5.374045801526718,-7.68059892578125,3.114856359863281,0.24181436767578124,10.259541984732824,-36.79389312977099,-15.19083969465649,0.0
11.460000276565552,-9.394847314453125,1.7262193969726563,2.0374656127929685,16.045801526717558,14.67175572519084,-5.450381679389313,-9.054870678710937,2.868253588867187,0.4477157104492187,-1.8931297709923665,-24.946564885496183,-10.198473282442748,0.0
11.470000743865967,-9.406818322753905,2.262520568847656,2.1930887207031247,11.099236641221374,15.17557251908397,-4.931297709923665,-8.25520732421875,2.0254946044921875,1.419761584472656,-9.34351145038168,-19.52671755725191,-6.0458015267175576,0.0
11.480000495910645,-9.447519750976562,2.0566192260742184,2.3822306518554686,6.458015267175573,14.65648854961832,-3.8473282442748094,-10.364498986816406,-0.814028564453125,1.7956512451171873,1.4198473282442747,-16.717557251908396,-2.931297709923664,0.0
11.49000072479248,-9.215282189941405,1.1611878051757811,1.8770541015625,6.015267175572519,14.335877862595419,-3.435114503816794,-10.08677159423828,-1.0319009155273438,1.6041151123046875,27.480916030534353,-29.64885496183206,-6.305343511450381,0.0
11.500000476837158,-9.320627062988281,0.3806780639648437,1.4413093994140624,8.80916030534351,15.557251908396946,-3.954198473282443,-8.805873706054687,0.12449848632812499,1.5418658691406248,33.41984732824427,-27.770992366412212,-9.49618320610687,0.0
11.510000467300415,-8.564059338378906,0.6200982299804687,2.6886884643554687,8.274809160305344,18.580152671755727,-5.312977099236641,-7.266402038574219,1.2832920898437499,0.6105214233398437,30.442748091603054,-25.389312977099237,-9.435114503816793,0.0
11.520000696182251,-9.030928662109375,0.8068459594726562,2.3511060302734372,5.908396946564886,18.732824427480917,-7.282442748091603,-10.029310754394531,-0.316034619140625,1.7980454467773437,36.656488549618324,-21.557251908396946,-4.961832061068702,0.0
11.530000686645508,-9.050082275390624,0.737414111328125,2.81558115234375,5.435114503816794,15.465648854961833,-9.297709923664122,-8.195352282714843,1.2952630981445312,0.82360537109375,44.85496183206107,-27.31297709923664,-8.396946564885496,0.0
11.540000438690186,-8.607154968261717,0.00718260498046875,2.5570073730468748,10.320610687022901,14.274809160305344,-8.366412213740459,-7.71890615234375,2.3439234252929686,0.8762778076171874,39.86259541984733,-17.64885496183206,-8.16793893129771,0.0
11.550000667572021,-8.271966735839843,0.9816226806640624,3.593696691894531,19.31297709923664,20.27480916030534,-10.01526717557252,-6.517016918945312,2.6503812377929687,0.7685387329101562,27.633587786259543,-10.427480916030534,-5.3893129770992365,0.0
11.560000896453857,-8.030152368164062,-0.37828386230468747,1.9704279663085937,17.00763358778626,12.51908396946565,-8.442748091603054,-7.721300354003906,1.5634136840820312,1.6519991455078125,21.419847328244273,-0.32061068702290074,-2.030534351145038,0.0
11.570000648498535,-7.218518005371093,0.086191259765625,1.1133037719726562,30.763358778625953,16.15267175572519,-9.450381679389313,-7.7979148071289055,1.4628572143554686,1.2330138549804688,26.625954198473284,-4.442748091603053,-3.7251908396946565,0.0
11.580000877380371,-9.399635717773437,0.6919242797851562,1.3958195678710936,31.557251908396946,21.46564885496183,-12.885496183206106,-9.658209497070311,-1.2569558715820313,3.5625720703124997,28.564885496183205,8.16793893129771,-0.5801526717557252,0.0
11.590000629425049,-9.564835632324218,1.2689268798828124,2.252943762207031,30.3206106870229,23.34351145038168,-13.98473282442748,-8.145074047851562,-0.2537853759765625,2.9927520751953125,37.786259541984734,-2.900763358778626,-2.9160305343511452,0.0
11.600000381469727,-6.8569935546875,0.1149216796875,0.32082302246093747,32.30534351145038,16.519083969465647,-10.961832061068701,-8.755595471191405,0.1149216796875,3.019088293457031,41.969465648854964,-4.656488549618321,-4.870229007633588,0.0
11.610000371932983,-8.334215979003906,0.70868369140625,1.1947066284179686,36.94656488549618,25.541984732824428,-14.305343511450381,-8.111555224609374,-0.00239420166015625,3.3327287109375,38.656488549618324,-5.099236641221374,-6.473282442748092,0.0
11.62000060081482,-7.357381701660156,-0.4572925170898437,0.852335791015625,36.030534351145036,25.14503816793893,-15.236641221374045,-8.597578161621094,0.8044517578125,2.6144682128906247,35.267175572519086,-4.0,-6.2748091603053435,0.0
11.630000591278076,-8.36294639892578,0.9050082275390624,2.6695348510742187,40.35114503816794,32.213740458015266,-19.66412213740458,-8.147468249511718,1.1061211669921875,2.5522189697265625,26.671755725190838,-4.122137404580153,-8.366412213740459,0.0
11.640000343322754,-9.0021982421875,1.4245499877929686,3.2632968627929686,34.87022900763359,29.053435114503817,-20.33587786259542,-8.853757739257812,0.047884033203124995,3.2417490478515623,19.69465648854962,0.4732824427480916,-8.732824427480915,0.0
11.65000057220459,-10.096348400878906,2.6910826660156246,4.177881896972656,34.88549618320611,27.66412213740458,-18.977099236641223,-8.556876733398436,0.6440402465820312,3.0071172851562498,12.82442748091603,-0.6106870229007634,-11.725190839694656,0.0
11.660000562667847,-9.160215551757812,1.9608511596679685,4.800374328613281,36.30534351145038,19.984732824427482,-13.908396946564885,-9.222464794921875,-0.08379705810546874,3.5218706420898434,9.19083969465649,2.122137404580153,-13.526717557251908,0.0
11.670000553131104,-10.70686982421875,3.27526787109375,6.260837341308593,41.770992366412216,19.923664122137403,-11.969465648854962,-8.808267907714843,0.2920926025390625,3.3399113159179685,7.374045801526718,-0.21374045801526717,-15.19083969465649,0.0
11.68000054359436,-9.567229833984374,1.8100164550781248,5.990292553710937,40.74809160305343,8.977099236641221,-7.877862595419847,-9.536105212402344,-0.12689268798828124,3.852270471191406,8.122137404580153,0.22900763358778625,-15.17557251908397,0.0
11.690000295639038,-10.678139404296875,2.626439221191406,6.964732629394531,45.969465648854964,5.145038167938932,-8.320610687022901,-8.853757739257812,0.5674257934570313,3.440467785644531,5.648854961832061,-0.13740458015267176,-17.6793893129771,0.0
11.700000524520874,-10.714052429199219,2.6192566162109374,7.896077075195312,41.69465648854962,-10.030534351145038,-7.114503816793893,-9.289502441406249,0.239420166015625,3.399766357421875,3.5877862595419847,0.732824427480916,-18.15267175572519,0.0
11.71000051498413,-12.07874737548828,3.9600095458984375,10.122684619140625,39.404580152671755,-26.137404580152673,-5.66412213740458,-8.372523205566406,0.9552864624023437,2.6767174560546874,-0.9618320610687023,1.5572519083969465,-18.68702290076336,0.0
11.720000505447388,-13.761871142578125,5.5545478515625,12.897564343261719,21.328244274809162,-55.038167938931295,-2.2900763358778624,-8.621520178222656,1.1947066284179686,2.7916391357421872,-0.8854961832061069,0.7480916030534351,-16.30534351145038,0.0
11.730000495910645,-15.433023901367186,6.734889270019531,16.515203051757812,17.954198473282442,-86.07633587786259,3.618320610687023,-7.180210778808593,2.4133552734375,2.384624853515625,-7.4961832061068705,0.5038167938931297,-14.442748091603054,0.0
11.740000486373901,-13.91749425048828,2.6479870361328124,15.0164328125,51.83206106870229,-102.47328244274809,14.0,-8.233659509277343,1.4724340209960938,2.81558115234375,-8.274809160305344,0.4732824427480916,-12.473282442748092,0.0
11.750000238418579,-14.942212561035156,6.143521459960938,15.741875915527343,53.38931297709924,-136.73282442748092,18.35114503816794,-6.967126831054687,1.1923124267578125,2.703053674316406,-10.793893129770993,-2.5343511450381677,-14.366412213740459,0.0
11.760000705718994,-15.20078634033203,4.019864587402344,17.453730102539062,39.55725190839695,-177.54198473282443,34.93129770992366,-7.072471704101562,0.7302315063476562,3.6008792968749996,-18.946564885496183,-6.748091603053435,-14.442748091603054,0.0
11.770000696182251,-14.243105676269531,0.9002198242187499,15.148113903808593,37.74045801526717,-210.77862595419847,42.595419847328245,-5.348646508789062,0.8738836059570312,-1.4149731811523436,-21.358778625954198,-4.625954198473282,-16.68702290076336,0.0
11.780000686645508,-12.574347119140624,-1.0175357055664063,4.7884033203125,9.969465648854962,-236.1679389312977,42.213740458015266,-6.885723974609375,1.7693150268554687,-0.5123591552734374,-11.511450381679388,4.106870229007634,-20.458015267175572,0.0
11.790000438690186,-10.785878479003905,-2.8012159423828122,-5.844246252441406,-25.435114503816795,-247.87786259541986,39.93893129770992,-11.911153259277343,0.6679822631835937,3.3494881225585935,15.893129770992367,-2.763358778625954,-22.65648854961832,0.0
11.8000009059906,-11.180921752929686,-7.7596075805664055,-9.361328491210937,-11.49618320610687,-238.25954198473283,39.52671755725191,-16.54153927001953,-1.350329736328125,8.497021691894531,24.427480916030536,-7.786259541984733,-27.755725190839694,0.0
11.810000658035278,-14.836867687988281,-8.36294639892578,-1.7334020019531249,23.81679389312977,-199.66412213740458,30.061068702290076,-20.195091003417968,-4.101267443847656,11.0707884765625,11.83206106870229,-47.282442748091604,-31.358778625954198,0.0
11.820000886917114,-10.836156713867187,-13.378798876953125,-5.161898779296875,63.16030534351145,-181.6793893129771,24.641221374045802,-19.8048361328125,-4.450820886230469,7.048529687499999,20.3206106870229,-5.419847328244275,-29.740458015267176,0.0
11.830000638961792,-10.919953771972656,-11.590330236816406,-3.9169139160156248,104.50381679389314,-137.1908396946565,4.442748091603053,-13.354856860351562,-0.7972691528320313,1.5969325073242187,-18.412213740458014,18.38167938931298,-17.221374045801525,0.0
11.840000867843628,-11.238382592773437,-6.050147595214844,-3.7612908081054686,125.19083969465649,-110.45801526717557,-9.633587786259541,-8.169016064453125,-1.4820108276367188,-0.44053310546874996,21.31297709923664,-25.557251908396946,-18.30534351145038,0.0
11.850000619888306,-14.279018701171875,1.5251064575195312,-0.24899697265624998,129.46564885496184,-83.41984732824427,-13.801526717557252,-3.7397429931640622,-0.9145850341796874,-4.414907861328125,54.961832061068705,-17.96946564885496,-25.49618320610687,0.0
11.860000610351562,-5.916072302246094,-0.2537853759765625,-2.4756045166015626,129.26717557251908,-77.19083969465649,4.977099236641221,-8.552088330078124,-6.196193896484375,-5.858611462402344,8.50381679389313,-4.519083969465649,-13.526717557251908,0.0
11.87000060081482,-13.275848205566405,7.587225061035156,1.8243816650390623,81.83206106870229,-59.80152671755725,-0.4580152671755725,-7.773972790527344,-3.6918589599609373,-4.3454760131835934,23.83206106870229,0.5801526717557252,-15.511450381679388,0.0
11.880000591278076,-5.7125651611328125,0.086191259765625,-2.6431986328124997,47.93893129770992,-58.58015267175573,7.00763358778626,-10.058041174316406,-0.7038952880859375,-4.201823913574218,25.801526717557252,6.519083969465649,-13.297709923664122,0.0
11.890000581741333,-8.975862023925782,2.8107927490234372,-1.1611878051757811,16.549618320610687,-45.770992366412216,-1.2671755725190839,-10.101136804199218,1.4891934326171874,-2.9831752685546875,26.702290076335878,17.34351145038168,-15.007633587786259,0.0
11.90000057220459,-3.440467785644531,-3.323151904296875,-4.2305543334960936,3.3435114503816794,-35.038167938931295,2.8396946564885495,-10.670956799316405,2.6886884643554687,-2.379836450195312,27.61832061068702,25.541984732824428,-9.938931297709924,0.0
11.910001039505005,-4.881777185058594,-0.8930372192382812,-2.808398547363281,-0.2748091603053435,-11.801526717557252,-4.320610687022901,-11.365275280761718,3.2704794677734372,-1.3527239379882812,28.396946564885496,32.44274809160305,-4.916030534351145,0.0
11.920000791549683,-2.568978381347656,-2.834734765625,-4.6064439941406246,-11.022900763358779,-0.13740458015267176,-7.099236641221374,-10.060435375976562,5.085284326171875,-1.8411410766601561,22.213740458015266,33.45038167938932,1.3435114503816794,0.0
11.930001020431519,-3.1651345947265623,-0.36391865234375,-4.88417138671875,-15.145038167938932,26.519083969465647,-11.16030534351145,-8.425195642089843,7.134720947265625,-2.0470424194335934,-0.6870229007633588,45.3587786259542,9.465648854961833,0.0
11.940000534057617,-1.8555062866210936,-1.5107412475585937,-5.439626171875,-32.58015267175573,38.045801526717554,-12.13740458015267,-8.403647827148436,5.590460876464843,-2.0350714111328125,-21.053435114503817,52.152671755725194,20.763358778625953,0.0
11.950000762939453,-0.5195417602539062,-2.6336218261718747,-6.394912634277343,-27.206106870229007,63.3587786259542,-15.145038167938932,-10.493785876464843,1.5394716674804687,-0.3184288208007812,-25.358778625954198,58.82442748091603,32.74809160305343,0.0
11.96000051498413,-1.0821791503906248,-1.7214309936523438,-7.275978845214843,-30.213740458015266,84.61068702290076,-24.38167938931298,-6.141127258300781,3.5290532470703124,-1.9608511596679685,-31.709923664122137,52.62595419847328,29.282442748091604,0.0
11.970000505447388,-1.4820108276367188,-0.9792284790039062,-7.096413720703125,-42.3206106870229,102.42748091603053,-28.53435114503817,-11.06360587158203,-1.5370774658203123,1.7788918334960937,-32.534351145038165,72.03053435114504,41.38931297709924,0.0
11.980000495910645,-2.592920397949219,-1.8555062866210936,-4.436455676269531,-50.97709923664122,115.96946564885496,-34.56488549618321,-5.200206005859375,2.243366955566406,-1.4963760375976562,-36.916030534351144,56.2442748091603,30.48854961832061,0.0
11.990000486373901,-4.505887524414062,-1.47482822265625,-0.97683427734375,-46.656488549618324,127.93893129770993,-38.16793893129771,-10.101136804199218,-2.9376854370117185,3.323151904296875,-35.725190839694655,72.70229007633588,40.85496183206107,0.0
12.000000476837158,-6.081272216796875,-2.7246014892578123,2.7054478759765623,-40.3206106870229,131.58778625954199,-41.770992366412216,-7.187393383789062,-0.5626373901367188,1.1755530151367186,-28.931297709923665,56.10687022900763,32.94656488549618,0.0
12.010000705718994,-7.273584643554687,-1.3718775512695311,5.600037683105469,-33.37404580152672,128.74809160305344,-40.87022900763359,-9.038111267089842,-3.0023288818359375,4.944026428222656,-20.53435114503817,52.152671755725194,33.12977099236641,0.0
12.020000696182251,-9.952696301269532,1.4700398193359374,6.921636999511718,-29.541984732824428,129.38931297709922,-37.20610687022901,-6.8785413696289055,-2.2385785522460937,2.7844565307617186,-11.068702290076336,39.86259541984733,29.404580152671755,0.0
12.030000686645508,-10.522516296386717,4.781220715332031,6.256048937988281,-39.14503816793893,118.21374045801527,-28.82442748091603,-6.880935571289062,1.189918225097656,2.7198130859375,-21.267175572519083,37.32824427480916,26.748091603053435,0.0
12.040000915527344,-11.81059678955078,7.486668591308593,6.287173559570312,-62.25954198473283,106.4885496183206,-18.106870229007633,-8.17859287109375,0.7517793212890624,3.9408559326171875,-28.076335877862597,36.06106870229008,30.198473282442748,0.0
12.050000667572021,-10.577582934570312,2.375048046875,7.948749511718749,-83.12977099236642,84.22900763358778,-6.5038167938931295,-9.466673364257812,-1.13006318359375,5.463568188476562,-25.893129770992367,28.061068702290076,30.396946564885496,0.0
12.060000896453857,-10.864887133789061,-0.04548983154296875,11.583147631835937,-76.19847328244275,70.83969465648855,-3.1297709923664123,-8.13310303955078,0.3854664672851562,4.314351391601562,-28.38167938931298,19.603053435114504,26.82442748091603,0.0
12.070000648498535,-9.821015209960937,-4.132392065429687,14.250288281249999,-62.6412213740458,46.717557251908396,4.580152671755725,-7.606378674316406,0.3495534423828125,3.517082238769531,-31.053435114503817,14.488549618320612,26.47328244274809,0.0
12.080000877380371,-12.552799304199217,-2.051830822753906,16.95094775390625,-37.12977099236641,29.770992366412212,7.099236641221374,-6.605602380371093,0.40940848388671874,2.2290017456054687,-38.595419847328245,10.106870229007633,27.0381679389313,0.0
12.09000039100647,-11.49216796875,-1.5753846923828123,16.469713220214842,1.3740458015267176,14.564885496183207,12.732824427480915,-5.80354482421875,-0.5363011718749999,1.0462661254882812,-41.89312977099237,8.534351145038167,28.27480916030534,0.0
12.100000619888306,-11.939883679199218,2.8610709838867185,15.093047265625,31.16030534351145,-0.21374045801526717,14.122137404580153,-5.482721801757812,-0.9983820922851562,0.18914193115234373,-43.87786259541985,7.740458015267175,27.96946564885496,0.0
12.110000371932983,-11.511321582031249,7.285555651855469,11.820173596191406,33.64885496183206,-22.564885496183205,16.793893129770993,-4.2329485351562495,0.1388636962890625,-0.6512228515624999,-49.06870229007634,3.0839694656488548,29.099236641221374,0.0
12.12000060081482,-11.207257971191405,8.2360537109375,11.130643518066405,23.786259541984734,-39.20610687022901,26.83969465648855,-5.193023400878906,-1.429338391113281,-1.7214309936523438,-50.83969465648855,6.778625954198473,33.11450381679389,0.0
12.130000591278076,-10.340556970214843,4.3239281982421875,9.41639512939453,17.64885496183206,-60.900763358778626,46.2442748091603,-5.741295581054687,-2.2002713256835937,-2.231395947265625,-48.3206106870229,11.694656488549619,34.0,0.0
12.140000581741333,-11.903970654296874,0.3184288208007812,9.191340173339842,25.69465648854962,-65.12977099236642,63.32824427480916,-7.331045483398437,-2.73896669921875,-4.1946413085937495,-44.58015267175573,19.435114503816795,30.366412213740457,0.0
12.15000057220459,-13.594277026367187,-4.1563340820312495,7.936778503417968,31.954198473282442,-73.29770992366412,74.51908396946565,-10.290278735351562,-3.8043864379882812,-4.3622354248046875,-32.961832061068705,30.35114503816794,24.0,0.0
12.160000324249268,-19.75455789794922,-1.1109095703125,9.7683427734375,55.02290076335878,-73.19083969465649,77.7557251908397,-14.532804077148437,-3.5027170288085934,-2.269703173828125,-23.984732824427482,42.70229007633588,14.290076335877863,0.0
12.170000314712524,-24.37536710205078,1.8938135131835936,12.131419812011718,50.595419847328245,-89.63358778625954,65.69465648854961,-19.000384375,-2.9281086303710935,-0.6919242797851562,-1.7404580152671756,39.52671755725191,4.122137404580153,0.0
12.18000054359436,-26.300305236816406,8.779537487792968,6.5385647338867185,47.31297709923664,-110.61068702290076,50.35114503816794,-17.796100939941404,3.308786694335937,-2.8227637573242186,0.6564885496183206,26.30534351145038,-2.931297709923664,0.0
12.190000772476196,-24.746468359374997,6.141127258300781,2.300827795410156,17.282442748091604,-126.33587786259542,53.465648854961835,-19.065027819824216,4.4819455078125,0.09337386474609374,-5.236641221374046,41.465648854961835,10.290076335877863,0.0
12.200000524520874,-15.619771630859374,1.8531120849609375,-4.465186096191406,11.694656488549619,-116.29007633587786,62.900763358778626,-20.393809741210937,4.07971962890625,1.407790576171875,5.862595419847328,35.93893129770992,13.770992366412214,0.0
12.21000051498413,-7.876923461914062,3.4955344238281247,-8.827421520996094,6.305343511450381,-101.19083969465649,59.6793893129771,-22.366631909179688,5.815515832519531,2.971204260253906,1.3282442748091603,28.82442748091603,10.320610687022901,0.0
12.220000267028809,-0.9265560424804687,-0.6512228515624999,-14.484920043945312,-34.06106870229008,-77.54198473282443,62.30534351145038,-18.6939265625,12.260706701660155,1.7836802368164062,-19.236641221374047,13.694656488549619,7.984732824427481,0.0
12.230000257492065,-0.5363011718749999,-6.098031628417968,-11.908759057617187,-66.85496183206106,-48.534351145038165,48.229007633587784,-17.841590771484373,9.983820922851562,5.137956762695312,-39.70992366412214,20.091603053435115,21.19083969465649,0.0
12.240000486373901,-2.858676782226562,-8.145074047851562,-10.797849487304687,-53.98473282442748,-12.01526717557252,19.984732824427482,-16.33803212890625,8.221688500976562,3.873818286132812,-35.45038167938932,5.9541984732824424,30.580152671755727,0.0
12.250000476837158,-7.781155395507812,-4.158728283691406,-14.480131640624998,-51.05343511450382,6.809160305343512,3.282442748091603,-13.47696114501953,9.090783703613281,2.3726538452148436,-41.587786259541986,-5.4961832061068705,35.64885496183206,0.0
12.260000705718994,-12.993332409667968,-4.5968671875,-8.453926062011718,-32.10687022900763,47.770992366412216,-10.946564885496183,-12.033257543945313,7.048529687499999,1.5634136840820312,-54.18320610687023,-9.740458015267176,42.47328244274809,0.0
12.270000696182251,-14.719551806640624,-3.1076737548828124,-4.209006518554688,-13.17557251908397,70.36641221374046,-24.641221374045802,-11.769895361328125,4.7572786987304685,1.0271125122070313,-55.63358778625954,-15.740458015267176,46.58015267175573,0.0
12.280000686645508,-14.92545314941406,0.5626373901367188,-2.3870190551757813,3.068702290076336,91.78625954198473,-25.206106870229007,-10.565611926269531,4.129997863769531,-0.258573779296875,-66.12213740458016,-23.297709923664122,45.17557251908397,0.0
12.290000677108765,-14.494496850585938,3.670311145019531,-0.5339069702148437,-2.763358778625954,101.05343511450381,-22.458015267175572,-11.020510241699219,2.81558115234375,-0.9576806640625,-69.55725190839695,-24.48854961832061,43.725190839694655,0.0
12.3000009059906,-14.686032983398437,5.561730456542969,1.9105729248046874,-18.82442748091603,103.0381679389313,-17.541984732824428,-11.245565197753905,1.4987702392578124,-1.5849614990234373,-70.74809160305344,-24.091603053435115,40.045801526717554,0.0
12.310000896453857,-13.357251062011718,5.284003063964843,3.1794998046874996,-41.31297709923664,94.50381679389314,-11.786259541984732,-11.269507214355468,0.7852981445312499,-1.3455413330078123,-64.62595419847328,-23.49618320610687,35.725190839694655,0.0
12.320000886917114,-13.136984509277344,4.814739538574218,4.000710974121094,-62.54961832061068,83.1145038167939,-7.648854961832061,-10.376469995117187,0.9816226806640624,-2.0566192260742184,-60.70229007633588,-24.3206106870229,28.82442748091603,0.0
12.330000400543213,-10.271125122070313,2.9568390502929685,2.6862942626953124,-79.41984732824427,67.38931297709924,-3.5877862595419847,-9.595960253906249,-0.05746083984375,-1.4987702392578124,-51.61832061068702,-19.633587786259543,22.625954198473284,0.0
12.340000867843628,-9.993397729492187,0.9576806640625,2.750937707519531,-82.29007633587786,62.74809160305343,-4.076335877862595,-9.205705383300781,0.9576806640625,-4.453215087890625,-40.229007633587784,-22.977099236641223,12.229007633587786,0.0
12.350000619888306,-7.400477331542969,-2.1619640991210938,1.0366893188476562,-76.10687022900764,54.80916030534351,-2.122137404580153,-7.594407666015624,1.8052280517578123,-3.7301661865234372,-34.42748091603053,-17.083969465648856,3.2213740458015265,0.0
12.360000610351562,-7.805097412109374,-1.3934253662109375,1.2521674682617188,-64.80916030534351,57.12977099236641,-5.679389312977099,-7.924807495117187,1.0582371337890624,-4.024652990722656,-20.564885496183205,-11.938931297709924,-0.33587786259541985,0.0
12.37000060081482,-7.793126403808594,-0.9337386474609375,1.2785036865234374,-53.16030534351145,56.10687022900763,-8.076335877862595,-7.067683300781249,0.5219359619140624,-3.3590649291992185,-6.625954198473282,-8.687022900763358,-4.824427480916031,0.0
12.380000352859497,-9.265560424804686,0.3399766357421875,1.6519991455078125,-48.94656488549618,56.961832061068705,-8.580152671755725,-7.8362220336914055,-0.6943184814453125,-0.8834604125976562,12.351145038167939,-1.633587786259542,-7.145038167938932,0.0
12.390000581741333,-8.192958081054687,-0.2920926025390625,1.9033903198242186,-43.52671755725191,55.49618320610687,-7.465648854961832,-5.45877978515625,0.01915361328125,-1.8291700683593748,20.916030534351144,-4.885496183206107,-13.48091603053435,0.0
12.40000033378601,-9.016563452148437,0.09576806640624999,2.4396914916992185,-41.83206106870229,55.55725190839695,-9.114503816793894,-6.160280871582031,1.7764976318359373,-1.9800047729492187,23.938931297709924,-2.122137404580153,-17.786259541984734,0.0
12.410000562667847,-8.884882360839843,-0.43574470214843747,3.3782185424804685,-41.55725190839695,53.06870229007634,-9.893129770992367,-7.115567333984375,0.3711012573242187,0.0526724365234375,26.564885496183205,6.061068702290076,-16.48854961832061,0.0
12.420000553131104,-9.430760339355468,-0.45489831542968745,4.333505004882812,-38.44274809160305,51.20610687022901,-12.366412213740459,-7.268796240234375,0.17477672119140625,0.9792284790039062,26.778625954198475,9.603053435114504,-16.610687022900763,0.0
12.43000078201294,-8.767566479492187,-1.2282254516601563,4.031835595703125,-32.82442748091603,45.45038167938932,-12.198473282442748,-6.732495068359374,0.1771709228515625,0.9720458740234375,24.702290076335878,9.282442748091603,-18.412213740458014,0.0
12.440000534057617,-8.25520732421875,-1.9991583862304687,4.067748620605468,-15.83206106870229,46.33587786259542,-14.122137404580153,-6.291961962890625,1.3623007446289062,0.07422025146484375,29.022900763358777,0.5190839694656488,-22.82442748091603,0.0
12.450000524520874,-8.329427575683594,-2.152387292480469,3.459621398925781,-5.755725190839694,42.091603053435115,-15.969465648854962,-9.399635717773437,0.14125789794921875,1.5921441040039062,33.98473282442748,2.183206106870229,-23.297709923664122,0.0
12.46000051498413,-11.001356628417968,0.612915625,3.7134067749023436,6.198473282442748,44.79389312977099,-18.793893129770993,-9.885658654785155,-0.8092401611328125,4.206612316894531,31.267175572519083,7.66412213740458,-24.50381679389313,0.0
12.470000743865967,-10.029310754394531,1.0223241088867188,2.70065947265625,3.0076335877862594,33.954198473282446,-16.48854961832061,-10.297461340332031,-0.16041151123046873,3.6822821533203123,48.778625954198475,-10.381679389312977,-27.51145038167939,0.0
12.480000257492065,-10.728417639160156,1.7860744384765623,2.094926452636719,-1.5877862595419847,28.38167938931298,-14.15267175572519,-12.143390820312499,-1.714248388671875,4.383783239746093,62.35114503816794,-22.870229007633586,-30.65648854961832,0.0
12.490000486373901,-10.63025537109375,2.729389892578125,1.9895815795898437,-8.427480916030534,24.732824427480917,-12.65648854961832,-9.923965881347655,2.521094348144531,3.447650390625,62.396946564885496,-38.58015267175573,-38.74809160305343,0.0
12.500000476837158,-10.01733974609375,2.9376854370117185,1.62805712890625,-13.648854961832061,22.30534351145038,-10.335877862595419,-10.407594616699217,2.748543505859375,4.352658618164062,39.7557251908397,-33.52671755725191,-36.51908396946565,0.0
12.510000705718994,-9.64623848876953,2.4875755249023435,2.3439234252929686,-19.297709923664122,19.633587786259543,-10.427480916030534,-12.808978881835937,0.8475473876953125,4.055777612304687,44.961832061068705,-51.12977099236641,-36.33587786259542,0.0
12.520000457763672,-9.433154541015625,2.6982652709960937,2.3032219970703123,-20.091603053435115,17.435114503816795,-9.450381679389313,-9.634267480468749,3.9552211425781247,2.935291235351562,28.0,-55.86259541984733,-42.54961832061068,0.0
12.530000686645508,-8.975862023925782,2.5809493896484375,1.8650830932617186,-27.31297709923664,15.893129770992367,-6.183206106870229,-12.011709729003906,1.0726023437499999,3.928884924316406,12.82442748091603,-56.213740458015266,-39.45038167938932,0.0
12.540000915527344,-9.332598071289063,2.3151930053710936,1.7884686401367187,-31.053435114503817,14.65648854961832,-5.4961832061068705,-11.247959399414063,1.707065783691406,3.2321722412109373,14.244274809160306,-65.89312977099236,-45.38931297709924,0.0
12.550000429153442,-9.679757312011718,2.2960393920898436,1.6424223388671875,-35.908396946564885,13.893129770992367,-3.480916030534351,-10.55364091796875,1.9800047729492187,3.361459130859375,-1.5114503816793894,-61.221374045801525,-46.83969465648855,0.0
12.560000896453857,-9.402029919433593,1.7429788085937499,2.2361843505859373,-39.61832061068702,12.427480916030534,-1.5114503816793894,-11.595118640136718,0.2609679809570312,3.27526787109375,6.641221374045801,-68.76335877862596,-46.717557251908396,0.0
12.570000648498535,-9.801861596679688,1.5442600708007812,1.649604943847656,-37.32824427480916,12.793893129770993,1.0229007633587786,-7.999027746582031,3.7900212280273435,1.3096283081054687,-0.7786259541984732,-70.76335877862596,-51.16030534351145,0.0
12.580000877380371,-10.031704956054687,1.429338391113281,1.898601916503906,-39.06870229007634,13.84732824427481,2.946564885496183,-12.325350146484375,0.5913678100585937,2.710236279296875,-0.12213740458015267,-61.969465648854964,-43.83206106870229,0.0
12.590000629425049,-9.840168823242188,0.12449848632812499,1.3359645263671873,-35.61832061068702,13.32824427480916,3.9236641221374047,-7.292738256835937,4.285620971679688,0.9002198242187499,2.7786259541984735,-69.34351145038168,-47.63358778625954,0.0
12.600000619888306,-9.70369932861328,-0.23223756103515625,1.2737152832031249,-31.862595419847327,15.022900763358779,4.8396946564885495,-10.237606298828124,1.0941501586914062,2.398990063476562,-4.564885496183206,-52.0763358778626,-38.99236641221374,0.0
12.610000371932983,-9.035717065429687,-1.1659762084960936,1.886630908203125,-26.47328244274809,16.564885496183205,2.8244274809160306,-8.322244970703125,3.478775012207031,-0.277727392578125,9.34351145038168,-64.53435114503817,-40.44274809160305,0.0
12.62000060081482,-8.975862023925782,-1.0319009155273438,1.8148048583984373,-19.129770992366414,17.435114503816795,0.3511450381679389,-8.20971749267578,2.655169641113281,0.8020575561523438,1.4351145038167938,-45.37404580152672,-32.30534351145038,0.0
12.630000352859497,-8.975862023925782,-1.216254443359375,1.9800047729492187,-17.84732824427481,18.610687022900763,-3.099236641221374,-7.771578588867187,3.0502129150390624,-0.16280571289062498,9.374045801526718,-49.969465648854964,-27.908396946564885,0.0
12.640000581741333,-9.239224206542968,-0.8930372192382812,2.4205378784179685,-11.526717557251908,18.106870229007633,-6.534351145038168,-5.537788439941406,4.278438366699218,-1.1085153686523437,1.9236641221374047,-37.587786259541986,-24.198473282442748,0.0
12.65000057220459,-9.045293872070312,0.009576806640625,3.0837317382812497,-9.312977099236642,18.061068702290076,-8.213740458015268,-6.868964562988281,1.8459294799804686,-0.5506663818359374,-2.2595419847328246,-25.358778625954198,-14.458015267175572,0.0
12.660000562667847,-9.502586389160156,0.4572925170898437,3.299209887695312,-8.030534351145038,15.541984732824428,-9.816793893129772,-8.468291271972657,-0.09337386474609374,1.2689268798828124,10.076335877862595,-21.84732824427481,-8.961832061068701,0.0
12.670000553131104,-9.3852705078125,0.04548983154296875,3.220201232910156,-2.854961832061069,13.389312977099237,-10.076335877862595,-6.153098266601562,0.9097966308593749,0.05746083984375,21.206106870229007,-26.442748091603054,-9.969465648854962,0.0
12.68000054359436,-9.126696728515624,0.59376201171875,3.42849677734375,2.8702290076335877,14.076335877862595,-8.564885496183207,-6.53138212890625,1.2904746948242187,0.6464344482421874,17.893129770992367,-14.580152671755725,-6.824427480916031,0.0
12.690000772476196,-9.150638745117186,1.180341418457031,3.3255461059570313,2.5801526717557253,13.801526717557252,-5.908396946564886,-6.76122548828125,1.177947216796875,0.08140285644531249,13.389312977099237,-9.587786259541986,-4.015267175572519,0.0
12.700000524520874,-8.303091357421874,0.5219359619140624,3.0789433349609374,6.519083969465649,14.259541984732824,-3.5419847328244276,-9.536105212402344,-1.936909143066406,2.6886884643554687,19.572519083969464,3.7709923664122136,1.816793893129771,0.0
12.71000075340271,-7.68059892578125,-1.24498486328125,1.7262193969726563,13.34351145038168,15.49618320610687,-3.114503816793893,-7.589619262695312,-0.7445967163085937,2.4684219116210935,35.29770992366412,-4.488549618320611,-1.6030534351145038,0.0
12.720000505447388,-5.992686755371094,-2.70065947265625,0.6248866333007812,28.442748091603054,17.49618320610687,-4.778625954198473,-9.923965881347655,-1.5442600708007812,3.5242648437499997,53.23664122137404,-4.793893129770993,-0.04580152671755725,0.0
12.730000734329224,-7.055712292480468,-2.482787121582031,0.9696516723632812,45.31297709923664,29.16030534351145,-13.740458015267176,-8.86094034423828,0.25139117431640623,2.8993782104492185,61.86259541984733,-7.022900763358779,-2.427480916030534,0.0
12.740000486373901,-8.219294299316406,-1.0726023437499999,1.3670891479492187,51.06870229007634,33.11450381679389,-21.603053435114504,-8.377311608886718,1.0127473022460938,2.3295582153320313,57.89312977099237,-4.519083969465649,-0.9312977099236641,0.0
12.750000238418579,-9.68454571533203,1.3144167114257812,3.399766357421875,49.541984732824424,34.85496183206107,-25.923664122137403,-5.72693037109375,3.373430139160156,1.4604630126953124,44.88549618320611,-7.709923664122138,-0.9312977099236641,0.0
12.760000705718994,-8.927977990722656,1.1468225952148436,3.6343981201171873,46.36641221374046,26.290076335877863,-22.85496183206107,-7.9272016967773435,1.5873557006835937,2.6958710693359373,34.961832061068705,0.8702290076335878,4.5038167938931295,0.0
12.770000696182251,-9.447519750976562,1.7836802368164062,5.365405920410156,52.76335877862596,27.557251908396946,-22.16793893129771,-7.850587243652344,1.465251416015625,2.2864625854492187,34.12213740458015,-10.748091603053435,3.099236641221374,0.0
12.780001163482666,-9.533711010742186,1.656787548828125,5.963956335449218,57.43511450381679,18.85496183206107,-20.442748091603054,-8.015787158203125,0.612915625,2.482787121582031,38.916030534351144,-27.49618320610687,1.8473282442748091,0.0
12.790000438690186,-10.244788903808594,2.7078420776367187,7.999027746582031,67.48091603053435,12.320610687022901,-18.259541984732824,-9.042899670410156,-0.6967126831054687,3.921702319335937,26.931297709923665,6.030534351145038,2.3053435114503817,0.0
12.8000009059906,-10.261548315429687,2.2601263671875,8.999804040527343,70.91603053435115,-3.8931297709923665,-13.419847328244275,-8.022969763183593,-0.5267243652343749,4.254496350097656,15.557251908396946,2.0,-1.7404580152671756,0.0
12.810000658035278,-11.518504187011718,2.849099975585937,11.343727465820312,76.51908396946565,-14.625954198473282,-11.893129770992367,-7.821856823730468,-0.16759411621093748,3.5482068603515624,10.80916030534351,0.8854961832061069,-5.251908396946565,0.0
12.820000886917114,-11.089942089843749,3.797203833007812,11.204863769531249,63.14503816793893,-38.76335877862596,-10.625954198473282,-7.733271362304687,0.19393033447265623,3.821145849609375,5.633587786259542,-0.21374045801526717,-7.221374045801527,0.0
12.830000638961792,-11.113884106445312,2.1212626708984375,10.330980163574218,41.51145038167939,-68.01526717557252,-8.183206106870228,-6.270414147949219,2.212242333984375,3.2225954345703123,-10.885496183206106,0.0916030534351145,-8.045801526717558,0.0
12.840000629425049,-9.469067565917967,-0.6488286499023437,9.354145886230468,46.76335877862596,-88.82442748091603,-8.80916030534351,-7.333439685058593,0.9720458740234375,4.448426684570312,-20.16793893129771,-3.145038167938931,-10.01526717557252,0.0
12.850000619888306,-10.77630167236328,1.5490484741210937,11.01332763671875,51.11450381679389,-107.52671755725191,-17.374045801526716,-4.910507604980468,2.6288334228515624,4.338293408203125,-33.51145038167939,3.282442748091603,-13.389312977099237,0.0
12.860000610351562,-11.9135474609375,2.123656872558594,12.198457458496094,37.05343511450382,-142.0916030534351,-15.16030534351145,-8.281543542480469,1.16837041015625,6.320692382812499,-37.31297709923664,5.877862595419847,-9.572519083969466,0.0
12.87000060081482,-11.92551846923828,1.2473790649414063,13.48414375,65.0381679389313,-157.25190839694656,-7.00763358778626,-6.153098266601562,2.061407629394531,1.70467158203125,-44.42748091603053,2.4732824427480917,-14.320610687022901,0.0
12.880000591278076,-12.895170141601561,2.50912333984375,13.462595935058593,63.587786259541986,-186.53435114503816,0.7786259541984732,-6.6271501953125,2.863465185546875,2.990357873535156,-43.37404580152672,8.717557251908397,-17.709923664122137,0.0
12.890000581741333,-13.125013500976562,1.4963760375976562,10.651803186035156,63.20610687022901,-207.78625954198472,7.190839694656488,-11.822567797851562,0.7350199096679687,5.078101721191406,-61.3587786259542,17.46564885496183,-21.34351145038168,0.0
12.900000810623169,-13.845668200683592,-0.22505495605468748,3.507505432128906,58.47328244274809,-224.03053435114504,15.374045801526718,-19.316418994140623,-7.240065820312499,11.365275280761718,-65.81679389312977,16.091603053435115,-25.984732824427482,0.0
12.910000562667847,-14.707580798339842,-2.588131994628906,-4.122815258789062,61.20610687022901,-222.15267175572518,20.519083969465647,-18.80166563720703,-9.239224206542968,7.922413293457031,-46.67175572519084,-8.290076335877863,-40.54961832061068,0.0
12.920000791549683,-13.888763830566406,-5.468356591796875,-7.848193041992187,77.14503816793894,-202.85496183206106,29.6793893129771,-17.870321191406248,-10.759542260742187,7.036558679199218,-14.458015267175572,-13.053435114503817,-37.87786259541985,0.0
12.93000078201294,-18.057068920898438,-1.3431471313476562,-4.2497079467773435,85.26717557251908,-164.85496183206106,30.47328244274809,-14.736311218261719,-7.287949853515625,0.6105214233398437,42.152671755725194,-34.0,-35.587786259541986,0.0
12.940000534057617,-13.876792822265624,-4.80755693359375,-3.9312791259765625,88.45801526717557,-147.48091603053436,35.69465648854962,-7.491456994628906,-3.239354846191406,-5.971138940429687,8.961832061068701,-19.51145038167939,-36.79389312977099,0.0
12.950000524520874,-13.227964172363281,-4.544194750976562,-1.2713210815429687,92.16793893129771,-119.57251908396947,33.43511450381679,-6.421248852539062,-0.16280571289062498,-3.2513258544921873,118.99236641221374,-32.85496183206107,-39.282442748091604,0.0
12.96000051498413,-13.007697619628905,-1.37906015625,1.8914193115234375,86.76335877862596,-98.93129770992367,30.50381679389313,-6.294356164550781,0.4261678955078125,-3.842693664550781,64.42748091603053,-18.27480916030534,-36.717557251908396,0.0
12.970000743865967,-12.722787622070312,1.1923124267578125,3.7900212280273435,76.45801526717557,-87.22137404580153,30.259541984732824,-8.14028564453125,0.8714894042968749,-6.739677673339843,53.17557251908397,-11.954198473282442,-32.36641221374046,0.0
12.980000257492065,-8.420407238769531,-1.8938135131835936,1.6998831787109374,72.47328244274809,-81.46564885496183,36.01526717557252,-10.496180078124999,2.0781670410156248,-4.584896179199219,54.10687022900763,2.6564885496183206,-26.3206106870229,0.0
12.990000486373901,-7.9463553100585935,0.09816226806640624,-0.16041151123046873,60.80916030534351,-61.343511450381676,26.793893129770993,-10.759542260742187,4.161122485351562,-4.220977526855468,45.93893129770992,13.236641221374045,-23.587786259541986,0.0
13.000000238418579,-6.272808349609375,-0.5434837768554687,-1.1731588134765625,24.564885496183205,-61.83206106870229,17.34351145038168,-13.005303417968749,4.07971962890625,-3.1220389648437497,37.55725190839695,20.549618320610687,-15.954198473282442,0.0
13.010000705718994,-5.877765075683594,-1.5442600708007812,-1.7788918334960937,-4.702290076335878,-58.412213740458014,10.916030534351146,-13.72595811767578,4.687846850585937,-0.12449848632812499,36.900763358778626,25.923664122137403,-7.511450381679389,0.0
13.020000696182251,-1.426944189453125,-4.781220715332031,-4.11802685546875,-9.022900763358779,-47.48091603053435,8.396946564885496,-11.729193933105469,5.858611462402344,-1.0654197387695312,25.374045801526716,32.6412213740458,-4.885496183206107,0.0
13.030000686645508,-4.122815258789062,-1.3551181396484375,-2.849099975585937,-12.213740458015268,-17.251908396946565,-4.778625954198473,-11.77228956298828,4.819527941894531,0.47165772705078124,17.770992366412212,36.62595419847328,4.687022900763359,0.0
13.040000915527344,-1.7166425903320313,-2.6910826660156246,-5.444414575195312,-22.83969465648855,-11.007633587786259,-8.580152671755725,-10.754753857421875,4.7931917236328125,-0.3854664672851562,6.305343511450381,35.083969465648856,13.801526717557252,0.0
13.050000667572021,-3.0813375366210938,-0.6775590698242188,-5.030217687988281,-28.83969465648855,12.335877862595419,-11.725190839694656,-11.252747802734374,2.375048046875,0.9337386474609375,1.4351145038167938,31.64885496183206,21.96946564885496,0.0
13.060000658035278,-3.9552211425781247,-0.46208092041015625,-4.84586416015625,-40.2442748091603,29.14503816793893,-12.763358778625955,-8.832209924316405,3.497928625488281,0.7134720947265625,-7.862595419847328,25.51145038167939,22.85496183206107,0.0
13.070000886917114,-3.066972326660156,-0.3711012573242187,-4.7572786987304685,-44.97709923664122,49.038167938931295,-12.870229007633588,-8.872911352539061,2.2601263671875,2.987963671875,-31.69465648854962,39.52671755725191,30.47328244274809,0.0
13.080000877380371,0.5770026000976562,-2.731784094238281,-6.842628344726562,-49.81679389312977,66.59541984732824,-15.16030534351145,-4.398148449707031,3.8666356811523435,-0.16041151123046873,-51.14503816793893,33.87786259541985,29.541984732824428,0.0
13.090000629425049,-1.5705962890624998,-1.5322890624999999,-6.505045910644531,-41.9236641221374,93.09923664122137,-21.328244274809162,-8.221688500976562,-1.8171990600585937,3.706224169921875,-60.900763358778626,55.02290076335878,40.87022900763359,0.0
13.100000858306885,0.8044517578125,-5.063736511230468,-7.1395093505859375,-34.900763358778626,109.1145038167939,-24.442748091603054,-4.161122485351562,0.239420166015625,-1.3263877197265623,-53.954198473282446,38.80916030534351,30.229007633587788,0.0
13.110000610351562,-2.379836450195312,-3.39018955078125,-4.50109912109375,-12.534351145038167,139.23664122137404,-29.81679389312977,-6.79953271484375,-1.9656395629882812,3.2154128295898436,-59.038167938931295,57.69465648854962,33.29770992366412,0.0
13.12000060081482,-3.718195178222656,-3.2609026611328122,-1.8698714965820311,-23.908396946564885,151.75572519083968,-39.38931297709924,-7.378929516601562,-5.832275244140624,1.0319009155273438,-44.51908396946565,46.51908396946565,27.068702290076335,0.0
13.130000591278076,-4.589684582519531,-1.6256629272460936,1.4221557861328125,-23.16030534351145,159.09923664122138,-48.229007633587784,-8.441955053710936,-1.4820108276367188,2.3056161987304686,-37.98473282442748,51.86259541984733,41.89312977099237,0.0
13.140000343322754,-7.125144140624999,-0.023942016601562498,2.1883003173828124,-35.83206106870229,158.29007633587787,-47.32824427480916,-7.505822204589843,-2.0877438476562498,1.0630255371093749,-26.50381679389313,45.725190839694655,25.419847328244273,0.0
13.15000033378601,-8.40125362548828,2.50912333984375,3.1268273681640624,-33.43511450381679,159.5114503816794,-38.045801526717554,-7.544129431152343,0.8643067993164062,0.9576806640625,-35.00763358778626,42.30534351145038,25.6793893129771,0.0
13.160000801086426,-9.165003955078124,2.6886884643554687,5.736507177734374,-35.38931297709924,155.93893129770993,-24.65648854961832,-9.674968908691406,-0.36631285400390623,2.2361843505859373,-39.25190839694657,44.534351145038165,27.770992366412212,0.0
13.170001029968262,-10.390835205078124,-0.040701428222656245,10.321403356933594,-38.12213740458015,137.9083969465649,-19.587786259541986,-9.746794958496093,-0.8786720092773437,2.288856787109375,-32.97709923664122,36.6412213740458,25.84732824427481,0.0
13.18000054359436,-11.745953344726562,-3.0358477050781247,15.720328100585936,-31.81679389312977,116.62595419847328,-16.50381679389313,-7.113173132324218,1.3407529296874998,1.1228805786132812,-41.98473282442748,32.38167938931298,22.045801526717558,0.0
13.190000772476196,-14.566322900390624,-1.3287819213867187,19.64442462158203,-36.900763358778626,87.87786259541984,-17.17557251908397,-6.87614716796875,0.8643067993164062,2.2385785522460937,-46.93129770992366,33.099236641221374,26.3206106870229,0.0
13.200000524520874,-18.880674291992186,4.024652990722656,20.063409912109375,-54.030534351145036,54.48854961832061,-16.53435114503817,-6.074089611816406,0.14604630126953125,1.915361328125,-51.98473282442748,29.206106870229007,31.557251908396946,0.0
13.21000051498413,-17.243040356445313,-0.13646949462890623,16.941370947265625,-28.931297709923665,14.793893129770993,1.2061068702290076,-5.985504150390625,-0.8403647827148437,1.879448303222656,-50.3206106870229,20.412213740458014,35.23664122137404,0.0
13.220000505447388,-19.47922470703125,7.445967163085937,17.137695483398435,23.72519083969466,6.809160305343512,11.572519083969466,-8.279149340820313,-4.340687609863281,2.0183119995117185,-42.01526717557252,19.709923664122137,38.900763358778626,0.0
13.230000257492065,-16.019603308105467,9.090783703613281,13.520056774902343,10.931297709923664,-30.83969465648855,23.114503816793892,-7.568071447753906,-3.2441432495117186,1.608903515625,-38.93129770992366,11.16030534351145,39.038167938931295,0.0
13.240000486373901,-14.405911389160156,9.332598071289063,11.058817468261719,9.938931297709924,-49.66412213740458,41.17557251908397,-8.12113203125,-4.077325427246094,0.8762778076171874,-30.793893129770993,8.717557251908397,39.29770992366412,0.0
13.250000238418579,-9.782707983398437,5.329492895507812,8.202534887695313,-3.2061068702290076,-76.87022900763358,58.534351145038165,-8.422801440429687,-3.756502404785156,0.4525041137695312,-16.916030534351144,7.7251908396946565,37.587786259541986,0.0
13.260000467300415,-10.05564697265625,4.680664245605469,8.240842114257813,-4.961832061068702,-84.6412213740458,73.64885496183206,-7.994239343261718,-3.5506010620117183,0.5602431884765625,-7.4961832061068705,12.687022900763358,34.44274809160305,0.0
13.270052671432495,-5.791573815917968,-2.501940734863281,3.2609026611328122,20.091603053435115,-90.2442748091603,100.25954198473282,-7.345410693359375,-1.8171990600585937,-3.1651345947265623,3.7404580152671754,16.412213740458014,33.87786259541985,0.0
13.280000686645508,-5.877765075683594,-5.295974072265625,0.4955997436523437,24.931297709923665,-70.82442748091603,104.10687022900764,-10.960655200195312,-3.6391865234374996,-0.8690952026367187,14.091603053435115,33.9236641221374,28.748091603053435,0.0
13.290000677108765,-6.959944226074218,-11.051634863281249,4.3239281982421875,9.98473282442748,-71.25190839694656,82.27480916030534,-12.617442749023438,-1.8555062866210936,-0.13646949462890623,13.435114503816793,40.76335877862596,15.83206106870229,0.0
13.3000009059906,-14.19282744140625,-9.399635717773437,11.386823095703125,14.106870229007633,-68.65648854961832,53.70992366412214,-14.219163659667968,-2.070984436035156,0.8571241943359375,12.213740458015268,46.74809160305343,11.419847328244275,0.0
13.310000658035278,-21.47598889160156,0.9121908325195311,11.003750830078124,69.29770992366412,-76.04580152671755,38.38167938931298,-16.452953808593747,-2.224213342285156,1.6472107421875,20.47328244274809,43.083969465648856,11.236641221374045,0.0
13.320000648498535,-22.26128703613281,10.398017810058594,2.5641899780273434,81.5114503816794,-70.38167938931298,39.11450381679389,-14.374786767578124,2.710236279296875,0.699106884765625,8.458015267175572,32.534351145038165,4.687022900763359,0.0
13.330026149749756,-17.98524287109375,6.296750366210937,-2.442085693359375,11.236641221374045,-76.94656488549619,32.70229007633588,-17.207127331542967,0.17238251953125,4.237736938476562,1.7404580152671756,31.14503816793893,10.427480916030534,0.0
13.340000867843628,-15.155296508789062,-2.4444798950195312,0.7134720947265625,-19.374045801526716,-69.80152671755725,26.9618320610687,-17.865532788085936,0.5051765502929687,4.374206433105469,3.435114503816794,11.725190839694656,8.916030534351146,0.0
13.350000619888306,-11.104307299804686,-3.3399113159179685,-3.9408559326171875,19.16030534351145,-40.229007633587784,23.206106870229007,-16.994043383789062,5.6383449096679685,1.6807295654296874,-11.908396946564885,-2.1374045801526718,0.8396946564885496,0.0
13.360000371932983,-11.959037292480469,7.584830859375,-5.9208607055664055,5.068702290076335,-15.022900763358779,19.633587786259543,-18.66040773925781,4.120421057128906,3.337517114257812,-37.57251908396947,-1.4045801526717556,-1.633587786259542,0.0
13.37000060081482,-12.258312499999999,6.210559106445312,-6.131550451660156,-36.458015267175576,-9.98473282442748,25.297709923664122,-22.012290063476563,1.8411410766601561,4.599261389160156,-21.984732824427482,-20.717557251908396,5.038167938931298,0.0
13.380000352859497,-8.360552197265624,-1.180341418457031,-6.754042883300781,-60.87022900763359,2.1068702290076335,25.984732824427482,-15.33486163330078,8.712499841308594,0.13168109130859373,-34.091603053435115,-47.20610687022901,-0.7175572519083969,0.0
13.390012264251709,-6.584054565429687,-3.1124621582031247,-8.214505895996094,-69.19083969465649,21.282442748091604,16.35114503816794,-14.518438867187498,8.851363537597656,1.1827356201171875,-47.05343511450382,-44.534351145038165,6.8396946564885495,0.0
13.40000033378601,-9.964667309570311,2.521094348144531,-7.599196069335937,-86.8854961832061,27.755725190839694,3.618320610687023,-15.286977600097655,7.072471704101562,1.924938134765625,-40.85496183206107,-49.51145038167939,14.763358778625955,0.0
13.410000562667847,-8.20971749267578,-1.0941501586914062,-7.867346655273437,-86.44274809160305,44.19847328244275,7.022900763358779,-10.970232006835937,8.092401611328125,-0.7422025146484375,-54.80916030534351,-54.778625954198475,12.717557251908397,0.0
13.420000553131104,-11.018116040039061,-2.4516625,-3.086125939941406,-87.14503816793894,61.55725190839695,-0.3969465648854962,-11.212046374511718,8.525752111816406,-1.3359645263671873,-66.04580152671755,-45.02290076335878,13.801526717557252,0.0
13.43000078201294,-11.587936035156249,-3.9791631591796874,-2.4301146850585935,-69.7557251908397,70.76335877862596,-6.900763358778626,-12.502521069335936,5.983109948730468,0.852335791015625,-61.64885496183206,-36.35114503816794,18.35114503816794,0.0
13.440008878707886,-13.761871142578125,-0.4908113403320312,-1.369483349609375,-54.74809160305343,82.54961832061069,-15.618320610687023,-11.410765112304686,6.011840368652344,-2.0254946044921875,-58.97709923664122,-36.2442748091603,14.473282442748092,0.0
13.450000762939453,-12.76827745361328,-0.3327940307617187,-0.7637503295898437,-53.603053435114504,78.25954198473282,-16.580152671755727,-10.694898815917968,6.718129858398437,-2.85388837890625,-67.19083969465649,-27.51145038167939,11.938931297709924,0.0
13.460000276565552,-11.609483850097655,-1.1420341918945311,1.1611878051757811,-40.74809160305343,80.82442748091603,-16.732824427480917,-10.32379755859375,5.391742138671875,-2.0159177978515626,-66.47328244274809,-15.938931297709924,16.244274809160306,0.0
13.470000743865967,-10.845733520507812,-1.649604943847656,1.6065093139648436,-25.740458015267176,78.80916030534351,-19.0381679389313,-8.98304462890625,5.154716174316406,-2.91134921875,-59.603053435114504,-12.290076335877863,18.580152671755727,0.0
13.480000257492065,-10.850521923828124,-0.9409212524414062,1.675941162109375,-11.877862595419847,75.49618320610686,-21.87786259541985,-8.372523205566406,2.9975404785156248,-1.9991583862304687,-45.32824427480916,-3.5267175572519083,22.47328244274809,0.0
13.490000486373901,-10.690110412597656,-0.6272808349609375,1.5921441040039062,-1.9083969465648856,70.97709923664122,-23.6793893129771,-7.771578588867187,2.4516625,-1.4413093994140624,-33.23664122137404,1.2061068702290076,22.595419847328245,0.0
13.500000238418579,-9.931148486328125,0.5506663818359374,1.678335363769531,6.732824427480916,67.89312977099236,-23.480916030534353,-7.067683300781249,0.9840168823242187,-1.5945383056640625,-23.755725190839694,4.687022900763359,21.374045801526716,0.0
13.510000467300415,-9.830592016601562,1.7812860351562498,1.0917559570312498,8.320610687022901,62.51908396946565,-22.48854961832061,-7.991845141601562,-0.47884033203125,-1.177947216796875,-11.435114503816793,7.557251908396947,19.236641221374047,0.0
13.520000696182251,-10.182539660644531,3.246537451171875,1.8267758666992187,2.6259541984732824,59.32824427480916,-21.61832061068702,-7.513004809570312,-0.9840168823242187,-0.679953271484375,2.0763358778625953,7.984732824427481,15.419847328244275,0.0
13.530000448226929,-7.448361364746093,0.8475473876953125,1.3934253662109375,2.2748091603053435,56.30534351145038,-16.213740458015266,-7.089231115722656,-1.3766659545898436,-0.612915625,9.648854961832061,6.549618320610687,10.320610687022901,0.0
13.540000438690186,-11.513715783691406,5.418078356933593,4.13718046875,-12.335877862595419,55.954198473282446,-19.51145038167939,-9.852139831542969,-4.6351744140625,2.5665841796874997,33.29770992366412,7.511450381679389,7.419847328244275,0.0
13.550000667572021,-8.930372192382812,1.917755529785156,1.9321207397460936,-19.69465648854962,46.82442748091603,-14.274809160305344,-7.453149768066406,-2.061407629394531,0.05027823486328125,42.18320610687023,-5.572519083969466,-5.526717557251908,0.0
13.560000896453857,-9.988609326171874,3.0837317382812497,2.6312276245117188,-21.022900763358777,51.89312977099237,-12.564885496183207,-7.963114721679687,-3.2609026611328122,1.9704279663085937,44.50381679389313,-3.0839694656488548,-12.931297709923664,0.0
13.570000648498535,-10.036493359375,1.4939818359375,2.6862942626953124,-33.57251908396947,42.12213740458015,-11.007633587786259,-8.537723120117187,-4.8506525634765625,1.8938135131835936,63.14503816793893,-17.358778625954198,-21.328244274809162,0.0
13.580000877380371,-9.591171850585937,2.0087351928710935,2.8730419921875,-32.38167938931298,40.38167938931298,-8.717557251908397,-8.29351455078125,-2.4109610717773435,1.9225439331054686,68.42748091603053,-26.061068702290076,-31.358778625954198,0.0
13.59000039100647,-9.22485899658203,1.5227122558593749,2.384624853515625,-43.17557251908397,33.64885496183206,-5.00763358778626,-7.268796240234375,-0.16280571289062498,1.8315642700195311,56.67175572519084,-27.6793893129771,-38.48854961832061,0.0
13.600000619888306,-10.800243688964843,0.3591302490234375,2.7054478759765623,-43.69465648854962,36.0,-3.83206106870229,-9.715670336914062,-0.9888052856445312,2.3295582153320313,62.916030534351144,-40.01526717557252,-41.32824427480916,0.0
13.610000610351562,-8.757989672851561,-0.9600748657226562,2.6815058593749996,-37.770992366412216,31.129770992366414,-3.6793893129770994,-7.299920861816406,2.3319524169921872,2.7461493041992187,49.43511450381679,-38.61068702290076,-45.87786259541985,0.0
13.62000060081482,-10.522516296386717,-0.07900865478515624,3.900154504394531,-30.229007633587788,35.63358778625954,-6.030534351145038,-10.893617553710937,-0.21308394775390624,3.612850305175781,48.82442748091603,-40.93129770992366,-42.091603053435115,0.0
13.630000352859497,-10.149020837402343,0.19632453613281248,4.0988732421875,-25.801526717557252,27.81679389312977,-6.916030534351145,-7.941566906738281,4.048595007324218,2.3822306518554686,43.83206106870229,-47.80152671755725,-45.48091603053435,0.0
13.640000343322754,-10.091559997558592,-0.29448680419921874,3.854664672851562,-21.358778625954198,22.412213740458014,-3.801526717557252,-11.789048974609374,-0.36152445068359373,4.42448466796875,44.274809160305345,-40.56488549618321,-36.06106870229008,0.0
13.65000033378601,-9.512163195800781,-0.5865794067382812,3.450044592285156,-11.297709923664122,17.66412213740458,-4.061068702290076,-9.612719665527344,2.262520568847656,2.5905261962890624,57.038167938931295,-54.732824427480914,-40.68702290076336,0.0
13.660000562667847,-9.641450085449218,-0.06464344482421874,2.3535002319335936,-2.6106870229007635,15.435114503816793,-3.0229007633587788,-9.052476477050782,2.2385785522460937,3.246537451171875,47.93893129770992,-41.55725190839695,-35.00763358778626,0.0
13.670000314712524,-9.478644372558593,0.06464344482421874,2.528276953125,0.3053435114503817,14.198473282442748,-4.015267175572519,-10.845733520507812,1.5107412475585937,2.157175695800781,57.083969465648856,-48.93129770992366,-30.198473282442748,0.0
13.68000054359436,-10.905588562011719,1.8100164550781248,2.327164013671875,-1.0534351145038168,10.870229007633588,-6.122137404580153,-8.169016064453125,4.709394665527343,0.0143652099609375,51.31297709923664,-45.786259541984734,-28.671755725190838,0.0
13.690000772476196,-10.153809240722655,0.5363011718749999,2.4157494750976563,4.458015267175573,10.442748091603054,-4.320610687022901,-8.269572534179687,3.318363500976562,0.39983167724609375,40.396946564885496,-34.030534351145036,-19.358778625954198,0.0
13.700176477432251,-8.98304462890625,-1.637633935546875,1.7980454467773437,11.786259541984732,8.01526717557252,-3.572519083969466,-10.187328063964843,1.6424223388671875,1.7429788085937499,46.54961832061068,-28.80916030534351,-14.274809160305344,0.0
13.71000075340271,-9.49300958251953,-1.0510545288085937,1.8698714965820311,26.015267175572518,12.244274809160306,-8.213740458015268,-6.418854650878906,3.9432501342773434,-0.4381389038085937,48.54961832061068,-31.419847328244273,-15.801526717557252,0.0
13.720000505447388,-9.512163195800781,0.16998831787109375,1.8459294799804686,28.442748091603054,13.083969465648854,-10.15267175572519,-5.8610056640625,4.235342736816406,-1.3048399047851562,34.0763358778626,-17.389312977099237,-9.587786259541986,0.0
13.730000257492065,-9.37808790283203,0.9983820922851562,1.9823989746093749,26.885496183206108,13.98473282442748,-9.877862595419847,-7.599196069335937,2.3319524169921872,0.17238251953125,26.12213740458015,-3.0076335877862594,-0.44274809160305345,0.0
13.740000486373901,-9.337386474609374,0.7709329345703124,1.6208745239257811,27.251908396946565,14.427480916030534,-9.98473282442748,-6.909665991210937,1.9728221679687499,-0.1005564697265625,32.732824427480914,-5.083969465648855,1.0381679389312977,0.0
13.750000476837158,-9.60793126220703,0.93852705078125,1.7357962036132812,28.30534351145038,15.648854961832061,-10.351145038167939,-7.862558251953125,0.19393033447265623,0.6727706665039062,41.587786259541986,-1.4961832061068703,3.6793893129770994,0.0
13.760128021240234,-8.43956085205078,-0.36152445068359373,1.2378022583007813,33.12977099236641,15.129770992366412,-10.351145038167939,-9.380482104492186,0.09816226806640624,1.3551181396484375,52.58015267175573,0.15267175572519084,3.5877862595419847,0.0
13.770000696182251,-10.196904870605469,1.455674609375,2.3726538452148436,32.10687022900763,18.427480916030536,-14.427480916030534,-9.023746057128905,0.7038952880859375,1.0726023437499999,59.14503816793893,-3.801526717557252,0.9465648854961832,0.0
13.780000686645508,-8.52335791015625,0.4644751220703125,1.7310078002929687,35.465648854961835,16.610687022900763,-14.198473282442748,-8.118737829589843,1.0366893188476562,1.2713210815429687,53.847328244274806,-0.8549618320610687,-0.366412213740458,0.0
13.790000677108765,-7.977479931640625,0.36391865234375,1.9895815795898437,36.83969465648855,19.374045801526716,-15.114503816793894,-8.212111694335936,2.0829554443359375,1.1444283935546875,43.31297709923664,6.427480916030534,-2.015267175572519,0.0
13.800000429153442,-7.6470801025390625,0.5051765502929687,2.0757728393554684,44.44274809160305,22.99236641221374,-16.885496183206108,-7.498639599609374,2.5665841796874997,1.1372457885742187,29.709923664122137,12.67175572519084,-2.381679389312977,0.0
13.810000658035278,-8.130708837890625,1.438915197753906,2.91134921875,47.908396946564885,26.946564885496183,-19.068702290076335,-8.798691101074219,0.9145850341796874,1.7166425903320313,30.549618320610687,11.465648854961833,-2.1068702290076335,0.0
13.820000886917114,-6.701370446777343,0.0718260498046875,1.6615759521484375,53.00763358778626,22.80916030534351,-17.16030534351145,-8.63109698486328,0.8283937744140625,2.003946789550781,29.893129770992367,15.099236641221374,-4.305343511450381,0.0
13.830000638961792,-7.599196069335937,0.8403647827148437,2.0159177978515626,61.404580152671755,32.35114503816794,-20.748091603053435,-8.434772448730468,0.34237083740234375,2.2768857788085937,27.6793893129771,15.114503816793894,-6.549618320610687,0.0
13.840000867843628,-9.433154541015625,3.39018955078125,2.712630480957031,51.847328244274806,33.52671755725191,-24.80916030534351,-8.614337573242187,0.5506663818359374,2.3151930053710936,26.580152671755727,14.229007633587786,-8.641221374045802,0.0
13.850000381469727,-8.75320126953125,2.6216508178710938,1.7238251953125,40.44274809160305,27.236641221374047,-20.137404580152673,-8.961496813964843,0.7972691528320313,2.3511060302734372,23.6793893129771,12.80916030534351,-10.198473282442748,0.0
13.860000610351562,-8.224082702636718,1.6017209106445311,1.6903063720703124,40.51908396946565,30.396946564885496,-18.33587786259542,-8.633491186523438,1.0007762939453124,2.4947581298828125,18.977099236641223,12.748091603053435,-12.183206106870228,0.0
13.87000060081482,-10.031704956054687,2.940079638671875,3.1459809814453124,30.564885496183205,33.038167938931295,-20.519083969465647,-9.07163009033203,0.7924807495117187,3.0262708984374997,13.877862595419847,12.564885496183207,-14.0,0.0
13.880000591278076,-8.410830432128906,1.209071838378906,2.252943762207031,26.99236641221374,27.358778625954198,-15.404580152671755,-8.935160595703124,1.254561669921875,3.1172505615234374,6.106870229007634,11.267175572519085,-15.450381679389313,0.0
13.890000581741333,-8.678981018066406,1.2713210815429687,2.8754361938476563,31.52671755725191,33.541984732824424,-13.923664122137405,-8.410830432128906,0.43574470214843747,2.980781066894531,-1.5572519083969465,9.16030534351145,-16.85496183206107,0.0
13.90000057220459,-10.704475622558594,3.8570588745117185,4.07971962890625,21.49618320610687,31.328244274809162,-15.083969465648854,-9.320627062988281,0.2442085693359375,4.04141240234375,-6.290076335877862,9.374045801526718,-17.236641221374047,0.0
13.910000324249268,-9.935936889648437,3.2704794677734372,4.043806604003906,9.587786259541986,22.412213740458014,-9.618320610687023,-8.963891015625,0.507570751953125,3.766079211425781,-12.183206106870228,5.282442748091603,-18.564885496183205,0.0
13.920000314712524,-9.87608184814453,3.1411925781249996,4.551377355957031,4.229007633587786,15.679389312977099,-6.625954198473282,-8.585607153320312,0.3687070556640625,3.5386300537109374,-20.244274809160306,3.053435114503817,-19.358778625954198,0.0
13.93000078201294,-11.322179650878905,3.1292215698242187,5.925649108886718,-0.4732824427480916,9.068702290076336,-5.816793893129771,-8.358157995605469,0.3902548706054687,3.3973721557617185,-28.015267175572518,2.4885496183206106,-18.65648854961832,0.0
13.940000534057617,-11.365275280761718,3.392583752441406,7.714117749023437,-8.320610687022901,-7.236641221374046,-2.5343511450381677,-8.75320126953125,0.05746083984375,3.3327287109375,-35.00763358778626,2.030534351145038,-18.290076335877863,0.0
13.950000762939453,-12.665326782226561,3.1507693847656246,10.682927807617187,-18.244274809160306,-25.358778625954198,-0.6106870229007634,-7.5537062377929685,1.2210428466796874,2.262520568847656,-44.13740458015267,1.0534351145038168,-19.6793893129771,0.0
13.960000276565552,-12.763489050292968,1.1133037719726562,12.038045947265624,-18.18320610687023,-50.0,2.5801526717557253,-7.678204724121093,1.254561669921875,2.31758720703125,-49.51145038167939,0.732824427480916,-18.213740458015266,0.0
13.970000505447388,-12.880804931640624,-0.7661445312499999,13.575123413085937,7.66412213740458,-67.3587786259542,0.8702290076335878,-8.224082702636718,0.8188169677734375,2.7150246826171873,-48.70229007633588,1.4809160305343512,-17.236641221374047,0.0
13.980000495910645,-13.460201733398437,1.197100830078125,14.753070629882812,19.14503816793893,-96.06106870229007,-1.3893129770992367,-8.789114294433594,0.6296750366210937,3.4452561889648434,-43.725190839694655,-0.48854961832061067,-17.52671755725191,0.0
13.990000486373901,-13.730746520996092,2.1739351074218747,16.479290026855466,23.72519083969466,-129.34351145038167,2.6564885496183206,-8.789114294433594,1.197100830078125,4.017470385742187,-42.62595419847328,-5.3893129770992365,-17.541984732824428,0.0
14.000000476837158,-12.727576025390624,-0.28490999755859375,16.589423303222656,39.465648854961835,-169.05343511450383,11.48091603053435,-11.133037719726563,-1.5131354492187499,5.054159704589844,-29.389312977099237,-7.419847328244275,-14.106870229007633,0.0
14.010000705718994,-11.908759057617187,-1.9919757812499999,11.999738720703125,60.045801526717554,-189.64885496183206,18.290076335877863,-9.215282189941405,1.446097802734375,2.7820623291015623,0.5648854961832062,-26.977099236641223,-20.641221374045802,0.0
14.020000696182251,-10.299855541992187,-2.6527754394531247,2.81558115234375,36.56488549618321,-208.82442748091603,17.83206106870229,-10.24718310546875,1.3718775512695311,3.5338416503906247,12.641221374045802,-20.83969465648855,-20.47328244274809,0.0
14.030000686645508,-9.85692823486328,-3.7110125732421873,-4.082113830566406,-1.8931297709923665,-218.03053435114504,10.091603053435115,-12.370839978027343,1.39821376953125,3.2609026611328122,39.89312977099237,-33.70992366412214,-18.610687022900763,0.0
14.040000915527344,-9.658209497070311,-6.368576416015625,-6.5960255737304685,8.687022900763358,-212.27480916030535,11.954198473282442,-13.53442198486328,2.0350714111328125,4.647145422363281,47.7557251908397,-37.32824427480916,-18.65648854961832,0.0
14.050000667572021,-8.978256225585938,-7.788338000488281,-6.421248852539062,49.51145038167939,-191.00763358778627,15.893129770992367,-14.884751721191405,1.848323681640625,2.118868469238281,32.83969465648855,-35.908396946564885,-20.27480916030534,0.0
14.060000896453857,-8.609549169921875,-7.517793212890624,-5.336675500488281,83.48091603053435,-162.82442748091603,10.916030534351146,-14.74109962158203,-1.5442600708007812,1.0965443603515623,14.381679389312977,-24.0,-16.091603053435115,0.0
14.070000648498535,-10.98699141845703,-4.477157104492187,-5.147533569335937,101.06870229007633,-135.25190839694656,-0.5801526717557252,-13.031639636230468,-3.6583401367187496,-1.9728221679687499,17.572519083969464,-25.87786259541985,-16.290076335877863,0.0
14.080000638961792,-9.631873278808593,-3.5865140869140624,-6.236895324707031,119.32824427480917,-112.03053435114504,-2.900763358778626,-11.204863769531249,-6.186617089843749,-1.1061211669921875,22.65648854961832,-17.541984732824428,-20.091603053435115,0.0
14.090000629425049,-12.859257116699219,0.5147533569335937,-3.7995980346679685,129.55725190839695,-79.80152671755725,-3.984732824427481,-7.920019091796875,-5.157110375976562,-1.6136919189453125,30.106870229007633,-20.50381679389313,-28.30534351145038,0.0
14.100000619888306,-11.784260571289062,1.216254443359375,-3.5434184570312497,118.1526717557252,-53.69465648854962,3.3740458015267176,-7.728482958984374,-3.4356793823242184,-1.3144167114257812,29.984732824427482,-15.86259541984733,-22.717557251908396,0.0
14.110000371932983,-15.148113903808593,7.0844427124023435,-0.45968671875,64.27480916030534,-44.595419847328245,0.549618320610687,-7.625532287597656,-0.737414111328125,-1.3527239379882812,22.793893129770993,-12.610687022900763,-13.526717557251908,0.0
14.12000060081482,-12.969390393066405,5.813121630859374,-0.33758243408203126,11.068702290076336,-44.045801526717554,6.6106870229007635,-8.846575134277343,2.4133552734375,-2.020706201171875,13.17557251908397,-7.786259541984733,-13.49618320610687,0.0
14.130000591278076,-9.03332286376953,1.7405846069335937,-2.437297290039062,-17.64885496183206,-35.66412213740458,11.801526717557252,-9.670180505371093,3.1268273681640624,-3.0238766967773434,3.5114503816793894,-1.282442748091603,-7.938931297709924,0.0
14.140000581741333,-6.265625744628906,-0.6751648681640625,-3.3399113159179685,-32.213740458015266,-22.732824427480917,10.900763358778626,-9.457096557617186,4.493916516113281,-3.8091748413085935,-6.885496183206107,5.511450381679389,-3.786259541984733,0.0
14.15000057220459,-5.595249279785156,-1.1707646118164061,-3.1507693847656246,-49.404580152671755,-12.488549618320612,7.282442748091603,-11.295843432617186,2.3822306518554686,-2.166752502441406,-9.541984732824428,17.72519083969466,5.404580152671755,0.0
14.160000562667847,-4.031835595703125,-2.683900061035156,-4.335899206542969,-57.465648854961835,1.3587786259541985,4.015267175572519,-11.080365283203124,2.300827795410156,-1.5179238525390624,-7.66412213740458,22.610687022900763,9.404580152671755,0.0
14.170000314712524,-4.125209460449218,-2.4396914916992185,-5.078101721191406,-62.38167938931298,15.083969465648854,0.549618320610687,-11.458649145507811,1.6543933471679686,-0.48123453369140623,-3.480916030534351,26.549618320610687,12.67175572519084,0.0
14.180000305175781,-1.9512743530273435,-5.092466931152344,-6.449979272460937,-50.48854961832061,38.94656488549618,-2.2748091603053435,-10.072406384277343,1.879448303222656,-0.6344634399414062,-3.6793893129770994,26.198473282442748,15.49618320610687,0.0
14.190000772476196,-1.9632453613281249,-3.5194764404296874,-7.012616662597656,-45.19083969465649,62.44274809160305,-11.83206106870229,-8.992621435546875,1.0845733520507812,0.6416460449218749,-6.366412213740458,32.152671755725194,21.206106870229007,0.0
14.200000524520874,-2.042254016113281,-3.706224169921875,-7.438784558105469,-51.20610687022901,78.7175572519084,-18.366412213740457,-6.677428430175781,2.3487118286132813,-0.11252747802734374,-10.183206106870228,22.83969465648855,20.83969465648855,0.0
14.21000051498413,-3.1794998046874996,-2.760514514160156,-6.095637426757812,-50.19847328244275,99.7557251908397,-24.9618320610687,-8.813056311035156,0.023942016601562498,2.1906945190429687,-14.717557251908397,37.847328244274806,28.396946564885496,0.0
14.220000505447388,-2.868253588867187,-3.6104561035156246,-3.5122938354492184,-50.12213740458015,116.68702290076335,-30.946564885496183,-5.849034655761718,1.158793603515625,1.3575123413085937,-18.076335877862597,31.541984732824428,25.236641221374047,0.0
14.230000495910645,-3.450044592285156,-3.507505432128906,0.8020575561523438,-38.916030534351144,128.94656488549617,-35.038167938931295,-5.363011718749999,0.40940848388671874,1.5490484741210937,-28.778625954198475,39.282442748091604,26.870229007633586,0.0
14.240000247955322,-5.528211633300781,-4.144363073730468,5.142745166015625,-30.412213740458014,128.68702290076337,-40.3206106870229,-7.237671618652343,-2.2194249389648437,2.360682836914062,-24.076335877862597,41.603053435114504,28.900763358778626,0.0
14.250000476837158,-7.843404638671874,-2.5570073730468748,6.414066247558593,-17.404580152671755,130.01526717557252,-42.48854961832061,-8.303091357421874,-3.8762124877929685,3.5434184570312497,-6.534351145038168,33.11450381679389,23.17557251908397,0.0
14.260000705718994,-9.739612353515625,-0.2753331909179687,5.061342309570312,-16.229007633587788,129.86259541984734,-38.80916030534351,-6.830657336425781,-1.369483349609375,2.1978771240234374,3.3435114503816794,24.229007633587788,18.641221374045802,0.0
14.270000696182251,-9.81862100830078,1.3958195678710936,5.430049365234375,-28.27480916030534,121.63358778625954,-34.76335877862596,-7.0461354858398435,0.6536170532226562,3.287238879394531,-0.7786259541984732,26.045801526717558,18.244274809160306,0.0
14.280000686645508,-10.69968721923828,3.268085266113281,7.742848168945312,-38.54961832061068,110.53435114503817,-27.114503816793892,-5.870582470703124,3.1100679565429687,1.1851298217773436,-18.396946564885496,18.412213740458014,16.564885496183205,0.0
14.290000915527344,-10.864887133789061,1.5753846923828123,10.759542260742187,-26.610687022900763,98.87022900763358,-11.755725190839694,-8.458714465332031,1.2713210815429687,4.393360046386719,-34.0,28.9618320610687,23.984732824427482,0.0
14.3000009059906,-11.633425866699218,-0.8164227661132812,13.479355346679686,-1.9541984732824427,86.94656488549619,-0.7022900763358778,-9.02135185546875,-0.4955997436523437,4.276044165039062,-27.83206106870229,18.30534351145038,22.458015267175572,0.0
14.310000658035278,-12.835315100097656,-0.21308394775390624,15.136142895507811,36.67175572519084,69.8473282442748,8.870229007633588,-8.820238916015624,0.7158662963867187,4.1946413085937495,-22.30534351145038,9.404580152671755,20.076335877862597,0.0
14.320000886917114,-14.89432852783203,6.172251879882812,16.160861206054687,54.16793893129771,48.396946564885496,17.297709923664122,-7.819462622070312,2.5043349365234375,1.697488977050781,-35.587786259541986,5.190839694656488,19.053435114503817,0.0
14.330000877380371,-15.44978331298828,10.24000050048828,15.253458776855467,49.49618320610687,19.022900763358777,26.27480916030534,-6.275202551269531,3.323151904296875,1.0773907470703123,-54.36641221374046,9.83206106870229,28.610687022900763,0.0
14.340000867843628,-11.666944689941406,7.481880187988281,11.118672509765624,37.7557251908397,-9.49618320610687,34.99236641221374,-6.41646044921875,0.7015010864257812,-0.3806780639648437,-66.2442748091603,12.473282442748092,38.12213740458015,0.0
14.350000619888306,-8.966285217285156,4.1754876953124995,8.219294299316406,46.68702290076336,-29.358778625954198,43.06870229007634,-7.8553756469726554,-3.347093920898437,-0.07422025146484375,-51.66412213740458,12.335877862595419,44.79389312977099,0.0
14.360000610351562,-11.250353601074218,5.272032055664062,9.287108239746093,42.51908396946565,-42.67175572519084,51.31297709923664,-7.4699091796875,-3.6176387084960937,-1.1372457885742187,-33.41984732824427,7.709923664122138,41.43511450381679,0.0
14.370000839233398,-10.970232006835937,0.201112939453125,6.169857678222656,43.11450381679389,-51.51145038167939,66.73282442748092,-8.336610180664062,-3.6200329101562496,-0.9241618408203125,-18.519083969465647,13.282442748091603,37.343511450381676,0.0
14.380000591278076,-17.113753466796872,1.3670891479492187,11.583147631835937,45.12977099236641,-52.97709923664122,79.20610687022901,-9.945513696289062,-2.327164013671875,-2.5857377929687497,-17.221374045801525,16.564885496183205,25.16030534351145,0.0
14.390000343322754,-21.748927880859373,1.915361328125,13.872004418945311,21.84732824427481,-76.82442748091603,79.19083969465649,-12.84489190673828,-0.2346317626953125,-2.0638018310546875,-30.48854961832061,28.33587786259542,17.87786259541985,0.0
14.40000057220459,-24.851813232421872,2.7844565307617186,12.686874597167968,-12.305343511450381,-104.0,59.80152671755725,-18.270152868652342,-2.9855694702148434,0.7996633544921875,-28.48854961832061,34.030534351145036,15.038167938931299,0.0
14.410000562667847,-22.330718884277342,3.361459130859375,3.8283284545898435,-30.885496183206108,-123.37404580152672,44.94656488549618,-19.747375292968748,-4.074931225585937,1.3024457031249999,-3.3435114503816794,20.427480916030536,7.267175572519084,0.0
14.420000314712524,-17.563863378906248,3.375824340820312,-4.690241052246093,-41.57251908396947,-120.3206106870229,45.19083969465649,-16.75222901611328,-1.8698714965820311,0.8667010009765624,12.977099236641221,7.557251908396947,0.5648854961832062,0.0
14.43000078201294,-10.388441003417968,1.5538368774414062,-9.871293444824218,-41.48091603053435,-104.3206106870229,55.725190839694655,-16.994043383789062,1.2904746948242187,2.2457611572265623,23.954198473282442,2.5801526717557253,0.2595419847328244,0.0
14.440000295639038,-4.319139794921875,0.6248866333007812,-10.714052429199219,-33.587786259541986,-71.32824427480917,55.282442748091604,-18.318036901855468,3.478775012207031,3.4356793823242184,27.64885496183206,-3.969465648854962,0.48854961832061067,0.0
14.450000762939453,-2.39420166015625,-1.5801730957031248,-11.956643090820311,-46.80916030534351,-42.61068702290076,48.67175572519084,-17.28853018798828,6.8569935546875,3.1004911499023438,19.61832061068702,-9.740458015267176,-0.4732824427480916,0.0
14.460000276565552,-3.7421371948242186,-4.101267443847656,-10.46984385986328,-53.83206106870229,-7.8320610687022905,38.82442748091603,-16.89827531738281,7.125144140624999,3.5529952636718747,10.67175572519084,-8.900763358778626,3.5267175572519083,0.0
14.470000743865967,-6.234501123046875,-3.296815686035156,-10.912771166992187,-64.50381679389314,14.290076335877863,24.137404580152673,-15.198392138671874,8.192958081054687,2.932897033691406,0.8854961832061069,-13.068702290076336,7.572519083969466,0.0
14.480000257492065,-10.09395419921875,-1.5897499023437498,-7.8912886718749995,-63.38931297709924,41.74045801526717,9.083969465648854,-13.335703247070311,8.568847741699217,2.4013842651367185,-12.977099236641221,-15.312977099236642,12.625954198473282,0.0
14.490000486373901,-14.073117358398436,-1.6112977172851561,-4.062960217285156,-83.77099236641222,41.93893129770992,0.5190839694656488,-12.143390820312499,8.566453540039062,2.0063409912109376,-27.572519083969464,-16.717557251908396,19.801526717557252,0.0
14.500000238418579,-13.606248034667967,-2.43250888671875,-2.2960393920898436,-78.93129770992367,54.229007633587784,-2.50381679389313,-11.03248125,7.180210778808593,1.7525556152343749,-42.25954198473283,-15.587786259541986,25.755725190839694,0.0
14.510000705718994,-13.287819213867186,-2.9472622436523435,-2.1739351074218747,-77.55725190839695,60.595419847328245,-9.877862595419847,-10.429142431640624,6.349422802734375,1.7764976318359373,-55.63358778625954,-12.549618320610687,29.297709923664122,0.0
14.520000457763672,-13.077129467773437,-1.8100164550781248,-1.1659762084960936,-67.58778625954199,70.30534351145039,-12.946564885496183,-9.121908325195312,5.5090580200195305,0.9002198242187499,-71.40458015267176,-8.82442748091603,30.595419847328245,0.0
14.530000686645508,-11.635820068359374,-2.0087351928710935,0.12689268798828124,-64.07633587786259,71.00763358778626,-14.83969465648855,-9.394847314453125,3.6655227416992187,0.7158662963867187,-72.54961832061069,-4.778625954198473,32.6412213740458,0.0
14.540000915527344,-11.276689819335937,-1.7238251953125,1.3263877197265623,-51.38931297709924,71.40458015267176,-17.69465648854962,-9.655815295410155,2.032677209472656,0.6057330200195312,-65.12977099236642,-1.9389312977099236,31.14503816793893,0.0
14.550000429153442,-10.838550915527343,-1.158793603515625,1.0726023437499999,-43.969465648854964,63.63358778625954,-20.244274809160306,-10.685322009277343,1.4772224243164063,0.2657563842773437,-49.083969465648856,-0.9312977099236641,28.18320610687023,0.0
14.560000658035278,-9.674968908691406,-0.009576806640625,0.28490999755859375,-35.63358778625954,58.68702290076336,-21.572519083969464,-9.861716638183593,1.2569558715820313,0.6560112548828124,-45.61832061068702,3.0229007633587788,22.80916030534351,0.0
14.570000648498535,-10.297461340332031,1.0438719238281249,0.7254431030273437,-33.603053435114504,56.045801526717554,-21.52671755725191,-9.054870678710937,2.2553379638671873,-0.6272808349609375,-41.83206106870229,2.198473282442748,16.870229007633586,0.0
14.580000638961792,-8.398859423828124,-1.0366893188476562,-0.3806780639648437,-23.587786259541986,52.091603053435115,-18.580152671755727,-9.629479077148437,0.852335791015625,-0.7517793212890624,-30.076335877862597,4.091603053435114,17.46564885496183,0.0
14.590000629425049,-9.423577734375,0.44532150878906246,0.5889736083984375,-17.52671755725191,51.41984732824427,-20.03053435114504,-7.587225061035156,1.8171990600585937,-1.1228805786132812,-29.633587786259543,8.778625954198473,13.129770992366412,0.0
14.600000619888306,-8.456320263671875,-0.9193734375,0.6560112548828124,-6.244274809160306,51.12977099236641,-17.19083969465649,-6.995857250976562,0.6823474731445313,-2.0254946044921875,-25.16030534351145,7.190839694656488,12.564885496183207,0.0
14.610000371932983,-8.458714465332031,-0.8212111694335937,0.6177040283203125,9.267175572519085,54.2442748091603,-18.0,-8.63827958984375,-1.4604630126953124,-0.2346317626953125,-7.648854961832061,11.358778625954198,12.061068702290076,0.0
14.62000060081482,-9.315838659667968,2.272097375488281,2.2744915771484373,8.229007633587786,54.19847328244275,-20.83969465648855,-6.6343328002929685,-1.37906015625,-0.5386953735351562,-5.893129770992366,9.587786259541986,2.900763358778626,0.0
14.630000352859497,-9.868899243164062,2.5067291381835934,2.408566870117187,-9.389312977099237,45.587786259541986,-17.099236641221374,-8.75320126953125,-3.1028853515624997,0.21308394775390624,8.992366412213741,8.82442748091603,0.42748091603053434,0.0
14.640000581741333,-8.74601866455078,0.7062894897460937,1.936909143066406,-11.893129770992367,42.595419847328245,-15.083969465648854,-6.792350109863281,-1.0534487304687499,-1.1468225952148436,12.396946564885496,3.801526717557252,-10.16793893129771,0.0
14.65000057220459,-8.932766394042968,-0.011971008300781249,2.133233679199219,-6.458015267175573,46.18320610687023,-16.259541984732824,-6.909665991210937,-0.46208092041015625,-0.13646949462890623,13.206106870229007,7.862595419847328,-13.450381679389313,0.0
14.660000324249268,-9.236830004882812,0.055066638183593745,2.8036101440429686,-1.7099236641221374,47.69465648854962,-20.03053435114504,-6.938396411132812,1.1563994018554686,-1.7717092285156248,16.793893129770993,0.3969465648854962,-18.458015267175572,0.0
14.670000553131104,-9.658209497070311,0.8738836059570312,2.693476867675781,-0.2595419847328244,43.64885496183206,-22.045801526717558,-7.972691528320312,0.5770026000976562,0.6727706665039062,11.114503816793894,12.778625954198473,-18.48854961832061,0.0
14.68000054359436,-10.395623608398436,2.798821740722656,3.881000891113281,-3.3282442748091605,42.97709923664122,-22.50381679389313,-7.350199096679687,2.990357873535156,-1.1731588134765625,1.3587786259541985,9.801526717557252,-22.763358778625953,0.0
14.690000772476196,-11.133037719726563,3.361459130859375,3.928884924316406,-14.381679389312977,31.480916030534353,-19.541984732824428,-10.244788903808594,-1.0007762939453124,3.114856359863281,2.9160305343511452,17.0381679389313,-18.68702290076336,0.0
14.700000286102295,-12.452242834472656,4.829104748535156,4.510675927734375,-22.53435114503817,20.106870229007633,-14.259541984732824,-10.73799444580078,-1.2737152832031249,2.281674182128906,25.984732824427482,1.0381679389312977,-24.717557251908396,0.0
14.71000051498413,-10.374075793457031,1.6304513305664061,2.463633508300781,-22.38167938931298,9.007633587786259,-3.1297709923664123,-8.520963708496094,1.4508862060546874,2.511517541503906,25.236641221374047,-4.0458015267175576,-30.900763358778626,0.0
14.720000505447388,-11.827356201171874,4.206612316894531,4.402936853027343,-17.404580152671755,16.427480916030536,-1.0534351145038168,-10.211270080566406,0.4165910888671875,2.940079638671875,17.786259541984734,-2.427480916030534,-31.17557251908397,0.0
14.730000495910645,-11.429918725585937,3.35188232421875,2.0733786376953125,-44.534351145038165,-6.33587786259542,5.679389312977099,-10.419565624999999,1.898601916503906,2.0781670410156248,25.251908396946565,-18.106870229007633,-31.541984732824428,0.0
14.740000486373901,-11.997344519042969,3.385401147460937,2.3439234252929686,-42.595419847328245,-4.885496183206107,10.748091603053435,-10.874463940429687,0.028730419921875,4.7931917236328125,21.236641221374047,-16.717557251908396,-29.267175572519083,0.0
14.750000476837158,-10.050858569335936,1.3479355346679687,2.2768857788085937,-53.89312977099237,-11.816793893129772,14.778625954198473,-8.47786807861328,2.8610709838867185,3.1651345947265623,23.52671755725191,-29.282442748091604,-32.595419847328245,0.0
14.760000705718994,-10.493785876464843,0.47644613037109373,1.898601916503906,-52.44274809160305,-12.335877862595419,15.19083969465649,-10.635043774414061,0.679953271484375,4.977545251464844,20.3206106870229,-29.206106870229007,-28.68702290076336,0.0
14.770000696182251,-9.897629663085937,-1.0319009155273438,1.4532804077148436,-54.16793893129771,-16.442748091603054,13.954198473282442,-10.991779821777342,0.7062894897460937,4.721365673828124,33.603053435114504,-43.099236641221374,-29.251908396946565,0.0
14.780000448226929,-8.9255837890625,-2.3056161987304686,1.8363526733398436,-37.38931297709924,-12.625954198473282,12.061068702290076,-9.828197814941406,3.375824340820312,2.5450363647460934,31.587786259541986,-49.69465648854962,-31.709923664122137,0.0
