timestamp,Thigh_L_Acc_X,Thigh_L_Acc_Y,Thigh_L_Acc_Z,Thigh_L_Gyr_X,Thigh_L_Gyr_Y,Thigh_L_Gyr_Z,Thigh_R_Acc_X,Thigh_R_Acc_Y,Thigh_R_Acc_Z,Thigh_R_Gyr_X,Thigh_R_Gyr_Y,Thigh_R_Gyr_Z,gpio_output
10.000000715255737,-10.805032092285156,1.4508862060546874,1.5227122558593749,8.595419847328245,47.9236641221374,-14.198473282442748,-12.562376110839843,0.229843359375,-0.3232172241210937,-34.412213740458014,36.0,25.87786259541985,0.0
10.010000705718994,-10.66856259765625,2.2864625854492187,1.7645266235351562,12.076335877862595,47.57251908396947,-10.274809160305344,-11.571176623535155,1.8842367065429686,-0.4836287353515625,-44.29007633587786,41.14503816793893,23.52671755725191,1.0
10.02000093460083,-10.436325036621094,2.916137622070312,1.697488977050781,10.091603053435115,47.221374045801525,-5.557251908396947,-9.282319836425781,3.134009973144531,-3.801992236328125,-49.404580152671755,38.54961832061068,22.244274809160306,1.0
10.030038356781006,-10.9175595703125,3.1555577880859373,1.668758557128906,6.244274809160306,46.6412213740458,-0.13740458015267176,-13.213598962402344,0.46686932373046874,1.70467158203125,-38.595419847328245,45.343511450381676,27.0381679389313,1.0
10.040000915527344,-10.788272680664061,2.817975354003906,1.7477672119140624,4.580152671755725,47.38931297709924,5.282442748091603,-11.621454858398437,4.544194750976562,-2.7820623291015623,-35.282442748091604,41.908396946564885,23.51145038167939,1.0
10.050000667572021,-11.552023010253906,1.944091748046875,1.9321207397460936,0.32061068702290074,49.41984732824427,8.0,-13.623007446289062,-0.469263525390625,3.584119885253906,-34.412213740458014,46.458015267175576,27.740458015267176,1.0
10.060000658035278,-10.496180078124999,0.28012159423828126,1.7453730102539062,4.229007633587786,51.87786259541985,7.526717557251908,-12.174515441894531,1.5131354492187499,2.6096798095703124,5.282442748091603,22.931297709923665,28.610687022900763,1.0
10.070001125335693,-10.01015714111328,0.143652099609375,1.7429788085937499,4.9465648854961835,54.534351145038165,4.99236641221374,-10.68053360595703,2.767697119140625,-0.1149216796875,-22.412213740458014,29.893129770992367,23.022900763358777,1.0
10.080000638961792,-9.662997900390625,-0.4572925170898437,1.944091748046875,6.793893129770993,56.732824427480914,0.9618320610687023,-12.07874737548828,1.62805712890625,-0.19393033447265623,-17.0381679389313,16.427480916030536,22.198473282442748,1.0
10.090001106262207,-10.062829577636718,0.59376201171875,2.3487118286132813,6.351145038167939,59.23664122137404,-3.969465648854962,-11.552023010253906,1.0702081420898437,2.1739351074218747,-18.80916030534351,22.549618320610687,21.221374045801525,1.0
10.100227355957031,-8.978256225585938,-0.7709329345703124,2.109291662597656,4.198473282442748,57.23664122137404,-6.076335877862595,-9.244012609863281,3.3710359375,0.15562310791015624,-19.541984732824428,11.755725190839694,17.14503816793893,1.0
10.110000848770142,-9.191340173339842,-0.7685387329101562,2.482787121582031,8.473282442748092,59.81679389312977,-8.061068702290076,-11.29344923095703,1.22583125,0.9840168823242187,-36.79389312977099,20.091603053435115,14.473282442748092,1.0
10.12000060081482,-8.743624462890624,-1.7573440185546874,2.185906115722656,14.412213740458014,59.69465648854962,-11.954198473282442,-10.050858569335936,-0.2154781494140625,1.6232687255859375,-7.3893129770992365,-1.816793893129771,14.396946564885496,1.0
10.130000591278076,-9.07163009033203,-0.8355763793945312,1.9033903198242186,26.748091603053435,64.21374045801527,-15.374045801526718,-9.859322436523437,-0.6847416748046875,2.5163059448242184,7.511450381679389,-5.404580152671755,13.389312977099237,1.0
10.140000581741333,-9.260772021484375,0.2609679809570312,2.0661960327148434,28.641221374045802,62.76335877862596,-17.557251908396946,-7.618349682617187,1.6208745239257811,0.8403647827148437,3.3893129770992365,-12.396946564885496,7.480916030534351,1.0
10.150000810623169,-9.708487731933593,0.7038952880859375,2.427720483398437,28.717557251908396,61.49618320610687,-16.641221374045802,-8.046911779785155,1.4628572143554686,0.23702596435546874,-5.541984732824427,-14.396946564885496,4.793893129770993,1.0
10.160213470458984,-9.797073193359374,1.5298948608398437,2.9448680419921875,26.80916030534351,59.603053435114504,-16.53435114503817,-7.979874133300781,1.1228805786132812,0.6464344482421874,-10.122137404580153,-14.061068702290076,2.9160305343511452,1.0
10.170026540756226,-9.349357482910156,1.3192051147460937,2.7533319091796873,22.35114503816794,56.25954198473283,-15.725190839694656,-8.05648858642578,0.40222587890625,0.7900865478515624,-14.51908396946565,-14.473282442748092,1.7404580152671756,1.0
10.18000054359436,-9.967061511230469,1.8722656982421875,3.0621839233398433,19.19083969465649,53.06870229007634,-15.84732824427481,-9.485826977539062,-0.7661445312499999,1.0223241088867188,-12.854961832061068,-14.992366412213741,0.0916030534351145,1.0
10.190000534057617,-9.928754284667969,1.2401964599609374,3.39018955078125,16.732824427480917,48.97709923664122,-14.610687022900763,-8.904035974121093,-1.1133037719726562,0.354341845703125,-11.816793893129772,-17.221374045801525,-4.366412213740458,1.0
10.200000524520874,-10.151415039062499,0.6177040283203125,3.6727053466796873,17.435114503816795,46.29007633587786,-14.183206106870228,-8.992621435546875,-3.4955344238281247,1.5035586425781249,11.541984732824428,-25.328244274809162,-6.732824427480916,1.0
10.21000051498413,-9.485826977539062,0.565031591796875,3.5242648437499997,22.641221374045802,43.32824427480916,-14.427480916030534,-8.932766394042968,-1.0749965454101562,-0.6512228515624999,24.47328244274809,-36.76335877862596,-15.358778625954198,0.0
10.220051288604736,-10.01733974609375,1.5179238525390624,3.2800562744140622,21.541984732824428,40.961832061068705,-15.84732824427481,-11.252747802734374,-3.957615344238281,2.437297290039062,22.442748091603054,-28.65648854961832,-20.732824427480917,0.0
10.230000734329224,-10.225635290527343,1.0438719238281249,3.5793314819335937,15.145038167938932,36.67175572519084,-16.27480916030534,-11.394005700683593,-3.763685009765625,1.0606313354492187,72.61068702290076,-54.94656488549618,-24.015267175572518,0.0
10.240000247955322,-10.211270080566406,1.7286135986328124,3.4332851806640625,8.80916030534351,31.328244274809162,-15.587786259541986,-9.536105212402344,0.08858546142578125,-0.967257470703125,67.58778625954199,-54.82442748091603,-34.10687022900763,0.0
10.250000476837158,-9.557653027343749,0.70868369140625,2.729389892578125,7.0534351145038165,28.213740458015266,-13.969465648854962,-10.855310327148437,-0.12689268798828124,-0.7350199096679687,80.44274809160305,-61.31297709923664,-35.7557251908397,0.0
10.260000705718994,-9.490615380859374,1.1444283935546875,3.0526071166992184,6.534351145038168,29.251908396946565,-15.541984732824428,-10.149020837402343,1.0654197387695312,-0.2705447875976562,71.6030534351145,-51.19083969465649,-39.64885496183206,0.0
10.27000093460083,-9.481038574218749,0.5985504150390625,2.6671406494140624,3.648854961832061,27.66412213740458,-16.53435114503817,-10.137049829101562,2.5857377929687497,-2.001552587890625,85.7557251908397,-66.09160305343511,-39.81679389312977,0.0
10.280000686645508,-9.866505041503906,1.7094599853515624,2.7461493041992187,1.4198473282442747,27.49618320610687,-16.977099236641223,-9.387664709472656,2.2577321655273437,0.2609679809570312,64.16793893129771,-43.20610687022901,-38.48854961832061,0.0
10.290072917938232,-9.334992272949219,0.7541735229492187,2.9496564453125,-3.2213740458015265,25.81679389312977,-16.33587786259542,-9.083601098632812,4.316745593261719,-2.205059729003906,77.78625954198473,-60.79389312977099,-38.99236641221374,0.0
10.300000429153442,-9.873687646484374,1.9584569580078124,3.0933085449218747,-3.312977099236641,25.435114503816795,-16.198473282442748,-9.198522778320312,1.838746875,1.7405846069335937,56.80916030534351,-35.52671755725191,-32.62595419847328,0.0
10.3100004196167,-9.3852705078125,0.8164227661132812,2.6719290527343746,-6.99236641221374,24.076335877862597,-15.068702290076336,-9.085995300292968,2.9089550170898435,-0.9624690673828125,68.45801526717557,-52.62595419847328,-33.29770992366412,0.0
10.320000648498535,-9.358934289550781,1.8770541015625,2.480392919921875,-4.702290076335878,23.83206106870229,-14.412213740458014,-6.382941625976562,5.398924743652343,-1.5682020874023437,42.18320610687023,-35.69465648854962,-30.717557251908396,0.0
10.330000638961792,-9.900023864746093,1.8339584716796873,3.0334535034179684,-14.259541984732824,22.82442748091603,-13.053435114503817,-11.350910070800781,0.833182177734375,1.675941162109375,40.83969465648855,-26.076335877862597,-19.46564885496183,0.0
10.340000629425049,-9.667786303710937,0.8547299926757812,2.6240450195312497,-13.969465648854962,19.572519083969464,-12.351145038167939,-9.404424121093749,2.4756045166015626,0.6296750366210937,53.12977099236641,-37.61832061068702,-22.106870229007633,0.0
10.35026478767395,-9.052476477050782,0.8283937744140625,1.917755529785156,-9.603053435114504,20.793893129770993,-9.770992366412214,-7.912836486816405,3.919308117675781,-0.4285620971679687,40.06106870229008,-34.412213740458014,-20.35114503816794,0.0
10.360000610351562,-9.220070593261719,0.8259995727539062,2.2098481323242187,-14.946564885496183,20.18320610687023,-10.916030534351146,-11.204863769531249,0.8475473876953125,1.5945383056640625,38.30534351145038,-29.404580152671755,-14.412213740458014,0.0
10.37000060081482,-9.267954626464844,0.5339069702148437,2.094926452636719,-13.786259541984732,19.46564885496183,-11.923664122137405,-9.260772021484375,3.402160559082031,0.033518823242187495,41.343511450381676,-40.29007633587786,-18.0,0.0
10.38013768196106,-9.193734375,1.0965443603515623,2.2074539306640624,-11.954198473282442,20.015267175572518,-11.725190839694656,-8.573636145019531,4.273649963378906,0.15562310791015624,21.129770992366414,-29.221374045801525,-15.145038167938932,0.0
10.390000820159912,-9.320627062988281,1.5490484741210937,2.607285607910156,-18.091603053435115,19.053435114503817,-11.48091603053435,-10.35492218017578,2.454056701660156,1.2593500732421874,11.725190839694656,-27.16030534351145,-10.82442748091603,0.0
10.40000057220459,-9.588777648925781,1.39821376953125,2.408566870117187,-19.068702290076335,17.267175572519083,-11.511450381679388,-10.656591589355468,2.205059729003906,1.6112977172851561,11.34351145038168,-28.83969465648855,-10.702290076335878,0.0
10.410000562667847,-9.648632690429688,1.1563994018554686,2.166752502441406,-17.83206106870229,16.99236641221374,-11.083969465648854,-8.966285217285156,2.925714428710937,1.0366893188476562,0.16793893129770993,-28.916030534351144,-12.946564885496183,0.0
10.420071363449097,-9.18655177001953,1.3383587280273437,2.4971523315429685,-19.099236641221374,15.84732824427481,-10.67175572519084,-6.9336080078124995,4.6639048339843745,0.5770026000976562,-20.748091603053435,-25.206106870229007,-15.022900763358779,0.0
10.43000054359436,-9.368511096191405,1.7310078002929687,2.2649147705078123,-21.541984732824428,13.86259541984733,-10.610687022900763,-9.165003955078124,2.6815058593749996,1.2856862915039062,-39.282442748091604,-12.977099236641221,-10.229007633587786,0.0
10.440000534057617,-9.797073193359374,1.8698714965820311,2.6767174560546874,-24.061068702290076,12.213740458015268,-10.793893129770993,-9.217676391601563,1.7022773803710936,1.4820108276367188,-39.221374045801525,-17.755725190839694,-10.641221374045802,0.0
10.450000762939453,-10.098742602539062,1.3263877197265623,2.291250988769531,-23.450381679389313,8.045801526717558,-9.251908396946565,-10.946289990234375,-0.3950432739257812,3.3016040893554686,-31.00763358778626,-19.69465648854962,-11.145038167938932,0.0
10.46000051498413,-9.639055883789062,0.16280571289062498,1.9201497314453124,-17.358778625954198,7.343511450381679,-7.7251908396946565,-10.785878479003905,-1.5586252807617187,2.999934680175781,-18.213740458015266,-28.198473282442748,-14.335877862595419,0.0
10.470000505447388,-9.686939916992188,-0.009576806640625,2.094926452636719,-12.717557251908397,7.3893129770992365,-9.129770992366412,-10.594342346191405,-0.0526724365234375,2.9831752685546875,-10.076335877862595,-36.06106870229008,-16.9618320610687,0.0
10.480000734329224,-9.521740002441407,0.49799394531249996,2.5378537597656248,-8.748091603053435,6.656488549618321,-9.603053435114504,-8.815450512695312,1.9800047729492187,1.4963760375976562,-21.81679389312977,-36.6412213740458,-20.290076335877863,0.0
10.490000486373901,-10.12507882080078,1.7310078002929687,2.7246014892578123,-10.67175572519084,5.206106870229007,-10.106870229007633,-9.725247143554688,1.0510545288085937,2.0087351928710935,-33.267175572519086,-30.27480916030534,-18.702290076335878,0.0
10.500000715255737,-10.17056865234375,1.9297265380859374,2.9472622436523435,-10.610687022900763,1.4809160305343512,-8.442748091603054,-11.355698474121093,-0.8643067993164062,3.5314474487304683,-28.48854961832061,-30.076335877862597,-18.748091603053435,0.0
10.510000705718994,-9.787496386718749,1.5466542724609373,2.1835119140624997,-5.282442748091603,-0.2748091603053435,-4.9465648854961835,-9.907206469726562,-0.40222587890625,2.39420166015625,-16.244274809160306,-38.88549618320611,-23.328244274809162,0.0
10.520000696182251,-9.909600671386718,1.7884686401367187,1.5490484741210937,-3.8931297709923665,0.183206106870229,-0.9312977099236641,-9.382876306152344,-0.6200982299804687,2.35589443359375,-13.450381679389313,-38.900763358778626,-24.27480916030534,0.0
10.530086755752563,-9.698910925292969,2.1499930908203124,1.4437036010742186,-4.931297709923665,1.816793893129771,2.351145038167939,-9.935936889648437,0.32561142578124996,2.808398547363281,-13.541984732824428,-37.465648854961835,-23.862595419847327,0.0
10.540689945220947,-8.674192614746094,1.5801730957031248,0.51714755859375,-6.854961832061068,2.8396946564885495,6.320610687022901,-9.121908325195312,0.6344634399414062,2.3726538452148436,-12.16793893129771,-38.79389312977099,-24.412213740458014,0.0
10.550000667572021,-9.504980590820312,2.0087351928710935,1.3431471313476562,-18.30534351145038,2.9618320610687023,6.549618320610687,-9.433154541015625,-0.17956512451171874,1.9632453613281249,-5.8320610687022905,-39.038167938931295,-23.801526717557252,0.0
10.560000658035278,-9.291896643066405,0.3447650390625,0.9097966308593749,-20.82442748091603,1.2671755725190839,6.396946564885496,-10.73799444580078,-1.0893617553710937,2.152387292480469,11.251908396946565,-42.30534351145038,-22.946564885496183,0.0
10.570081949234009,-9.291896643066405,-0.4740519287109375,1.2497732666015624,-16.549618320610687,5.145038167938932,4.305343511450381,-6.737283471679687,1.429338391113281,1.7764976318359373,12.213740458015268,-40.2442748091603,-25.84732824427481,0.0
10.580000638961792,-8.611943371582031,-1.8124106567382812,1.0414777221679687,-17.770992366412212,6.030534351145038,1.984732824427481,-9.366116894531249,0.239420166015625,2.5809493896484375,5.6183206106870225,-35.14503816793893,-20.290076335877863,0.0
10.590000867843628,-7.455543969726562,-4.101267443847656,0.316034619140625,1.7709923664122138,14.01526717557252,-2.885496183206107,-8.645462194824217,-0.6368576416015624,2.6001030029296874,12.396946564885496,-36.656488549618324,-20.9618320610687,0.0
10.600016355514526,-8.135497241210937,-3.5410242553710933,-0.00718260498046875,15.114503816793894,21.49618320610687,-10.595419847328245,-7.4699091796875,0.21787235107421873,2.3223756103515623,18.610687022900763,-35.11450381679389,-21.709923664122137,0.0
10.610000848770142,-8.82981572265625,-2.003946789550781,0.699106884765625,17.282442748091604,26.366412213740457,-19.6793893129771,-5.190629199218749,1.8315642700195311,1.1372457885742187,9.954198473282442,-29.709923664122137,-20.396946564885496,0.0
10.62000060081482,-9.514557397460937,0.5889736083984375,1.3383587280273437,7.984732824427481,26.106870229007633,-23.633587786259543,-6.174646081542968,2.013523596191406,1.2904746948242187,-2.4885496183206106,-18.396946564885496,-15.374045801526718,0.0
10.630000829696655,-9.686939916992188,0.6153098266601562,1.1468225952148436,0.3053435114503817,24.50381679389313,-23.404580152671755,-7.400477331542969,1.0366893188476562,1.3551181396484375,-4.442748091603053,-15.114503816793894,-10.83969465648855,0.0
10.640000343322754,-9.670180505371093,0.9002198242187499,1.4532804077148436,2.549618320610687,27.938931297709924,-23.374045801526716,-7.740453967285156,-0.45968671875,2.473210314941406,-3.648854961832061,-5.847328244274809,-8.625954198473282,0.0
10.65000057220459,-9.380482104492186,0.17956512451171874,1.8267758666992187,-4.106870229007634,26.931297709923665,-23.954198473282442,-7.436390356445312,-0.7829039428710937,2.2960393920898436,8.305343511450381,-11.740458015267176,-7.908396946564886,0.0
10.660000562667847,-9.203311181640624,-0.06464344482421874,1.714248388671875,-0.2900763358778626,26.671755725190838,-23.862595419847327,-9.473855969238281,-1.3527239379882812,3.526659045410156,18.198473282442748,-7.435114503816794,-5.770992366412214,0.0
10.670000314712524,-9.923965881347655,0.4165910888671875,3.0047230834960934,-5.00763358778626,26.793893129770993,-25.786259541984734,-7.345410693359375,-0.22744915771484372,1.915361328125,26.717557251908396,-12.122137404580153,-6.67175572519084,0.0
10.68000054359436,-9.483432775878907,0.9457096557617187,3.294421484375,-10.931297709923664,21.49618320610687,-26.061068702290076,-7.1395093505859375,1.714248388671875,1.1109095703125,24.045801526717558,-5.099236641221374,-6.519083969465649,0.0
10.690000534057617,-10.486603271484375,1.1180921752929687,4.580107775878906,-16.35114503816794,19.801526717557252,-26.16793893129771,-6.730100866699218,3.0980969482421874,0.105344873046875,23.435114503816795,-19.87786259541985,-10.259541984732824,0.0
10.700000524520874,-9.801861596679688,1.8052280517578123,5.039794494628906,-21.129770992366414,12.641221374045802,-26.12213740458015,-6.433219860839843,2.858676782226562,12.643778967285156,-78.03053435114504,-15.557251908396946,10.793893129770993,0.0
10.71000051498413,-11.094730493164063,2.042254016113281,6.265625744628906,-22.900763358778626,7.236641221374046,-24.885496183206108,-5.576095666503906,3.2704794677734372,11.700463513183593,21.64885496183206,40.18320610687023,4.67175572519084,0.0
10.720000267028809,-11.58075343017578,1.8650830932617186,6.981492041015625,-15.389312977099237,3.4198473282442747,-20.396946564885496,-6.308721374511719,-5.365405920410156,-10.615890161132812,-18.03053435114504,0.6870229007633588,2.1374045801526718,0.0
10.730000495910645,-12.394781994628906,2.9448680419921875,8.200140686035155,-11.893129770992367,-6.641221374045801,-17.0381679389313,-8.415618835449218,0.22266075439453123,-0.7230489013671875,20.198473282442748,3.0076335877862594,1.282442748091603,0.0
10.74000072479248,-11.566388220214844,1.9704279663085937,7.9655089233398435,-3.801526717557252,-19.374045801526716,-11.221374045801527,-7.407659936523437,-0.06703764648437499,-1.4867992309570313,-14.931297709923664,57.29770992366412,11.389312977099237,0.0
10.750000476837158,-12.67250938720703,3.801992236328125,9.526528405761718,7.190839694656488,-29.709923664122137,-4.885496183206107,-9.09796630859375,-0.7134720947265625,-3.303998291015625,-16.80916030534351,33.099236641221374,-0.061068702290076333,0.0
10.76013994216919,-12.928688964843749,2.7940333374023436,9.502586389160156,15.603053435114504,-44.54961832061068,3.7557251908396947,-11.305420239257812,0.5147533569335937,2.152387292480469,0.366412213740458,33.93893129770992,0.9618320610687023,0.0
10.770000457763672,-11.18571015625,1.484405029296875,9.165003955078124,43.00763358778626,-51.48091603053435,12.396946564885496,-10.409988818359375,2.185906115722656,2.2744915771484373,-8.473282442748092,29.404580152671755,1.1145038167938932,0.0
10.780000448226929,-13.63019005126953,4.340687609863281,11.001356628417968,48.534351145038165,-66.56488549618321,15.84732824427481,-13.558364001464843,0.9097966308593749,4.436455676269531,-26.045801526717558,27.374045801526716,3.4656488549618323,0.0
10.790000915527344,-15.29655440673828,4.065354418945312,10.812214697265624,52.76335877862596,-85.26717557251908,23.66412213740458,-13.364433666992186,2.461239306640625,9.727641345214844,-10.259541984732824,36.25954198473283,5.0534351145038165,0.0
10.800000667572021,-10.091559997558592,-0.9576806640625,5.556942053222656,68.12213740458016,-108.56488549618321,36.12213740458015,-11.712434521484374,3.4165257690429685,4.261678955078125,-17.51145038167939,22.198473282442748,4.396946564885496,0.0
10.810000658035278,-10.778695874023438,-2.5546131713867184,5.288791467285156,103.95419847328245,-93.93893129770993,39.16030534351145,-13.081917871093749,1.6112977172851561,4.690241052246093,-21.52671755725191,23.6793893129771,8.946564885496183,0.0
10.820000410079956,-12.952630981445312,-0.105344873046875,5.370194323730469,77.87786259541984,-112.38167938931298,33.06870229007634,-12.325350146484375,0.3758896606445312,1.924938134765625,-13.618320610687023,9.053435114503817,9.755725190839694,0.0
10.830041408538818,-14.508862060546875,0.49799394531249996,6.246472131347656,66.01526717557252,-113.69465648854961,39.770992366412216,-11.439495532226562,-0.9002198242187499,2.013523596191406,-10.229007633587786,9.251908396946565,9.557251908396946,0.0
10.840055704116821,-14.398728784179687,0.3711012573242187,4.726154077148437,50.30534351145038,-125.46564885496183,51.86259541984733,-8.904035974121093,0.4213794921875,0.5817910034179687,-49.083969465648856,15.099236641221374,7.435114503816794,0.0
10.850001096725464,-14.688427185058593,1.3527239379882812,4.414907861328125,54.97709923664122,-119.5114503816794,64.58015267175573,-7.357381701660156,0.7709329345703124,-0.06464344482421874,-21.435114503816795,12.763358778625955,8.50381679389313,0.0
10.860000610351562,-8.358157995605469,-4.740519287109374,-1.5586252807617187,41.55725190839695,-121.96946564885496,72.50381679389314,-6.545747338867187,0.9935936889648437,-2.521094348144531,-45.9236641221374,18.290076335877863,10.290076335877863,0.0
10.870000839233398,-9.572018237304688,-4.410119458007812,-5.090072729492187,29.17557251908397,-95.6793893129771,62.88549618320611,-10.771513269042968,-1.8650830932617186,-0.5219359619140624,-50.06106870229008,25.633587786259543,13.083969465648854,0.0
10.880000591278076,-9.445125549316407,-8.262389929199218,-7.115567333984375,-0.6259541984732825,-85.55725190839695,44.458015267175576,-9.315838659667968,-1.6831237670898436,-1.2521674682617188,-45.083969465648856,25.69465648854962,6.99236641221374,0.0
10.890000820159912,-9.392453112792968,-9.935936889648437,-3.5984850952148437,-2.2442748091603053,-71.52671755725191,26.458015267175572,-7.888894470214844,-0.277727392578125,-0.8283937744140625,-55.00763358778626,33.32824427480916,7.709923664122138,0.0
10.900140047073364,-8.74601866455078,-9.4618849609375,0.16998831787109375,14.870229007633588,-60.152671755725194,12.442748091603054,-12.55758770751953,-2.442085693359375,0.9576806640625,-55.038167938931295,33.64885496183206,14.992366412213741,0.0
10.910000562667847,-9.555258825683593,-4.752490295410156,0.8714894042968749,20.427480916030536,-62.06106870229008,1.3435114503816794,-13.464990136718749,-2.952050646972656,0.41419688720703124,-42.35114503816794,17.603053435114504,20.412213740458014,0.0
10.920000553131104,-8.626308581542968,-1.5610194824218748,-0.9313444458007812,36.48854961832061,-51.31297709923664,5.267175572519084,-10.115502014160155,0.20829554443359374,0.699106884765625,-56.44274809160305,25.099236641221374,10.717557251908397,0.0
10.930172443389893,-10.8409451171875,2.9448680419921875,-1.0462661254882812,35.541984732824424,-40.83969465648855,10.687022900763358,-10.666168395996094,-1.3120225097656248,1.85790048828125,-61.603053435114504,37.51145038167939,17.709923664122137,0.0
10.940000534057617,-11.180921752929686,3.124433166503906,-0.47644613037109373,27.893129770992367,-38.06106870229008,19.81679389312977,-12.887987536621093,-5.482721801757812,-0.4836287353515625,-83.61832061068702,28.229007633587788,17.923664122137403,0.0
10.950000524520874,-9.03332286376953,-0.6081272216796875,-0.7948749511718749,28.427480916030536,-34.732824427480914,27.358778625954198,-10.51533369140625,-3.7924154296875,2.2074539306640624,-11.801526717557252,15.908396946564885,12.381679389312977,0.0
10.96000051498413,-9.579200842285156,-0.9026140258789062,-0.201112939453125,25.282442748091604,-29.740458015267176,28.442748091603054,-9.777919580078125,-3.6296097167968746,1.5634136840820312,0.061068702290076333,17.022900763358777,12.13740458015267,0.0
10.970000505447388,-9.200916979980468,-0.5578489868164063,0.28490999755859375,13.98473282442748,-27.19083969465649,27.404580152671755,-8.214505895996094,-1.5945383056640625,-0.023942016601562498,5.6183206106870225,13.740458015267176,12.763358778625955,0.0
10.980000734329224,-11.322179650878905,4.632780212402343,1.6208745239257811,-23.938931297709924,-35.80152671755725,24.229007633587788,-10.685322009277343,-0.507570751953125,0.6009446166992187,4.763358778625954,18.717557251908396,11.83206106870229,0.0
10.990000247955322,-9.356540087890625,1.8076222534179687,0.05985504150390625,-56.06106870229008,-47.267175572519086,29.908396946564885,-8.729259252929687,0.02154781494140625,-1.1851298217773436,2.6259541984732824,20.48854961832061,10.732824427480915,0.0
11.000000715255737,-8.13310303955078,-0.7757213378906249,-0.5027823486328125,-53.969465648854964,-46.16793893129771,35.29770992366412,-8.271966735839843,-0.3136404174804687,-0.023942016601562498,3.618320610687023,24.99236641221374,10.51908396946565,0.0
11.010000705718994,-7.960720520019531,-1.5610194824218748,-0.1388636962890625,-33.16030534351145,-36.38167938931298,37.7557251908397,-7.912836486816405,0.7493851196289062,-0.9720458740234375,11.419847328244275,20.82442748091603,7.0534351145038165,0.0
11.020000457763672,-8.310273962402343,-0.6560112548828124,1.0941501586914062,-29.51145038167939,-36.88549618320611,37.66412213740458,-7.9272016967773435,0.12449848632812499,-0.6631938598632812,7.3893129770992365,26.47328244274809,9.221374045801527,0.0
11.030000686645508,-7.857769848632812,-0.4165910888671875,2.473210314941406,-29.480916030534353,-37.282442748091604,36.88549618320611,-9.5001921875,0.70868369140625,0.6344634399414062,8.442748091603054,31.755725190839694,10.290076335877863,0.0
11.04003119468689,-7.675810522460937,-0.9840168823242187,3.5960908935546874,-22.53435114503817,-34.76335877862596,36.3206106870229,-8.616731774902343,0.7709329345703124,0.5530605834960938,7.404580152671755,30.977099236641223,11.114503816793894,0.0
11.050000667572021,-7.917624890136718,-0.9193734375,3.801992236328125,-29.908396946564885,-39.06870229007634,33.16030534351145,-10.635043774414061,-0.5386953735351562,2.0254946044921875,12.198473282442748,35.29770992366412,14.580152671755725,0.0
11.0600004196167,-6.481103894042969,-4.091690637207031,3.1411925781249996,-15.877862595419847,-36.18320610687023,31.34351145038168,-11.975796704101562,-2.090138049316406,2.310404602050781,30.946564885496183,25.389312977099237,13.908396946564885,0.0
11.070000410079956,-7.824251025390624,-2.6216508178710938,4.338293408203125,2.8396946564885495,-26.68702290076336,24.3206106870229,-9.91438907470703,-0.11731588134765625,1.4700398193359374,37.221374045801525,18.549618320610687,8.610687022900763,0.0
11.080000638961792,-6.718129858398437,-1.8698714965820311,5.03740029296875,1.3129770992366412,-28.076335877862597,16.99236641221374,-10.026916552734374,0.32561142578124996,1.1755530151367186,35.770992366412216,16.045801526717558,10.0,0.0
11.09000039100647,-6.782773303222656,-1.7286135986328124,4.582501977539062,3.282442748091603,-27.709923664122137,11.236641221374045,-10.254365710449218,0.7254431030273437,1.2042834350585936,33.45038167938932,14.595419847328245,10.51908396946565,0.0
11.100000619888306,-7.395688928222656,1.7166425903320313,5.149927770996094,13.618320610687023,-20.412213740458014,6.763358778625954,-9.789890588378906,1.2306196533203124,0.9074024291992187,29.633587786259543,14.305343511450381,9.709923664122137,0.0
11.110000848770142,-7.8553756469726554,2.0278888061523435,5.465962390136719,2.1526717557251906,-28.748091603053435,6.3816793893129775,-9.394847314453125,2.205059729003906,0.4333505004882812,21.801526717557252,14.65648854961832,9.389312977099237,0.0
11.12000036239624,-6.296750366210937,0.967257470703125,5.161898779296875,10.076335877862595,-27.893129770992367,9.114503816793894,-11.0707884765625,-0.63206923828125,2.2098481323242187,21.572519083969464,20.076335877862597,13.954198473282442,0.0
11.130000829696655,-7.381323718261719,2.4971523315429685,4.9416322265625,22.03053435114504,-19.129770992366414,7.068702290076335,-9.730035546875,0.201112939453125,1.6256629272460936,24.946564885496183,14.702290076335878,8.51908396946565,0.0
11.140000581741333,-9.090783703613281,5.272032055664062,6.002263562011718,11.32824427480916,-21.267175572519083,5.221374045801527,-9.873687646484374,0.08379705810546874,1.7118541870117185,22.259541984732824,14.473282442748092,7.8320610687022905,0.0
11.150071144104004,-6.363788012695312,3.7900212280273435,4.489128112792969,-7.755725190839694,-25.480916030534353,7.923664122137405,-8.480262280273436,1.3215993164062498,1.0582371337890624,10.13740458015267,14.213740458015268,7.480916030534351,0.0
11.160000801086426,-6.268019946289062,2.5641899780273434,3.778050219726562,-11.145038167938932,-20.580152671755727,9.17557251908397,-8.702923034667968,1.0414777221679687,1.0917559570312498,1.0534351145038168,17.923664122137403,9.725190839694656,0.0
11.170000553131104,-8.671798413085938,5.49708701171875,4.199429711914062,-21.603053435114504,-14.106870229007633,5.312977099236641,-10.587159741210938,0.8834604125976562,2.094926452636719,-1.3282442748091603,20.625954198473284,10.51908396946565,0.0
11.18000078201294,-9.052476477050782,6.847416748046874,4.513070129394531,-54.10687022900763,-18.290076335877863,3.877862595419847,-8.94473740234375,1.448492004394531,0.9959878906249999,-15.740458015267176,19.51145038167939,10.076335877862595,0.0
11.190000534057617,-5.748478186035156,3.21780703125,2.722207287597656,-76.70229007633588,-23.114503816793892,8.473282442748092,-10.299855541992187,0.5458779785156249,2.0374656127929685,-24.076335877862597,24.427480916030536,14.15267175572519,0.0
11.200000286102295,-7.125144140624999,4.122815258789062,3.2321722412109373,-79.63358778625954,-10.259541984732824,6.0,-10.678139404296875,-0.6200982299804687,1.618480322265625,-23.69465648854962,22.290076335877863,14.50381679389313,0.0
11.210000276565552,-4.73094248046875,1.6615759521484375,1.13006318359375,-89.20610687022901,-12.50381679389313,6.595419847328245,-12.00213292236328,-1.3814543579101561,2.4157494750976563,-17.221374045801525,20.213740458015266,15.16030534351145,0.0
11.220000267028809,-3.2800562744140622,-1.9225439331054686,0.4908113403320312,-72.47328244274809,5.816793893129771,7.801526717557252,-9.995791931152343,-2.1164742675781247,1.5298948608398437,-16.091603053435115,12.458015267175572,12.854961832061068,0.0
11.230000495910645,-4.927267016601562,-1.7190367919921874,2.288856787109375,-50.961832061068705,22.702290076335878,3.099236641221374,-8.98304462890625,0.8355763793945312,0.4644751220703125,-14.870229007633588,8.15267175572519,9.694656488549619,0.0
11.240000247955322,-9.598354455566406,2.114080065917969,5.442020373535156,-57.221374045801525,21.87786259541985,-1.984732824427481,-10.139444030761718,0.09816226806640624,0.3447650390625,-16.564885496183205,8.427480916030534,13.526717557251908,0.0
11.250000238418579,-10.601524951171875,1.197100830078125,7.40526573486328,-56.67175572519084,20.549618320610687,3.114503816793893,-10.479420666503906,0.4477157104492187,-0.016759411621093748,-20.83969465648855,6.9465648854961835,15.526717557251908,0.0
11.260000705718994,-11.166556542968749,-0.8834604125976562,8.999804040527343,-36.61068702290076,21.862595419847327,10.595419847328245,-10.338162768554687,0.181959326171875,-0.5530605834960938,-20.580152671755727,5.572519083969466,16.106870229007633,0.0
11.270000696182251,-14.539986682128905,1.649604943847656,10.94868419189453,-31.053435114503817,15.099236641221374,11.32824427480916,-10.714052429199219,-0.239420166015625,-0.1580173095703125,-20.3206106870229,6.305343511450381,16.38167938931298,0.0
11.280021667480469,-13.065158459472656,0.5865794067382812,9.562441430664062,-26.82442748091603,7.816793893129771,14.793893129770993,-10.728417639160156,-0.3232172241210937,0.04548983154296875,-18.610687022900763,4.778625954198473,16.16793893129771,0.0
11.290000677108765,-11.75313594970703,0.1580173095703125,7.338228088378906,-31.893129770992367,-2.0763358778625953,15.740458015267176,-10.235212097167969,-0.354341845703125,-0.040701428222656245,-15.17557251908397,5.0534351145038165,13.877862595419847,0.0
11.300166606903076,-8.659827404785156,-1.4604630126953124,4.666299035644531,-31.0381679389313,-2.6717557251908395,18.091603053435115,-9.686939916992188,0.622492431640625,-1.5777788940429687,-15.618320610687023,3.7099236641221376,10.412213740458014,0.0
11.310000658035278,-7.977479931640625,-1.8195932617187498,3.6655227416992187,-32.54961832061068,1.0534351145038168,15.587786259541986,-9.191340173339842,3.469198205566406,-2.47081611328125,-16.0,9.114503816793894,9.618320610687023,0.0
11.320000410079956,-7.230489013671875,-2.6910826660156246,2.133233679199219,-32.30534351145038,2.7480916030534353,11.358778625954198,-10.869675537109375,0.20829554443359374,0.21308394775390624,-24.717557251908396,21.81679389312977,15.694656488549619,0.0
11.330000638961792,-5.0182466796875,-5.140350964355468,0.8403647827148437,-17.083969465648856,10.366412213740459,6.6106870229007635,-9.095572106933593,2.5761609863281247,-1.8507178833007811,-26.916030534351144,18.12213740458015,10.229007633587786,0.0
11.340053081512451,-6.253654736328125,-3.114856359863281,1.879448303222656,-2.7480916030534353,23.374045801526716,-1.9694656488549618,-7.596801867675781,3.986345764160156,-1.9847931762695312,-47.17557251908397,33.19083969465649,11.526717557251908,0.0
11.350000858306885,-8.01818135986328,0.05027823486328125,2.980781066894531,-16.16793893129771,15.022900763358779,-9.786259541984732,-12.157756030273436,0.34715924072265625,0.21308394775390624,-37.57251908396947,38.88549618320611,19.923664122137403,0.0
11.360000610351562,-7.410054138183593,-2.5067291381835934,2.437297290039062,3.099236641221374,27.251908396946565,-8.290076335877863,-12.152967626953124,0.5315127685546874,0.028730419921875,-24.610687022900763,30.900763358778626,17.938931297709924,0.0
11.370158672332764,-8.149862451171874,-1.8818425048828125,2.767697119140625,24.793893129770993,35.89312977099237,-9.969465648854962,-10.20169327392578,3.6846763549804686,-2.588131994628906,-27.908396946564885,28.16793893129771,15.83206106870229,0.0
11.380000591278076,-9.83777462158203,0.08858546142578125,3.143586779785156,35.23664122137404,43.038167938931295,-13.32824427480916,-11.659762084960937,-0.26336218261718747,0.8667010009765624,-31.52671755725191,37.541984732824424,23.938931297709924,0.0
11.390000820159912,-10.050858569335936,1.350329736328125,2.6216508178710938,38.99236641221374,45.98473282442748,-14.213740458015268,-12.39238779296875,-1.3431471313476562,2.1164742675781247,-6.183206106870229,28.641221374045802,24.580152671755727,0.0
11.40000057220459,-10.862492932128905,2.2002713256835937,2.4301146850585935,38.29007633587786,47.66412213740458,-12.534351145038167,-11.635820068359374,0.11252747802734374,0.06943184814453125,4.854961832061068,15.83206106870229,20.85496183206107,0.0
11.410000562667847,-11.40837091064453,4.3263223999023435,3.277662072753906,25.770992366412212,49.19083969465649,-9.740458015267176,-10.16338604736328,2.291250988769531,-1.7860744384765623,2.931297709923664,9.083969465648854,18.610687022900763,0.0
11.420000553131104,-10.802637890625,4.455609289550781,3.208230224609375,6.687022900763359,44.732824427480914,-4.290076335877862,-7.117961535644531,5.396530541992187,-2.7198130859375,-15.725190839694656,15.557251908396946,20.47328244274809,0.0
11.430202007293701,-10.381258398437499,3.3351229125976563,2.9496564453125,-8.992366412213741,42.213740458015266,1.0687022900763359,-10.55364091796875,2.7653029174804686,-0.948103857421875,-41.63358778625954,39.221374045801525,25.72519083969466,0.0
11.440000534057617,-10.091559997558592,1.3072341064453123,3.1124621582031247,-11.603053435114504,42.88549618320611,2.5343511450381677,-9.969455712890625,1.3623007446289062,0.9816226806640624,-16.99236641221374,29.0381679389313,28.564885496183205,0.0
11.450000524520874,-9.064447485351561,0.26815058593749996,2.786850732421875,-8.229007633587786,41.16030534351145,2.7480916030534353,-10.75714805908203,2.7341782958984373,-1.2880804931640624,-21.022900763358777,28.641221374045802,24.99236641221374,0.0
11.460028886795044,-8.28633194580078,-0.055066638183593745,2.2936451904296873,-2.0,42.33587786259542,2.2290076335877864,-11.86805762939453,0.5243301635742187,0.9935936889648437,-28.900763358778626,37.969465648854964,25.984732824427482,0.0
11.470000505447388,-8.796296899414061,-0.0047884033203125,2.5857377929687497,5.603053435114504,45.61832061068702,-1.0229007633587786,-10.560823522949217,0.21787235107421873,0.44053310546874996,-5.877862595419847,22.244274809160306,22.610687022900763,0.0
11.480116844177246,-8.738836059570312,-0.03591302490234375,2.722207287597656,9.465648854961833,46.87022900763359,-3.2213740458015265,-9.095572106933593,1.3910311645507811,-0.6105214233398437,-8.274809160305344,14.305343511450381,16.671755725190838,0.0
11.490000247955322,-8.504204296874999,-0.20829554443359374,3.0454245117187497,16.763358778625953,50.83969465648855,-4.885496183206107,-9.354145886230468,3.892971899414062,-2.0542250244140625,-28.106870229007633,24.427480916030536,13.694656488549619,0.0
11.500000476837158,-8.832209924316405,1.177947216796875,2.9735984619140625,17.46564885496183,52.213740458015266,-7.923664122137405,-7.606378674316406,3.2441432495117186,-2.2577321655273437,-40.961832061068705,25.00763358778626,12.366412213740459,0.0
11.510108232498169,-9.090783703613281,1.3431471313476562,2.863465185546875,14.977099236641221,49.61832061068702,-9.007633587786259,-10.678139404296875,0.34237083740234375,0.9552864624023437,-28.30534351145038,26.671755725190838,16.0,0.0
11.520000696182251,-8.8489693359375,0.16998831787109375,2.4899697265625,18.03053435114504,48.76335877862596,-7.923664122137405,-9.272743029785156,0.9097966308593749,0.143652099609375,-14.625954198473282,16.870229007633586,14.305343511450381,0.0
11.530000448226929,-8.722076647949219,0.105344873046875,2.913743420410156,24.076335877862597,51.267175572519086,-9.251908396946565,-8.058882788085937,2.1691467041015624,0.4860229370117187,-19.52671755725191,15.374045801526718,11.541984732824428,0.0
11.540000677108765,-9.94072529296875,0.9576806640625,3.7014357666015623,24.198473282442748,51.06870229007634,-11.969465648854962,-9.330203869628905,-0.5506663818359374,0.181959326171875,-17.206106870229007,15.770992366412214,11.34351145038168,0.0
11.550000667572021,-9.595960253906249,1.2976572998046874,3.0645781249999997,22.137404580152673,47.221374045801525,-13.282442748091603,-9.406818322753905,-1.1420341918945311,-0.5770026000976562,-1.8015267175572518,7.206106870229007,8.442748091603054,0.0
11.560000658035278,-10.565611926269531,2.817975354003906,3.825934252929687,14.534351145038167,42.62595419847328,-14.0,-8.418013037109375,-0.34715924072265625,-1.0821791503906248,12.992366412213741,-6.900763358778626,3.3282442748091605,0.0
11.570000648498535,-11.343727465820312,3.8570588745117185,4.144363073730468,-0.15267175572519084,37.465648854961835,-11.770992366412214,-8.52335791015625,0.26336218261718747,-0.4070142822265625,4.595419847328245,-3.282442748091603,-2.427480916030534,0.0
11.580000638961792,-10.376469995117187,2.5641899780273434,3.9456443359374997,-3.618320610687023,38.030534351145036,-8.961832061068701,-8.647856396484375,0.6368576416015624,-0.15322890625,1.5572519083969465,-2.8244274809160306,-3.7557251908396947,0.0
11.590001106262207,-9.878476049804688,1.8076222534179687,4.11802685546875,-5.740458015267175,36.778625954198475,-9.48091603053435,-8.109161022949218,0.9050082275390624,0.316034619140625,-1.3129770992366412,-2.8396946564885495,-6.198473282442748,0.0
11.600000619888306,-9.8449572265625,0.8690952026367187,3.2058360229492187,-4.366412213740458,37.57251908396947,-10.091603053435115,-8.623914379882812,0.7805097412109374,0.26815058593749996,-1.5725190839694656,-4.320610687022901,-8.106870229007633,0.0
11.610000610351562,-8.736441857910156,0.6679822631835937,2.8802245971679685,-3.312977099236641,35.55725190839695,-11.679389312977099,-10.062829577636718,0.1771709228515625,0.16998831787109375,1.7557251908396947,-3.1755725190839694,-9.908396946564885,0.0
11.62000036239624,-8.681375219726561,0.6536170532226562,2.051830822753906,-2.8091603053435112,33.847328244274806,-11.877862595419847,-9.749189160156249,0.13407529296874998,0.0047884033203125,4.244274809160306,-4.854961832061068,-12.83969465648855,0.0
11.630000829696655,-8.566453540039062,0.3064578125,1.917755529785156,1.7099236641221374,35.61832061068702,-12.183206106870228,-8.219294299316406,0.7829039428710937,-1.3096283081054687,13.572519083969466,-15.770992366412214,-16.946564885496183,0.0
11.640035390853882,-9.79946739501953,1.7621324218749999,2.50912333984375,2.366412213740458,34.595419847328245,-14.15267175572519,-11.906364855957031,-0.9720458740234375,2.0446482177734375,21.419847328244273,-11.282442748091603,-17.404580152671755,0.0
11.65000057220459,-10.36210478515625,1.7525556152343749,3.2441432495117186,-3.8625954198473282,32.152671755725194,-14.610687022900763,-9.775525378417969,2.6312276245117188,-1.2689268798828124,25.14503816793893,-20.38167938931298,-23.022900763358777,0.0
11.660000324249268,-10.78348427734375,1.70467158203125,3.7804444213867185,-5.770992366412214,31.374045801526716,-13.19083969465649,-12.588712329101561,-1.9009961181640624,2.923320227050781,30.396946564885496,-14.259541984732824,-19.954198473282442,0.0
11.670000553131104,-9.320627062988281,-0.8116343627929687,1.707065783691406,-3.282442748091603,24.366412213740457,-11.648854961832061,-10.912771166992187,-1.3120225097656248,0.19632453613281248,68.30534351145039,-36.458015267175576,-23.633587786259543,0.0
11.68000054359436,-10.934318981933593,1.936909143066406,2.844311572265625,-0.21374045801526717,27.022900763358777,-14.106870229007633,-9.272743029785156,2.817975354003906,-2.2002713256835937,59.19083969465649,-35.61832061068702,-32.274809160305345,0.0
11.690000534057617,-9.658209497070311,1.2713210815429687,1.8459294799804686,-3.4656488549618323,23.908396946564885,-11.816793893129772,-8.47786807861328,3.5338416503906247,-1.8052280517578123,40.99236641221374,-25.96946564885496,-31.251908396946565,0.0
11.700000524520874,-9.74200655517578,1.0869675537109373,2.233790148925781,-7.816793893129771,24.015267175572518,-11.587786259541986,-10.448296044921875,2.4875755249023435,-0.181959326171875,46.56488549618321,-27.221374045801525,-25.984732824427482,0.0
11.71000051498413,-9.564835632324218,1.0103531005859374,1.9297265380859374,-6.702290076335878,23.099236641221374,-12.442748091603054,-9.054870678710937,6.193799694824218,-2.9496564453125,34.916030534351144,-25.16030534351145,-29.053435114503817,0.0
11.720000505447388,-9.445125549316407,1.6424223388671875,2.2026655273437497,-11.374045801526718,23.46564885496183,-11.572519083969466,-8.817844714355468,5.954379528808594,-2.3415292236328122,10.15267175572519,-12.931297709923664,-24.595419847328245,0.0
11.730000495910645,-9.871293444824218,1.675941162109375,2.4756045166015626,-16.641221374045802,21.435114503816795,-11.603053435114504,-11.786654772949218,1.3814543579101561,0.833182177734375,6.931297709923665,-3.7709923664122136,-15.587786259541986,0.0
11.740000247955322,-9.217676391601563,-0.8667010009765624,1.2761094848632812,-9.19083969465649,20.03053435114504,-9.740458015267176,-11.159373937988281,-0.2825157958984375,1.3359645263671873,29.114503816793892,-17.69465648854962,-17.572519083969464,0.0
11.750000476837158,-8.896853369140624,-1.4772224243164063,1.455674609375,11.801526717557252,30.442748091603054,-10.83969465648855,-9.80665,1.218648645019531,-0.055066638183593745,38.13740458015267,-26.580152671755727,-22.549618320610687,0.0
11.760124206542969,-10.079588989257813,0.5147533569335937,2.1978771240234374,9.465648854961833,33.12977099236641,-16.717557251908396,-10.55364091796875,1.2234370483398436,2.29843359375,29.709923664122137,-20.412213740458014,-21.46564885496183,0.0
11.770000696182251,-9.600748657226562,0.9864110839843749,1.915361328125,1.9083969465648856,29.46564885496183,-18.15267175572519,-9.64623848876953,1.5921441040039062,1.0127473022460938,25.908396946564885,-29.801526717557252,-22.18320610687023,0.0
11.780000448226929,-9.516951599121093,0.8092401611328125,0.967257470703125,-5.908396946564886,24.03053435114504,-16.870229007633586,-11.643002673339844,0.27293898925781246,1.5897499023437498,31.96946564885496,-35.66412213740458,-20.900763358778626,0.0
11.790000438690186,-10.309432348632813,1.7214309936523438,1.4221557861328125,-5.9541984732824424,27.740458015267176,-16.3206106870229,-11.01332763671875,0.05746083984375,2.1787235107421874,33.20610687022901,-40.44274809160305,-23.557251908396946,0.0
11.800000667572021,-10.249577307128906,1.5370774658203123,1.8363526733398436,-5.572519083969466,31.64885496183206,-16.48854961832061,-10.8409451171875,-0.1149216796875,2.492363928222656,30.595419847328245,-45.02290076335878,-25.404580152671755,0.0
11.810011148452759,-9.282319836425781,0.6464344482421874,1.0941501586914062,-11.435114503816793,29.267175572519083,-16.229007633587788,-11.164162341308593,0.15322890625,1.7836802368164062,40.06106870229008,-60.76335877862596,-29.34351145038168,0.0
11.820093870162964,-8.659827404785156,0.22505495605468748,0.2705447875976562,-15.465648854961833,25.984732824427482,-16.045801526717558,-9.212887988281249,1.5418658691406248,1.0917559570312498,21.053435114503817,-57.29770992366412,-33.64885496183206,0.0
11.830000400543213,-8.058882788085937,0.13168109130859373,0.9816226806640624,-17.801526717557252,29.61832061068702,-17.14503816793893,-12.143390820312499,-0.20829554443359374,2.0446482177734375,20.916030534351144,-65.61832061068702,-34.35114503816794,0.0
11.840000629425049,-9.138667736816405,0.02154781494140625,1.1252747802734375,-17.923664122137403,31.541984732824428,-20.27480916030534,-8.923189587402343,3.1483751831054687,0.9816226806640624,5.893129770992366,-64.30534351145039,-41.465648854961835,0.0
11.850000858306885,-8.724470849609375,0.1771709228515625,1.5179238525390624,-17.206106870229007,33.93893129770992,-21.603053435114504,-11.276689819335937,1.0678139404296874,2.147598889160156,-8.564885496183207,-59.16030534351145,-37.541984732824424,0.0
11.860000610351562,-8.971073620605468,-0.3184288208007812,1.3335703247070312,-16.015267175572518,31.83206106870229,-22.717557251908396,-9.667786303710937,2.592920397949219,1.3239935180664062,-16.82442748091603,-62.47328244274809,-42.29007633587786,0.0
11.870000839233398,-8.877699755859375,-0.10295067138671875,1.2976572998046874,-8.534351145038167,36.13740458015267,-22.717557251908396,-7.070077502441406,4.340687609863281,-1.2785036865234374,-32.961832061068705,-64.16793893129771,-45.16030534351145,0.0
11.880000591278076,-9.088389501953124,0.14125789794921875,1.3311761230468748,-12.076335877862595,36.76335877862596,-23.83206106870229,-12.382810986328124,0.3591302490234375,1.8626888916015625,-46.48854961832061,-48.458015267175576,-39.17557251908397,0.0
11.890000581741333,-8.990227233886719,-0.6464344482421874,0.6871358764648438,-6.244274809160306,38.0,-24.580152671755727,-11.049240661621093,-0.040701428222656245,2.3247698120117186,-36.38167938931298,-59.02290076335878,-42.3206106870229,0.0
11.90000057220459,-9.172186560058593,0.0430956298828125,0.7685387329101562,-4.885496183206107,38.74809160305343,-25.435114503816795,-9.421183532714844,1.70467158203125,1.235408056640625,-38.25954198473283,-59.87786259541985,-44.67175572519084,0.0
11.910000562667847,-10.158597644042969,0.5770026000976562,1.369483349609375,-8.366412213740459,38.717557251908396,-25.938931297709924,-9.739612353515625,0.5458779785156249,1.6543933471679686,-48.396946564885496,-52.35114503816794,-41.43511450381679,0.0
11.920085906982422,-9.86411083984375,0.40940848388671874,1.4173673828125,-15.740458015267176,34.091603053435115,-25.557251908396946,-11.283872424316405,-1.7381904052734374,2.4756045166015626,-34.82442748091603,-56.58015267175573,-38.213740458015266,0.0
11.93000054359436,-9.782707983398437,-0.6464344482421874,1.3862427612304686,-7.511450381679389,35.343511450381676,-24.290076335877863,-9.291896643066405,-1.5394716674804687,1.8411410766601561,-15.98473282442748,-63.847328244274806,-40.93129770992366,0.0
11.940000295639038,-9.390058911132812,0.201112939453125,1.7597382202148437,-6.152671755725191,34.51908396946565,-24.580152671755727,-8.197746484375,-1.139639990234375,1.5897499023437498,-10.244274809160306,-60.54961832061068,-39.74045801526717,0.0
11.950000286102295,-10.455478649902343,0.7709329345703124,2.901772412109375,-14.030534351145038,31.46564885496183,-25.221374045801525,-10.536881506347656,-2.77727392578125,2.6240450195312497,6.656488549618321,-65.08396946564885,-34.732824427480914,0.0
11.96000051498413,-10.292672937011718,0.44532150878906246,3.2321722412109373,-12.931297709923664,27.72519083969466,-23.770992366412212,-8.796296899414061,-1.637633935546875,2.1452046874999997,18.427480916030536,-62.82442748091603,-34.88549618320611,0.0
11.970000267028809,-10.309432348632813,0.44532150878906246,3.840299462890625,-13.969465648854962,24.610687022900763,-21.450381679389313,-7.544129431152343,-1.6543933471679686,0.8475473876953125,22.412213740458014,-56.656488549618324,-34.091603053435115,0.0
11.980000734329224,-10.184933862304687,0.26815058593749996,4.460397692871093,-13.740458015267176,20.885496183206108,-20.977099236641223,-7.4220251464843745,-1.838746875,0.8714894042968749,36.091603053435115,-59.89312977099237,-32.213740458015266,0.0
11.990000486373901,-8.17859287109375,-0.11013327636718749,3.1555577880859373,-5.083969465648855,15.068702290076336,-18.68702290076336,-4.410119458007812,0.20350714111328125,0.4285620971679687,31.328244274809162,-47.23664122137404,-29.755725190839694,0.0
12.000000715255737,-9.418789331054686,0.11013327636718749,3.7158009765625,-4.33587786259542,17.862595419847327,-17.709923664122137,-5.123591552734375,-0.9552864624023437,0.6368576416015624,26.83969465648855,-38.85496183206107,-21.0381679389313,0.0
12.010000705718994,-9.471461767578125,0.26336218261718747,3.5889082885742187,0.07633587786259542,18.198473282442748,-17.419847328244273,-4.537012145996093,-0.82360537109375,1.0582371337890624,33.02290076335878,-34.458015267175576,-16.213740458015266,0.0
12.020000696182251,-9.3852705078125,-0.14125789794921875,3.6080619018554687,2.4427480916030535,18.213740458015266,-13.603053435114504,-3.9839515624999997,0.6536170532226562,1.8531120849609375,35.64885496183206,-27.755725190839694,-10.076335877862595,0.0
12.030000925064087,-9.696516723632811,-0.6057330200195312,4.2305543334960936,3.0229007633587788,19.938931297709924,-7.526717557251908,-4.338293408203125,2.104503259277344,3.0980969482421874,29.66412213740458,-22.30534351145038,-0.7022900763358778,0.0
12.040000677108765,-9.579200842285156,-0.9074024291992187,5.367800122070312,5.129770992366412,21.267175572519083,-2.5801526717557253,-2.96881005859375,3.0693665283203124,2.31758720703125,7.938931297709924,-16.870229007633586,9.709923664122137,0.0
12.050000667572021,-10.357316381835936,-1.235408056640625,7.053318090820312,5.709923664122138,16.931297709923665,0.12213740458015267,-3.6439749267578123,1.4173673828125,-1.0917559570312498,-6.5038167938931295,-10.473282442748092,20.38167938931298,0.0
12.060000658035278,-10.639832177734375,-1.2928688964843749,8.415618835449218,12.030534351145038,9.389312977099237,0.44274809160305345,-3.8474820678710935,-0.16519991455078123,-6.1076084350585935,-9.587786259541986,5.740458015267175,23.419847328244273,0.0
12.070000648498535,-12.23197628173828,-0.2705447875976562,10.134655627441406,16.12213740458015,-3.5877862595419847,-0.0,-7.908048083496094,-2.3151930053710936,-6.710947253417968,-2.015267175572519,24.916030534351144,22.931297709923665,0.0
12.080000638961792,-13.388375683593749,1.37906015625,10.486603271484375,19.31297709923664,-24.85496183206107,2.732824427480916,-12.370839978027343,-1.4700398193359374,-4.618415002441406,13.770992366412214,30.9618320610687,15.068702290076336,0.0
12.090001106262207,-11.559205615234374,0.15562310791015624,8.566453540039062,38.3206106870229,-42.47328244274809,9.465648854961833,-14.688427185058593,-0.42377369384765623,2.0542250244140625,0.9618320610687023,40.18320610687023,9.34351145038168,0.0
12.100000619888306,-12.97896719970703,2.7820623291015623,8.17141026611328,49.17557251908397,-49.32824427480916,10.778625954198473,-18.612523706054688,-2.5139117431640625,7.101202124023437,-15.633587786259541,34.19847328244275,5.0534351145038165,0.0
12.110000848770142,-13.694833496093748,5.298368273925781,6.696582043457031,38.3206106870229,-68.61068702290076,11.83206106870229,-15.87834541015625,-1.956062756347656,7.697358337402343,-19.068702290076335,22.519083969465647,-0.3511450381679389,0.0
12.12000060081482,-13.2159931640625,5.793968017578124,5.284003063964843,17.740458015267176,-86.91603053435115,19.282442748091604,-13.989320300292968,-1.216254443359375,7.292738256835937,-14.412213740458014,14.16793893129771,3.0839694656488548,0.0
12.130000829696655,-13.460201733398437,3.42849677734375,4.936843823242187,2.2290076335877864,-99.54198473282443,31.435114503816795,-13.773842150878906,-2.128445275878906,4.402936853027343,2.427480916030534,5.145038167938932,12.458015267175572,0.0
12.140000581741333,-14.482525842285156,0.22505495605468748,4.893748193359374,16.061068702290076,-105.78625954198473,42.48854961832061,-9.847351428222655,1.3527239379882812,0.40462008056640625,31.61832061068702,-19.297709923664122,6.748091603053435,0.0
12.15000057220459,-15.466542724609374,-2.023100402832031,6.136338854980468,41.52671755725191,-109.63358778625954,53.31297709923664,-8.798691101074219,0.34715924072265625,-0.8020575561523438,22.061068702290076,-10.65648854961832,4.33587786259542,0.0
12.160000562667847,-15.028403820800781,-4.637568615722656,7.50821640625,80.35114503816794,-114.76335877862596,62.274809160305345,-10.228029492187499,-1.0103531005859374,-3.2704794677734372,17.862595419847327,-11.526717557251908,6.351145038167939,0.0
12.170000553131104,-13.974955090332031,-6.344634399414062,3.763685009765625,85.72519083969466,-112.10687022900764,61.404580152671755,-8.049305981445311,0.9121908325195311,-3.766079211425781,9.358778625954198,-1.0381679389312977,1.9694656488549618,0.0
12.18000054359436,-10.658985791015624,-8.911218579101561,-4.11802685546875,48.152671755725194,-116.27480916030534,47.343511450381676,-10.424354028320312,0.2561795776367187,-2.4660277099609376,8.13740458015267,7.755725190839694,3.8931297709923665,0.0
12.190000534057617,-10.510545288085936,-8.844180932617187,-6.035782385253906,20.15267175572519,-109.40458015267176,21.053435114503817,-9.464279162597656,1.2808978881835937,-1.889025109863281,6.854961832061068,15.969465648854962,2.50381679389313,0.0
12.200000524520874,-6.4356140625,-11.219228979492186,-6.600813977050781,35.908396946564885,-103.40458015267176,8.534351145038167,-9.81862100830078,0.9792284790039062,-0.679953271484375,9.648854961832061,20.27480916030534,4.931297709923665,0.0
12.210000276565552,-7.671022119140624,-8.588001354980468,-3.6056677001953124,76.9618320610687,-79.14503816793894,-5.00763358778626,-10.297461340332031,0.9074024291992187,-0.7445967163085937,12.763358778625955,21.923664122137403,7.908396946564886,0.0
12.220000505447388,-4.4819455078125,-9.952696301269532,-3.6463691284179687,113.45038167938931,-65.77099236641222,-10.67175572519084,-10.232817895507813,0.7110778930664062,0.15322890625,17.66412213740458,26.061068702290076,11.572519083969466,0.0
12.230000495910645,-9.129090930175781,-1.1061211669921875,0.047884033203124995,134.9770992366412,-41.49618320610687,-24.68702290076336,-11.221623181152344,-0.4908113403320312,0.3064578125,18.580152671755727,33.404580152671755,15.694656488549619,0.0
12.24000096321106,-8.396465222167969,1.8507178833007811,-0.39264907226562495,108.91603053435115,-52.19847328244275,-27.221374045801525,-12.11705460205078,-0.36391865234375,-0.06943184814453125,23.267175572519083,34.38167938931298,18.03053435114504,0.0
12.250000715255737,-9.890447058105469,4.446032482910156,-0.3184288208007812,92.58015267175573,-48.458015267175576,-18.717557251908396,-8.877699755859375,-0.18435352783203124,-0.22266075439453123,21.938931297709924,31.66412213740458,15.908396946564885,0.0
12.260000705718994,-7.577648254394531,2.7078420776367187,-0.63206923828125,83.05343511450381,-41.954198473282446,-7.083969465648855,-9.567229833984374,-0.316034619140625,-0.229843359375,23.282442748091604,38.0763358778626,15.603053435114504,0.0
12.270000696182251,-8.844180932617187,3.5506010620117183,0.086191259765625,57.20610687022901,-46.25954198473283,-2.9770992366412212,-9.528922607421874,-0.1771709228515625,0.40222587890625,21.389312977099237,40.900763358778626,16.03053435114504,0.0
12.280000686645508,-9.14824454345703,1.7764976318359373,1.199495031738281,40.6412213740458,-43.786259541984734,3.312977099236641,-9.866505041503906,-2.250549560546875,1.6472107421875,26.38167938931298,41.32824427480916,19.389312977099237,0.0
12.290000677108765,-8.724470849609375,-0.4644751220703125,1.7429788085937499,42.36641221374046,-39.61832061068702,7.480916030534351,-10.328585961914062,-2.808398547363281,1.5586252807617187,41.61832061068702,32.56488549618321,15.068702290076336,0.0
12.300000429153442,-8.877699755859375,-0.5722141967773438,2.5953145996093747,50.51908396946565,-34.93129770992366,10.870229007633588,-10.275913525390624,-1.3383587280273437,1.889025109863281,53.81679389312977,25.068702290076335,11.038167938931299,0.0
12.310000896453857,-8.734047656249999,-0.05027823486328125,2.849099975585937,49.25190839694657,-35.00763358778626,12.717557251908397,-10.345345373535155,-0.8403647827148437,2.549824768066406,53.38931297709924,22.977099236641223,10.458015267175572,0.0
12.320000648498535,-8.494627490234375,1.3670891479492187,3.6296097167968746,43.908396946564885,-36.33587786259542,12.305343511450381,-9.272743029785156,1.7908628417968748,1.350329736328125,37.29770992366412,18.778625954198475,7.908396946564886,0.0
12.330000638961792,-7.362170104980469,1.3263877197265623,3.4452561889648434,39.31297709923664,-38.33587786259542,14.488549618320612,-7.884106066894531,3.39018955078125,0.34715924072265625,16.564885496183205,23.0381679389313,8.977099236641221,0.0
12.34000039100647,-8.221688500976562,2.789244934082031,3.6152445068359373,33.16030534351145,-36.47328244274809,15.419847328244275,-10.287884533691406,1.6424223388671875,1.7477672119140624,2.351145038167939,30.442748091603054,14.412213740458014,0.0
12.350000858306885,-8.348581188964843,1.5945383056640625,2.6192566162109374,26.870229007633586,-35.954198473282446,17.557251908396946,-11.441889733886718,0.6751648681640625,1.2880804931640624,2.4580152671755724,22.53435114503817,14.870229007633588,0.0
12.360000610351562,-10.096348400878906,4.836287353515624,4.314351391601562,16.931297709923665,-34.396946564885496,16.549618320610687,-12.00213292236328,-0.24181436767578124,2.597708801269531,4.076335877862595,20.793893129770993,15.068702290076336,0.0
12.370001077651978,-7.115567333984375,1.5131354492187499,3.1555577880859373,-9.465648854961833,-48.030534351145036,21.358778625954198,-10.242394702148436,1.9033903198242186,0.7278373046875,-1.3129770992366412,7.099236641221374,11.267175572519085,0.0
12.380000591278076,-7.127538342285156,0.833182177734375,2.3223756103515623,0.6870229007633588,-37.69465648854962,23.34351145038168,-9.945513696289062,1.4867992309570313,2.1021090576171875,-21.72519083969466,15.129770992366412,14.885496183206106,0.0
12.390000820159912,-8.367734802246094,2.2601263671875,3.737348791503906,-2.687022900763359,-36.88549618320611,19.938931297709924,-9.713276135253906,1.4532804077148436,1.3814543579101561,-31.16030534351145,11.648854961832061,14.961832061068701,0.0
12.40000057220459,-7.280767248535156,2.0829554443359375,3.2154128295898436,-12.16793893129771,-41.31297709923664,21.0381679389313,-11.197681164550781,-0.2154781494140625,1.4173673828125,-28.916030534351144,6.519083969465649,15.053435114503817,0.0
12.410000562667847,-7.829039428710937,2.4013842651367185,3.347093920898437,-8.778625954198473,-32.152671755725194,22.259541984732824,-9.464279162597656,0.2657563842773437,2.01112939453125,-33.61832061068702,5.877862595419847,12.977099236641221,0.0
12.420000314712524,-8.9255837890625,3.0334535034179684,4.357447021484375,-17.740458015267176,-32.900763358778626,21.66412213740458,-9.785102185058593,-0.40940848388671874,2.6408044311523438,-32.51908396946565,4.793893129770993,13.022900763358779,0.0
12.430000305175781,-6.497863305664062,1.1468225952148436,2.89219560546875,-19.923664122137403,-32.83969465648855,24.30534351145038,-9.916783276367187,-1.0031704956054688,2.365471240234375,-33.38931297709924,3.282442748091603,12.030534351145038,0.0
12.440000534057617,-7.134720947265625,2.858676782226562,4.594472985839843,-29.19083969465649,-30.671755725190838,22.671755725190838,-9.90241806640625,-0.7757213378906249,2.50912333984375,-34.01526717557252,1.0687022900763359,10.80916030534351,0.0
12.450000524520874,-8.978256225585938,4.69263525390625,5.0206408813476555,-47.70992366412214,-30.931297709923665,20.549618320610687,-9.313444458007812,-0.38307226562499996,1.5442600708007812,-35.81679389312977,-1.5114503816793894,10.534351145038167,0.0
12.46000051498413,-7.204152795410156,2.2170307373046874,3.8690298828125,-61.51145038167939,-35.38931297709924,23.068702290076335,-7.675810522460937,1.7214309936523438,-0.19393033447265623,-46.29007633587786,-1.2366412213740459,10.091603053435115,0.0
12.470000505447388,-6.785167504882812,0.19871873779296872,3.303998291015625,-61.19083969465649,-31.450381679389313,23.34351145038168,-8.520963708496094,0.842758984375,1.2497732666015624,-59.083969465648856,8.778625954198473,14.580152671755725,0.0
12.480000972747803,-8.82981572265625,2.8802245971679685,4.46279189453125,-57.587786259541986,-24.519083969465647,19.00763358778626,-8.350975390624999,0.9097966308593749,0.05985504150390625,-66.76335877862596,13.145038167938932,16.38167938931298,0.0
12.490000486373901,-7.273584643554687,1.7310078002929687,3.5984850952148437,-72.0,-32.01526717557252,19.022900763358777,-10.022128149414062,-1.8124106567382812,1.2665326782226562,-63.038167938931295,17.374045801526716,20.076335877862597,0.0
12.500000476837158,-7.098807922363281,0.2346317626953125,3.892971899414062,-65.98473282442748,-26.580152671755727,18.137404580152673,-11.81059678955078,-3.478775012207031,1.7812860351562498,-40.534351145038165,12.0,19.297709923664122,0.0
12.510000467300415,-6.548141540527343,-0.7589619262695312,3.1411925781249996,-55.587786259541986,-22.15267175572519,16.931297709923665,-9.773131176757811,-0.97683427734375,0.584185205078125,-30.916030534351144,5.8320610687022905,13.129770992366412,0.0
12.520000696182251,-7.596801867675781,2.896984008789062,3.6296097167968746,-55.465648854961835,-15.48091603053435,13.038167938931299,-10.261548315429687,-1.3862427612304686,1.2306196533203124,-23.709923664122137,8.274809160305344,14.946564885496183,0.0
12.530000686645508,-7.881711865234375,2.7748797241210936,4.146757275390625,-78.77862595419847,-24.076335877862597,11.801526717557252,-9.782707983398437,-0.12689268798828124,0.5051765502929687,-20.48854961832061,6.1679389312977095,15.969465648854962,0.0
12.540000677108765,-8.092401611328125,1.6208745239257811,3.4859576171874997,-80.30534351145039,-21.69465648854962,13.893129770992367,-9.502586389160156,0.29448680419921874,0.39264907226562495,-17.83206106870229,8.778625954198473,17.541984732824428,0.0
12.550000667572021,-6.598419775390624,-1.177947216796875,2.6240450195312497,-73.17557251908397,-20.366412213740457,17.572519083969464,-9.648632690429688,0.16519991455078123,0.6679822631835937,-13.251908396946565,11.893129770992367,18.900763358778626,0.0
12.560000658035278,-9.337386474609374,2.389413256835937,5.286397265624999,-61.66412213740458,-8.793893129770993,16.48854961832061,-9.873687646484374,0.02633621826171875,0.9097966308593749,-8.320610687022901,13.465648854961833,21.419847328244273,0.0
12.570000648498535,-8.951920007324219,0.7733271362304687,4.335899206542969,-70.35114503816794,-17.87786259541985,20.931297709923665,-9.842563024902343,0.5626373901367188,0.488417138671875,-5.786259541984733,13.129770992366412,23.068702290076335,0.0
12.580000638961792,-7.694964135742187,-2.683900061035156,4.00310517578125,-50.38167938931298,-12.458015267175572,27.81679389312977,-10.108319409179687,0.10295067138671875,0.5363011718749999,-4.122137404580153,14.717557251908397,26.076335877862597,0.0
12.590000867843628,-11.722011328125,0.6703764648437499,7.352593298339843,-24.47328244274809,2.2290076335877864,25.374045801526716,-10.232817895507813,-0.17238251953125,0.7038952880859375,0.4580152671755725,17.66412213740458,27.206106870229007,0.0
12.600000619888306,-12.89038173828125,3.1962592163085937,8.358157995605469,-43.6793893129771,-15.541984732824428,24.259541984732824,-10.378864196777343,0.24899697265624998,0.507570751953125,2.213740458015267,17.083969465648856,28.12213740458015,0.0
12.610000848770142,-11.17852755126953,1.139639990234375,7.184999182128906,-44.93129770992366,-21.297709923664122,31.893129770992367,-10.311826550292968,0.38786066894531246,-0.0526724365234375,2.4122137404580153,16.916030534351144,29.267175572519083,0.0
12.62000060081482,-13.407529296875,4.086902233886718,8.621520178222656,-42.76335877862596,-16.564885496183205,32.83969465648855,-9.102754711914063,0.9241618408203125,-0.031124621582031248,-0.5954198473282443,21.954198473282442,28.244274809160306,0.0
12.630000829696655,-11.034875451660156,1.7693150268554687,6.404489440917969,-72.44274809160305,-40.213740458015266,31.954198473282442,-8.578424548339843,1.2042834350585936,-0.2346317626953125,-2.2595419847328246,23.984732824427482,29.83206106870229,0.0
12.640000343322754,-9.162609753417968,-0.6560112548828124,4.553771557617187,-73.6030534351145,-38.778625954198475,32.3206106870229,-9.708487731933593,2.1021090576171875,-0.7278373046875,-5.450381679389313,27.49618320610687,30.732824427480917,0.0
12.65000033378601,-7.390900524902343,-3.9336733276367184,2.482787121582031,-70.74809160305344,-37.87786259541985,29.46564885496183,-9.756371765136718,2.185906115722656,-0.7661445312499999,-13.618320610687023,37.11450381679389,31.435114503816795,0.0
12.660000562667847,-4.146757275390625,-7.029376074218749,0.9313444458007812,-39.05343511450382,-15.312977099236642,26.65648854961832,-11.121066711425781,1.7693150268554687,1.5011644409179687,-33.66412213740458,57.603053435114504,33.725190839694655,0.0
12.670000791549683,-4.039018200683594,-6.440402465820312,1.1444283935546875,-35.17557251908397,-11.038167938931299,13.145038167938932,-11.58075343017578,-0.47884033203125,1.3311761230468748,-10.51908396946565,46.82442748091603,35.14503816793893,0.0
12.68000054359436,-2.978386865234375,-8.365340600585936,1.0342951171875,9.603053435114504,15.435114503816793,9.34351145038168,-9.624690673828125,1.5801730957031248,0.5626373901367188,-20.091603053435115,42.54961832061068,30.53435114503817,0.0
12.690000534057617,-5.645527514648437,-3.9312791259765625,2.664746447753906,30.244274809160306,30.3206106870229,-3.9083969465648853,-10.486603271484375,0.5434837768554687,0.6919242797851562,-18.12213740458015,43.63358778625954,29.328244274809162,0.0
12.700070858001709,-8.453926062011718,-0.55545478515625,3.0741549316406247,41.93893129770992,39.06870229007634,-11.755725190839694,-12.61504854736328,-0.7900865478515624,1.6232687255859375,-11.816793893129772,38.152671755725194,30.38167938931298,0.0
12.71000051498413,-9.126696728515624,1.6328455322265625,3.0621839233398433,43.099236641221374,43.282442748091604,-12.641221374045802,-11.439495532226562,1.7932570434570312,0.9504980590820312,-12.13740458015267,29.908396946564885,25.862595419847327,0.0
12.720000505447388,-10.000580334472655,3.5051112304687497,3.873818286132812,35.81679389312977,46.48854961832061,-11.206106870229007,-11.173739147949219,2.437297290039062,1.1276689819335937,-24.885496183206108,32.99236641221374,26.68702290076336,0.0
12.730000495910645,-10.558429321289061,4.75009609375,3.9791631591796874,20.717557251908396,44.61068702290076,-8.748091603053435,-9.617508068847656,3.318363500976562,-1.0582371337890624,-27.251908396946565,20.931297709923665,26.3206106870229,0.0
12.74000072479248,-10.984597216796875,4.99909306640625,3.687070556640625,4.778625954198473,44.25954198473283,-2.595419847328244,-11.726799731445311,2.059013427734375,0.6871358764648438,-36.0763358778626,30.564885496183205,28.946564885496183,0.0
12.750000476837158,-10.812214697265624,3.897760302734375,3.6583401367187496,-9.068702290076336,42.717557251908396,3.8625954198473282,-12.066776367187499,1.8650830932617186,1.3215993164062498,-28.946564885496183,26.595419847328245,30.671755725190838,0.0
12.760000467300415,-10.560823522949217,3.076549133300781,3.6152445068359373,-18.091603053435115,43.32824427480916,8.580152671755725,-11.01332763671875,2.408566870117187,0.8164227661132812,-36.58015267175573,26.53435114503817,29.419847328244273,0.0
12.770000457763672,-9.900023864746093,1.905784521484375,2.858676782226562,-22.198473282442748,42.091603053435115,12.549618320610687,-12.94065997314453,-0.5506663818359374,3.0238766967773434,-19.17557251908397,19.480916030534353,33.43511450381679,0.0
12.780000686645508,-10.237606298828124,0.7110778930664062,2.712630480957031,-18.33587786259542,46.56488549618321,12.900763358778626,-11.681309899902343,-0.4285620971679687,2.27927998046875,0.32061068702290074,1.9083969465648856,27.114503816793892,0.0
12.790000677108765,-9.483432775878907,0.3016694091796875,3.0119056884765625,-13.374045801526718,50.2442748091603,11.32824427480916,-9.85692823486328,1.7453730102539062,-0.12210428466796874,-2.6412213740458017,-10.366412213740459,21.34351145038168,0.0
12.8000009059906,-8.762778076171875,0.9361328491210937,3.3303345092773435,-16.427480916030536,50.091603053435115,8.992366412213741,-10.534487304687499,1.3742717529296875,0.9097966308593749,-1.9083969465648856,-9.923664122137405,21.770992366412212,0.0
12.810000658035278,-8.712499841308594,1.177947216796875,2.8898014038085935,-21.083969465648856,48.900763358778626,7.511450381679389,-10.64222637939453,2.195482922363281,0.6153098266601562,-5.114503816793893,-11.19083969465649,19.236641221374047,0.0
12.820000648498535,-8.259995727539062,0.07422025146484375,2.4588451049804685,-19.450381679389313,50.534351145038165,7.633587786259542,-10.43153663330078,1.8722656982421875,0.5410895751953124,-8.106870229007633,-11.633587786259541,16.259541984732824,0.0
12.830000638961792,-8.549694128417968,-0.6200982299804687,2.7748797241210936,-15.038167938931299,54.656488549618324,4.809160305343512,-8.552088330078124,2.528276953125,-0.011971008300781249,-12.732824427480915,-12.778625954198473,13.145038167938932,0.0
12.840000867843628,-8.808267907714843,-0.19153613281249998,2.8323405639648436,-12.83969465648855,55.31297709923664,1.4809160305343512,-8.762778076171875,3.5673604736328124,-1.7956512451171873,-16.091603053435115,-15.404580152671755,10.488549618320612,0.0
12.850000381469727,-8.71489404296875,-0.7493851196289062,2.8323405639648436,-8.51908396946565,54.961832061068705,-0.12213740458015267,-9.787496386718749,1.9416975463867185,1.8746598999023436,-35.099236641221374,4.870229007633588,9.206106870229007,0.0
12.860000610351562,-9.176974963378905,-0.6153098266601562,3.1699229980468746,-5.114503816793893,54.47328244274809,-3.099236641221374,-8.032546569824218,2.2649147705078123,-0.15083470458984374,-26.12213740458015,-5.8320610687022905,9.068702290076336,0.0
12.870000839233398,-9.421183532714844,-0.9457096557617187,2.987963671875,3.1755725190839694,53.83206106870229,-5.450381679389313,-8.092401611328125,3.632003918457031,-2.0278888061523435,-31.633587786259543,-2.0763358778625953,6.320610687022901,0.0
12.880000591278076,-9.679757312011718,0.0718260498046875,3.39018955078125,7.816793893129771,53.9236641221374,-7.572519083969466,-7.807491613769531,2.8730419921875,-0.411802685546875,-53.06870229007634,14.687022900763358,4.99236641221374,0.0
12.890000820159912,-9.330203869628905,-0.28969840087890625,3.0693665283203124,12.717557251908397,50.06106870229008,-8.717557251908397,-10.395623608398436,-1.6041151123046875,2.059013427734375,-35.31297709923664,13.908396946564885,8.916030534351146,0.0
12.90000057220459,-9.710881933593749,-0.7852981445312499,2.5905261962890624,20.427480916030536,47.770992366412216,-10.13740458015267,-10.850521923828124,-2.9975404785156248,2.971204260253906,3.0381679389312977,2.6412213740458017,7.8320610687022905,0.0
12.910000562667847,-9.890447058105469,-0.00239420166015625,2.9568390502929685,28.366412213740457,48.0763358778626,-12.442748091603054,-5.947196923828125,1.4628572143554686,-1.3766659545898436,-4.366412213740458,-6.580152671755725,-5.251908396946565,0.0
12.920000314712524,-10.426748229980468,2.1643583007812497,3.6750995483398436,20.259541984732824,43.49618320610687,-13.511450381679388,-7.936778503417968,1.465251416015625,-0.41898529052734373,-15.251908396946565,6.0458015267175576,-4.33587786259542,0.0
12.93000054359436,-10.026916552734374,2.2673089721679687,3.327940307617187,10.366412213740459,37.05343511450382,-12.488549618320612,-7.783549597167968,1.8195932617187498,-1.1707646118164061,-26.580152671755727,15.709923664122137,-6.351145038167939,0.0
12.940000534057617,-10.503362683105468,2.042254016113281,3.4069489624023435,5.709923664122138,32.030534351145036,-12.13740458015267,-8.511386901855468,-0.6655880615234374,0.7829039428710937,-17.374045801526716,12.366412213740459,-7.923664122137405,0.0
12.950000524520874,-10.551246716308594,0.8403647827148437,3.246537451171875,5.847328244274809,30.259541984732824,-11.618320610687023,-10.625466967773438,-2.568978381347656,1.905784521484375,2.854961832061069,11.526717557251908,-8.946564885496183,0.0
12.96000051498413,-9.09796630859375,-0.7685387329101562,2.384624853515625,16.47328244274809,31.34351145038168,-10.396946564885496,-8.681375219726561,-2.2002713256835937,1.0295067138671874,23.770992366412212,-1.9083969465648856,-14.50381679389313,0.0
12.970000505447388,-8.415618835449218,-1.0869675537109373,1.6711527587890624,26.33587786259542,35.267175572519086,-14.13740458015267,-8.856151940917968,0.00239420166015625,-0.26815058593749996,40.396946564885496,-11.694656488549619,-21.221374045801525,0.0
12.980000972747803,-8.609549169921875,-0.201112939453125,2.0566192260742184,33.31297709923664,38.62595419847328,-17.87786259541985,-9.80665,0.24660277099609373,0.39743747558593745,37.69465648854962,-9.541984732824428,-25.282442748091604,0.0
12.990000486373901,-8.652644799804687,1.0103531005859374,2.4013842651367185,33.66412213740458,40.62595419847328,-20.061068702290076,-8.789114294433594,1.8243816650390623,-0.4333505004882812,35.969465648854964,-12.50381679389313,-27.297709923664122,0.0
13.000000715255737,-9.289502441406249,2.061407629394531,2.31758720703125,28.458015267175572,39.16030534351145,-20.625954198473284,-9.471461767578125,2.50912333984375,-0.8164227661132812,33.98473282442748,-11.679389312977099,-27.236641221374047,0.0
13.010000705718994,-8.86094034423828,1.6328455322265625,2.0302830078125,29.61832061068702,40.87022900763359,-18.33587786259542,-9.466673364257812,2.7581203125,-1.1516109985351561,30.137404580152673,-10.076335877862595,-26.99236641221374,0.0
13.020000457763672,-9.512163195800781,1.6519991455078125,2.403778466796875,27.52671755725191,41.55725190839695,-18.213740458015266,-10.065223779296874,2.2002713256835937,-0.8954314208984374,31.740458015267176,-7.633587786259542,-26.16793893129771,0.0
13.030000686645508,-9.888052856445311,1.4341267944335936,2.2936451904296873,25.923664122137403,40.61068702290076,-18.137404580152673,-10.216058483886718,2.35589443359375,-0.9552864624023437,37.70992366412214,-10.580152671755725,-25.72519083969466,0.0
13.040000677108765,-10.060435375976562,2.2673089721679687,2.6623522460937497,18.50381679389313,38.35114503816794,-17.480916030534353,-10.864887133789061,2.2385785522460937,-0.6440402465820312,28.977099236641223,-2.6564885496183206,-26.198473282442748,0.0
13.050000429153442,-9.873687646484374,1.1851298217773436,2.0829554443359375,12.748091603053435,34.732824427480914,-15.694656488549619,-11.137826123046874,1.915361328125,-0.33039982910156246,43.23664122137404,-14.13740458015267,-23.740458015267176,0.0
13.0600004196167,-9.775525378417969,1.5753846923828123,2.398990063476562,11.068702290076336,34.42748091603053,-15.954198473282442,-9.981426721191406,1.889025109863281,0.3854664672851562,42.412213740458014,-15.053435114503817,-26.061068702290076,0.0
13.070000410079956,-9.6917283203125,0.9720458740234375,2.252943762207031,3.648854961832061,30.33587786259542,-14.106870229007633,-8.2743609375,3.4356793823242184,-0.3854664672851562,36.091603053435115,-17.69465648854962,-27.923664122137403,0.0
13.080000400543213,-9.337386474609374,1.5346832641601562,2.4157494750976563,-2.2442748091603053,27.61832061068702,-13.587786259541986,-8.726865051269531,3.0526071166992184,-0.411802685546875,27.17557251908397,-16.015267175572518,-25.83206106870229,0.0
13.09000039100647,-10.426748229980468,2.655169641113281,3.303998291015625,-14.0,23.16030534351145,-13.709923664122137,-9.473855969238281,5.135562561035156,-0.8834604125976562,22.091603053435115,-16.931297709923665,-24.82442748091603,0.0
13.100000619888306,-9.962273107910155,1.2904746948242187,2.583343591308594,-17.801526717557252,20.015267175572518,-10.564885496183207,-11.631031665039062,0.7206546997070312,1.177947216796875,24.091603053435115,-11.49618320610687,-18.99236641221374,0.0
13.110000848770142,-9.4618849609375,-0.373495458984375,1.9033903198242186,-12.748091603053435,20.412213740458014,-9.34351145038168,-10.819397302246093,0.16519991455078123,1.9728221679687499,55.083969465648856,-32.152671755725194,-19.938931297709924,0.0
13.12000060081482,-9.437942944335937,-0.679953271484375,1.62805712890625,-2.1526717557251906,21.786259541984734,-10.412213740458014,-11.547234606933593,0.8092401611328125,1.7286135986328124,59.87786259541985,-36.396946564885496,-23.862595419847327,0.0
13.130000829696655,-8.930372192382812,-0.5099649536132812,1.3910311645507811,1.3129770992366412,24.137404580152673,-11.709923664122137,-10.050858569335936,2.152387292480469,1.2689268798828124,54.30534351145038,-43.52671755725191,-25.81679389312977,0.0
13.140000343322754,-9.198522778320312,0.488417138671875,1.66636435546875,-1.083969465648855,24.53435114503817,-14.67175572519084,-10.766724865722656,3.797203833007812,0.28490999755859375,53.06870229007634,-51.41984732824427,-25.755725190839694,0.0
13.150000810623169,-9.282319836425781,1.5658078857421873,2.001552587890625,-3.2061068702290076,24.33587786259542,-15.541984732824428,-10.137049829101562,3.7301661865234372,0.3280056274414062,33.51145038167939,-46.10687022900763,-23.419847328244273,0.0
13.160000801086426,-9.533711010742186,1.9632453613281249,2.1068974609374997,-10.213740458015268,22.916030534351144,-15.038167938931299,-12.636596362304687,1.927332336425781,1.5825672973632812,33.20610687022901,-47.541984732824424,-21.114503816793892,0.0
13.170000553131104,-9.521740002441407,2.185906115722656,1.9225439331054686,-12.259541984732824,21.389312977099237,-13.587786259541986,-10.067617980957031,2.693476867675781,0.41898529052734373,23.572519083969464,-49.41984732824427,-23.52671755725191,0.0
13.180000305175781,-9.758765966796874,1.946485949707031,1.8507178833007811,-16.16793893129771,20.30534351145038,-11.465648854961833,-12.375628381347655,0.41419688720703124,2.6623522460937497,29.603053435114504,-53.847328244274806,-21.34351145038168,0.0
13.190000534057617,-9.655815295410155,1.6615759521484375,1.6448165405273436,-15.297709923664122,19.17557251908397,-10.65648854961832,-8.86812294921875,2.3319524169921872,0.833182177734375,16.35114503816794,-56.3206106870229,-27.69465648854962,0.0
13.200000286102295,-9.991003527832031,1.7932570434570312,1.4939818359375,-19.49618320610687,19.053435114503817,-9.49618320610687,-12.325350146484375,-0.27293898925781246,2.389413256835937,19.053435114503817,-57.48091603053435,-25.206106870229007,0.0
13.21000051498413,-9.885658654785155,1.7381904052734374,1.2976572998046874,-21.51145038167939,17.984732824427482,-9.419847328244275,-8.298302954101562,2.300827795410156,0.8259995727539062,4.687022900763359,-58.79389312977099,-33.465648854961835,0.0
13.220000505447388,-9.56962403564453,1.2785036865234374,0.6823474731445313,-24.85496183206107,17.6793893129771,-6.748091603053435,-11.777077966308592,-0.229843359375,2.0757728393554684,2.015267175572519,-57.38931297709924,-30.68702290076336,0.0
13.230000257492065,-9.138667736816405,0.5267243652343749,0.12449848632812499,-24.366412213740457,19.022900763358777,-6.732824427480916,-8.949525805664061,2.1212626708984375,0.6631938598632812,-5.1603053435114505,-61.57251908396947,-38.25954198473283,0.0
13.24000072479248,-9.282319836425781,0.08379705810546874,-0.09816226806640624,-15.740458015267176,27.114503816793892,-7.786259541984733,-10.328585961914062,0.14604630126953125,1.898601916503906,-21.251908396946565,-50.76335877862596,-36.88549618320611,0.0
13.250000476837158,-8.413224633789062,0.2657563842773437,-0.6703764648437499,-15.603053435114504,30.564885496183205,-11.648854961832061,-11.269507214355468,-0.24181436767578124,2.722207287597656,-15.206106870229007,-56.2442748091603,-41.6793893129771,0.0
13.260000944137573,-8.434772448730468,-0.5985504150390625,-1.429338391113281,-13.114503816793894,33.20610687022901,-14.977099236641221,-10.062829577636718,0.9504980590820312,2.0925322509765625,-21.740458015267176,-55.06870229007634,-47.86259541984733,0.0
13.270000457763672,-9.045293872070312,0.24660277099609373,-0.7158662963867187,-13.282442748091603,41.343511450381676,-17.908396946564885,-9.765948571777344,1.3000515014648437,1.9895815795898437,-37.23664122137404,-46.70229007633588,-49.80152671755725,0.0
13.280000448226929,-9.153032946777342,-0.2059013427734375,-0.3327940307617187,-19.16030534351145,43.14503816793893,-21.603053435114504,-11.334150659179686,0.07422025146484375,3.0142998901367184,-34.656488549618324,-46.44274809160305,-47.93893129770992,0.0
13.290000677108765,-10.357316381835936,-0.6823474731445313,0.3016694091796875,-16.213740458015266,45.908396946564885,-24.35114503816794,-10.280701928710936,0.469263525390625,2.683900061035156,-21.557251908396946,-54.50381679389313,-51.343511450381676,0.0
13.300000667572021,-9.459490759277344,-1.5658078857421873,-0.0718260498046875,-12.320610687022901,46.51908396946565,-24.946564885496183,-8.147468249511718,1.8459294799804686,1.8315642700195311,-23.52671755725191,-52.030534351145036,-52.76335877862596,0.0
13.310000658035278,-9.787496386718749,-0.9337386474609375,1.407790576171875,-13.404580152671755,47.267175572519086,-25.923664122137403,-9.208099584960937,0.0047884033203125,2.2649147705078123,-20.549618320610687,-47.847328244274806,-47.17557251908397,0.0
13.320000648498535,-9.404424121093749,-1.70467158203125,1.4317325927734375,-13.49618320610687,41.61832061068702,-28.045801526717558,-9.698910925292969,-1.697488977050781,1.8555062866210936,-1.5725190839694656,-52.961832061068705,-44.42748091603053,0.0
13.330000638961792,-10.165780249023436,-1.5729904907226562,2.3582886352539063,-5.8320610687022905,38.045801526717554,-27.419847328244273,-7.151480358886718,-0.7350199096679687,0.4836287353515625,9.526717557251908,-51.17557251908397,-45.083969465648856,0.0
13.34000039100647,-9.852139831542969,-1.867477294921875,2.913743420410156,-1.3435114503816794,34.33587786259542,-25.893129770992367,-8.418013037109375,-1.5562310791015623,0.9433154541015625,11.770992366412214,-36.33587786259542,-38.534351145038165,0.0
13.350000381469727,-10.091559997558592,-1.1707646118164061,3.7134067749023436,3.267175572519084,29.267175572519083,-25.099236641221374,-7.024587670898437,-2.50912333984375,1.0007762939453124,29.770992366412212,-39.31297709923664,-37.267175572519086,0.0
13.360000371932983,-10.836156713867187,-0.8810662109374999,4.333505004882812,8.335877862595419,23.603053435114504,-22.82442748091603,-6.358999609374999,-1.5466542724609373,0.02154781494140625,48.12213740458015,-40.0763358778626,-35.465648854961835,0.0
13.37000060081482,-11.765106958007811,0.8188169677734375,5.193023400878906,16.50381679389313,21.87786259541985,-19.068702290076335,-6.555324145507812,-1.0630255371093749,1.0917559570312498,49.20610687022901,-23.52671755725191,-32.79389312977099,0.0
13.380000352859497,-9.64623848876953,-0.9911994873046874,3.9049429077148434,19.81679389312977,15.129770992366412,-14.80916030534351,-7.266402038574219,-1.848323681640625,1.618480322265625,56.36641221374046,-23.282442748091604,-29.053435114503817,0.0
13.390001058578491,-10.283096130371094,0.2609679809570312,3.9336733276367184,27.053435114503817,11.19083969465649,-14.290076335877863,-5.971138940429687,-0.97683427734375,1.2904746948242187,66.3206106870229,-23.374045801526716,-28.580152671755727,0.0
13.40000033378601,-10.551246716308594,0.8786720092773437,4.271255761718749,32.01526717557252,10.946564885496183,-14.717557251908397,-5.966350537109375,0.8451531860351562,1.637633935546875,60.458015267175576,-15.938931297709924,-27.17557251908397,0.0
13.410000324249268,-10.31661495361328,1.2282254516601563,4.048595007324218,17.34351145038168,2.946564885496183,-14.427480916030534,-6.6510922119140625,1.9033903198242186,1.6735469604492186,43.16030534351145,-3.969465648854962,-23.267175572519083,0.0
13.420000553131104,-9.610325463867188,0.26336218261718747,3.7229835815429686,19.267175572519083,1.4961832061068703,-13.511450381679388,-6.665457421875,1.7980454467773437,2.473210314941406,25.64885496183206,2.9923664122137406,-18.763358778625953,0.0
13.43000078201294,-9.447519750976562,0.13168109130859373,3.438073583984375,18.0,0.13740458015267176,-13.206106870229007,-6.399701037597656,0.4955997436523437,2.9472622436523435,16.35114503816794,3.7099236641221376,-16.0,0.0
13.440000534057617,-9.361328491210937,-0.21787235107421873,3.3303345092773435,22.15267175572519,-1.0534351145038168,-11.633587786259541,-6.89530078125,-0.5386953735351562,3.076549133300781,11.389312977099237,8.01526717557252,-12.931297709923664,0.0
13.450000524520874,-7.536946826171874,-2.001552587890625,2.3319524169921872,38.152671755725194,3.7557251908396947,-9.48091603053435,-6.227318518066406,-0.8667010009765624,1.4700398193359374,9.954198473282442,12.65648854961832,-9.801526717557252,0.0
13.46000051498413,-9.402029919433593,-0.373495458984375,3.622427111816406,43.3587786259542,10.885496183206106,-13.17557251908397,-6.349422802734375,-0.316034619140625,-0.967257470703125,18.549618320610687,17.374045801526716,-4.732824427480916,0.0
13.470000505447388,-9.564835632324218,0.6488286499023437,3.3877953491210935,44.33587786259542,9.083969465648854,-14.351145038167939,-6.718129858398437,0.7589619262695312,-2.3151930053710936,30.83969465648855,24.870229007633586,1.5572519083969465,0.0
13.480000734329224,-9.727641345214844,0.2753331909179687,3.4261025756835934,45.49618320610687,9.541984732824428,-14.778625954198473,-7.970297326660156,2.059013427734375,-2.099714855957031,39.52671755725191,29.740458015267176,5.236641221374046,0.0
13.490000247955322,-10.32379755859375,1.0582371337890624,3.883395092773437,43.98473282442748,10.15267175572519,-14.870229007633588,-9.581595043945311,1.1516109985351561,0.3327940307617187,40.47328244274809,33.343511450381676,11.17557251908397,0.0
13.500000715255737,-10.225635290527343,1.350329736328125,3.9983167724609374,37.80152671755725,7.465648854961832,-14.702290076335878,-11.9135474609375,0.15083470458984374,3.478775012207031,35.6793893129771,33.786259541984734,16.610687022900763,0.0
13.510000705718994,-10.613495959472656,2.6048914062499997,4.46279189453125,31.49618320610687,2.6106870229007635,-13.938931297709924,-12.876016528320312,-0.201112939453125,5.758054992675781,25.557251908396946,23.541984732824428,14.83969465648855,0.0
13.520000696182251,-11.192892761230468,0.27293898925781246,5.1690813842773435,31.00763358778626,1.816793893129771,-11.34351145038168,-12.411541406249999,0.689530078125,5.276820458984375,5.709923664122138,21.00763358778626,10.381679389312977,0.0
13.530000686645508,-10.041281762695311,1.3670891479492187,5.446808776855469,41.93893129770992,3.0839694656488548,-11.114503816793894,-12.310984936523436,1.915361328125,3.361459130859375,-18.12213740458015,29.297709923664122,6.0,0.0
13.540000677108765,-11.729193933105469,3.4572271972656248,6.41646044921875,26.427480916030536,-7.190839694656488,-10.717557251908397,-14.111424584960936,0.6631938598632812,2.882618798828125,-16.198473282442748,25.81679389312977,9.954198473282442,0.0
13.550000667572021,-12.50012686767578,2.422932080078125,6.847416748046874,22.580152671755727,-20.778625954198475,-4.396946564885496,-11.793837377929687,1.7956512451171873,1.927332336425781,-5.1603053435114505,12.854961832061068,8.885496183206106,0.0
13.560000658035278,-13.759476940917969,2.001552587890625,6.804321118164062,22.946564885496183,-35.20610687022901,5.938931297709924,-11.030087048339842,-0.0909796630859375,1.7310078002929687,-1.8625954198473282,10.687022900763358,11.282442748091603,0.0
13.570000648498535,-13.694833496093748,0.8786720092773437,6.536170532226562,31.557251908396946,-42.42748091603053,14.916030534351146,-7.994239343261718,-0.16280571289062498,0.6440402465820312,-8.335877862595419,7.572519083969466,9.679389312977099,0.0
13.580000638961792,-11.748347546386718,-0.9864110839843749,4.778826513671874,37.786259541984734,-51.404580152671755,22.35114503816794,-7.716511950683593,-0.5267243652343749,-0.1771709228515625,-14.229007633587786,6.6106870229007635,9.83206106870229,0.0
13.590000867843628,-13.63019005126953,1.01514150390625,5.710170959472656,39.37404580152672,-55.38931297709924,25.358778625954198,-7.3861121215820305,-0.5027823486328125,-1.656787548828125,-23.923664122137403,15.068702290076336,10.030534351145038,0.0
13.600000619888306,-14.365209960937499,1.7788918334960937,7.077260107421875,21.114503816793892,-74.25954198473282,30.610687022900763,-6.950367419433594,1.22583125,-2.0542250244140625,-33.099236641221374,23.19083969465649,11.083969465648854,0.0
13.610000848770142,-14.89432852783203,2.375048046875,6.900089184570312,37.221374045801525,-75.09923664122137,40.74809160305343,-10.81460889892578,-1.3215993164062498,0.39743747558593745,-38.36641221374046,39.099236641221374,17.46564885496183,0.0
13.62000060081482,-11.722011328125,0.181959326171875,3.5625720703124997,43.29770992366412,-81.64885496183206,48.0763358778626,-9.974244116210937,-1.1133037719726562,0.679953271484375,-26.30534351145038,32.42748091603053,12.870229007633588,0.0
13.630000591278076,-11.336544860839844,-0.20350714111328125,1.2641384765625,38.534351145038165,-85.02290076335878,49.14503816793893,-9.093177905273437,-0.16041151123046873,0.833182177734375,-25.938931297709924,36.54961832061068,10.259541984732824,0.0
13.640000820159912,-12.720393420410156,-0.8475473876953125,2.3151930053710936,8.473282442748092,-96.47328244274809,44.274809160305345,-12.97178459472656,-3.356670727539062,3.019088293457031,-18.748091603053435,35.465648854961835,16.15267175572519,0.0
13.65000057220459,-11.875240234375,-3.057395520019531,3.766079211425781,0.3969465648854962,-106.85496183206106,42.900763358778626,-11.118672509765624,-1.2282254516601563,1.7429788085937499,-6.259541984732825,20.83969465648855,11.16030534351145,0.0
13.660000562667847,-9.3852705078125,-5.2816088623046875,1.1228805786132812,18.16793893129771,-112.18320610687023,48.68702290076336,-10.13226142578125,-0.1867477294921875,1.16837041015625,-11.755725190839694,20.564885496183205,11.48091603053435,0.0
13.670000553131104,-7.975085729980468,-4.967968444824218,-2.346317626953125,27.49618320610687,-97.72519083969466,44.01526717557252,-11.985373510742187,-1.7094599853515624,1.4987702392578124,-6.458015267175573,18.427480916030536,14.748091603053435,0.0
13.68000078201294,-6.325480786132812,-7.146691955566406,-5.257666845703125,19.64885496183206,-89.00763358778626,34.396946564885496,-12.229582080078124,-2.923320227050781,1.678335363769531,8.427480916030534,14.564885496183207,11.969465648854962,0.0
13.690000534057617,-7.4770917846679685,-6.133944653320312,-4.3454760131835934,31.206106870229007,-73.6793893129771,23.81679389312977,-8.678981018066406,-0.2705447875976562,-0.7589619262695312,16.48854961832061,3.8473282442748094,3.6030534351145036,0.0
13.700000524520874,-7.999027746582031,-6.0716954101562495,-3.3351229125976563,48.12213740458015,-61.49618320610687,18.33587786259542,-10.548852514648438,-1.4101847778320311,0.718260498046875,16.931297709923665,9.053435114503817,8.885496183206106,0.0
13.71000051498413,-10.723629235839843,-1.1252747802734375,-0.011971008300781249,65.70992366412214,-43.43511450381679,10.641221374045802,-9.600748657226562,-0.373495458984375,0.15083470458984374,14.15267175572519,7.419847328244275,8.50381679389313,0.0
13.720000267028809,-6.809109521484374,-2.9281086303710935,-0.7110778930664062,74.68702290076335,-39.25190839694657,12.961832061068701,-9.366116894531249,0.2561795776367187,0.3687070556640625,12.381679389312977,10.427480916030534,8.473282442748092,0.0
13.730000495910645,-10.216058483886718,1.5658078857421873,0.4477157104492187,58.01526717557252,-40.85496183206107,10.625954198473282,-9.354145886230468,0.45010991210937495,0.277727392578125,9.267175572519085,10.458015267175572,8.412213740458014,0.0
13.74000072479248,-9.993397729492187,1.3838485595703125,1.429338391113281,40.16793893129771,-38.93129770992366,11.511450381679388,-9.713276135253906,0.3184288208007812,0.7158662963867187,5.435114503816794,12.778625954198473,9.236641221374045,0.0
13.750000476837158,-7.8170684204101555,0.9074024291992187,1.6136919189453125,36.091603053435115,-34.900763358778626,13.969465648854962,-7.304709265136719,1.8243816650390623,-0.0143652099609375,-5.9541984732824424,13.786259541984732,6.5038167938931295,0.0
13.760000705718994,-9.445125549316407,1.9776105712890624,1.2378022583007813,23.221374045801525,-34.412213740458014,14.106870229007633,-9.634267480468749,-0.2920926025390625,1.70467158203125,-10.061068702290076,20.15267175572519,12.320610687022901,0.0
13.770000696182251,-8.597578161621094,0.7038952880859375,0.6464344482421874,11.404580152671755,-35.587786259541986,15.49618320610687,-8.47786807861328,-0.05746083984375,0.9074024291992187,-16.793893129770993,18.15267175572519,8.580152671755725,0.0
13.780000925064087,-8.092401611328125,0.18435352783203124,1.3718775512695311,6.702290076335878,-33.06870229007634,17.17557251908397,-9.440337145996093,0.8906430175781249,0.7422025146484375,-18.53435114503817,18.53435114503817,8.091603053435115,0.0
13.790000677108765,-8.578424548339843,0.51714755859375,1.5682020874023437,0.2595419847328244,-31.389312977099237,17.83206106870229,-8.468291271972657,0.7589619262695312,-0.0143652099609375,-32.50381679389313,21.557251908396946,8.51908396946565,0.0
13.800000429153442,-8.865728747558594,0.38307226562499996,1.9800047729492187,-5.251908396946565,-30.99236641221374,18.717557251908396,-11.113884106445312,-2.099714855957031,1.3766659545898436,-29.709923664122137,23.419847328244273,12.458015267175572,0.0
13.810000658035278,-9.215282189941405,-0.277727392578125,2.2098481323242187,-4.305343511450381,-31.923664122137403,20.53435114503817,-10.678139404296875,-2.231395947265625,1.8100164550781248,-10.67175572519084,12.534351145038167,7.282442748091603,0.0
13.820000886917114,-9.196128576660156,0.47644613037109373,3.421314172363281,-1.3129770992366412,-30.702290076335878,22.213740458015266,-10.235212097167969,-1.924938134765625,1.62805712890625,-1.099236641221374,6.6106870229007635,4.3816793893129775,0.0
13.83000111579895,-8.01818135986328,-0.12449848632812499,3.77326181640625,-11.740458015267176,-35.70992366412214,22.0,-9.672574707031249,-0.5410895751953124,0.852335791015625,2.519083969465649,-1.633587786259542,1.8931297709923665,0.0
13.840000629425049,-9.222464794921875,0.49799394531249996,3.3686417358398435,-19.17557251908397,-41.48091603053435,20.99236641221374,-10.43153663330078,-0.36631285400390623,0.4285620971679687,0.030534351145038167,-0.7938931297709924,2.7022900763358777,0.0
13.850001096725464,-9.7683427734375,1.3910311645507811,4.742913488769531,-31.755725190839694,-48.61068702290076,18.38167938931298,-10.158597644042969,0.9193734375,0.3016694091796875,-4.458015267175573,-1.5725190839694656,2.717557251908397,0.0
13.860000848770142,-9.564835632324218,0.6655880615234374,3.6679169433593746,-38.229007633587784,-53.45038167938932,19.557251908396946,-9.830592016601562,0.9816226806640624,-0.4285620971679687,-10.229007633587786,-0.3053435114503817,2.854961832061069,0.0
13.87000060081482,-9.672574707031249,-1.649604943847656,3.842693664550781,-30.48854961832061,-53.69465648854962,20.99236641221374,-9.662997900390625,0.9409212524414062,0.20829554443359374,-13.34351145038168,2.2442748091603053,4.015267175572519,0.0
13.880000591278076,-10.903194360351561,1.6807295654296874,5.257666845703125,-23.00763358778626,-49.954198473282446,18.229007633587788,-9.052476477050782,0.7924807495117187,0.1292868896484375,-17.64885496183206,2.9160305343511452,3.969465648854962,0.0
13.890000820159912,-9.665392102050781,0.47644613037109373,4.134786267089844,-41.954198473282446,-63.51145038167939,18.53435114503817,-9.986215124511718,-0.00718260498046875,0.411802685546875,-16.27480916030534,5.587786259541985,6.519083969465649,0.0
13.90000057220459,-11.171344946289063,2.3247698120117186,4.896142395019531,-43.45038167938932,-64.21374045801527,17.954198473282442,-9.325415466308593,0.47165772705078124,-0.01915361328125,-18.412213740458014,5.541984732824427,5.816793893129771,0.0
13.910000562667847,-9.064447485351561,1.0558429321289062,4.563348364257812,-56.534351145038165,-73.32824427480917,20.015267175572518,-9.782707983398437,0.14604630126953125,0.6177040283203125,-17.64885496183206,7.9541984732824424,7.404580152671755,0.0
13.920000553131104,-7.194575988769531,-2.3678654418945313,2.5809493896484375,-40.916030534351144,-70.6412213740458,22.68702290076336,-9.900023864746093,-0.16280571289062498,0.373495458984375,-15.48091603053435,8.229007633587786,7.709923664122138,0.0
13.93000054359436,-8.339004382324218,-0.023942016601562498,3.787627026367187,-25.14503816793893,-61.343511450381676,20.48854961832061,-9.356540087890625,0.19871873779296872,0.699106884765625,-13.374045801526718,8.977099236641221,6.809160305343512,0.0
13.940000534057617,-7.429207751464843,-0.39983167724609375,3.0454245117187497,-22.47328244274809,-58.732824427480914,19.755725190839694,-8.564059338378906,1.37906015625,-0.35194764404296874,-15.19083969465649,10.305343511450381,6.961832061068702,0.0
13.950000524520874,-6.543353137207031,-1.0845733520507812,2.9472622436523435,-9.541984732824428,-49.37404580152672,19.51145038167939,-9.481038574218749,0.4572925170898437,-0.076614453125,-20.244274809160306,16.33587786259542,10.65648854961832,0.0
13.960000276565552,-8.67658681640625,4.012681982421875,4.043806604003906,-12.793893129770993,-42.152671755725194,13.16030534351145,-8.008604553222655,1.6472107421875,-1.1516109985351561,-19.954198473282442,14.442748091603054,9.221374045801527,0.0
13.970000505447388,-8.037334973144532,3.327940307617187,3.564966271972656,-35.06870229007634,-49.083969465648856,14.65648854961832,-9.572018237304688,1.8148048583984373,-0.5865794067382812,-30.15267175572519,25.541984732824428,14.061068702290076,0.0
13.980000972747803,-9.425971936035156,5.705382556152343,5.566518859863281,-48.76335877862596,-44.030534351145036,13.145038167938932,-9.387664709472656,1.1228805786132812,0.70868369140625,-34.87022900763359,32.82442748091603,18.106870229007633,0.0
13.99000072479248,-7.513004809570312,2.73896669921875,3.785232824707031,-73.46564885496183,-57.9236641221374,15.755725190839694,-10.915165368652342,-0.6512228515624999,1.5418658691406248,-21.52671755725191,29.96946564885496,21.251908396946565,0.0
14.000000476837158,-11.602301245117188,5.556942053222656,5.291185668945312,-79.7557251908397,-51.87786259541985,13.49618320610687,-12.94065997314453,-2.741360900878906,2.4013842651367185,-3.0381679389312977,25.022900763358777,21.068702290076335,0.0
14.010000467300415,-9.026140258789061,2.4492682983398435,3.6463691284179687,-102.41221374045801,-67.29770992366412,16.33587786259542,-10.314220751953124,0.4261678955078125,1.0127473022460938,3.3435114503816794,13.053435114503817,15.893129770992367,0.0
14.020000696182251,-4.891353991699218,-1.8028338500976562,1.62805712890625,-94.09160305343511,-62.396946564885496,22.015267175572518,-9.188945971679686,0.8379705810546875,1.005564697265625,-2.564885496183206,15.603053435114504,19.251908396946565,0.0
14.030000686645508,-6.562506750488281,-0.38307226562499996,2.9759926635742184,-79.2824427480916,-45.64885496183206,17.755725190839694,-9.497797985839844,0.4477157104492187,1.0295067138671874,-2.2290076335877864,18.12213740458015,22.396946564885496,0.0
14.040000677108765,-5.9208607055664055,-0.4165910888671875,2.4205378784179685,-74.44274809160305,-41.541984732824424,14.106870229007633,-9.658209497070311,0.430956298828125,1.0749965454101562,-3.0229007633587788,18.82442748091603,24.213740458015266,0.0
14.050000667572021,-3.833116857910156,-1.9536685546875,1.149216796875,-60.229007633587784,-30.15267175572519,14.610687022900763,-9.516951599121093,0.277727392578125,1.0510545288085937,-4.0458015267175576,20.15267175572519,24.396946564885496,0.0
14.060000658035278,-4.42448466796875,-0.9002198242187499,1.6041151123046875,-46.62595419847328,-12.564885496183207,10.992366412213741,-9.342174877929686,-0.12689268798828124,1.2713210815429687,-1.984732824427481,21.66412213740458,24.549618320610687,0.0
14.070000648498535,-3.763685009765625,-1.8100164550781248,1.8818425048828125,-36.778625954198475,-2.1068702290076335,8.763358778625955,-9.387664709472656,-0.5099649536132812,1.66636435546875,-0.4732824427480916,21.51145038167939,25.16030534351145,0.0
14.080000400543213,-4.204218115234375,-1.3383587280273437,3.0358477050781247,-19.603053435114504,15.86259541984733,5.908396946564886,-9.239224206542968,-0.44053310546874996,1.4413093994140624,-0.7938931297709924,19.96946564885496,24.885496183206108,0.0
14.090000867843628,-6.004657763671875,0.02633621826171875,4.589684582519531,-8.687022900763358,24.702290076335878,4.305343511450381,-9.677363110351562,-0.8403647827148437,1.608903515625,1.4351145038167938,19.450381679389313,25.633587786259543,0.0
14.100000381469727,-8.566453540039062,2.0183119995117185,6.794744311523437,-2.2748091603053435,28.396946564885496,6.183206106870229,-9.45470235595703,-0.2059013427734375,1.0678139404296874,-0.6564885496183206,16.15267175572519,24.702290076335878,0.0
14.110000848770142,-12.04044014892578,4.220977526855468,8.556876733398436,-9.83206106870229,19.206106870229007,12.977099236641221,-10.350133776855468,0.40222587890625,0.7493851196289062,-4.106870229007634,14.931297709923664,25.267175572519083,0.0
14.12000036239624,-12.322955944824217,2.2481553588867187,9.368511096191405,-3.969465648854962,16.47328244274809,24.48854961832061,-9.634267480468749,1.3551181396484375,-0.7733271362304687,-14.442748091603054,14.793893129770993,26.564885496183205,0.0
14.130000829696655,-12.674903588867187,0.7972691528320313,10.01015714111328,0.9923664122137404,9.908396946564885,31.6793893129771,-9.595960253906249,1.1516109985351561,-0.4572925170898437,-21.51145038167939,21.46564885496183,27.31297709923664,0.0
14.140000343322754,-12.466608044433594,-0.8020575561523438,9.97903251953125,6.916030534351145,4.366412213740458,32.900763358778626,-9.536105212402344,2.588131994628906,-0.5602431884765625,-31.389312977099237,23.84732824427481,26.106870229007633,0.0
14.15000057220459,-11.52329259033203,-0.9720458740234375,8.291120349121094,9.618320610687023,0.15267175572519084,30.702290076335878,-10.955866796875,-1.3575123413085937,2.1691467041015624,-49.969465648854964,42.3206106870229,31.14503816793893,0.0
14.160000801086426,-8.992621435546875,-2.3056161987304686,5.588066674804687,10.82442748091603,-1.4045801526717556,26.885496183206108,-10.029310754394531,-0.5913678100585937,-1.369483349609375,-28.931297709923665,32.67175572519084,27.34351145038168,0.0
14.170000553131104,-7.472303381347656,-2.070984436035156,3.303998291015625,14.580152671755725,1.2671755725190839,23.129770992366414,-9.907206469726562,-0.4333505004882812,0.5698199951171875,-39.404580152671755,43.89312977099237,24.442748091603054,0.0
14.18000054359436,-6.653486413574218,-2.3391350219726563,2.518700146484375,5.114503816793893,3.786259541984733,15.98473282442748,-10.20169327392578,-1.0175357055664063,-0.1580173095703125,-19.923664122137403,32.97709923664122,24.625954198473284,0.0
14.190000534057617,-6.476315490722656,-2.4109610717773435,2.437297290039062,4.2748091603053435,7.7251908396946565,8.412213740458014,-11.221623181152344,0.9313444458007812,0.16759411621093748,-21.541984732824428,31.17557251908397,20.412213740458014,0.0
14.200000286102295,-6.234501123046875,-1.5155296508789062,2.588131994628906,4.213740458015267,13.572519083969466,4.580152671755725,-10.177751257324218,1.6831237670898436,-2.1116858642578125,-42.229007633587784,37.17557251908397,18.18320610687023,0.0
14.21000051498413,-6.203376501464843,-2.2098481323242187,2.7461493041992187,15.267175572519085,25.083969465648856,0.4580152671755725,-12.442666027832031,-1.2737152832031249,1.8531120849609375,-27.0381679389313,33.083969465648856,23.34351145038168,0.0
14.220000505447388,-7.292738256835937,-1.9991583862304687,3.1100679565429687,30.30534351145038,34.595419847328245,-6.519083969465649,-13.165714929199218,0.2561795776367187,1.0726023437499999,-11.236641221374045,22.68702290076336,16.885496183206108,0.0
14.230000257492065,-8.82263311767578,0.201112939453125,3.737348791503906,35.587786259541986,40.94656488549618,-11.435114503816793,-12.715605017089842,1.6519991455078125,1.0917559570312498,-12.488549618320612,18.732824427480917,13.816793893129772,0.0
14.24000072479248,-9.789890588378906,2.7198130859375,3.1507693847656246,31.740458015267176,45.9236641221374,-11.465648854961833,-11.621454858398437,0.3447650390625,1.2617442749023438,-15.312977099236642,12.977099236641221,14.900763358778626,0.0
14.250000476837158,-10.639832177734375,3.3638533325195312,3.5098996337890624,23.541984732824428,47.20610687022901,-9.251908396946565,-14.298172314453124,-0.3495534423828125,2.0757728393554684,-5.526717557251908,9.86259541984733,16.65648854961832,0.0
14.260000705718994,-10.64222637939453,3.287238879394531,2.693476867675781,15.435114503816793,49.16030534351145,-5.267175572519084,-12.686874597167968,1.2330138549804688,0.29927520751953124,-4.870229007633588,0.7175572519083969,14.183206106870228,0.0
14.27000093460083,-10.907982763671875,3.5314474487304683,2.2290017456054687,3.1908396946564888,50.54961832061068,-0.9007633587786259,-12.512097875976561,1.1228805786132812,2.0973206542968748,-12.274809160305344,5.679389312977099,15.389312977099237,0.0
14.280000448226929,-11.37006368408203,3.189076611328125,2.4061726684570313,-9.557251908396946,49.06870229007634,1.3587786259541985,-11.532869396972655,1.9297265380859374,0.737414111328125,-9.86259541984733,-1.9236641221374047,15.740458015267176,0.0
14.290000677108765,-10.857704528808593,1.7549498168945312,1.8914193115234375,-13.893129770992367,50.76335877862596,4.870229007633588,-12.959813586425781,1.4341267944335936,1.139639990234375,-14.091603053435115,3.9236641221374047,16.27480916030534,0.0
14.300000667572021,-10.256759912109374,0.8978256225585937,1.4006079711914061,-11.572519083969466,55.83206106870229,6.106870229007634,-11.336544860839844,1.5298948608398437,1.4125789794921875,-7.175572519083969,-3.954198473282443,15.816793893129772,0.0
14.310000658035278,-10.9941740234375,0.842758984375,1.9656395629882812,-10.50381679389313,58.091603053435115,4.8396946564885495,-12.052411157226562,2.231395947265625,0.93852705078125,-12.396946564885496,1.1908396946564885,14.458015267175572,0.0
14.320000648498535,-9.323021264648437,-0.16998831787109375,1.2713210815429687,-5.282442748091603,62.29007633587786,5.236641221374046,-10.893617553710937,2.0350714111328125,-0.00239420166015625,-11.633587786259541,-3.0076335877862594,13.48091603053435,0.0
14.330000638961792,-10.0748005859375,0.3711012573242187,2.480392919921875,-1.0076335877862594,66.51908396946565,0.9923664122137404,-7.426813549804687,4.541800549316406,-2.8802245971679685,-23.31297709923664,-1.099236641221374,10.13740458015267,0.0
14.340000629425049,-9.76116016845703,-0.1484405029296875,2.683900061035156,-0.3969465648854962,66.04580152671755,0.04580152671755725,-9.387664709472656,1.905784521484375,-0.055066638183593745,-44.67175572519084,13.893129770992367,9.786259541984732,0.0
14.350000858306885,-9.009380847167968,-1.158793603515625,2.6791116577148437,7.603053435114504,67.41984732824427,-2.4427480916030535,-12.725181823730468,-0.9600748657226562,3.622427111816406,-6.717557251908397,4.748091603053435,15.404580152671755,0.0
14.360000610351562,-8.999804040527343,-2.2002713256835937,2.9759926635742184,19.81679389312977,68.07633587786259,-6.290076335877862,-11.743559143066406,-0.18914193115234373,2.418143676757812,25.938931297709924,-12.0,12.351145038167939,0.0
14.37000060081482,-8.94473740234375,-1.3263877197265623,3.4356793823242184,32.19847328244275,68.22900763358778,-12.106870229007633,-7.697358337402343,3.854664672851562,-1.7717092285156248,-2.595419847328244,-13.770992366412214,-0.21374045801526717,0.0
14.380000591278076,-8.992621435546875,0.09816226806640624,3.957615344238281,31.61832061068702,63.41984732824427,-15.816793893129772,-7.905653881835937,2.73896669921875,-1.4628572143554686,-16.15267175572519,-7.587786259541985,1.2061068702290076,0.0
14.390000820159912,-9.311050256347656,0.8307879760742187,4.460397692871093,30.50381679389313,57.61832061068702,-17.709923664122137,-9.849745629882811,0.8667010009765624,0.6464344482421874,-3.648854961832061,0.061068702290076333,3.83206106870229,0.0
14.40000057220459,-8.86094034423828,0.47884033203125,3.6080619018554687,36.67175572519084,52.01526717557252,-17.480916030534353,-8.870517150878905,-0.11013327636718749,-0.3136404174804687,10.213740458015268,-7.709923664122138,1.282442748091603,0.0
14.410000562667847,-8.856151940917968,0.5315127685546874,3.689464758300781,43.11450381679389,50.67175572519084,-17.862595419847327,-7.307103466796875,1.5011644409179687,-1.2401964599609374,5.3893129770992365,-11.816793893129772,-5.633587786259542,0.0
14.420000553131104,-8.93755479736328,1.8938135131835936,3.8474820678710935,43.48091603053435,47.69465648854962,-17.954198473282442,-7.398083129882812,1.4700398193359374,-1.697488977050781,-8.412213740458014,2.4427480916030535,-6.2748091603053435,0.0
14.43000054359436,-9.435548742675781,1.8938135131835936,4.304774584960938,39.61832061068702,41.43511450381679,-18.366412213740457,-8.628702783203124,-3.3877953491210935,0.7015010864257812,0.04580152671755725,3.954198473282443,-5.603053435114504,0.0
14.440000295639038,-9.564835632324218,0.7445967163085937,3.912125512695312,44.61068702290076,39.49618320610687,-18.427480916030536,-10.417171423339843,-4.2497079467773435,2.1452046874999997,44.83969465648855,-8.091603053435115,-9.450381679389313,0.0
14.450000524520874,-10.302249743652343,2.1619640991210938,4.058171813964844,50.62595419847328,38.25954198473283,-19.16030534351145,-8.355763793945313,-1.005564697265625,0.08858546142578125,40.458015267175576,-11.648854961832061,-20.48854961832061,0.0
14.460000991821289,-9.485826977539062,2.5354595581054684,3.744531396484375,36.778625954198475,30.061068702290076,-17.129770992366414,-8.149862451171874,0.47644613037109373,-0.9169792358398436,42.88549618320611,-14.549618320610687,-22.977099236641223,0.0
14.470000505447388,-8.9255837890625,1.695094775390625,3.5434184570312497,34.274809160305345,28.137404580152673,-14.351145038167939,-8.281543542480469,1.608903515625,-1.5131354492187499,44.01526717557252,-13.86259541984733,-22.671755725190838,0.0
14.480000972747803,-9.574412438964844,1.3551181396484375,3.8235400512695312,34.458015267175576,29.893129770992367,-15.068702290076336,-8.540117321777343,2.001552587890625,-1.659181750488281,42.916030534351144,-11.068702290076336,-22.03053435114504,0.0
14.490000486373901,-10.213664282226562,1.9991583862304687,3.6391865234374996,31.31297709923664,28.412213740458014,-15.877862595419847,-9.842563024902343,1.4508862060546874,-1.637633935546875,46.56488549618321,-7.7251908396946565,-20.702290076335878,0.0
14.500000715255737,-9.045293872070312,1.5849614990234373,3.1866824096679687,27.541984732824428,24.244274809160306,-14.244274809160306,-9.545682019042967,1.7118541870117185,-1.3407529296874998,47.00763358778626,-5.419847328244275,-20.885496183206108,0.0
14.510000944137573,-10.17056865234375,1.3431471313476562,2.81558115234375,27.16030534351145,26.0,-12.396946564885496,-8.437166650390624,3.7301661865234372,-3.3303345092773435,53.48091603053435,-14.427480916030534,-21.404580152671755,0.0
14.520000696182251,-9.165003955078124,1.3215993164062498,1.8435352783203125,25.557251908396946,23.389312977099237,-10.183206106870228,-10.465055456542968,2.8850130004882812,-1.9991583862304687,49.12977099236641,-6.931297709923665,-18.641221374045802,0.0
14.530000686645508,-8.954314208984375,0.8116343627929687,1.89620771484375,20.9618320610687,23.66412213740458,-9.770992366412214,-10.690110412597656,2.31758720703125,-1.005564697265625,39.9236641221374,1.5572519083969465,-14.763358778625955,0.0
14.540000677108765,-9.641450085449218,0.8092401611328125,1.879448303222656,15.526717557251908,24.259541984732824,-11.145038167938932,-7.967903124999999,4.151545678710937,-2.8012159423828122,42.82442748091603,-11.236641221374045,-14.641221374045802,0.0
14.550000667572021,-9.813832604980469,0.6416460449218749,1.9129671264648436,18.30534351145038,29.022900763358777,-12.992366412213741,-9.344569079589844,3.143586779785156,-0.7278373046875,35.6793893129771,-6.183206106870229,-14.687022900763358,0.0
14.560000658035278,-10.568006127929687,0.7541735229492187,2.3032219970703123,16.366412213740457,33.9236641221374,-16.15267175572519,-12.897564343261719,-0.7781155395507812,3.42849677734375,40.717557251908396,-1.4198473282442747,-9.618320610687023,0.0
14.570000648498535,-10.556035119628906,-0.09337386474609374,1.93451494140625,14.83969465648855,34.83969465648855,-18.35114503816794,-11.959037292480469,0.7924807495117187,-0.4070142822265625,70.62595419847328,-25.6793893129771,-11.297709923664122,0.0
14.580000638961792,-11.209652172851563,1.6424223388671875,2.3127988037109373,13.877862595419847,36.396946564885496,-21.282442748091604,-10.809820495605468,1.7214309936523438,1.3335703247070312,59.12977099236641,-25.770992366412212,-15.358778625954198,0.0
14.590000867843628,-9.102754711914063,0.7637503295898437,1.714248388671875,8.51908396946565,35.221374045801525,-20.27480916030534,-8.98304462890625,3.1292215698242187,0.7158662963867187,50.412213740458014,-33.725190839694655,-18.12213740458015,0.0
14.600000619888306,-10.71884083251953,2.9831752685546875,2.6527754394531247,-6.076335877862595,30.977099236641223,-21.862595419847327,-12.179303845214843,1.2928688964843749,2.4947581298828125,56.44274809160305,-38.94656488549618,-14.351145038167939,0.0
14.610000848770142,-9.325415466308593,1.7693150268554687,2.0302830078125,-7.465648854961832,30.259541984732824,-19.419847328244273,-8.51617530517578,5.738901379394531,-0.8116343627929687,39.282442748091604,-44.213740458015266,-19.541984732824428,0.0
14.62000060081482,-9.574412438964844,2.231395947265625,2.157175695800781,-13.48091603053435,30.198473282442748,-17.083969465648856,-10.50815108642578,3.3542765258789062,0.41898529052734373,22.47328244274809,-34.36641221374046,-13.648854961832061,0.0
14.630000829696655,-9.619902270507811,2.0542250244140625,2.176329309082031,-18.076335877862597,27.114503816793892,-16.68702290076336,-12.397176196289061,0.70868369140625,2.8131869506835936,26.18320610687023,-35.25190839694657,-10.610687022900763,0.0
14.640000581741333,-9.13627353515625,1.2689268798828124,2.607285607910156,-16.763358778625953,25.374045801526716,-15.282442748091603,-10.024522351074218,1.3407529296874998,1.5227122558593749,24.946564885496183,-41.3587786259542,-14.488549618320612,0.0
14.65000033378601,-9.394847314453125,0.5889736083984375,2.133233679199219,-14.351145038167939,23.893129770992367,-14.427480916030534,-11.3772462890625,-0.24181436767578124,1.4508862060546874,34.93129770992366,-52.61068702290076,-14.580152671755725,0.0
14.660000324249268,-9.581595043945311,0.5722141967773438,2.5426421630859375,-10.992366412213741,23.328244274809162,-15.648854961832061,-10.812214697265624,-0.25139117431640623,2.360682836914062,28.80916030534351,-49.038167938931295,-17.786259541984734,0.0
14.670000314712524,-9.509768994140625,0.49799394531249996,2.4013842651367185,-10.274809160305344,21.236641221374047,-16.290076335877863,-12.203245861816406,-1.2856862915039062,1.898601916503906,43.49618320610687,-64.80916030534351,-20.15267175572519,0.0
14.68000054359436,-9.332598071289063,0.8092401611328125,2.6431986328124997,-3.435114503816794,21.267175572519083,-16.33587786259542,-9.325415466308593,0.6248866333007812,1.197100830078125,32.38167938931298,-63.20610687022901,-27.31297709923664,0.0
14.690000295639038,-9.962273107910155,1.5442600708007812,2.6695348510742187,-6.534351145038168,20.47328244274809,-15.32824427480916,-10.067617980957031,1.0127473022460938,0.36391865234375,33.9236641221374,-73.64885496183206,-28.763358778625953,0.0
14.700000524520874,-9.380482104492186,1.8363526733398436,2.636016027832031,-7.450381679389313,19.603053435114504,-13.969465648854962,-8.858546142578124,1.70467158203125,0.8667010009765624,14.473282442748092,-60.2442748091603,-29.17557251908397,0.0
14.710000276565552,-9.900023864746093,2.288856787109375,3.0238766967773434,-17.068702290076335,17.16030534351145,-11.664122137404581,-9.160215551757812,2.3918074584960936,0.6296750366210937,3.145038167938931,-61.25190839694657,-30.0,0.0
14.720000505447388,-8.966285217285156,0.7924807495117187,2.221819140625,-15.938931297709924,13.816793893129772,-7.145038167938932,-8.418013037109375,2.7365724975585937,0.6296750366210937,-9.98473282442748,-55.038167938931295,-29.61832061068702,0.0
14.730000495910645,-9.289502441406249,0.1867477294921875,2.712630480957031,-5.6183206106870225,22.458015267175572,-7.419847328244275,-8.664615808105468,2.2673089721679687,1.0702081420898437,-19.923664122137403,-49.6793893129771,-28.244274809160306,0.0
14.740000247955322,-9.107543115234375,-0.6105214233398437,1.7501614135742187,-0.07633587786259542,21.068702290076335,-9.694656488549619,-8.343792785644531,2.0566192260742184,1.2641384765625,-25.328244274809162,-49.221374045801525,-27.49618320610687,0.0
14.750000476837158,-9.315838659667968,-0.5913678100585937,1.848323681640625,5.541984732824427,25.206106870229007,-10.961832061068701,-9.011775048828124,1.2473790649414063,1.0271125122070313,-33.63358778625954,-44.82442748091603,-26.442748091603054,0.0
14.760000467300415,-10.27830772705078,1.43652099609375,2.664746447753906,0.549618320610687,24.977099236641223,-12.854961832061068,-10.084377392578125,0.5793968017578125,3.1076737548828124,-55.23664122137404,-27.84732824427481,-22.793893129770993,0.0
14.770000696182251,-9.117119921875,-0.430956298828125,2.0278888061523435,-6.580152671755725,20.763358778625953,-11.206106870229007,-9.90241806640625,-0.3806780639648437,2.6144682128906247,-45.38931297709924,-40.56488549618321,-21.022900763358777,0.0
14.780000686645508,-8.98304462890625,-0.8499415893554687,1.199495031738281,3.7251908396946565,24.564885496183205,-10.885496183206106,-11.54244620361328,-2.597708801269531,4.060566015625,-23.251908396946565,-49.083969465648856,-23.587786259541986,0.0
