timestamp,Thigh_L_Acc_X,Thigh_L_Acc_Y,Thigh_L_Acc_Z,Thigh_L_Gyr_X,Thigh_L_Gyr_Y,Thigh_L_Gyr_Z,Thigh_R_Acc_X,Thigh_R_Acc_Y,Thigh_R_Acc_Z,Thigh_R_Gyr_X,Thigh_R_Gyr_Y,Thigh_R_Gyr_Z,gpio_output
10.000000238418579,-11.104307299804686,0.51714755859375,2.798821740722656,-5.297709923664122,57.38931297709924,-9.541984732824428,-13.290213415527344,2.93050283203125,1.7405846069335937,2.5801526717557253,-2.595419847328244,30.763358778625953,0.0
10.010000705718994,-11.267113012695312,1.2952630981445312,3.153163586425781,-2.2595419847328246,59.80152671755725,-8.931297709923664,-13.778630554199218,2.7916391357421872,1.848323681640625,-9.725190839694656,0.7633587786259542,29.81679389312977,1.0
10.020000457763672,-10.900800158691405,2.0183119995117185,3.1794998046874996,-1.5877862595419847,60.99236641221374,-8.091603053435115,-12.72997022705078,2.779668127441406,1.1923124267578125,-11.648854961832061,-0.6259541984732825,29.083969465648856,1.0
10.030000686645508,-10.096348400878906,1.7429788085937499,2.5522189697265625,1.3740458015267176,63.16030534351145,-5.969465648854962,-12.299013928222655,3.411737365722656,0.43574470214843747,-16.595419847328245,0.8854961832061069,27.96946564885496,1.0
10.040000677108765,-9.363722692871093,1.216254443359375,2.3511060302734372,3.6946564885496183,68.22900763358778,-5.083969465648855,-9.399635717773437,3.239354846191406,-0.8475473876953125,-14.198473282442748,-4.916030534351145,27.557251908396946,1.0
10.050000667572021,-8.978256225585938,0.8667010009765624,2.1883003173828124,7.801526717557252,71.93893129770993,-5.740458015267175,-9.835380419921874,1.5035586425781249,0.2442085693359375,2.2595419847328246,-9.145038167938932,28.85496183206107,1.0
10.060000658035278,-9.6151138671875,1.7741034301757812,2.4013842651367185,9.84732824427481,75.45038167938931,-7.419847328244275,-10.067617980957031,2.2768857788085937,-0.6823474731445313,16.595419847328245,-19.404580152671755,25.49618320610687,1.0
10.070000410079956,-8.626308581542968,1.3048399047851562,2.2361843505859373,9.267175572519085,74.7175572519084,-6.916030534351145,-9.3086560546875,1.9656395629882812,-0.0718260498046875,2.6412213740458017,-15.16030534351145,18.99236641221374,1.0
10.080000638961792,-8.923189587402343,1.5610194824218748,3.057395520019531,10.320610687022901,77.78625954198473,-8.351145038167939,-9.100360510253905,1.6256629272460936,0.11252747802734374,-0.6412213740458015,-15.312977099236642,14.854961832061068,1.0
10.090000629425049,-8.84178673095703,1.9129671264648436,2.5067291381835934,8.564885496183207,78.12213740458016,-9.129770992366412,-8.927977990722656,1.618480322265625,-0.5506663818359374,-4.305343511450381,-15.32824427480916,10.854961832061068,1.0
10.100000619888306,-9.90241806640625,2.0446482177734375,3.4931402221679684,0.9618320610687023,75.86259541984732,-10.13740458015267,-10.084377392578125,-0.181959326171875,1.3670891479492187,1.3282442748091603,-14.641221374045802,8.16793893129771,1.0
10.110000610351562,-8.911218579101561,1.1252747802734375,3.0693665283203124,0.32061068702290074,73.92366412213741,-8.534351145038167,-7.5465236328125,2.0350714111328125,-0.6105214233398437,-9.587786259541986,-17.022900763358777,0.5648854961832062,1.0
10.120000839233398,-8.678981018066406,1.2976572998046874,2.9831752685546875,-0.061068702290076333,74.7175572519084,-8.977099236641221,-9.478644372558593,-1.5634136840820312,1.7262193969726563,-4.519083969465649,-14.290076335877863,-0.44274809160305345,1.0
10.130000591278076,-8.602366564941406,0.6751648681640625,2.8730419921875,-0.8854961832061069,71.96946564885496,-9.816793893129772,-6.880935571289062,-0.36631285400390623,0.6679822631835937,10.717557251908397,-29.16030534351145,-7.236641221374046,1.0
10.140000581741333,-9.674968908691406,0.5698199951171875,3.603273498535156,-1.9694656488549618,69.38931297709924,-10.702290076335878,-10.982203015136719,-5.307945080566406,4.450820886230469,24.198473282442748,-26.0,-11.450381679389313,1.0
10.15000057220459,-8.86812294921875,-0.24660277099609373,2.829946362304687,2.4427480916030535,68.0,-10.198473282442748,-8.963891015625,-3.2417490478515623,1.426944189453125,65.09923664122137,-53.19083969465649,-20.35114503816794,1.0
10.160000801086426,-9.490615380859374,0.3447650390625,4.292803576660156,5.358778625954199,69.3587786259542,-12.183206106870228,-6.9527616210937495,1.1228805786132812,-0.6009446166992187,47.099236641221374,-52.916030534351144,-32.94656488549618,1.0
10.170000553131104,-9.715670336914062,1.22583125,4.328716601562499,0.0916030534351145,64.93129770992367,-11.893129770992367,-8.367734802246094,0.5626373901367188,-0.0047884033203125,48.83969465648855,-52.67175572519084,-32.06106870229008,1.0
10.180000305175781,-10.888829150390624,1.7764976318359373,5.135562561035156,-6.1679389312977095,62.80916030534351,-12.946564885496183,-7.668627917480468,3.706224169921875,-1.7310078002929687,46.396946564885496,-52.99236641221374,-34.229007633587784,1.0
10.190000295639038,-9.14824454345703,0.8786720092773437,3.5146880371093747,-10.106870229007633,54.33587786259542,-9.877862595419847,-9.05965908203125,2.9640216552734375,-1.2976572998046874,42.213740458015266,-46.10687022900763,-29.297709923664122,1.0
10.200000286102295,-9.030928662109375,-0.6584054565429687,4.264073156738281,-4.564885496183206,57.74045801526717,-9.541984732824428,-8.621520178222656,3.9695863525390624,-2.020706201171875,42.67175572519084,-43.541984732824424,-29.541984732824428,1.0
10.21000051498413,-8.382100012207031,-0.7900865478515624,3.8043864379882812,2.4580152671755724,57.908396946564885,-10.01526717557252,-6.411672045898437,5.386953735351562,-3.0023288818359375,24.595419847328245,-33.83206106870229,-26.885496183206108,0.0
10.220000505447388,-9.112331518554686,-0.7565677246093749,3.708618371582031,4.33587786259542,56.396946564885496,-12.51908396946565,-11.056423266601563,0.44053310546874996,1.6208745239257811,41.786259541984734,-26.427480916030536,-16.137404580152673,0.0
10.230000495910645,-7.9463553100585935,-1.3120225097656248,2.9376854370117185,13.419847328244275,56.030534351145036,-15.312977099236642,-7.359775903320312,4.668693237304687,-2.2744915771484373,48.62595419847328,-38.38167938931298,-24.091603053435115,0.0
10.240000486373901,-9.246406811523437,0.9097966308593749,3.8235400512695312,14.50381679389313,55.29770992366412,-18.68702290076336,-7.824251025390624,3.3327287109375,-1.4532804077148436,29.31297709923664,-23.46564885496183,-14.977099236641221,0.0
10.250000715255737,-8.825027319335938,0.9720458740234375,3.1507693847656246,9.297709923664122,48.6412213740458,-19.00763358778626,-9.718064538574218,2.1308394775390624,-0.5746083984375,39.70992366412214,-29.893129770992367,-13.312977099236642,0.0
10.260000705718994,-9.528922607421874,0.852335791015625,3.0813375366210938,13.969465648854962,49.87786259541985,-18.259541984732824,-9.26316622314453,1.6735469604492186,0.8212111694335937,40.70229007633588,-26.290076335877863,-12.732824427480915,0.0
10.270000696182251,-9.706093530273437,1.0797849487304687,3.337517114257812,11.404580152671755,50.0763358778626,-17.740458015267176,-7.352593298339843,3.4763808105468748,-0.7924807495117187,37.465648854961835,-30.33587786259542,-13.770992366412214,0.0
10.280000686645508,-8.647856396484375,1.6352397338867186,2.5474305664062498,6.412213740458015,43.74045801526717,-16.9618320610687,-10.929530578613281,0.4429273071289062,1.1156979736328125,45.465648854961835,-27.206106870229007,-8.50381679389313,0.0
10.290000438690186,-10.01733974609375,1.637633935546875,3.423708374023437,2.030534351145038,45.32824427480916,-17.770992366412212,-8.772354882812499,3.1842882080078123,-0.59376201171875,53.969465648854964,-40.2442748091603,-13.221374045801527,0.0
10.3000009059906,-9.859322436523437,2.020706201171875,2.616862414550781,0.6106870229007634,43.48091603053435,-15.34351145038168,-9.275137231445312,2.559401574707031,0.5961562133789062,39.541984732824424,-26.3206106870229,-8.259541984732824,0.0
10.310000658035278,-8.513781103515624,1.5562310791015623,2.176329309082031,-4.809160305343512,39.70992366412214,-14.977099236641221,-10.548852514648438,1.6831237670898436,1.0797849487304687,45.267175572519086,-33.3587786259542,-8.549618320610687,0.0
10.320000648498535,-10.893617553710937,2.1811177124023438,2.8467057739257813,-4.1679389312977095,42.51908396946565,-16.15267175572519,-9.6917283203125,2.808398547363281,0.38307226562499996,45.282442748091604,-36.213740458015266,-12.335877862595419,0.0
10.330000638961792,-9.792284790039062,2.0733786376953125,2.310404602050781,-9.48091603053435,37.23664122137404,-12.977099236641221,-8.034940771484374,4.855440966796874,-0.08379705810546874,27.603053435114504,-28.53435114503817,-11.83206106870229,0.0
10.340000629425049,-8.346186987304687,1.608903515625,1.8363526733398436,-14.50381679389313,32.900763358778626,-10.458015267175572,-10.39322940673828,2.7940333374023436,1.0654197387695312,14.870229007633588,-20.229007633587788,-7.282442748091603,0.0
10.350000619888306,-9.315838659667968,0.7948749511718749,2.5713725830078125,-12.045801526717558,34.900763358778626,-11.19083969465649,-10.304643945312499,1.5418658691406248,2.051830822753906,17.587786259541986,-24.778625954198475,-8.748091603053435,0.0
10.360000848770142,-8.923189587402343,-0.12689268798828124,1.5275006591796874,-3.7709923664122136,33.74045801526717,-11.664122137404581,-9.478644372558593,1.7501614135742187,1.7645266235351562,19.00763358778626,-31.419847328244273,-13.022900763358779,0.0
10.37000060081482,-9.526528405761718,0.9026140258789062,2.1021090576171875,1.6488549618320612,35.12977099236641,-14.045801526717558,-9.246406811523437,3.0142998901367184,1.1516109985351561,10.366412213740459,-30.625954198473284,-13.801526717557252,0.0
10.380000829696655,-9.763554370117188,1.2641384765625,2.839523168945312,-0.5648854961832062,34.06106870229008,-14.335877862595419,-10.065223779296874,3.1866824096679687,1.139639990234375,-8.595419847328245,-22.99236641221374,-12.274809160305344,0.0
10.390000343322754,-9.399635717773437,1.6807295654296874,3.0502129150390624,-1.6793893129770991,30.82442748091603,-13.465648854961833,-9.363722692871093,2.6240450195312497,1.0031704956054688,-17.908396946564885,-22.65648854961832,-12.885496183206106,0.0
10.400000810623169,-9.749189160156249,1.6041151123046875,2.9927520751953125,-2.50381679389313,26.671755725190838,-12.381679389312977,-9.878476049804688,0.5410895751953124,1.8148048583984373,-13.618320610687023,-25.938931297709924,-14.427480916030534,0.0
10.410000562667847,-9.165003955078124,0.08379705810546874,1.9584569580078124,3.877862595419847,22.916030534351144,-9.053435114503817,-11.403582507324218,-0.9217676391601562,3.1028853515624997,-3.236641221374046,-26.229007633587788,-15.297709923664122,0.0
10.420000314712524,-9.849745629882811,-0.2059013427734375,2.104503259277344,13.038167938931299,27.786259541984734,-9.709923664122137,-9.993397729492187,0.2561795776367187,2.020706201171875,9.16030534351145,-38.778625954198475,-20.412213740458014,0.0
10.43000054359436,-10.35492218017578,1.0941501586914062,2.4588451049804685,14.061068702290076,28.580152671755727,-11.419847328244275,-9.129090930175781,1.458068811035156,1.2785036865234374,3.053435114503817,-39.404580152671755,-22.38167938931298,0.0
10.440000534057617,-8.422801440429687,-0.009576806640625,1.0702081420898437,12.65648854961832,23.84732824427481,-8.763358778625955,-7.9463553100585935,1.9225439331054686,1.4125789794921875,-9.419847328244275,-32.2442748091603,-21.083969465648856,0.0
10.450000286102295,-8.911218579101561,-0.12449848632812499,1.5346832641601562,14.641221374045802,29.954198473282442,-10.900763358778626,-9.792284790039062,0.35673604736328124,2.04943662109375,-5.358778625954199,-36.42748091603053,-22.412213740458014,0.0
10.46000051498413,-9.478644372558593,-0.1484405029296875,1.448492004394531,18.48854961832061,29.557251908396946,-14.702290076335878,-9.052476477050782,0.2705447875976562,2.31758720703125,0.916030534351145,-35.969465648854964,-25.435114503816795,0.0
10.470000505447388,-9.176974963378905,0.08140285644531249,1.3383587280273437,19.893129770992367,31.572519083969464,-15.450381679389313,-8.528146313476562,1.5729904907226562,0.8714894042968749,9.022900763358779,-47.80152671755725,-28.0,0.0
10.480000734329224,-9.121908325195312,0.5626373901367188,1.0558429321289062,19.51145038167939,31.374045801526716,-17.389312977099237,-9.399635717773437,1.2042834350585936,2.231395947265625,-4.580152671755725,-32.76335877862596,-24.48854961832061,0.0
10.490000486373901,-10.079588989257813,1.177947216796875,2.1068974609374997,10.67175572519084,32.12213740458015,-18.82442748091603,-10.134655627441406,0.258573779296875,2.346317626953125,-2.2748091603053435,-37.93893129770992,-24.549618320610687,0.0
10.500000476837158,-10.158597644042969,1.3862427612304686,2.0542250244140625,6.870229007633588,28.442748091603054,-17.72519083969466,-9.275137231445312,0.8020575561523438,1.9201497314453124,1.8625954198473282,-41.48091603053435,-26.900763358778626,0.0
10.510000705718994,-9.622296472167967,1.158793603515625,1.905784521484375,1.083969465648855,24.35114503816794,-14.900763358778626,-8.762778076171875,1.7932570434570312,1.8555062866210936,-3.8473282442748094,-36.61068702290076,-26.82442748091603,0.0
10.520000696182251,-9.86411083984375,1.1851298217773436,2.0566192260742184,-3.6946564885496183,23.022900763358777,-12.916030534351146,-9.248801013183593,1.8148048583984373,2.288856787109375,-12.732824427480915,-31.633587786259543,-23.862595419847327,0.0
10.530000686645508,-10.36210478515625,1.2665326782226562,2.2744915771484373,-4.198473282442748,24.15267175572519,-12.625954198473282,-9.572018237304688,0.181959326171875,2.786850732421875,-10.595419847328245,-31.282442748091604,-22.0,0.0
10.540000677108765,-10.280701928710936,1.2641384765625,2.233790148925781,-4.748091603053435,22.870229007633586,-12.961832061068701,-10.570400329589843,-1.3359645263671873,3.2609026611328122,4.778625954198473,-35.282442748091604,-22.0,0.0
10.550000667572021,-9.22485899658203,0.8643067993164062,1.350329736328125,-8.091603053435115,18.396946564885496,-11.679389312977099,-8.786720092773438,0.4261678955078125,2.0925322509765625,12.534351145038167,-39.61832061068702,-23.587786259541986,0.0
10.5600004196167,-9.399635717773437,0.8451531860351562,1.8555062866210936,-14.076335877862595,18.442748091603054,-11.893129770992367,-7.352593298339843,1.7166425903320313,1.2593500732421874,3.5877862595419847,-34.30534351145038,-22.946564885496183,0.0
10.570000648498535,-9.651026892089844,0.9313444458007812,2.365471240234375,-19.0381679389313,17.46564885496183,-12.763358778625955,-8.954314208984375,0.6272808349609375,2.0446482177734375,-1.450381679389313,-30.900763358778626,-21.099236641221374,0.0
10.580000638961792,-8.74601866455078,-0.2825157958984375,1.697488977050781,-16.946564885496183,14.259541984732824,-13.526717557251908,-9.81862100830078,-0.7517793212890624,2.597708801269531,4.213740458015267,-29.603053435114504,-20.625954198473284,0.0
10.590000629425049,-10.177751257324218,0.06703764648437499,2.2481553588867187,-10.83969465648855,15.557251908396946,-16.916030534351144,-10.338162768554687,-1.9752163696289062,3.277662072753906,19.358778625954198,-33.31297709923664,-21.17557251908397,0.0
10.600000619888306,-9.976638317871092,-0.6200982299804687,1.9728221679687499,-2.1526717557251906,15.114503816793894,-17.770992366412212,-8.975862023925782,0.22266075439453123,2.602497204589844,26.549618320610687,-39.00763358778626,-24.35114503816794,0.0
10.610000610351562,-8.453926062011718,-0.21308394775390624,1.2737152832031249,6.656488549618321,13.465648854961833,-18.82442748091603,-8.379705810546875,1.68551796875,2.061407629394531,15.664122137404581,-29.419847328244273,-24.3206106870229,0.0
10.620000839233398,-8.78432589111328,-1.0390835205078124,1.2306196533203124,12.305343511450381,15.572519083969466,-19.84732824427481,-8.36294639892578,0.6919242797851562,2.473210314941406,7.00763358778626,-25.14503816793893,-22.427480916030536,0.0
10.630000591278076,-8.95670841064453,-4.6255976074218745,-0.38786066894531246,74.29007633587786,49.847328244274806,-20.80916030534351,-9.81862100830078,-0.469263525390625,3.27526787109375,17.52671755725191,-25.541984732824428,-23.404580152671755,0.0
10.640000820159912,-10.512939489746094,0.603338818359375,0.8667010009765624,76.79389312977099,54.274809160305345,-35.70992366412214,-9.909600671386718,-0.7206546997070312,3.347093920898437,30.35114503816794,-27.923664122137403,-26.885496183206108,0.0
10.65000057220459,-8.015787158203125,-2.461239306640625,-2.8012159423828122,65.87786259541984,48.18320610687023,-34.0,-8.971073620605468,1.2808978881835937,3.0980969482421874,30.3206106870229,-30.091603053435115,-25.282442748091604,0.0
10.660000801086426,-7.9104422851562495,-1.0438719238281249,-1.5346832641601562,84.70229007633588,66.38167938931298,-30.198473282442748,-7.201758593749999,2.080561242675781,2.2266075439453124,23.709923664122137,-30.778625954198475,-27.587786259541986,0.0
10.670000553131104,-12.299013928222655,4.575319372558593,2.7054478759765623,49.908396946564885,62.76335877862596,-39.17557251908397,-7.850587243652344,2.906560815429687,1.9129671264648436,13.557251908396946,-25.87786259541985,-26.259541984732824,0.0
10.680000305175781,-9.399635717773437,-0.2920926025390625,1.1540052001953125,35.89312977099237,51.86259541984733,-30.061068702290076,-8.657433203124999,2.0757728393554684,2.0278888061523435,3.435114503816794,-19.587786259541986,-21.404580152671755,0.0
10.690000295639038,-9.435548742675781,1.120486376953125,1.3383587280273437,66.99236641221374,63.16030534351145,-24.564885496183205,-8.090007409667969,1.3910311645507811,2.384624853515625,-1.0534351145038168,-14.320610687022901,-21.34351145038168,0.0
10.700000524520874,-7.005434057617187,-0.9624690673828125,0.9074024291992187,60.534351145038165,54.93129770992366,-26.732824427480917,-7.848193041992187,1.0295067138671874,2.6312276245117188,-1.8015267175572518,-13.083969465648854,-20.53435114503817,0.0
10.710000276565552,-10.460267053222656,2.4660277099609376,1.7381904052734374,73.66412213740458,65.70992366412214,-29.84732824427481,-7.8912886718749995,0.3184288208007812,2.6312276245117188,-0.7633587786259542,-10.793893129770993,-19.46564885496183,0.0
10.720000505447388,-12.344503759765624,4.76924970703125,3.6631285400390623,31.099236641221374,50.51908396946565,-33.847328244274806,-8.154650854492187,0.5267243652343749,2.6336218261718747,1.3740458015267176,-10.977099236641221,-18.30534351145038,0.0
10.730000257492065,-12.818555688476561,6.414066247558593,4.967968444824218,-3.6030534351145036,36.68702290076336,-25.893129770992367,-7.706935144042968,1.3910311645507811,1.9728221679687499,-1.633587786259542,-9.740458015267176,-18.015267175572518,0.0
10.740000486373901,-12.212822668457031,5.312733483886719,4.733336682128906,-35.465648854961835,20.396946564885496,-14.15267175572519,-6.969521032714844,2.463633508300781,1.2832920898437499,-8.396946564885496,-5.633587786259542,-15.374045801526718,0.0
10.750000715255737,-10.828974108886719,2.310404602050781,3.1100679565429687,-43.770992366412216,10.67175572519084,-6.305343511450381,-5.449202978515625,3.7110125732421873,0.4955997436523437,-22.35114503816794,4.015267175572519,-12.534351145038167,0.0
10.760000705718994,-10.970232006835937,0.9074024291992187,3.5434184570312497,-44.68702290076336,6.534351145038168,-6.0458015267175576,-7.4794859863281244,1.4221557861328125,1.3072341064453123,-20.412213740458014,7.00763358778626,-5.465648854961832,0.0
10.77000093460083,-10.740388647460938,-0.4836287353515625,3.749319799804687,-36.61068702290076,-2.351145038167939,-5.8320610687022905,-7.340622290039062,1.455674609375,1.3096283081054687,-21.17557251908397,13.19083969465649,-2.381679389312977,0.0
10.780000686645508,-11.487379565429686,-0.51714755859375,3.9408559326171875,-34.80916030534351,-12.534351145038167,-3.145038167938931,-7.153874560546875,2.2170307373046874,1.3120225097656248,-26.15267175572519,15.17557251908397,-0.549618320610687,0.0
10.790000438690186,-11.142614526367186,-0.37828386230468747,4.551377355957031,-18.717557251908396,-14.946564885496183,-0.183206106870229,-7.651868505859374,0.8738836059570312,1.905784521484375,-38.79389312977099,22.427480916030536,4.9465648854961835,0.0
10.800000429153442,-12.236764685058594,1.0773907470703123,4.893748193359374,-11.038167938931299,-21.83206106870229,2.0610687022900764,-8.813056311035156,-0.16759411621093748,1.5538368774414062,-40.534351145038165,24.213740458015266,10.076335877862595,0.0
10.810000658035278,-11.982979309082031,1.4867992309570313,5.652710119628906,-0.2748091603053435,-30.641221374045802,7.038167938931298,-8.365340600585936,1.3192051147460937,0.35194764404296874,-38.47328244274809,27.755725190839694,11.938931297709924,0.0
10.820000410079956,-12.023680737304687,1.5777788940429687,5.585672473144531,13.465648854961833,-39.7557251908397,13.48091603053435,-10.000580334472655,0.9121908325195311,1.0271125122070313,-36.80916030534351,38.33587786259542,16.793893129770993,0.0
10.830000638961792,-11.812990991210937,0.6392518432617187,5.197811804199218,31.053435114503817,-51.038167938931295,20.229007633587788,-12.550405102539061,-0.031124621582031248,2.50912333984375,-17.404580152671755,28.076335877862597,19.19083969465649,0.0
10.840000629425049,-12.172121240234373,0.33039982910156246,6.2009822998046875,58.10687022900763,-60.51908396946565,28.198473282442748,-11.92551846923828,1.7214309936523438,2.3487118286132813,-15.145038167938932,25.0381679389313,14.335877862595419,0.0
10.850000381469727,-11.664550488281249,-0.7757213378906249,8.588001354980468,94.70229007633588,-71.72519083969466,37.06870229007634,-11.288660827636718,2.454056701660156,1.3862427612304686,-31.755725190839694,31.64885496183206,11.435114503816793,0.0
10.860000848770142,-15.282189196777344,4.666299035644531,11.604695446777344,124.70229007633588,-83.19083969465649,43.86259541984733,-14.092270971679687,-1.1731588134765625,2.023100402832031,-27.221374045801525,32.778625954198475,12.641221374045802,0.0
10.87000060081482,-16.965312963867188,9.284714038085937,9.670180505371093,94.68702290076335,-112.91603053435115,49.404580152671755,-11.018116040039061,0.9528922607421875,0.07900865478515624,-19.00763358778626,26.9618320610687,6.076335877862595,0.0
10.880000591278076,-13.967772485351562,5.085284326171875,6.888118176269531,34.44274809160305,-151.5114503816794,53.23664122137404,-10.726023437499999,1.3575123413085937,0.6296750366210937,-21.297709923664122,34.778625954198475,9.129770992366412,0.0
10.890000581741333,-15.332467431640625,3.4859576171874997,6.081272216796875,4.122137404580153,-166.87022900763358,54.3206106870229,-11.540052001953125,-0.7565677246093749,0.8762778076171874,-9.053435114503817,28.33587786259542,10.65648854961832,0.0
10.900000810623169,-13.716381311035155,-0.6153098266601562,3.912125512695312,-16.16793893129771,-182.94656488549617,58.778625954198475,-7.5537062377929685,1.9967641845703124,-0.201112939453125,-7.129770992366412,23.6793893129771,4.259541984732825,0.0
10.910000562667847,-12.30859073486328,-3.907337109375,1.4963760375976562,-10.106870229007633,-182.65648854961833,63.9236641221374,-9.255983618164063,-0.32082302246093747,1.3814543579101561,-9.49618320610687,34.47328244274809,11.007633587786259,0.0
10.920000553131104,-12.088324182128906,-4.8123453369140625,1.9393033447265624,2.9923664122137406,-179.6946564885496,67.48091603053435,-8.947131604003905,-0.08140285644531249,1.0127473022460938,-0.5801526717557252,23.129770992366414,7.587786259541985,0.0
10.93000054359436,-12.04044014892578,-5.372588525390625,1.6711527587890624,35.083969465648856,-165.6946564885496,71.64885496183206,-7.146691955566406,0.9026140258789062,0.033518823242187495,-8.702290076335878,26.061068702290076,6.0,0.0
10.940000534057617,-11.63821427001953,-5.4779333984375,-1.3000515014648437,38.18320610687023,-158.19847328244273,68.27480916030534,-11.183315954589844,-2.0542250244140625,1.5466542724609373,-7.557251908396947,29.541984732824428,11.435114503816793,0.0
10.950000524520874,-12.318167541503906,-3.821145849609375,-2.789244934082031,26.519083969465647,-148.7175572519084,59.31297709923664,-10.374075793457031,-0.5985504150390625,0.7996633544921875,-5.251908396946565,22.625954198473284,5.755725190839694,0.0
10.96000051498413,-10.541669909667968,-5.868188269042968,-3.84987626953125,13.099236641221374,-139.75572519083968,52.82442748091603,-9.119514123535156,1.5538368774414062,0.6631938598632812,-23.435114503816795,27.053435114503817,4.9465648854961835,0.0
10.970000505447388,-9.976638317871092,-6.813897924804687,-2.6288334228515624,14.01526717557252,-127.6030534351145,42.83969465648855,-12.828132495117186,-1.7884686401367187,2.3032219970703123,-25.786259541984734,31.480916030534353,10.442748091603054,0.0
10.980000495910645,-10.812214697265624,-5.293579870605469,-0.33039982910156246,18.564885496183205,-118.62595419847328,31.84732824427481,-12.023680737304687,-1.5203180541992187,1.0558429321289062,-20.16793893129771,22.03053435114504,6.396946564885496,0.0
10.990000486373901,-11.188104357910156,-1.458068811035156,0.1867477294921875,6.549618320610687,-117.32824427480917,23.389312977099237,-10.924742175292968,0.016759411621093748,0.40462008056640625,-28.763358778625953,20.47328244274809,7.8320610687022905,0.0
11.000000238418579,-12.607865942382812,3.679887951660156,-0.21068974609375,-16.977099236641223,-115.38931297709924,17.114503816793892,-10.192116467285155,0.7134720947265625,-0.33518823242187495,-41.70992366412214,22.931297709923665,10.534351145038167,0.0
11.010000944137573,-11.966219897460936,3.8283284545898435,-0.5434837768554687,-40.99236641221374,-120.3206106870229,21.938931297709924,-10.876858142089842,-0.9792284790039062,0.28969840087890625,-42.01526717557252,27.114503816793892,16.412213740458014,0.0
11.02000093460083,-15.179238525390623,6.983886242675781,3.2321722412109373,-57.19083969465649,-113.6793893129771,27.740458015267176,-11.506533178710937,-2.492363928222656,0.22505495605468748,-21.404580152671755,18.045801526717558,17.022900763358777,0.0
11.030000686645508,-12.39238779296875,2.770091320800781,1.22583125,-93.17557251908397,-128.6412213740458,33.954198473282446,-10.062829577636718,-0.8762778076171874,-0.3399766357421875,-17.541984732824428,19.603053435114504,14.82442748091603,0.0
11.040000677108765,-12.466608044433594,1.6065093139648436,1.608903515625,-103.86259541984732,-123.72519083969466,34.82442748091603,-9.53131680908203,-0.6392518432617187,-0.9265560424804687,-11.450381679389313,23.541984732824428,14.198473282442748,0.0
11.050000667572021,-9.967061511230469,-1.6352397338867186,-0.41898529052734373,-113.66412213740458,-130.8091603053435,35.89312977099237,-9.054870678710937,-0.29448680419921874,-0.25139117431640623,-10.870229007633588,31.862595419847327,14.931297709923664,0.0
11.0600004196167,-9.775525378417969,-2.4205378784179685,0.4381389038085937,-97.8473282442748,-114.85496183206106,34.0763358778626,-9.540893615722656,-1.0893617553710937,-0.34715924072265625,1.9694656488549618,30.33587786259542,15.129770992366412,0.0
11.070000648498535,-7.972691528320312,-4.620809204101562,-1.4867992309570313,-87.83206106870229,-115.55725190839695,32.44274809160305,-9.165003955078124,0.009576806640625,0.22026655273437498,10.778625954198473,32.87022900763359,14.83969465648855,0.0
11.080000638961792,-3.806780639648437,-6.87614716796875,-1.5275006591796874,-57.19083969465649,-95.83206106870229,32.656488549618324,-9.184157568359375,0.2753331909179687,0.49320554199218747,14.992366412213741,34.900763358778626,17.587786259541986,0.0
11.090000629425049,-7.326257080078125,-2.7557261108398436,0.45010991210937495,-32.58015267175573,-69.22137404580153,22.16793893129771,-9.473855969238281,0.1388636962890625,0.9050082275390624,21.053435114503817,35.41984732824427,18.977099236641223,0.0
11.100000619888306,-9.595960253906249,1.5705962890624998,2.051830822753906,-48.97709923664122,-67.96946564885496,13.770992366412214,-10.046070166015625,0.7948749511718749,0.9145850341796874,25.114503816793892,32.3206106870229,20.9618320610687,0.0
11.110000610351562,-6.272808349609375,-0.6727706665039062,1.0749965454101562,-55.52671755725191,-73.58778625954199,16.946564885496183,-10.149020837402343,1.2114660400390624,0.7613561279296874,25.786259541984734,29.83206106870229,22.580152671755727,0.0
11.12000036239624,-8.781931689453124,2.9951462768554684,3.6343981201171873,-56.18320610687023,-62.10687022900763,15.19083969465649,-9.95987890625,0.9744400756835937,0.70868369140625,25.755725190839694,29.923664122137403,23.572519083969464,0.0
11.130000352859497,-6.48589229736328,0.6296750366210937,2.5570073730468748,-67.22137404580153,-72.77862595419847,18.091603053435115,-9.9981861328125,1.0749965454101562,0.5027823486328125,27.69465648854962,27.908396946564885,24.702290076335878,0.0
11.140000820159912,-3.9624037475585934,-2.5857377929687497,3.0909143432617188,-55.45038167938932,-66.35114503816794,22.35114503816794,-9.777919580078125,0.411802685546875,0.4429273071289062,27.480916030534353,26.946564885496183,26.213740458015266,0.0
11.15000033378601,-2.0278888061523435,-5.3390697021484375,2.6384102294921874,-26.702290076335878,-49.87786259541985,17.61832061068702,-9.382876306152344,-0.12210428466796874,0.7015010864257812,31.61832061068702,28.763358778625953,25.022900763358777,0.0
11.160000562667847,-4.774038110351563,-2.2457611572265623,5.853823059082031,-17.587786259541986,-37.93893129770992,1.5877862595419847,-9.521740002441407,-0.8499415893554687,1.0558429321289062,36.916030534351144,28.015267175572518,23.84732824427481,0.0
11.170000553131104,-3.6272155151367187,-3.3973721557617185,5.252878442382812,-11.19083969465649,-35.17557251908397,-4.091603053435114,-9.548076220703125,-0.7613561279296874,1.2378022583007813,37.64885496183206,25.740458015267176,22.458015267175572,0.0
11.18000054359436,-3.5434184570312497,-2.6886884643554687,5.006275671386718,3.786259541984733,-22.18320610687023,-8.595419847328245,-9.504980590820312,-0.8738836059570312,1.4987702392578124,38.916030534351144,24.53435114503817,18.9618320610687,0.0
11.190000534057617,-4.594472985839843,-0.7398083129882812,5.6574985229492185,16.30534351145038,-9.572519083969466,-11.236641221374045,-9.437942944335937,-0.7254431030273437,1.678335363769531,36.2442748091603,22.061068702290076,16.870229007633586,0.0
11.200000524520874,-5.604826086425781,1.8028338500976562,6.823474731445312,19.236641221374047,-2.2595419847328246,-12.045801526717558,-7.999027746582031,0.6153098266601562,0.5410895751953124,23.221374045801525,20.82442748091603,13.709923664122137,0.0
11.21000051498413,-4.742913488769531,1.6208745239257811,6.177040283203125,19.96946564885496,-0.1984732824427481,-8.396946564885496,-8.353369592285155,-0.22505495605468748,0.9648632690429687,17.206106870229007,23.14503816793893,14.610687022900763,0.0
11.220000267028809,-5.724536169433593,3.0310593017578125,6.861781958007812,13.572519083969466,1.3282442748091603,-7.343511450381679,-8.508992700195313,2.1212626708984375,0.46686932373046874,8.488549618320612,24.65648854961832,12.778625954198473,0.0
11.230000495910645,-5.324704492187499,3.3494881225585935,6.124367846679687,7.6183206106870225,2.4427480916030535,-3.648854961832061,-8.585607153320312,2.0781670410156248,0.6536170532226562,-16.47328244274809,35.16030534351145,15.236641221374045,0.0
11.240000486373901,-4.970362646484375,2.817975354003906,5.777208605957031,-3.7404580152671754,2.0763358778625953,-0.732824427480916,-7.690175732421874,5.499481213378906,-2.3415292236328122,-29.923664122137403,36.3206106870229,16.53435114503817,0.0
11.250000238418579,-6.260837341308593,2.9975404785156248,6.148309863281249,-12.01526717557252,3.6793893129770994,1.5877862595419847,-10.79545528564453,-1.2737152832031249,2.4492682983398435,-38.900763358778626,53.083969465648856,32.229007633587784,0.0
11.260000705718994,-5.178658190917968,1.2904746948242187,5.456385583496093,-13.908396946564885,4.99236641221374,3.66412213740458,-8.877699755859375,1.6927005737304686,0.24899697265624998,-40.0763358778626,45.12977099236641,26.366412213740457,0.0
11.270000696182251,-5.80354482421875,0.9241618408203125,5.480327600097656,-11.587786259541986,8.854961832061068,8.183206106870228,-11.317391247558593,-2.114080065917969,3.0526071166992184,-40.29007633587786,49.12977099236641,32.76335877862596,0.0
11.280001163482666,-3.8379052612304685,-2.1356278808593747,5.284003063964843,6.870229007633588,15.740458015267176,12.717557251908397,-10.963049401855468,0.24181436767578124,0.5865794067382812,-33.41984732824427,36.091603053435115,24.931297709923665,0.0
11.290000438690186,-5.193023400878906,-0.6440402465820312,7.194575988769531,29.083969465648856,25.572519083969464,14.061068702290076,-11.137826123046874,-1.707065783691406,3.066972326660156,-42.152671755725194,42.54961832061068,27.893129770992367,0.0
11.300000667572021,-6.272808349609375,-0.6272808349609375,7.371746911621093,40.030534351145036,31.755725190839694,16.244274809160306,-11.355698474121093,-3.2154128295898436,1.4173673828125,-19.893129770992367,31.66412213740458,25.221374045801525,0.0
11.3100004196167,-7.860164050292968,1.1659762084960936,7.651868505859374,50.82442748091603,35.11450381679389,19.69465648854962,-11.164162341308593,-1.388636962890625,0.45010991210937495,-20.900763358778626,21.83206106870229,22.0,0.0
11.320000648498535,-9.629479077148437,2.829946362304687,6.988674645996094,48.19847328244275,36.16793893129771,29.282442748091604,-11.245565197753905,-1.2378022583007813,0.8930372192382812,-25.053435114503817,24.946564885496183,22.16793893129771,0.0
11.330000400543213,-10.398017810058594,1.0103531005859374,6.411672045898437,41.404580152671755,40.30534351145038,36.534351145038165,-13.670891479492187,-3.6918589599609373,1.7477672119140624,-1.282442748091603,15.84732824427481,23.16030534351145,0.0
11.340000629425049,-10.991779821777342,-0.1484405029296875,8.327033374023436,34.152671755725194,42.01526717557252,29.81679389312977,-11.774683764648437,-0.055066638183593745,-0.7661445312499999,-2.2748091603053435,0.3816793893129771,13.053435114503817,0.0
11.350000381469727,-11.109095703125,-0.10773907470703124,9.016563452148437,27.480916030534353,35.80152671755725,21.51145038167939,-10.551246716308594,1.2378022583007813,-1.7717092285156248,-17.81679389312977,-3.282442748091603,10.732824427480915,0.0
11.360000848770142,-10.249577307128906,0.033518823242187495,6.998251452636718,19.64885496183206,38.30534351145038,16.702290076335878,-9.327809667968749,2.398990063476562,-2.310404602050781,-30.35114503816794,-4.351145038167939,10.030534351145038,0.0
11.37000036239624,-9.299079248046874,0.507570751953125,4.189852905273438,2.213740458015267,37.83206106870229,9.17557251908397,-10.13226142578125,2.9759926635742184,-2.3678654418945313,-47.05343511450382,2.885496183206107,11.48091603053435,0.0
11.380000829696655,-7.769184387207031,-1.0079588989257813,1.7573440185546874,-6.9465648854961835,38.58015267175573,5.282442748091603,-10.000580334472655,4.5585599609375,-4.311957189941406,-63.221374045801525,8.641221374045802,10.946564885496183,0.0
11.390000343322754,-7.711723547363281,-2.4349030883789062,2.205059729003906,-10.916030534351146,44.44274809160305,-3.2519083969465647,-13.141772912597656,0.7565677246093749,0.5339069702148437,-54.82442748091603,19.46564885496183,16.137404580152673,0.0
11.40000057220459,-9.418789331054686,-2.1787235107421874,2.703053674316406,-5.3893129770992365,50.61068702290076,-13.221374045801527,-13.359645263671874,2.1739351074218747,-0.6967126831054687,-32.68702290076336,10.67175572519084,13.694656488549619,0.0
11.410000562667847,-10.453084448242187,-0.28969840087890625,1.7908628417968748,-2.030534351145038,55.9236641221374,-18.12213740458015,-14.336479541015624,1.6065093139648436,1.177947216796875,-31.31297709923664,16.396946564885496,10.641221374045802,0.0
11.420000314712524,-10.682927807617187,0.258573779296875,2.1787235107421874,1.5725190839694656,62.36641221374046,-18.625954198473284,-13.508085766601562,4.790797521972656,-1.3048399047851562,-33.603053435114504,6.320610687022901,6.809160305343512,0.0
11.43000054359436,-11.853692419433592,2.6048914062499997,2.3918074584960936,-0.5343511450381679,67.86259541984732,-16.83969465648855,-13.881581225585936,4.458003491210937,-0.316034619140625,-45.14503816793893,15.572519083969466,9.068702290076336,0.0
11.440000534057617,-11.73398233642578,2.492363928222656,2.43250888671875,-5.9541984732824424,68.38167938931298,-11.908396946564885,-13.47696114501953,4.218583325195312,-0.0047884033203125,-43.404580152671755,13.84732824427481,12.885496183206106,0.0
11.450000524520874,-11.343727465820312,1.4891934326171874,2.3630770385742186,-3.572519083969466,71.48091603053435,-6.931297709923665,-15.686809277343748,1.0702081420898437,3.5913024902343746,-18.137404580152673,10.335877862595419,22.396946564885496,0.0
11.46000051498413,-11.058817468261719,1.3623007446289062,2.3151930053710936,-1.6488549618320612,73.3587786259542,-5.7251908396946565,-10.982203015136719,3.1100679565429687,-0.4525041137695312,-10.412213740458014,-7.603053435114504,17.450381679389313,0.0
11.470000505447388,-11.528080993652344,2.4588451049804685,2.221819140625,-7.511450381679389,70.85496183206106,-4.33587786259542,-12.186486450195313,2.817975354003906,2.31758720703125,-4.870229007633588,-4.549618320610687,20.061068702290076,0.0
11.480000495910645,-10.730811840820312,1.3096283081054687,1.8555062866210936,-6.702290076335878,71.57251908396947,-0.5038167938931297,-11.528080993652344,1.7573440185546874,0.7924807495117187,7.435114503816794,-14.534351145038167,17.61832061068702,0.0
11.490000486373901,-10.560823522949217,1.608903515625,2.4205378784179685,-6.656488549618321,74.54961832061069,-1.6030534351145038,-10.263942517089843,1.2880804931640624,1.8052280517578123,8.320610687022901,-10.0,16.595419847328245,0.0
11.500000476837158,-9.516951599121093,1.2689268798828124,1.8770541015625,-5.175572519083969,76.53435114503817,-0.5343511450381679,-8.710105639648438,2.051830822753906,0.354341845703125,14.061068702290076,-20.48854961832061,12.16793893129771,0.0
11.510000705718994,-9.143456140136719,1.218648645019531,2.2457611572265623,-4.259541984732825,79.31297709923665,-1.3893129770992367,-8.86094034423828,2.3056161987304686,0.5267243652343749,15.618320610687023,-19.755725190839694,10.549618320610687,0.0
11.520000696182251,-9.208099584960937,0.86191259765625,2.6216508178710938,-1.4961832061068703,80.8854961832061,-2.7938931297709924,-8.810662109374999,1.8028338500976562,0.6679822631835937,13.98473282442748,-20.900763358778626,8.442748091603054,0.0
11.530000686645508,-8.360552197265624,0.36391865234375,2.3918074584960936,1.6793893129770991,82.80916030534351,-4.473282442748092,-8.643067993164061,1.2689268798828124,0.8738836059570312,15.129770992366412,-22.106870229007633,4.931297709923665,0.0
11.540000438690186,-8.717288244628906,0.6009446166992187,3.0789433349609374,2.2900763358778624,82.18320610687023,-7.969465648854962,-8.99501563720703,0.6536170532226562,1.5179238525390624,18.610687022900763,-22.3206106870229,2.16793893129771,0.0
11.550000667572021,-7.618349682617187,-0.5913678100585937,2.710236279296875,7.4961832061068705,80.41221374045801,-8.13740458015267,-7.4028715332031245,2.3726538452148436,0.3064578125,12.091603053435115,-25.297709923664122,-4.106870229007634,0.0
11.5600004196167,-8.09479581298828,-0.699106884765625,3.4261025756835934,15.633587786259541,81.1145038167939,-11.557251908396946,-8.724470849609375,0.8954314208984374,2.4205378784179685,10.305343511450381,-24.091603053435115,-5.267175572519084,0.0
11.570000648498535,-8.992621435546875,0.16759411621093748,4.115632653808594,21.328244274809162,78.91603053435115,-15.053435114503817,-8.137891442871092,-1.3168109130859373,2.4564509033203126,17.404580152671755,-25.69465648854962,-6.9465648854961835,0.0
11.580000400543213,-8.322244970703125,-0.48123453369140623,3.651157531738281,28.366412213740457,75.64885496183206,-15.86259541984733,-7.436390356445312,0.040701428222656245,0.74699091796875,30.80916030534351,-36.045801526717554,-11.98473282442748,0.0
11.590000629425049,-8.322244970703125,0.5458779785156249,3.4452561889648434,32.94656488549618,72.85496183206106,-18.290076335877863,-6.189011291503906,1.8004396484374998,-1.956062756347656,32.0,-41.11450381679389,-16.946564885496183,0.0
11.600000381469727,-10.220846887207031,1.5753846923828123,4.431667272949219,28.18320610687023,69.81679389312977,-19.450381679389313,-6.679822631835937,2.360682836914062,-1.5753846923828123,25.893129770992367,-31.068702290076335,-17.00763358778626,0.0
11.610000610351562,-9.70369932861328,1.2928688964843749,4.170699291992188,21.603053435114504,63.81679389312977,-18.916030534351144,-6.919242797851562,2.8467057739257813,-3.277662072753906,18.763358778625953,-28.244274809160306,-16.16793893129771,0.0
11.620001077651978,-9.739612353515625,0.8762778076171874,4.548983154296875,20.83969465648855,61.31297709923664,-18.18320610687023,-8.748412866210938,-0.34237083740234375,0.22266075439453123,28.870229007633586,-22.12213740458015,-11.770992366412214,0.0
11.630000352859497,-9.7683427734375,0.181959326171875,4.434061474609375,19.587786259541986,57.9236641221374,-18.549618320610687,-7.592013464355468,2.3870190551757813,-1.2018892333984375,47.343511450381676,-32.33587786259542,-15.34351145038168,0.0
11.640000820159912,-10.153809240722655,0.7326257080078125,4.572925170898437,17.572519083969464,54.83969465648855,-18.595419847328245,-8.044517578125,1.8411410766601561,0.19871873779296872,38.44274809160305,-24.85496183206107,-14.549618320610687,0.0
11.65000057220459,-9.088389501953124,0.9337386474609375,4.7381250854492185,13.083969465648854,49.93893129770992,-18.702290076335878,-8.145074047851562,3.0837317382812497,-1.1659762084960936,36.25954198473283,-26.671755725190838,-14.122137404580153,0.0
11.660000801086426,-10.457872851562499,1.3551181396484375,4.814739538574218,10.610687022900763,47.7557251908397,-19.404580152671755,-10.953472595214842,0.13646949462890623,0.47644613037109373,49.343511450381676,-28.198473282442748,-9.86259541984733,0.0
11.670000553131104,-9.713276135253906,0.9361328491210937,4.355052819824219,13.618320610687023,45.16030534351145,-19.404580152671755,-7.175422375488281,4.225765930175781,-1.5921441040039062,53.57251908396947,-38.2442748091603,-15.618320610687023,0.0
11.680000305175781,-9.181763366699219,1.8004396484374998,4.280832568359375,12.763358778625955,44.06106870229008,-19.221374045801525,-8.453926062011718,3.478775012207031,-0.9959878906249999,36.656488549618324,-24.50381679389313,-10.50381679389313,0.0
11.690000534057617,-7.970297326660156,0.8451531860351562,2.6767174560546874,4.549618320610687,36.12213740458015,-17.450381679389313,-9.514557397460937,1.6807295654296874,0.55545478515625,46.10687022900763,-30.015267175572518,-8.50381679389313,0.0
11.700000286102295,-8.073247998046874,0.7661445312499999,1.6735469604492186,8.625954198473282,36.0763358778626,-16.427480916030536,-10.39322940673828,0.5913678100585937,3.3782185424804685,55.465648854961835,-28.80916030534351,-8.549618320610687,0.0
11.71000051498413,-7.4699091796875,0.47884033203125,1.4628572143554686,9.923664122137405,37.06870229007634,-16.50381679389313,-8.664615808105468,3.289633081054687,-1.1755530151367186,56.44274809160305,-37.847328244274806,-13.358778625954198,0.0
11.720000505447388,-10.307038146972655,2.020706201171875,2.2385785522460937,7.175572519083969,42.458015267175576,-18.18320610687023,-11.75313594970703,-0.25139117431640623,2.528276953125,60.12213740458015,-31.81679389312977,-7.358778625954199,0.0
11.730000257492065,-8.681375219726561,1.889025109863281,1.5466542724609373,6.213740458015267,40.13740458015267,-17.83206106870229,-8.647856396484375,3.821145849609375,-0.6081272216796875,59.20610687022901,-46.10687022900763,-15.099236641221374,0.0
11.740000247955322,-11.145008728027342,3.0837317382812497,2.674323254394531,-2.595419847328244,43.55725190839695,-17.893129770992367,-11.156979736328124,1.5897499023437498,1.5490484741210937,42.93129770992366,-29.984732824427482,-8.198473282442748,0.0
11.750000715255737,-9.150638745117186,1.6639701538085936,1.5298948608398437,-10.51908396946565,36.76335877862596,-14.427480916030534,-11.650185278320311,1.5466542724609373,1.8602946899414061,52.152671755725194,-44.68702290076336,-12.244274809160306,0.0
11.760000705718994,-10.1131078125,1.0223241088867188,1.7932570434570312,-6.549618320610687,41.23664122137404,-13.664122137404581,-9.576806640625,3.6487633300781246,0.584185205078125,43.41984732824427,-47.31297709923664,-17.0381679389313,0.0
11.77000093460083,-9.816226806640625,1.2665326782226562,1.659181750488281,-9.145038167938932,41.80152671755725,-13.068702290076336,-10.486603271484375,2.1260510742187497,1.6735469604492186,31.633587786259543,-43.49618320610687,-13.404580152671755,0.0
11.780000686645508,-9.294290844726563,0.43574470214843747,1.7669208251953124,-10.931297709923664,41.19083969465649,-14.366412213740459,-11.379640490722656,1.4915876342773438,3.019088293457031,32.030534351145036,-47.80152671755725,-14.702290076335878,0.0
11.790000677108765,-9.014169250488282,0.9983820922851562,1.2138602416992186,-8.13740458015267,39.282442748091604,-14.549618320610687,-8.355763793945313,3.402160559082031,1.7286135986328124,17.83206106870229,-48.6412213740458,-20.366412213740457,0.0
11.800000429153442,-10.326191760253906,1.0223241088867188,1.9823989746093749,-14.16793893129771,40.58015267175573,-14.992366412213741,-10.93671318359375,1.39821376953125,2.4947581298828125,18.65648854961832,-52.47328244274809,-17.81679389312977,0.0
11.810000896453857,-9.018957653808593,1.1085153686523437,1.4772224243164063,-10.778625954198473,38.50381679389313,-15.312977099236642,-7.785943798828124,4.347870214843749,0.23223756103515625,5.816793893129771,-53.63358778625954,-22.748091603053435,0.0
11.820000648498535,-10.510545288085936,1.5682020874023437,2.288856787109375,-17.328244274809162,38.12213740458015,-14.793893129770993,-11.128249316406249,1.209071838378906,2.398990063476562,-5.480916030534351,-42.3206106870229,-18.03053435114504,0.0
11.830000638961792,-8.86094034423828,0.9720458740234375,1.4820108276367188,-19.099236641221374,31.46564885496183,-13.679389312977099,-8.13310303955078,2.7150246826171873,0.7852981445312499,-5.083969465648855,-51.282442748091604,-23.236641221374047,0.0
11.840000629425049,-9.22485899658203,0.928950244140625,1.697488977050781,-19.404580152671755,31.587786259541986,-12.580152671755725,-5.904101293945312,4.649539624023437,-0.5315127685546874,-24.3206106870229,-46.0763358778626,-24.763358778625953,0.0
11.850000619888306,-10.084377392578125,0.6416460449218749,2.128445275878906,-19.954198473282442,32.70229007633588,-12.427480916030534,-9.983820922851562,0.93852705078125,2.272097375488281,-27.52671755725191,-36.412213740458014,-18.595419847328245,0.0
11.860000848770142,-8.291120349121094,-1.455674609375,0.622492431640625,-8.473282442748092,29.068702290076335,-11.007633587786259,-9.430760339355468,0.63206923828125,2.1715409057617188,-21.954198473282442,-37.74045801526717,-22.885496183206108,0.0
11.87000060081482,-9.081206896972656,-0.8930372192382812,1.13006318359375,5.282442748091603,35.14503816793893,-14.198473282442748,-8.451531860351562,0.9050082275390624,1.637633935546875,-24.48854961832061,-37.55725190839695,-24.549618320610687,0.0
11.880000829696655,-9.045293872070312,-0.033518823242187495,1.4149731811523436,2.885496183206107,34.79389312977099,-16.549618320610687,-7.089231115722656,1.649604943847656,1.4221557861328125,-39.343511450381676,-30.106870229007633,-24.53435114503817,0.0
11.890000581741333,-10.101136804199218,0.842758984375,2.1787235107421874,-0.1984732824427481,35.12977099236641,-18.259541984732824,-10.1131078125,0.28012159423828126,2.310404602050781,-37.14503816793893,-27.19083969465649,-22.12213740458015,0.0
11.900000810623169,-9.773131176757811,0.06464344482421874,1.5562310791015623,-1.3587786259541985,30.80916030534351,-16.9618320610687,-10.228029492187499,-1.4915876342773438,3.172317199707031,-24.564885496183205,-29.49618320610687,-23.31297709923664,0.0
11.910000562667847,-9.890447058105469,-0.4381389038085937,1.1827356201171875,5.8320610687022905,30.885496183206108,-15.923664122137405,-8.283937744140625,-0.2920926025390625,1.6256629272460936,-12.854961832061068,-39.20610687022901,-29.114503816793892,0.0
11.920000553131104,-9.038111267089842,-0.7876923461914062,0.928950244140625,9.145038167938932,31.404580152671755,-14.625954198473282,-9.246406811523437,0.6512228515624999,1.8722656982421875,-12.488549618320612,-39.099236641221374,-29.435114503816795,0.0
11.930000305175781,-9.909600671386718,-0.05746083984375,1.9033903198242186,11.099236641221374,33.55725190839695,-16.9618320610687,-9.220070593261719,0.5363011718749999,2.138022082519531,-15.053435114503817,-36.87022900763359,-28.519083969465647,0.0
11.940000295639038,-9.854534033203125,0.3064578125,1.7693150268554687,4.916030534351145,29.72519083969466,-18.931297709923665,-9.2320416015625,0.23702596435546874,3.7517140014648436,-12.335877862595419,-35.541984732824424,-28.290076335877863,0.0
11.950000286102295,-9.617508068847656,0.0718260498046875,1.3934253662109375,3.618320610687023,26.793893129770993,-19.114503816793892,-9.483432775878907,-0.6392518432617187,2.971204260253906,-8.900763358778626,-33.6793893129771,-27.61832061068702,0.0
11.96000051498413,-8.971073620605468,-0.7422025146484375,0.948103857421875,8.030534351145038,25.557251908396946,-19.19083969465649,-6.924031201171875,1.9105729248046874,1.2665326782226562,0.7175572519083969,-42.274809160305345,-31.16030534351145,0.0
11.970000505447388,-9.53131680908203,0.47884033203125,1.678335363769531,10.992366412213741,28.33587786259542,-19.328244274809162,-8.901641772460938,0.8930372192382812,2.272097375488281,-4.366412213740458,-31.84732824427481,-26.793893129770993,0.0
11.980000257492065,-9.612719665527344,0.28730419921875,1.8459294799804686,8.549618320610687,25.954198473282442,-20.366412213740457,-10.304643945312499,-0.5722141967773438,3.047818713378906,2.4427480916030535,-32.67175572519084,-24.83969465648855,0.0
11.990000486373901,-10.182539660644531,0.9002198242187499,2.001552587890625,12.931297709923664,26.625954198473284,-20.0,-9.361328491210937,0.181959326171875,2.319981408691406,14.198473282442748,-37.89312977099237,-26.259541984732824,0.0
12.000000476837158,-10.24718310546875,2.2864625854492187,1.8339584716796873,4.732824427480916,22.595419847328245,-18.671755725190838,-7.012616662597656,1.7836802368164062,1.1851298217773436,7.206106870229007,-31.572519083969464,-25.786259541984734,0.0
12.010000705718994,-10.036493359375,1.62805712890625,1.678335363769531,-2.9923664122137406,20.595419847328245,-15.206106870229007,-8.63109698486328,0.5722141967773438,2.2290017456054687,2.854961832061069,-26.427480916030536,-21.282442748091604,0.0
12.020000457763672,-9.677363110351562,1.0079588989257813,1.7860744384765623,-4.519083969465649,20.35114503816794,-15.206106870229007,-9.79946739501953,-1.3239935180664062,3.5314474487304683,15.007633587786259,-27.541984732824428,-20.259541984732824,0.0
12.030000686645508,-9.2320416015625,0.39743747558593745,1.1468225952148436,-5.022900763358779,14.473282442748092,-14.763358778625955,-8.499415893554687,-0.2561795776367187,1.7860744384765623,28.99236641221374,-32.916030534351144,-22.15267175572519,0.0
12.040000677108765,-9.5001921875,0.82360537109375,1.4508862060546874,-9.740458015267176,12.290076335877863,-15.114503816793894,-7.596801867675781,1.4245499877929686,1.0558429321289062,27.541984732824428,-27.221374045801525,-22.564885496183205,0.0
12.050000667572021,-9.916783276367187,0.9792284790039062,1.9752163696289062,-20.412213740458014,6.824427480916031,-14.732824427480915,-8.192958081054687,2.5737667846679684,0.5889736083984375,12.83969465648855,-17.19083969465649,-20.80916030534351,0.0
12.060000658035278,-10.302249743652343,0.603338818359375,2.8802245971679685,-9.816793893129772,10.778625954198473,-16.259541984732824,-9.217676391601563,0.6727706665039062,1.4508862060546874,7.236641221374046,-7.129770992366412,-15.954198473282442,0.0
12.070000648498535,-10.139444030761718,0.2346317626953125,3.31357509765625,-2.9618320610687023,9.587786259541986,-18.519083969465647,-7.577648254394531,0.8762778076171874,1.43652099609375,5.541984732824427,-2.427480916030534,-15.572519083969466,0.0
12.080000638961792,-10.019733947753906,-1.0223241088867188,2.913743420410156,7.206106870229007,7.465648854961832,-17.603053435114504,-10.026916552734374,-1.8842367065429686,3.143586779785156,17.96946564885496,-0.4122137404580153,-11.893129770992367,0.0
12.090000629425049,-9.574412438964844,-0.948103857421875,2.408566870117187,24.076335877862597,2.687022900763359,-17.129770992366414,-9.009380847167968,-0.7613561279296874,3.239354846191406,29.022900763358777,-3.267175572519084,-14.549618320610687,0.0
12.100000381469727,-9.13627353515625,-0.21308394775390624,1.8435352783203125,27.755725190839694,3.0381679389312977,-14.305343511450381,-8.130708837890625,0.30885201416015623,2.6910826660156246,28.3206106870229,-0.33587786259541985,-14.564885496183207,0.0
12.110000610351562,-11.413159313964844,1.4030021728515625,2.480392919921875,23.251908396946565,5.3893129770992365,-12.549618320610687,-8.226476904296874,0.7709329345703124,2.118868469238281,36.10687022900763,-4.198473282442748,-14.580152671755725,0.0
12.120000839233398,-8.02536396484375,0.1149216796875,-1.1013327636718748,27.87786259541985,-5.00763358778626,-4.076335877862595,-9.217676391601563,0.3854664672851562,3.373430139160156,34.68702290076336,5.358778625954199,-12.702290076335878,0.0
12.130000352859497,-8.597578161621094,-0.8283937744140625,2.166752502441406,58.732824427480914,17.206106870229007,-6.305343511450381,-6.648698010253906,1.7597382202148437,2.384624853515625,30.366412213740457,3.8625954198473282,-15.511450381679388,0.0
12.140001058578491,-9.545682019042967,0.7110778930664062,3.1220389648437497,40.58015267175573,11.236641221374045,-12.870229007633588,-10.134655627441406,-0.689530078125,4.266467358398438,29.938931297709924,6.8396946564885495,-12.076335877862595,0.0
12.15000057220459,-10.670956799316405,1.0462661254882812,3.873818286132812,41.23664122137404,8.213740458015268,-14.01526717557252,-8.84178673095703,-0.009576806640625,3.5098996337890624,33.3587786259542,2.946564885496183,-14.65648854961832,0.0
12.160000801086426,-6.469132885742187,-2.674323254394531,1.3383587280273437,53.45038167938932,3.83206106870229,-8.061068702290076,-9.327809667968749,1.0103531005859374,2.1739351074218747,36.93129770992366,3.9236641221374047,-14.351145038167939,0.0
12.170000553131104,-8.643067993164061,0.8882488159179687,3.0837317382812497,79.3587786259542,12.061068702290076,-10.854961832061068,-9.090783703613281,3.5051112304687497,1.8148048583984373,29.603053435114504,14.992366412213741,-11.801526717557252,0.0
12.18000054359436,-9.133879333496093,2.463633508300781,4.091690637207031,66.3206106870229,3.4656488549618323,-12.183206106870228,-6.679822631835937,6.361393811035156,0.35194764404296874,9.969465648854962,22.900763358778626,-8.793893129770993,0.0
12.190000534057617,-10.958260998535156,5.439626171875,5.643133312988281,63.81679389312977,-2.7938931297709924,-7.3893129770992365,-9.121908325195312,3.6750995483398436,1.6639701538085936,-7.465648854961832,38.54961832061068,1.6946564885496183,0.0
12.200000762939453,-10.292672937011718,4.50109912109375,4.740519287109374,48.88549618320611,-18.137404580152673,-1.0229007633587786,-7.9104422851562495,3.414131567382812,1.2378022583007813,-11.618320610687023,36.74809160305343,3.877862595419847,0.0
12.21000051498413,-12.050016955566406,5.540182641601562,5.53539423828125,47.93893129770992,-26.12213740458015,6.259541984732825,-7.3669585083007805,4.07971962890625,1.216254443359375,-32.47328244274809,50.10687022900763,4.1679389312977095,0.0
12.220000505447388,-7.4603323730468745,-0.8116343627929687,2.3870190551757813,47.6793893129771,-39.64885496183206,17.984732824427482,-8.932766394042968,1.867477294921875,0.316034619140625,-26.290076335877863,34.54961832061068,-3.1908396946564888,0.0
12.230000495910645,-9.95987890625,3.1938650146484373,4.220977526855468,75.7557251908397,-35.25190839694657,20.045801526717558,-7.953537915039062,1.5059528442382812,2.0566192260742184,-34.13740458015267,46.6412213740458,13.954198473282442,0.0
12.240000486373901,-10.156203442382813,2.5258827514648434,5.748478186035156,48.56488549618321,-50.045801526717554,22.30534351145038,-9.746794958496093,0.011971008300781249,0.6703764648437499,-32.19847328244275,45.14503816793893,8.702290076335878,0.0
12.250000715255737,-11.238382592773437,3.124433166503906,7.1203557373046875,53.51145038167939,-65.40458015267176,28.244274809160306,-9.775525378417969,0.7924807495117187,1.5777788940429687,-33.404580152671755,49.847328244274806,8.305343511450381,0.0
12.260000705718994,-10.484209069824217,1.1827356201171875,6.955155822753905,53.66412213740458,-81.61832061068702,38.44274809160305,-10.232817895507813,1.1180921752929687,0.2825157958984375,-30.12213740458015,41.603053435114504,5.709923664122138,0.0
12.27000093460083,-12.50730947265625,1.9033903198242186,5.200206005859375,76.56488549618321,-80.54961832061069,44.82442748091603,-12.083535778808592,0.38307226562499996,2.829946362304687,-30.106870229007633,45.11450381679389,8.488549618320612,0.0
12.280000686645508,-13.153743920898437,0.27293898925781246,4.740519287109374,71.57251908396947,-89.16030534351145,47.7557251908397,-10.86009873046875,0.8667010009765624,1.429338391113281,-33.57251908396947,36.68702290076336,0.12213740458015267,0.0
12.290000438690186,-15.490484741210937,0.9816226806640624,6.564900952148437,73.70992366412214,-99.83206106870229,48.916030534351144,-11.645396875,0.8307879760742187,2.8323405639648436,-36.396946564885496,35.64885496183206,3.9083969465648853,0.0
12.300000667572021,-18.600552697753905,5.4779333984375,7.750030773925781,46.85496183206107,-115.19083969465649,51.29770992366412,-11.494562170410155,1.5586252807617187,1.9009961181640624,-37.05343511450382,21.46564885496183,-3.5267175572519083,0.0
12.310000658035278,-19.783288317871094,7.1035963256835934,7.395688928222656,-11.114503816793894,-140.45801526717557,55.80152671755725,-10.505756884765624,2.5857377929687497,1.5298948608398437,-54.458015267175576,26.83969465648855,-2.2290076335877864,0.0
12.320000648498535,-18.92855832519531,3.478775012207031,7.783549597167968,-49.847328244274806,-168.74809160305344,65.34351145038168,-11.508927380371093,-0.22744915771484372,2.2361843505859373,-57.587786259541986,29.00763358778626,0.9007633587786259,0.0
12.330000638961792,-16.275782885742185,-0.35194764404296874,6.320692382812499,-37.45038167938932,-183.12977099236642,78.1526717557252,-10.089165795898436,-0.0526724365234375,-1.7381904052734374,-57.48091603053435,17.709923664122137,-1.1145038167938932,0.0
12.340000629425049,-14.628572143554686,-2.925714428710937,2.5713725830078125,-30.870229007633586,-183.95419847328245,84.10687022900764,-9.60793126220703,1.0510545288085937,-0.02633621826171875,-57.9236641221374,13.34351145038168,1.465648854961832,0.0
12.350000381469727,-11.774683764648437,-5.6574985229492185,-2.003946789550781,-49.11450381679389,-187.14503816793894,76.01526717557252,-11.212046374511718,-1.8171990600585937,0.5195417602539062,-53.603053435114504,18.427480916030536,7.297709923664122,0.0
12.36000108718872,-11.5304751953125,-7.884106066894531,-4.8123453369140625,-47.98473282442748,-173.09923664122138,66.67175572519083,-11.75313594970703,-3.5122938354492184,0.9313444458007812,-33.87786259541985,15.145038167938932,6.458015267175573,0.0
12.37000060081482,-8.12113203125,-9.792284790039062,-3.840299462890625,-27.84732824427481,-155.22137404580153,57.465648854961835,-10.09395419921875,-2.437297290039062,0.26815058593749996,-24.442748091603054,13.908396946564885,2.4732824427480917,0.0
12.380000829696655,-7.9463553100585935,-9.366116894531249,-0.21787235107421873,-1.4198473282442747,-134.67175572519085,43.61832061068702,-10.558429321289061,-1.5035586425781249,-0.42377369384765623,-12.045801526717558,12.488549618320612,1.786259541984733,0.0
12.390000581741333,-9.0021982421875,-6.4667386840820305,0.46208092041015625,10.122137404580153,-128.0,29.221374045801525,-9.081206896972656,0.8595183959960937,-0.6009446166992187,-21.068702290076335,19.984732824427482,2.564885496183206,0.0
12.400000810623169,-11.834538806152343,-0.1388636962890625,2.5426421630859375,6.0458015267175576,-116.13740458015268,15.755725190839694,-9.442731347656249,0.6009446166992187,-0.7158662963867187,-23.954198473282442,27.19083969465649,7.236641221374046,0.0
12.410000562667847,-11.688492504882811,1.848323681640625,-0.9074024291992187,-24.47328244274809,-122.0,13.19083969465649,-10.273519323730468,1.4437036010742186,-0.93852705078125,-26.580152671755727,31.954198473282442,11.801526717557252,0.0
12.420000553131104,-15.823278771972655,8.863334545898438,1.7094599853515624,-42.38167938931298,-109.83206106870229,16.83969465648855,-9.583989245605467,1.3335703247070312,-1.8315642700195311,-36.61068702290076,34.35114503816794,15.32824427480916,0.0
12.43000054359436,-12.777854260253905,4.589684582519531,0.9624690673828125,-78.90076335877863,-125.05343511450381,27.0381679389313,-10.254365710449218,2.2864625854492187,-1.2497732666015624,-49.98473282442748,43.69465648854962,21.450381679389313,0.0
12.440000534057617,-14.753070629882812,6.426037255859375,4.199429711914062,-103.45038167938931,-124.53435114503817,29.954198473282442,-11.410765112304686,-1.3239935180664062,0.39983167724609375,-47.81679389312977,50.30534351145038,28.16793893129771,0.0
12.450000524520874,-10.884040747070312,0.24660277099609373,0.3064578125,-125.25190839694656,-142.83969465648855,34.79389312977099,-12.006921325683592,-3.5218706420898434,0.6272808349609375,-27.83206106870229,44.36641221374046,27.64885496183206,0.0
12.46000051498413,-14.659696765136719,1.9967641845703124,1.0941501586914062,-120.94656488549619,-128.8091603053435,34.717557251908396,-11.257536206054686,-2.1164742675781247,0.5626373901367188,-6.641221374045801,36.18320610687023,24.137404580152673,0.0
12.470000505447388,-9.957484704589843,-1.6208745239257811,0.258573779296875,-130.76335877862596,-141.61832061068702,39.37404580152672,-9.557653027343749,0.10773907470703124,0.5698199951171875,-3.7404580152671754,35.74045801526717,22.80916030534351,0.0
12.480000495910645,-9.287108239746093,-2.233790148925781,0.7422025146484375,-112.27480916030534,-126.7175572519084,39.6793893129771,-9.512163195800781,-0.055066638183593745,0.6847416748046875,-4.320610687022901,36.76335877862596,25.099236641221374,0.0
12.490000486373901,-6.770802294921874,-4.774038110351563,-2.094926452636719,-93.2824427480916,-121.66412213740458,39.31297709923664,-9.641450085449218,-0.7398083129882812,0.8834604125976562,0.5343511450381679,36.38167938931298,25.374045801526716,0.0
12.500000476837158,-7.989450939941406,-2.612074011230469,0.7541735229492187,-70.03053435114504,-96.97709923664122,33.74045801526717,-9.076418493652342,-0.8116343627929687,0.9911994873046874,4.961832061068702,33.9236641221374,24.564885496183205,0.0
12.510000944137573,-5.422866760253906,-3.8762124877929685,-0.25139117431640623,-61.282442748091604,-88.36641221374046,28.48854961832061,-9.334992272949219,-1.0654197387695312,1.5945383056640625,10.045801526717558,36.06106870229008,24.595419847328245,0.0
12.520000457763672,-1.8555062866210936,-6.2392895263671875,-1.838746875,-28.396946564885496,-66.01526717557252,25.84732824427481,-10.40041201171875,-1.8100164550781248,1.24498486328125,22.946564885496183,30.045801526717558,23.099236641221374,0.0
12.530000686645508,-0.6823474731445313,-4.060566015625,0.11252747802734374,-23.908396946564885,-59.61832061068702,15.923664122137405,-9.267954626464844,-1.1923124267578125,1.1348515869140625,28.137404580152673,27.083969465648856,18.916030534351144,0.0
12.540000677108765,-0.2920926025390625,-3.4620156005859375,1.5035586425781249,-3.4656488549618323,-33.038167938931295,12.351145038167939,-9.239224206542968,0.34237083740234375,2.9472622436523435,23.114503816793892,28.198473282442748,20.213740458015266,0.0
12.550000429153442,-0.9002198242187499,-2.9831752685546875,2.3822306518554686,5.6183206106870225,-17.282442748091604,4.870229007633588,-9.555258825683593,-1.149216796875,1.608903515625,30.427480916030536,27.938931297709924,18.519083969465647,0.0
12.560000658035278,-2.1883003173828124,-1.4867992309570313,3.9935283691406247,13.053435114503817,-5.770992366412214,-3.8931297709923665,-9.583989245605467,-1.484405029296875,1.455674609375,34.06106870229008,24.564885496183205,16.091603053435115,0.0
12.570000648498535,-3.6176387084960937,0.5027823486328125,5.312733483886719,6.854961832061068,0.6412213740458015,-9.709923664122137,-9.1554271484375,-0.47644613037109373,1.216254443359375,32.916030534351144,22.793893129770993,12.977099236641221,0.0
12.580000638961792,-5.05655390625,2.3367408203125,6.119579443359375,-9.358778625954198,0.32061068702290074,-10.366412213740459,-9.773131176757811,-0.4333505004882812,0.7996633544921875,29.49618320610687,21.83206106870229,12.977099236641221,0.0
12.59000039100647,-5.092466931152344,2.568978381347656,5.987898352050781,-15.740458015267176,2.8702290076335877,-6.763358778625954,-9.696516723632811,-0.49799394531249996,0.8906430175781249,26.16793893129771,18.290076335877863,12.687022900763358,0.0
12.600000381469727,-4.431667272949219,1.8746598999023436,5.547365246582031,-20.244274809160306,5.877862595419847,-2.33587786259542,-9.0021982421875,0.5051765502929687,1.158793603515625,12.595419847328245,21.099236641221374,11.938931297709924,0.0
12.610000610351562,-4.335899206542969,1.5442600708007812,5.386953735351562,-20.30534351145038,12.061068702290076,-0.6564885496183206,-9.935936889648437,0.2442085693359375,1.7597382202148437,7.114503816793893,23.96946564885496,14.610687022900763,0.0
12.620000839233398,-4.979939453125,1.6256629272460936,5.66946953125,-15.450381679389313,16.68702290076336,-1.6946564885496183,-9.076418493652342,0.3136404174804687,1.0726023437499999,-2.9923664122137406,21.587786259541986,15.083969465648854,0.0
12.630000591278076,-5.351040710449219,2.588131994628906,6.440402465820312,-21.404580152671755,16.12213740458015,-1.6793893129770991,-8.968679418945312,3.4931402221679684,1.5298948608398437,-31.358778625954198,34.80916030534351,15.84732824427481,0.0
12.640000581741333,-5.193023400878906,2.023100402832031,6.313509777832031,-25.49618320610687,15.84732824427481,1.1297709923664123,-7.709329345703124,2.9927520751953125,0.22026655273437498,-50.51908396946565,38.68702290076336,21.083969465648856,0.0
12.65000057220459,-5.2456958374023435,1.0103531005859374,5.846640454101562,-22.15267175572519,17.572519083969464,4.229007633587786,-10.479420666503906,-2.0278888061523435,2.834734765625,-41.221374045801525,43.14503816793893,30.061068702290076,0.0
12.660000801086426,-5.590460876464843,0.4333505004882812,5.664681127929687,-5.190839694656488,29.66412213740458,5.236641221374046,-9.356540087890625,0.3711012573242187,1.7501614135742187,-32.396946564885496,31.557251908396946,23.938931297709924,0.0
12.670000791549683,-5.2073886108398435,0.9720458740234375,5.992686755371094,-1.3282442748091603,31.6793893129771,6.2748091603053435,-8.365340600585936,1.0654197387695312,1.8124106567382812,-56.50381679389313,40.80916030534351,22.641221374045802,0.0
12.68000054359436,-6.361393811035156,0.33758243408203126,8.688557824707031,4.244274809160306,31.938931297709924,7.6183206106870225,-10.409988818359375,-1.9871873779296874,1.678335363769531,-44.38167938931298,37.37404580152672,26.137404580152673,0.0
12.690000534057617,-8.48505068359375,1.4413093994140624,11.56159981689453,16.717557251908396,29.404580152671755,10.045801526717558,-10.958260998535156,-2.233790148925781,2.7174188842773437,-31.66412213740458,34.152671755725194,25.099236641221374,0.0
12.700000286102295,-10.352527978515624,3.660734338378906,13.168109130859374,19.572519083969464,21.251908396946565,17.64885496183206,-9.878476049804688,-0.9648632690429687,0.928950244140625,-36.10687022900763,30.610687022900763,21.099236641221374,0.0
12.71000051498413,-11.039663854980468,2.9496564453125,11.324573852539062,21.572519083969464,14.183206106870228,31.236641221374047,-12.777854260253905,-4.048595007324218,2.0638018310546875,-16.229007633587788,27.755725190839694,25.770992366412212,0.0
12.720000505447388,-10.426748229980468,1.4437036010742186,9.409212524414063,17.862595419847327,7.66412213740458,40.13740458015267,-11.75313594970703,-1.85790048828125,-0.201112939453125,1.8931297709923665,12.030534351145038,17.69465648854962,0.0
12.730000257492065,-11.552023010253906,1.8076222534179687,10.072406384277343,11.587786259541986,7.8320610687022905,42.0,-11.212046374511718,-0.24660277099609373,0.2442085693359375,-0.8091603053435115,10.732824427480915,15.84732824427481,0.0
12.740000486373901,-8.793902697753905,-1.120486376953125,8.602366564941406,8.488549618320612,1.099236641221374,43.14503816793893,-8.930372192382812,3.1172505615234374,-2.8610709838867185,-16.778625954198475,8.412213740458014,12.687022900763358,0.0
12.750000715255737,-8.377311608886718,-1.0510545288085937,7.556100439453124,8.16793893129771,1.5419847328244274,39.81679389312977,-10.421959826660157,0.34237083740234375,-0.3806780639648437,-28.442748091603054,21.923664122137403,19.557251908396946,0.0
12.760000705718994,-6.459556079101562,-2.176329309082031,4.778826513671874,5.32824427480916,2.549618320610687,35.541984732824424,-10.28549033203125,0.49799394531249996,-1.9009961181640624,-15.969465648854962,13.526717557251908,19.61832061068702,0.0
12.77000093460083,-5.446808776855469,-2.2960393920898436,3.172317199707031,2.7938931297709924,8.931297709923664,28.625954198473284,-10.168174450683592,1.7238251953125,-2.2936451904296873,-22.427480916030536,14.80916030534351,16.85496183206107,0.0
12.780000686645508,-5.334281298828125,-2.3678654418945313,3.8762124877929685,-4.687022900763359,13.633587786259541,19.954198473282442,-8.75320126953125,3.9408559326171875,-5.973533142089844,-49.725190839694655,22.625954198473284,11.938931297709924,0.0
12.790000677108765,-5.662286926269531,-3.4165257690429685,3.84987626953125,-4.6106870229007635,18.3206106870229,13.83206106870229,-11.49216796875,0.17956512451171874,-0.6344634399414062,-48.47328244274809,31.0381679389313,18.50381679389313,0.0
12.800000429153442,-6.083666418457031,-4.584896179199219,3.727771984863281,12.931297709923664,33.89312977099237,7.206106870229007,-10.275913525390624,2.7174188842773437,-3.459621398925781,-34.10687022900763,19.435114503816795,17.297709923664122,0.0
12.810000658035278,-8.315062365722655,-2.3319524169921872,4.7022120605468745,21.81679389312977,41.81679389312977,-1.4045801526717556,-10.31661495361328,4.977545251464844,-2.8754361938476563,-57.603053435114504,25.83206106870229,15.465648854961833,0.0
12.820000648498535,-9.162609753417968,-0.469263525390625,4.515464331054687,28.68702290076336,48.44274809160305,-5.908396946564886,-10.836156713867187,3.3207577026367185,-3.172317199707031,-82.76335877862596,37.038167938931295,17.251908396946565,0.0
12.830000638961792,-10.635043774414061,0.4955997436523437,3.584119885253906,25.068702290076335,52.36641221374046,-8.748091603053435,-13.510479968261718,-0.16759411621093748,1.5035586425781249,-51.282442748091604,29.34351145038168,26.625954198473284,0.0
12.840000629425049,-11.221623181152344,-0.023942016601562498,3.651157531738281,21.49618320610687,58.51908396946565,-10.946564885496183,-11.985373510742187,0.6871358764648438,-1.0438719238281249,-33.603053435114504,12.961832061068701,27.083969465648856,0.0
12.850000381469727,-11.288660827636718,1.0845733520507812,3.4165257690429685,12.885496183206106,60.62595419847328,-12.67175572519084,-13.232752575683593,2.6336218261718747,-1.1324573852539062,-43.404580152671755,13.908396946564885,23.19083969465649,0.0
12.860000371932983,-11.827356201171874,1.5825672973632812,3.411737365722656,2.931297709923664,62.35114503816794,-12.427480916030534,-13.026851232910156,3.5721488769531247,-2.1021090576171875,-56.10687022900763,15.786259541984732,22.290076335877863,0.0
12.87000060081482,-11.726799731445311,1.1276689819335937,3.0238766967773434,-5.236641221374046,63.038167938931295,-12.335877862595419,-14.630966345214842,-1.216254443359375,1.3862427612304686,-38.3206106870229,15.526717557251908,28.80916030534351,0.0
12.880000829696655,-12.701239807128905,0.6177040283203125,2.6910826660156246,-8.534351145038167,64.59541984732824,-13.954198473282442,-14.982913989257812,0.10773907470703124,2.4779987182617185,0.549618320610687,3.068702290076336,31.740458015267176,0.0
12.890000581741333,-12.421118212890624,0.9624690673828125,2.3535002319335936,-11.419847328244275,65.74045801526718,-12.900763358778626,-13.618219042968748,2.916137622070312,0.9193734375,1.3435114503816794,-6.183206106870229,25.541984732824428,0.0
12.90000057220459,-11.96382569580078,1.024718310546875,2.123656872558594,-11.770992366412214,68.68702290076335,-10.50381679389313,-13.084312072753905,3.258508459472656,0.38786066894531246,1.3282442748091603,-10.748091603053435,25.14503816793893,0.0
12.910000562667847,-10.74517705078125,0.5985504150390625,1.7190367919921874,-8.961832061068701,73.25190839694656,-9.694656488549619,-12.607865942382812,2.9831752685546875,0.27293898925781246,3.114503816793893,-12.076335877862595,23.84732824427481,0.0
12.920000553131104,-10.670956799316405,0.8475473876953125,1.5658078857421873,-7.6183206106870225,76.58015267175573,-11.053435114503817,-12.464213842773436,2.8371289672851563,0.8116343627929687,9.526717557251908,-13.541984732824428,23.709923664122137,0.0
12.93000054359436,-10.292672937011718,0.9911994873046874,1.218648645019531,-2.6106870229007635,81.23664122137404,-10.335877862595419,-11.441889733886718,3.1747114013671873,0.22026655273437498,8.488549618320612,-14.961832061068701,21.19083969465649,0.0
12.940000534057617,-10.232817895507813,0.7757213378906249,1.4341267944335936,-2.1068702290076335,82.70229007633588,-9.84732824427481,-11.743559143066406,2.291250988769531,0.6584054565429687,12.732824427480915,-16.091603053435115,20.03053435114504,0.0
12.950000286102295,-9.337386474609374,-0.16519991455078123,0.9959878906249999,5.8320610687022905,88.3969465648855,-10.351145038167939,-10.769119067382812,0.622492431640625,1.608903515625,17.083969465648856,-19.31297709923664,17.0381679389313,0.0
12.960000276565552,-9.373299499511718,0.6607996582031249,1.4006079711914061,10.83969465648855,91.7557251908397,-13.679389312977099,-8.59278975830078,2.020706201171875,-0.28012159423828126,18.015267175572518,-28.290076335877863,10.412213740458014,0.0
12.970000505447388,-9.435548742675781,1.7357962036132812,1.4963760375976562,11.022900763358779,91.5114503816794,-14.458015267175572,-7.915230688476562,1.3934253662109375,-0.04548983154296875,15.267175572519085,-31.022900763358777,4.870229007633588,0.0
12.980000257492065,-9.131485131835937,1.6831237670898436,1.7262193969726563,11.083969465648854,92.44274809160305,-14.122137404580153,-9.813832604980469,-0.565031591796875,2.731784094238281,17.893129770992367,-24.916030534351144,2.549618320610687,0.0
12.990000486373901,-9.485826977539062,2.0087351928710935,2.205059729003906,10.320610687022901,91.93893129770993,-14.870229007633588,-8.951920007324219,-1.6352397338867186,2.1547814941406247,33.83206106870229,-36.778625954198475,-4.290076335877862,0.0
13.000000476837158,-9.744400756835937,1.618480322265625,2.4588451049804685,6.900763358778626,89.16030534351145,-13.633587786259541,-9.478644372558593,-2.3343466186523436,2.612074011230469,49.06870229007634,-46.778625954198475,-11.312977099236642,0.0
13.010000944137573,-8.729259252929687,1.1659762084960936,2.5737667846679684,7.32824427480916,87.40458015267176,-11.877862595419847,-7.4962453979492185,2.0159177978515626,0.0143652099609375,39.29770992366412,-58.412213740458014,-25.022900763358777,0.0
13.020000696182251,-9.04050546875,1.3838485595703125,3.883395092773437,1.5725190839694656,85.25190839694656,-12.16793893129771,-8.607154968261717,-0.062249243164062495,1.16837041015625,22.229007633587788,-44.68702290076336,-25.83206106870229,0.0
13.030000686645508,-9.447519750976562,0.7613561279296874,4.604049792480469,-4.809160305343512,79.34351145038168,-13.893129770992367,-8.564059338378906,0.086191259765625,0.17238251953125,48.48854961832061,-61.45038167938932,-29.389312977099237,0.0
13.040000677108765,-8.815450512695312,0.031124621582031248,4.043806604003906,-2.7022900763358777,73.32824427480917,-12.83969465648855,-6.342240197753906,2.901772412109375,-2.118868469238281,40.67175572519084,-58.25954198473283,-34.44274809160305,0.0
13.050000667572021,-8.705317236328124,-1.16837041015625,4.417302062988281,1.8778625954198473,71.45038167938931,-14.213740458015268,-7.8553756469726554,2.023100402832031,-0.5243301635742187,50.36641221374046,-58.274809160305345,-32.732824427480914,0.0
13.060000658035278,-8.252813122558594,-1.0271125122070313,4.412513659667969,7.603053435114504,67.61832061068702,-17.34351145038168,-6.002263562011718,4.695029455566406,-2.549824768066406,40.06106870229008,-51.31297709923664,-36.01526717557252,0.0
13.070000648498535,-8.839392529296875,-0.8906430175781249,4.448426684570312,10.854961832061068,63.404580152671755,-19.954198473282442,-8.367734802246094,2.6216508178710938,-1.5322890624999999,39.69465648854962,-46.0763358778626,-31.282442748091604,0.0
13.080000400543213,-9.334992272949219,-0.07900865478515624,5.1714755859374995,13.694656488549619,59.16030534351145,-23.282442748091604,-7.702146740722656,4.515464331054687,-2.2744915771484373,40.76335877862596,-44.2442748091603,-31.81679389312977,0.0
13.09000039100647,-8.173804467773436,0.22026655273437498,4.048595007324218,14.900763358778626,51.3587786259542,-21.84732824427481,-6.411672045898437,4.477157104492187,-2.4253262817382812,26.3206106870229,-34.16793893129771,-27.19083969465649,0.0
13.100000619888306,-9.07163009033203,-0.7589619262695312,4.225765930175781,17.81679389312977,47.343511450381676,-22.259541984732824,-10.24000050048828,0.8906430175781249,0.39983167724609375,47.61832061068702,-31.938931297709924,-19.709923664122137,0.0
13.110000610351562,-7.8529814453124995,-0.8571241943359375,4.074931225585937,28.900763358778626,44.29007633587786,-23.740458015267176,-6.208164904785156,4.8123453369140625,-3.248931652832031,50.091603053435115,-42.82442748091603,-27.419847328244273,0.0
13.12000036239624,-9.504980590820312,0.7876923461914062,4.314351391601562,30.045801526717558,41.847328244274806,-23.938931297709924,-9.947907897949218,-0.031124621582031248,1.0773907470703123,50.80916030534351,-31.14503816793893,-16.259541984732824,0.0
13.130000591278076,-10.043675964355469,1.7812860351562498,4.122815258789062,22.885496183206108,33.099236641221374,-22.671755725190838,-7.0652890991210935,4.841075756835937,-1.8267758666992187,55.81679389312977,-44.717557251908396,-22.870229007633586,0.0
13.140000820159912,-9.588777648925781,1.898601916503906,3.9624037475585934,21.34351145038168,29.34351145038168,-17.87786259541985,-9.639055883789062,1.8411410766601561,0.4261678955078125,45.05343511450382,-28.076335877862597,-13.374045801526718,0.0
13.15000057220459,-9.251195214843749,1.7429788085937499,3.9049429077148434,19.053435114503817,26.427480916030536,-17.404580152671755,-9.983820922851562,1.8770541015625,-0.44532150878906246,59.48091603053435,-38.48854961832061,-15.557251908396946,0.0
13.160000801086426,-9.758765966796874,2.0302830078125,2.8036101440429686,20.83969465648855,23.709923664122137,-16.778625954198475,-10.065223779296874,2.5857377929687497,-0.04548983154296875,57.93893129770992,-32.29007633587786,-13.389312977099237,0.0
13.170000553131104,-9.770736975097655,2.0925322509765625,2.4899697265625,16.885496183206108,22.732824427480917,-13.801526717557252,-10.283096130371094,1.47482822265625,0.44053310546874996,60.67175572519084,-36.33587786259542,-11.709923664122137,0.0
13.18000054359436,-9.957484704589843,2.0278888061523435,1.9728221679687499,15.98473282442748,22.977099236641223,-12.717557251908397,-10.594342346191405,2.0638018310546875,1.20667763671875,64.79389312977099,-40.10687022900763,-13.465648854961833,0.0
13.190000534057617,-9.366116894531249,2.375048046875,1.7621324218749999,13.17557251908397,22.595419847328245,-11.511450381679388,-8.116343627929687,5.238513232421875,-0.7733271362304687,48.274809160305345,-38.19847328244275,-16.900763358778626,0.0
13.200000524520874,-9.753977563476562,2.741360900878906,1.8722656982421875,2.885496183206107,22.33587786259542,-10.534351145038167,-11.669338891601562,1.4173673828125,1.898601916503906,41.43511450381679,-30.35114503816794,-10.351145038167939,0.0
13.21000051498413,-9.0788126953125,1.2713210815429687,1.2665326782226562,2.1374045801526718,21.72519083969466,-9.465648854961833,-10.268730920410155,3.239354846191406,1.3024457031249999,42.18320610687023,-41.52671755725191,-15.16030534351145,0.0
13.220000505447388,-9.789890588378906,2.3151930053710936,1.8459294799804686,3.1908396946564888,27.16030534351145,-9.923664122137405,-9.665392102050781,3.806780639648437,1.5849614990234373,28.091603053435115,-34.030534351145036,-15.16030534351145,0.0
13.230000495910645,-9.79946739501953,2.5905261962890624,1.5873557006835937,-13.083969465648854,21.480916030534353,-7.984732824427481,-10.35492218017578,2.8036101440429686,1.8076222534179687,16.442748091603054,-35.267175572519086,-13.664122137404581,0.0
13.240000247955322,-9.366116894531249,1.218648645019531,0.9050082275390624,-14.213740458015268,22.3206106870229,-5.923664122137405,-11.279084020996093,1.7836802368164062,2.8706477905273435,20.198473282442748,-40.091603053435115,-15.267175572519085,0.0
13.250000715255737,-9.318232861328125,0.70868369140625,0.93852705078125,-14.061068702290076,24.549618320610687,-6.778625954198473,-8.360552197265624,4.333505004882812,1.5155296508789062,11.633587786259541,-43.48091603053435,-19.572519083969464,0.0
13.260000705718994,-7.213729602050781,-1.7956512451171873,-0.33758243408203126,-7.7251908396946565,26.366412213740457,-7.297709923664122,-10.297461340332031,2.710236279296875,2.104503259277344,-6.229007633587786,-34.458015267175576,-16.702290076335878,0.0
13.27000093460083,-7.9272016967773435,-0.7398083129882812,0.6464344482421874,-0.3511450381679389,35.19083969465649,-13.893129770992367,-10.536881506347656,1.0175357055664063,2.6384102294921874,-4.458015267175573,-38.42748091603053,-17.480916030534353,0.0
13.280000686645508,-8.508992700195313,-0.6775590698242188,0.1292868896484375,3.282442748091603,36.25954198473283,-18.564885496183205,-9.45470235595703,1.8435352783203125,1.924938134765625,-3.435114503816794,-41.23664122137404,-21.83206106870229,0.0
13.290000438690186,-9.785102185058593,0.9145850341796874,1.2401964599609374,0.916030534351145,40.274809160305345,-21.236641221374047,-7.843404638671874,3.114856359863281,1.2832920898437499,-21.16030534351145,-34.12213740458015,-21.572519083969464,0.0
13.300000667572021,-9.229647399902344,0.36391865234375,1.429338391113281,-6.458015267175573,37.969465648854964,-21.923664122137403,-9.509768994140625,0.41898529052734373,2.2744915771484373,-26.83969465648855,-32.152671755725194,-19.00763358778626,0.0
13.310000896453857,-9.119514123535156,0.040701428222656245,1.2425906616210938,-2.7480916030534353,38.35114503816794,-22.564885496183205,-9.878476049804688,0.011971008300781249,2.844311572265625,-16.793893129770993,-39.267175572519086,-23.435114503816795,0.0
13.320000410079956,-9.603142858886718,0.46686932373046874,1.7453730102539062,-4.519083969465649,38.58015267175573,-23.954198473282442,-8.904035974121093,0.39264907226562495,2.4109610717773435,-20.580152671755727,-35.786259541984734,-25.206106870229007,0.0
13.330000638961792,-10.134655627441406,1.5131354492187499,2.4756045166015626,-9.801526717557252,37.06870229007634,-24.671755725190838,-8.82263311767578,0.09576806640624999,2.2361843505859373,-26.091603053435115,-35.083969465648856,-26.27480916030534,0.0
13.340001106262207,-9.507374792480467,0.814028564453125,2.032677209472656,-16.091603053435115,30.0,-23.0381679389313,-9.811438403320311,-0.9648632690429687,3.69664736328125,-23.572519083969464,-35.847328244274806,-25.404580152671755,0.0
13.350000619888306,-9.677363110351562,0.3495534423828125,2.370259643554687,-12.732824427480915,31.328244274809162,-21.541984732824428,-9.674968908691406,-1.5035586425781249,3.845087866210937,-19.52671755725191,-38.33587786259542,-29.129770992366414,0.0
13.36000108718872,-9.447519750976562,-0.20829554443359374,2.7916391357421872,-11.221374045801527,29.908396946564885,-22.580152671755727,-7.570465649414062,0.10773907470703124,1.9512743530273435,-11.435114503816793,-46.38167938931298,-34.213740458015266,0.0
13.37000060081482,-10.005368737792969,0.6057330200195312,3.009511486816406,-11.129770992366412,28.137404580152673,-22.12213740458015,-8.84178673095703,-0.4261678955078125,2.645592834472656,-16.519083969465647,-36.274809160305345,-30.198473282442748,0.0
13.380000829696655,-9.53131680908203,-0.28012159423828126,2.7844565307617186,-12.335877862595419,24.198473282442748,-21.72519083969466,-9.878476049804688,-1.3287819213867187,3.806780639648437,-4.732824427480916,-42.0,-28.229007633587788,0.0
13.390000581741333,-9.088389501953124,0.09576806640624999,2.2577321655273437,-6.33587786259542,22.68702290076336,-20.778625954198475,-7.505822204589843,1.3766659545898436,2.2864625854492187,0.0,-46.274809160305345,-32.3206106870229,0.0
13.40000057220459,-9.785102185058593,0.9337386474609375,2.221819140625,-11.48091603053435,19.893129770992367,-19.0381679389313,-8.367734802246094,0.6631938598632812,2.770091320800781,-9.297709923664122,-35.70992366412214,-26.717557251908396,0.0
13.410000562667847,-9.988609326171874,0.033518823242187495,2.8419173706054686,-14.091603053435115,21.740458015267176,-17.52671755725191,-9.057264880371093,-0.411802685546875,3.2058360229492187,-2.2290076335877864,-39.51145038167939,-24.0,0.0
13.420000553131104,-10.287884533691406,0.19632453613281248,3.0142998901367184,-10.13740458015267,22.50381679389313,-16.946564885496183,-8.06367119140625,-0.7278373046875,2.8419173706054686,5.786259541984733,-40.10687022900763,-24.625954198473284,0.0
13.43000054359436,-9.734823950195311,0.9433154541015625,2.999934680175781,-12.854961832061068,19.84732824427481,-16.16793893129771,-5.5832782714843745,1.8076222534179687,1.1563994018554686,-1.7099236641221374,-37.221374045801525,-25.61832061068702,0.0
13.440000534057617,-10.81460889892578,0.7613561279296874,3.768473413085937,-19.801526717557252,18.82442748091603,-14.076335877862595,-7.022193469238281,1.0797849487304687,1.1635820068359375,-14.16793893129771,-26.045801526717558,-22.442748091603054,0.0
13.450000524520874,-8.91840118408203,-0.39983167724609375,2.9975404785156248,-17.450381679389313,15.251908396946565,-12.885496183206106,-8.588001354980468,-0.49799394531249996,2.0638018310546875,-7.603053435114504,-25.83206106870229,-20.564885496183205,0.0
13.46000051498413,-9.533711010742186,-0.46686932373046874,3.095702746582031,-8.763358778625955,14.122137404580153,-14.351145038167939,-8.542511523437499,-2.0542250244140625,2.2026655273437497,5.32824427480916,-24.229007633587788,-20.931297709923665,0.0
13.470000267028809,-10.594342346191405,-0.699106884765625,3.8857892944335934,-4.5038167938931295,13.17557251908397,-14.80916030534351,-7.544129431152343,-0.3687070556640625,1.8171990600585937,14.931297709923664,-25.114503816793892,-23.893129770992367,0.0
13.480000495910645,-9.485826977539062,-1.2425906616210938,3.854664672851562,3.7099236641221376,11.694656488549619,-13.618320610687023,-8.116343627929687,1.2497732666015624,1.6424223388671875,11.007633587786259,-16.519083969465647,-23.083969465648856,0.0
13.490000486373901,-8.568847741699217,-0.507570751953125,4.115632653808594,16.641221374045802,13.648854961832061,-13.908396946564885,-6.871358764648437,1.4413093994140624,1.5322890624999999,1.2366412213740459,-5.251908396946565,-21.114503816793892,0.0
13.500000476837158,-8.942343200683593,0.6655880615234374,4.067748620605468,19.923664122137403,10.229007633587786,-16.106870229007633,-7.8553756469726554,0.143652099609375,1.7022773803710936,5.66412213740458,-0.10687022900763359,-16.48854961832061,0.0
13.510000705718994,-7.529764221191406,-4.338293408203125,4.256890551757812,58.62595419847328,27.00763358778626,-15.755725190839694,-6.926425402832031,-0.1771709228515625,1.7381904052734374,14.381679389312977,1.8931297709923665,-17.14503816793893,0.0
13.520000696182251,-7.9463553100585935,-0.6631938598632812,3.210624426269531,74.90076335877863,25.251908396946565,-23.129770992366414,-8.662221606445312,-1.2880804931640624,3.181894006347656,25.84732824427481,3.0229007633587788,-15.83206106870229,0.0
13.530000448226929,-9.9981861328125,2.319981408691406,3.5769372802734374,67.96946564885496,19.251908396946565,-27.236641221374047,-8.513781103515624,-0.7613561279296874,2.959233251953125,32.62595419847328,-0.916030534351145,-17.022900763358777,0.0
13.540000677108765,-6.89530078125,-0.7062894897460937,0.16998831787109375,68.1526717557252,8.473282442748092,-20.290076335877863,-6.5385647338867185,1.0893617553710937,1.7262193969726563,26.99236641221374,3.7404580152671754,-18.061068702290076,0.0
13.550000429153442,-8.729259252929687,1.6711527587890624,2.528276953125,85.31297709923665,22.549618320610687,-20.625954198473284,-8.846575134277343,1.1156979736328125,1.24498486328125,28.977099236641223,10.488549618320612,-13.34351145038168,0.0
13.5600004196167,-11.56159981689453,5.533000036621093,4.833893151855468,56.01526717557252,11.19083969465649,-24.610687022900763,-8.161833459472655,3.2225954345703123,1.2401964599609374,30.580152671755727,12.854961832061068,-10.717557251908397,0.0
13.570000648498535,-12.897564343261719,6.600813977050781,5.5449710449218745,28.50381679389313,-5.740458015267175,-14.183206106870228,-8.525752111816406,6.208164904785156,0.6607996582031249,18.229007633587788,14.580152671755725,-8.122137404580153,0.0
13.580000638961792,-8.473079675292968,0.5458779785156249,3.651157531738281,25.557251908396946,-18.061068702290076,1.3129770992366412,-8.315062365722655,7.146691955566406,1.8004396484374998,-15.923664122137405,28.076335877862597,-0.6259541984732825,0.0
13.59000039100647,-9.30147344970703,0.5458779785156249,2.6288334228515624,48.48854961832061,-8.748091603053435,5.282442748091603,-11.705251916503906,2.9568390502929685,3.1675287963867187,-33.29770992366412,29.435114503816795,7.083969465648855,0.0
13.600000619888306,-10.448296044921875,1.0438719238281249,2.85388837890625,44.229007633587784,-14.549618320610687,-0.5343511450381679,-10.182539660644531,3.9791631591796874,1.7836802368164062,-44.6412213740458,27.709923664122137,4.305343511450381,0.0
13.610000371932983,-13.338097448730467,3.7229835815429686,4.675875842285156,35.74045801526717,-16.625954198473284,0.732824427480916,-13.048399047851563,0.5123591552734374,3.076549133300781,-54.93129770992366,36.79389312977099,11.114503816793894,0.0
13.620000839233398,-8.882488159179687,-2.9568390502929685,3.3207577026367185,30.793893129770993,-30.137404580152673,8.763358778625955,-10.824185705566405,1.2425906616210938,1.6304513305664061,-50.42748091603053,24.015267175572518,10.106870229007633,0.0
13.630000352859497,-13.002909216308593,1.93451494140625,4.874594580078124,54.717557251908396,-18.763358778625953,10.793893129770993,-10.156203442382813,0.8092401611328125,1.0007762939453124,-56.595419847328245,31.022900763358777,9.16030534351145,0.0
13.640000820159912,-14.496891052246093,3.7134067749023436,5.197811804199218,16.366412213740457,-34.47328244274809,12.793893129770993,-11.92551846923828,-1.2785036865234374,0.6751648681640625,-46.51908396946565,23.770992366412212,13.267175572519085,0.0
13.65000057220459,-14.506467858886717,2.7533319091796873,5.781997009277344,0.42748091603053434,-48.152671755725194,19.374045801526716,-8.963891015625,0.9792284790039062,-1.5514426757812498,-43.74045801526717,20.99236641221374,7.984732824427481,0.0
13.660000801086426,-16.385916162109375,3.4955344238281247,6.574477758789062,-26.595419847328245,-62.33587786259542,27.17557251908397,-10.541669909667968,0.01915361328125,-0.6607996582031249,-48.29007633587786,29.81679389312977,10.778625954198473,0.0
13.670000553131104,-14.305354919433594,-1.3383587280273437,4.944026428222656,-30.47328244274809,-76.53435114503817,34.595419847328245,-10.204087475585936,-0.36391865234375,-0.32082302246093747,-42.06106870229008,26.33587786259542,10.335877862595419,0.0
13.680000305175781,-12.823344091796875,-2.2577321655273437,4.378994836425781,-4.458015267175573,-77.86259541984732,38.732824427480914,-7.299920861816406,2.243366955566406,-2.205059729003906,-50.778625954198475,29.96946564885496,5.00763358778626,0.0
13.690000534057617,-13.967772485351562,0.20350714111328125,4.608838195800781,-4.595419847328245,-82.68702290076335,40.99236641221374,-11.003750830078124,-1.7405846069335937,0.612915625,-50.25954198473283,38.06106870229008,11.86259541984733,0.0
13.700000524520874,-12.995726611328124,-0.6009446166992187,3.1076737548828124,-19.557251908396946,-98.99236641221374,42.274809160305345,-8.719682446289061,1.235408056640625,-1.0031704956054688,-47.404580152671755,28.916030534351144,7.129770992366412,0.0
13.71000051498413,-14.918270544433593,2.185906115722656,4.1754876953124995,-21.938931297709924,-101.43511450381679,46.12213740458015,-9.574412438964844,1.2641384765625,-0.28730419921875,-61.63358778625954,43.70992366412214,13.145038167938932,0.0
13.720000505447388,-13.740323327636718,0.39264907226562495,3.641580725097656,-50.030534351145036,-121.92366412213741,51.63358778625954,-11.14022032470703,-0.8571241943359375,0.6823474731445313,-54.900763358778626,34.93129770992366,15.633587786259541,0.0
13.730000257492065,-12.739547033691405,-1.47482822265625,1.5059528442382812,-41.11450381679389,-124.3206106870229,55.87786259541985,-9.265560424804686,1.43652099609375,-0.2561795776367187,-60.916030534351144,35.02290076335878,14.106870229007633,0.0
13.740000247955322,-12.064382165527343,-1.3144167114257812,1.2593500732421874,-38.412213740458014,-124.80916030534351,58.12213740458015,-11.006145031738281,-0.6560112548828124,0.9816226806640624,-62.045801526717554,38.030534351145036,19.51145038167939,0.0
13.750000715255737,-10.371681591796875,-3.4907460205078125,-0.062249243164062495,-37.12977099236641,-128.53435114503816,56.68702290076336,-11.513715783691406,-2.7365724975585937,1.3958195678710936,-47.98473282442748,32.0763358778626,18.50381679389313,0.0
13.760000705718994,-9.588777648925781,-3.687070556640625,-0.25139117431640623,-23.84732824427481,-123.80152671755725,54.88549618320611,-9.813832604980469,-1.599326708984375,-0.1005564697265625,-39.02290076335878,23.984732824427482,14.213740458015268,0.0
13.77000093460083,-8.21690009765625,-5.3390697021484375,-0.8499415893554687,-15.49618320610687,-121.6793893129771,52.900763358778626,-9.495403784179686,-0.5746083984375,-0.05027823486328125,-38.62595419847328,25.938931297709924,14.65648854961832,0.0
13.780000686645508,-8.774749084472656,-4.386177441406249,1.3766659545898436,-9.236641221374045,-118.68702290076335,46.62595419847328,-9.390058911132812,-1.158793603515625,0.9816226806640624,-36.88549618320611,30.702290076335878,16.045801526717558,0.0
13.790000677108765,-8.173804467773436,-7.079654309082031,1.6208745239257811,0.8396946564885496,-119.38931297709924,40.87022900763359,-11.145008728027342,-3.2441432495117186,1.7310078002929687,-21.480916030534353,27.282442748091604,16.18320610687023,0.0
13.8000009059906,-10.156203442382813,-2.4516625,2.3822306518554686,11.145038167938932,-111.6030534351145,33.083969465648856,-10.321403356933594,-1.6543933471679686,0.5386953735351562,-2.7480916030534353,15.572519083969466,10.335877862595419,0.0
13.810000658035278,-11.03248125,-0.8643067993164062,1.1061211669921875,-6.564885496183206,-114.93129770992367,29.16030534351145,-10.826579907226561,-1.9943699829101562,1.6400281372070311,2.564885496183206,19.053435114503817,11.48091603053435,0.0
13.820000648498535,-12.904746948242186,1.1156979736328125,1.455674609375,-20.106870229007633,-113.87786259541984,25.633587786259543,-10.029310754394531,0.16041151123046873,0.8714894042968749,5.526717557251908,12.534351145038167,8.83969465648855,0.0
13.830000400543213,-12.038045947265624,-0.16041151123046873,0.4644751220703125,-41.17557251908397,-123.16030534351145,27.6793893129771,-8.801085302734375,1.618480322265625,0.00239420166015625,-7.083969465648855,16.99236641221374,8.80916030534351,0.0
13.840000629425049,-15.579070202636718,4.209006518554688,3.9432501342773434,-55.87786259541985,-119.05343511450381,24.198473282442748,-10.855310327148437,-0.3758896606445312,0.4955997436523437,0.6870229007633588,18.38167938931298,12.748091603053435,0.0
13.850000619888306,-12.483367456054687,0.7254431030273437,2.578555187988281,-81.5114503816794,-138.4885496183206,26.229007633587788,-9.49300958251953,1.3862427612304686,0.08858546142578125,-1.099236641221374,19.66412213740458,13.221374045801527,0.0
13.860000848770142,-14.705186596679686,2.978386865234375,5.008669873046875,-87.32824427480917,-130.91603053435114,23.328244274809162,-9.6151138671875,0.679953271484375,0.11013327636718749,-2.3206106870229006,24.091603053435115,15.114503816793894,0.0
13.87000060081482,-12.502521069335936,-0.031124621582031248,0.7038952880859375,-108.82442748091603,-151.3587786259542,25.6793893129771,-9.425971936035156,0.9361328491210937,-0.22505495605468748,-0.42748091603053434,25.17557251908397,16.35114503816794,0.0
13.880000829696655,-12.993332409667968,1.216254443359375,2.051830822753906,-101.1145038167939,-140.3053435114504,25.129770992366414,-9.442731347656249,0.13407529296874998,-0.277727392578125,0.5648854961832062,28.778625954198475,18.244274809160306,0.0
13.890000581741333,-8.544905725097657,-3.366247534179687,0.36631285400390623,-99.43511450381679,-150.44274809160305,28.65648854961832,-9.634267480468749,0.20350714111328125,-0.354341845703125,4.9465648854961835,30.610687022900763,18.03053435114504,0.0
13.900000810623169,-9.258377819824219,-3.744531396484375,0.3280056274414062,-77.45038167938931,-133.6793893129771,28.106870229007633,-9.720458740234374,-0.2920926025390625,-0.3495534423828125,7.4961832061068705,32.67175572519084,18.885496183206108,0.0
13.910000324249268,-5.367800122070312,-5.391742138671875,-0.16519991455078123,-58.18320610687023,-121.43511450381679,22.793893129770993,-9.648632690429688,-0.603338818359375,0.011971008300781249,15.526717557251908,34.83969465648855,18.82442748091603,0.0
13.920000553131104,-5.358223315429687,-5.691017346191406,-0.6200982299804687,-40.29007633587786,-103.34351145038168,15.49618320610687,-9.835380419921874,-0.9935936889648437,0.11013327636718749,22.65648854961832,34.717557251908396,19.251908396946565,0.0
13.93000054359436,-3.7900212280273435,-5.944802722167968,-1.1540052001953125,-9.908396946564885,-76.29007633587786,8.0,-9.991003527832031,-1.419761584472656,0.6081272216796875,31.221374045801525,34.79389312977099,18.290076335877863,0.0
13.940000534057617,-3.0933085449218747,-4.2329485351562495,0.1197100830078125,-7.145038167938932,-64.94656488549619,-1.1603053435114503,-9.603142858886718,-0.928950244140625,0.8283937744140625,36.916030534351144,32.61068702290076,16.946564885496183,0.0
13.950000286102295,-2.3487118286132813,-4.6830584472656245,0.6296750366210937,13.206106870229007,-41.69465648854962,-3.282442748091603,-9.883264453125,-0.7541735229492187,0.8188169677734375,37.52671755725191,30.15267175572519,17.541984732824428,0.0
13.96000051498413,-2.308010400390625,-3.394977954101562,1.5777788940429687,32.33587786259542,-18.366412213740457,-7.969465648854962,-9.425971936035156,-0.2825157958984375,1.0917559570312498,40.51908396946565,29.328244274809162,16.564885496183205,0.0
13.970000505447388,-2.2026655273437497,-2.281674182128906,2.403778466796875,43.541984732824424,-5.511450381679389,-11.603053435114504,-9.34696328125,0.2442085693359375,1.158793603515625,39.14503816793893,27.34351145038168,16.48854961832061,0.0
13.980000495910645,-4.994304663085937,1.465251416015625,4.6064439941406246,32.2442748091603,0.07633587786259542,-15.786259541984732,-7.651868505859374,2.5546131713867184,-0.031124621582031248,24.12213740458015,24.48854961832061,15.206106870229007,0.0
13.990000486373901,-6.272808349609375,2.3151930053710936,4.467580297851562,21.16030534351145,5.358778625954199,-12.931297709923664,-9.715670336914062,2.360682836914062,0.8667010009765624,10.427480916030534,31.755725190839694,20.442748091603054,0.0
14.000000476837158,-6.124367846679687,2.6288334228515624,5.758054992675781,7.419847328244275,-0.15267175572519084,-10.274809160305344,-7.8912886718749995,2.7557261108398436,-0.3950432739257812,-5.648854961832061,30.99236641221374,20.076335877862597,0.0
14.010000944137573,-5.743689782714843,1.7693150268554687,5.6766521362304685,4.412213740458015,0.015267175572519083,-4.854961832061068,-9.284714038085937,0.3591302490234375,0.47644613037109373,-15.587786259541986,36.83969465648855,25.572519083969464,0.0
14.020000696182251,-6.210559106445312,1.4006079711914061,6.131550451660156,2.4122137404580153,0.015267175572519083,-1.8778625954198473,-10.472238061523436,-1.927332336425781,2.0254946044921875,-14.687022900763358,42.42748091603053,26.885496183206108,0.0
14.030000686645508,-5.884947680664062,0.852335791015625,5.853823059082031,6.442748091603053,1.0534351145038168,0.7633587786259542,-10.134655627441406,-0.2657563842773437,1.4413093994140624,-1.5267175572519085,31.49618320610687,21.480916030534353,0.0
14.040000677108765,-8.152256652832031,3.8666356811523435,6.732495068359374,-3.5114503816793894,-0.6564885496183206,0.916030534351145,-9.315838659667968,0.4381389038085937,0.20350714111328125,-16.106870229007633,31.84732824427481,18.015267175572518,0.0
14.050000667572021,-6.124367846679687,1.8698714965820311,5.798756420898437,-14.50381679389313,-7.893129770992366,6.961832061068702,-10.524910498046875,-1.3479355346679687,1.0941501586914062,-14.198473282442748,37.19083969465649,22.900763358778626,0.0
14.060000658035278,-4.3430818115234375,0.023942016601562498,4.5322237426757805,-3.6030534351145036,-3.49618320610687,9.755725190839694,-10.206481677246094,-0.29927520751953124,-0.4836287353515625,-1.2366412213740459,28.732824427480917,19.297709923664122,0.0
14.070000648498535,-6.909665991210937,2.5737667846679684,5.5090580200195305,-3.1603053435114505,5.633587786259542,6.687022900763359,-10.939107385253905,-0.699106884765625,1.3718775512695311,0.2595419847328244,32.35114503816794,21.64885496183206,0.0
14.080000638961792,-3.299209887695312,-0.3136404174804687,3.881000891113281,-1.5114503816793894,4.213740458015267,10.992366412213741,-10.615890161132812,0.3280056274414062,1.1516109985351561,-1.5267175572519085,29.068702290076335,21.419847328244273,0.0
14.090000629425049,-4.352658618164062,1.2904746948242187,4.6255976074218745,6.732824427480916,20.03053435114504,9.48091603053435,-8.59278975830078,2.750937707519531,-0.584185205078125,-17.46564885496183,30.091603053435115,20.15267175572519,0.0
14.100000619888306,-7.671022119140624,3.239354846191406,9.085995300292968,-3.053435114503817,19.0381679389313,7.297709923664122,-11.111489904785156,-0.51714755859375,1.8435352783203125,-16.916030534351144,39.19083969465649,30.68702290076336,0.0
14.110000610351562,-7.254431030273437,1.0007762939453124,12.370839978027343,-0.6259541984732825,6.351145038167939,13.267175572519085,-11.245565197753905,-1.3311761230468748,1.9871873779296874,-3.404580152671756,31.954198473282442,30.549618320610687,0.0
14.120000839233398,-7.038952880859375,1.5849614990234373,12.773065856933593,19.236641221374047,2.50381679389313,21.72519083969466,-10.16338604736328,0.15562310791015624,0.9935936889648437,-7.7251908396946565,22.748091603053435,23.114503816793892,0.0
14.130000591278076,-7.917624890136718,2.47081611328125,10.443507641601562,18.793893129770993,3.404580152671756,29.267175572519083,-8.63827958984375,1.70467158203125,-1.5490484741210937,-23.00763358778626,22.458015267175572,22.396946564885496,0.0
14.140000820159912,-9.145850341796875,1.7453730102539062,8.152256652832031,18.625954198473284,3.4656488549618323,36.19847328244275,-10.599130749511717,-1.4700398193359374,0.7829039428710937,-17.282442748091604,27.00763358778626,30.641221374045802,0.0
14.15000057220459,-9.217676391601563,-0.8020575561523438,7.335833886718749,18.015267175572518,4.213740458015267,38.56488549618321,-11.250353601074218,-1.7334020019531249,1.7166425903320313,-1.5267175572519085,16.99236641221374,27.603053435114504,0.0
14.160000801086426,-8.585607153320312,-1.5514426757812498,7.220912207031249,17.923664122137403,6.763358778625954,37.282442748091604,-8.650250598144531,3.3494881225585935,-4.489128112792969,-21.251908396946565,1.1450381679389312,16.68702290076336,0.0
14.170000314712524,-9.167398156738281,-0.08858546142578125,7.7596075805664055,10.213740458015268,8.534351145038167,35.48091603053435,-8.731653454589843,2.597708801269531,-2.43250888671875,-57.17557251908397,26.18320610687023,23.114503816793892,0.0
14.180000305175781,-8.410830432128906,-0.6871358764648438,6.495469104003906,6.030534351145038,8.198473282442748,37.23664122137404,-10.828974108886719,-0.00239420166015625,-1.5083470458984374,-36.85496183206107,22.061068702290076,30.9618320610687,0.0
14.190000534057617,-6.555324145507812,-1.2904746948242187,4.218583325195312,11.786259541984732,13.374045801526718,35.63358778625954,-10.505756884765624,2.2002713256835937,-1.889025109863281,-32.56488549618321,21.49618320610687,29.206106870229007,0.0
14.200000524520874,-3.8139632446289062,-4.266467358398438,2.9472622436523435,12.625954198473282,19.541984732824428,29.51145038167939,-6.804321118164062,4.448426684570312,-4.256890551757812,-57.49618320610687,25.96946564885496,22.442748091603054,0.0
14.21000051498413,-4.6998178588867185,-5.944802722167968,4.623203405761719,27.480916030534353,32.06106870229008,14.396946564885496,-11.939883679199218,0.016759411621093748,0.3447650390625,-49.41984732824427,36.48854961832061,27.236641221374047,0.0
14.220000267028809,-6.086060620117187,-4.376600634765625,4.714183068847656,40.595419847328245,40.595419847328245,0.9007633587786259,-10.072406384277343,3.7229835815429686,-4.639962817382812,-51.83206106870229,34.732824427480914,22.48854961832061,0.0
14.230000257492065,-8.090007409667969,-2.1595698974609374,4.5322237426757805,44.58015267175573,44.82442748091603,-8.900763358778626,-13.43865391845703,-0.814028564453125,1.0917559570312498,-47.17557251908397,35.89312977099237,26.9618320610687,0.0
14.240000486373901,-9.643844287109374,0.6871358764648438,4.338293408203125,44.62595419847328,49.29770992366412,-14.106870229007633,-12.926294763183593,0.7829039428710937,-0.584185205078125,-24.48854961832061,18.595419847328245,26.564885496183205,0.0
14.250000238418579,-10.800243688964843,2.6958710693359373,4.498704919433593,30.763358778625953,51.69465648854962,-14.458015267175572,-12.126631408691406,3.1387983764648437,-2.0566192260742184,-46.54961832061068,19.068702290076335,21.34351145038168,0.0
14.260000705718994,-10.903194360351561,2.262520568847656,4.996698864746094,14.13740458015267,51.099236641221374,-12.305343511450381,-13.165714929199218,1.8842367065429686,-1.5418658691406248,-55.31297709923664,19.374045801526716,24.076335877862597,0.0
14.27000093460083,-11.700463513183593,1.8315642700195311,5.087678527832031,5.7251908396946565,50.213740458015266,-11.114503816793894,-15.811307763671874,0.143652099609375,2.2098481323242187,-21.099236641221374,8.16793893129771,31.572519083969464,0.0
14.280000448226929,-11.954248889160155,1.886630908203125,4.496310717773437,-1.4198473282442747,47.83206106870229,-9.083969465648854,-14.470554833984375,1.5179238525390624,0.7996633544921875,-3.7709923664122136,-10.946564885496183,30.213740458015266,0.0
14.290000677108765,-11.188104357910156,1.7860744384765623,3.1842882080078123,-9.32824427480916,45.6793893129771,-6.229007633587786,-12.86404552001953,2.5665841796874997,0.4908113403320312,-12.427480916030534,-9.557251908396946,26.549618320610687,0.0
14.300000429153442,-9.665392102050781,0.7062894897460937,2.427720483398437,-12.534351145038167,46.50381679389313,-2.7786259541984735,-12.358868969726561,2.5163059448242184,0.2609679809570312,-13.282442748091603,-11.099236641221374,25.755725190839694,0.0
14.310000658035278,-9.234435803222656,-0.086191259765625,2.5330653564453125,-9.587786259541986,52.13740458015267,-2.564885496183206,-12.014103930664062,2.8107927490234372,-0.009576806640625,-11.114503816793894,-12.564885496183207,25.00763358778626,0.0
14.320000410079956,-10.670956799316405,0.4525041137695312,2.5043349365234375,-3.7709923664122136,59.7557251908397,-3.49618320610687,-11.56159981689453,2.7820623291015623,0.7015010864257812,-6.580152671755725,-14.198473282442748,24.48854961832061,0.0
14.330000400543213,-9.789890588378906,0.05985504150390625,1.9393033447265624,2.9618320610687023,64.67175572519083,-3.2519083969465647,-11.645396875,2.8323405639648436,-0.32561142578124996,-4.244274809160306,-15.801526717557252,23.053435114503817,0.0
14.340000629425049,-9.464279162597656,0.3902548706054687,1.908178723144531,10.030534351145038,71.23664122137404,-4.2748091603053435,-11.489773767089844,2.81558115234375,0.26815058593749996,-3.2213740458015265,-17.282442748091604,21.0381679389313,0.0
14.350000619888306,-10.802637890625,1.656787548828125,2.6719290527343746,9.34351145038168,74.93129770992367,-7.114503816793893,-11.269507214355468,2.437297290039062,0.9457096557617187,-1.9541984732824427,-19.00763358778626,18.702290076335878,0.0
14.360000371932983,-9.581595043945311,0.8116343627929687,2.138022082519531,9.297709923664122,76.61068702290076,-6.885496183206107,-11.204863769531249,2.3151930053710936,0.10295067138671875,-2.9770992366412212,-20.50381679389313,15.801526717557252,0.0
14.37000060081482,-9.255983618164063,0.7972691528320313,1.924938134765625,12.580152671755725,80.51908396946565,-9.16030534351145,-10.196904870605469,2.0781670410156248,0.8164227661132812,-3.7557251908396947,-22.916030534351144,13.17557251908397,0.0
14.380000829696655,-10.376469995117187,1.8291700683593748,2.3032219970703123,11.511450381679388,83.69465648854961,-12.641221374045802,-12.854468713378905,-1.1324573852539062,3.488351818847656,18.641221374045802,-26.259541984732824,13.587786259541986,0.0
14.390000581741333,-9.835380419921874,1.6639701538085936,1.8171990600585937,8.305343511450381,81.58778625954199,-12.183206106870228,-9.502586389160156,2.7533319091796873,-0.32082302246093747,20.610687022900763,-40.12213740458015,2.5343511450381677,0.0
14.40000057220459,-9.746794958496093,2.5665841796874997,2.6048914062499997,4.061068702290076,83.34351145038168,-11.603053435114504,-10.493785876464843,0.7350199096679687,1.4101847778320311,7.251908396946565,-35.12977099236641,-2.900763358778626,0.0
14.410000562667847,-10.08677159423828,2.418143676757812,2.3630770385742186,-1.7557251908396947,81.70992366412214,-11.068702290076336,-10.405200415039062,-1.39821376953125,1.8938135131835936,22.625954198473284,-44.030534351145036,-8.0,0.0
14.420000553131104,-9.464279162597656,1.5562310791015623,2.6048914062499997,-5.938931297709924,80.35114503816794,-9.694656488549619,-9.746794958496093,0.12210428466796874,1.2569558715820313,28.061068702290076,-54.778625954198475,-19.251908396946565,0.0
14.43000054359436,-9.095572106933593,1.675941162109375,2.6862942626953124,-6.702290076335878,80.9618320610687,-8.381679389312977,-8.341398583984375,1.2234370483398436,0.4261678955078125,6.748091603053435,-52.229007633587784,-29.206106870229007,0.0
14.440000295639038,-9.641450085449218,2.3726538452148436,3.2609026611328122,-13.404580152671755,78.30534351145039,-8.702290076335878,-8.655039001464843,0.16280571289062498,1.5634136840820312,8.778625954198473,-47.9236641221374,-31.374045801526716,0.0
14.450000524520874,-9.708487731933593,1.2737152832031249,3.1268273681640624,-18.0,73.74045801526718,-7.8320610687022905,-9.191340173339842,0.8667010009765624,1.2785036865234374,29.954198473282442,-58.229007633587784,-35.6793893129771,0.0
14.46000051498413,-9.6151138671875,0.06464344482421874,3.545812658691406,-14.946564885496183,73.64885496183206,-7.801526717557252,-9.074024291992187,1.3168109130859373,0.17238251953125,28.0,-50.76335877862596,-38.229007633587784,0.0
14.470000267028809,-8.86812294921875,-1.2665326782226562,3.5889082885742187,-9.648854961832061,72.67175572519083,-8.946564885496183,-9.306261853027344,0.8283937744140625,0.45968671875,46.82442748091603,-56.83969465648855,-39.603053435114504,0.0
14.480000495910645,-9.018957653808593,-1.2042834350585936,3.8187516479492185,-0.5801526717557252,73.38931297709924,-13.099236641221374,-8.238447912597655,4.297591979980469,-1.5705962890624998,47.45038167938932,-57.61832061068702,-43.45038167938932,0.0
14.490000247955322,-9.60793126220703,0.239420166015625,3.8570588745117185,0.2748091603053435,70.91603053435115,-15.709923664122137,-8.310273962402343,3.4931402221679684,-0.44532150878906246,41.11450381679389,-50.656488549618324,-37.66412213740458,0.0
14.500000476837158,-8.705317236328124,-0.45010991210937495,3.478775012207031,1.450381679389313,67.46564885496183,-15.755725190839694,-7.68059892578125,4.821922143554687,-1.0606313354492187,41.25190839694657,-50.0763358778626,-36.213740458015266,0.0
14.510000705718994,-8.109161022949218,0.12689268798828124,3.3327287109375,7.450381679389313,68.4885496183206,-15.664122137404581,-6.399701037597656,4.946420629882812,-1.956062756347656,28.0,-40.961832061068705,-30.396946564885496,0.0
14.520000457763672,-8.212111694335936,-0.5482721801757812,3.3303345092773435,8.625954198473282,66.4885496183206,-17.51145038167939,-7.410054138183593,4.955997436523437,-2.262520568847656,33.19083969465649,-41.587786259541986,-24.641221374045802,0.0
14.530000686645508,-8.05648858642578,-0.06703764648437499,3.258508459472656,14.80916030534351,67.83206106870229,-18.580152671755727,-5.774814404296874,5.1523219726562495,-2.118868469238281,20.732824427480917,-30.9618320610687,-19.282442748091604,0.0
14.540000677108765,-8.865728747558594,0.9265560424804687,3.5506010620117183,10.549618320610687,64.50381679389314,-20.9618320610687,-6.974309436035155,3.909731311035156,-0.46208092041015625,16.99236641221374,-26.427480916030536,-12.793893129770993,0.0
14.550000667572021,-8.350975390624999,0.3806780639648437,3.0597897216796874,10.778625954198473,61.81679389312977,-20.702290076335878,-8.188169677734374,1.8315642700195311,-0.7110778930664062,26.259541984732824,-22.564885496183205,-9.282442748091603,0.0
14.560000658035278,-8.054094384765625,-0.21068974609375,2.9376854370117185,18.885496183206108,63.725190839694655,-21.755725190839694,-8.02536396484375,2.6240450195312497,-0.8212111694335937,34.396946564885496,-26.50381679389313,-11.297709923664122,0.0
14.570000648498535,-9.038111267089842,0.9504980590820312,3.5482068603515624,19.87786259541985,63.32824427480916,-24.35114503816794,-9.6917283203125,0.6296750366210937,1.0103531005859374,37.099236641221374,-18.68702290076336,-7.969465648854962,0.0
14.580000638961792,-9.380482104492186,1.5562310791015623,3.835511059570312,13.221374045801527,57.19083969465649,-25.83206106870229,-9.0788126953125,1.2378022583007813,0.6416460449218749,43.6793893129771,-24.916030534351144,-11.206106870229007,0.0
14.59000039100647,-9.495403784179686,1.8004396484374998,3.2824504760742186,9.19083969465649,52.42748091603053,-23.603053435114504,-9.93354268798828,0.44532150878906246,1.1827356201171875,52.47328244274809,-29.129770992366414,-13.007633587786259,0.0
14.600000381469727,-10.249577307128906,1.8722656982421875,3.2513258544921873,7.419847328244275,50.045801526717554,-22.946564885496183,-11.872846032714843,-1.3000515014648437,2.932897033691406,68.50381679389314,-33.57251908396947,-15.557251908396946,0.0
14.610000610351562,-10.046070166015625,2.6479870361328124,3.459621398925781,4.595419847328245,46.030534351145036,-22.549618320610687,-7.845798840332031,3.438073583984375,0.11013327636718749,62.79389312977099,-42.62595419847328,-24.259541984732824,0.0
14.620000839233398,-11.188104357910156,3.4332851806640625,3.2800562744140622,-4.244274809160306,42.3206106870229,-18.946564885496183,-10.886434948730468,1.8650830932617186,1.13006318359375,57.7557251908397,-42.900763358778626,-20.946564885496183,0.0
14.630000591278076,-10.8409451171875,3.967192150878906,3.5122938354492184,-9.48091603053435,39.43511450381679,-17.389312977099237,-9.13627353515625,4.13718046875,0.7015010864257812,46.19847328244275,-43.06870229007634,-23.786259541984734,0.0
14.640000581741333,-10.024522351074218,3.0789433349609374,3.1076737548828124,-14.885496183206106,36.61068702290076,-14.244274809160306,-10.55364091796875,2.4684219116210935,2.913743420410156,31.64885496183206,-34.16793893129771,-19.83206106870229,0.0
14.65000057220459,-10.702081420898438,2.4205378784179685,3.35188232421875,-20.137404580152673,33.541984732824424,-12.50381679389313,-10.836156713867187,2.0661960327148434,2.9544448486328125,36.12213740458015,-46.0,-23.52671755725191,0.0
14.660000801086426,-10.884040747070312,1.8291700683593748,3.0693665283203124,-15.694656488549619,31.389312977099237,-10.01526717557252,-9.04050546875,3.1747114013671873,2.398990063476562,26.091603053435115,-43.80152671755725,-24.442748091603054,0.0
14.670000314712524,-11.353304272460937,2.422932080078125,2.8898014038085935,-19.083969465648856,29.114503816793892,-7.435114503816794,-9.26316622314453,2.8036101440429686,2.2266075439453124,13.129770992366412,-42.94656488549618,-22.290076335877863,0.0
14.68000054359436,-9.030928662109375,0.3591302490234375,1.707065783691406,-15.526717557251908,22.625954198473284,-3.3893129770992365,-10.390835205078124,1.68551796875,2.834734765625,10.534351145038167,-46.85496183206107,-22.458015267175572,0.0
14.690000534057617,-8.760383874511719,-0.6488286499023437,1.8722656982421875,-4.534351145038168,27.17557251908397,-3.404580152671756,-8.870517150878905,2.93050283203125,2.0278888061523435,4.824427480916031,-50.10687022900763,-26.15267175572519,0.0
14.700000524520874,-8.820238916015624,0.5817910034179687,1.93451494140625,-1.2061068702290076,28.290076335877863,-5.00763358778626,-7.728482958984374,3.995922570800781,1.0271125122070313,-15.816793893129772,-42.10687022900763,-24.99236641221374,0.0
14.71000051498413,-9.081206896972656,1.0534487304687499,1.637633935546875,-5.419847328244275,24.778625954198475,-5.129770992366412,-9.718064538574218,1.927332336425781,1.9512743530273435,-25.572519083969464,-41.587786259541986,-22.366412213740457,0.0
14.720000505447388,-9.105148913574219,0.32082302246093747,1.3239935180664062,-2.8244274809160306,25.14503816793893,-4.9465648854961835,-9.545682019042967,0.2657563842773437,2.27927998046875,-19.66412213740458,-43.29770992366412,-23.587786259541986,0.0
14.730000257492065,-8.698134631347656,-0.5339069702148437,0.8116343627929687,-0.4122137404580153,25.557251908396946,-4.473282442748092,-9.45470235595703,1.2473790649414063,1.8938135131835936,-16.38167938931298,-46.80916030534351,-26.50381679389313,0.0
14.740000247955322,-9.93354268798828,0.0430956298828125,1.4772224243164063,-0.3969465648854962,31.0381679389313,-6.366412213740458,-10.014945544433592,1.4915876342773438,1.8746598999023436,-20.3206106870229,-45.87786259541985,-26.18320610687023,0.0
14.750000715255737,-8.815450512695312,-1.1085153686523437,0.6057330200195312,-1.1908396946564885,28.900763358778626,-6.977099236641221,-9.672574707031249,0.44532150878906246,2.212242333984375,-28.03053435114504,-40.2442748091603,-25.129770992366414,0.0
14.760000705718994,-9.066841687011719,-1.467645617675781,0.689530078125,7.419847328244275,34.58015267175573,-9.603053435114504,-9.591171850585937,0.239420166015625,2.6312276245117188,-20.091603053435115,-44.6412213740458,-27.358778625954198,0.0
14.77000093460083,-9.241618408203124,-1.5490484741210937,0.26336218261718747,9.038167938931299,33.9236641221374,-13.648854961832061,-9.181763366699219,-0.15562310791015624,1.905784521484375,-7.358778625954199,-52.67175572519084,-30.366412213740457,0.0
14.780000448226929,-10.072406384277343,0.17238251953125,1.0390835205078124,14.213740458015268,37.37404580152672,-16.015267175572518,-7.381323718261719,1.6927005737304686,1.4867992309570313,-17.053435114503817,-45.61832061068702,-29.908396946564885,0.0
