timestamp,Thigh_L_Acc_X,Thigh_L_Acc_Y,Thigh_L_Acc_Z,Thigh_L_Gyr_X,Thigh_L_Gyr_Y,Thigh_L_Gyr_Z,Thigh_R_Acc_X,Thigh_R_Acc_Y,Thigh_R_Acc_Z,Thigh_R_Gyr_X,Thigh_R_Gyr_Y,Thigh_R_Gyr_Z,gpio_output
10.000000715255737,-11.37006368408203,2.059013427734375,0.8571241943359375,6.748091603053435,52.0,-13.022900763358779,-9.53131680908203,4.388571643066406,0.86191259765625,10.213740458015268,42.29007633587786,27.328244274809162,0.0
10.010000705718994,-12.186486450195313,2.6886884643554687,1.8291700683593748,-8.702290076335878,46.67175572519084,-10.488549618320612,-8.872911352539061,3.4739866088867184,2.0302830078125,-2.183206106870229,47.786259541984734,32.30534351145038,1.0
10.02000093460083,-11.159373937988281,1.9919757812499999,1.9225439331054686,-18.076335877862597,36.67175572519084,-5.114503816793893,-10.565611926269531,-0.34237083740234375,2.971204260253906,8.610687022900763,44.0763358778626,35.404580152671755,1.0
10.030000686645508,-11.413159313964844,1.4820108276367188,2.281674182128906,-21.633587786259543,29.51145038167939,-1.465648854961832,-9.449913952636718,0.9840168823242187,3.392583752441406,21.00763358778626,33.55725190839695,30.99236641221374,1.0
10.040005207061768,-9.878476049804688,-1.2018892333984375,1.608903515625,-8.320610687022901,28.946564885496183,1.9694656488549618,-9.562441430664062,1.3311761230468748,3.447650390625,26.977099236641223,27.282442748091604,29.541984732824428,1.0
10.050000667572021,-9.131485131835937,-1.0510545288085937,1.1755530151367186,4.0,30.12213740458015,-0.4580152671755725,-9.141061938476563,2.3630770385742186,2.5354595581054684,23.69465648854962,23.129770992366414,27.64885496183206,1.0
10.060000658035278,-10.000580334472655,0.9983820922851562,2.039859814453125,2.3053435114503817,29.587786259541986,-4.076335877862595,-9.37808790283203,1.9728221679687499,3.478775012207031,20.85496183206107,21.66412213740458,28.916030534351144,1.0
10.070041418075562,-9.387664709472656,1.209071838378906,1.7166425903320313,-2.16793893129771,23.96946564885496,-4.0458015267175576,-9.282319836425781,2.1547814941406247,2.655169641113281,16.977099236641223,16.50381679389313,26.47328244274809,1.0
10.080000638961792,-10.81460889892578,3.1100679565429687,2.250549560546875,-14.50381679389313,18.946564885496183,-3.9389312977099236,-10.271125122070313,1.3934253662109375,2.8730419921875,15.709923664122137,15.297709923664122,25.83206106870229,1.0
10.09000039100647,-10.414777221679687,2.039859814453125,1.8770541015625,-14.473282442748092,15.404580152671755,-0.6259541984732825,-9.710881933593749,1.9201497314453124,2.4875755249023435,10.763358778625955,11.129770992366412,22.900763358778626,1.0
10.100055932998657,-9.964667309570311,1.7573440185546874,2.310404602050781,-9.114503816793894,18.16793893129771,0.549618320610687,-10.424354028320312,0.9409212524414062,2.935291235351562,9.48091603053435,9.511450381679388,22.549618320610687,1.0
10.110000371932983,-8.813056311035156,-0.4860229370117187,0.8762778076171874,-4.015267175572519,15.86259541984733,2.946564885496183,-9.679757312011718,1.467645617675781,2.2074539306640624,6.870229007633588,4.244274809160306,18.931297709923665,1.0
10.12000036239624,-10.01733974609375,1.4173673828125,1.407790576171875,-0.6870229007633588,19.954198473282442,0.7633587786259542,-10.465055456542968,0.14125789794921875,3.009511486816406,7.908396946564886,2.6259541984732824,18.015267175572518,1.0
10.130000591278076,-9.928754284667969,1.458068811035156,1.3215993164062498,-6.6106870229007635,17.022900763358777,0.732824427480916,-9.03332286376953,1.924938134765625,1.2689268798828124,9.893129770992367,-9.511450381679388,12.427480916030534,1.0
10.14007568359375,-9.91438907470703,1.7429788085937499,1.0821791503906248,-8.961832061068701,16.519083969465647,2.6564885496183206,-10.589553942871094,0.8451531860351562,2.492363928222656,6.763358778625954,-5.038167938931298,13.694656488549619,1.0
10.150000810623169,-9.823409411621093,1.659181750488281,1.3910311645507811,-13.374045801526718,16.625954198473284,2.687022900763359,-9.0021982421875,2.6623522460937497,1.6017209106445311,-4.458015267175573,-3.9389312977099236,12.122137404580153,1.0
10.160000562667847,-9.526528405761718,1.0223241088867188,1.1420341918945311,-16.580152671755727,14.396946564885496,3.3893129770992365,-9.952696301269532,1.7573440185546874,1.9584569580078124,-6.137404580152672,-3.0229007633587788,12.793893129770993,1.0
10.170000553131104,-10.311826550292968,0.9576806640625,1.2689268798828124,-16.015267175572518,13.099236641221374,2.7786259541984735,-9.952696301269532,0.8906430175781249,2.205059729003906,-2.946564885496183,-3.2213740458015265,11.267175572519085,1.0
10.180000305175781,-9.303867651367186,-0.2609679809570312,0.6607996582031249,-9.694656488549619,12.80916030534351,2.931297709923664,-8.25520732421875,3.1507693847656246,0.8978256225585937,-6.106870229007634,-7.648854961832061,4.580152671755725,1.0
10.190014123916626,-9.900023864746093,0.41419688720703124,1.0366893188476562,-8.183206106870228,12.717557251908397,1.5419847328244274,-9.89523546142578,1.446097802734375,1.3168109130859373,-6.305343511450381,-1.6641221374045803,7.419847328244275,1.0
10.200000524520874,-8.997409838867187,-0.30406361083984373,1.0366893188476562,-4.229007633587786,11.557251908396946,1.5725190839694656,-8.611943371582031,3.153163586425781,0.277727392578125,-10.473282442748092,-3.435114503816794,3.49618320610687,1.0
10.210042715072632,-9.179369165039063,-1.0797849487304687,1.1540052001953125,3.2519083969465647,12.931297709923664,0.3816793893129771,-9.976638317871092,1.8555062866210936,0.93852705078125,-11.740458015267176,1.3740458015267176,5.038167938931298,0.0
10.220000505447388,-9.64623848876953,-1.0749965454101562,1.4867992309570313,20.412213740458014,19.251908396946565,-3.5877862595419847,-9.777919580078125,1.5921441040039062,1.1755530151367186,-10.854961832061068,2.183206106870229,1.984732824427481,0.0
10.230000495910645,-10.259154113769531,0.49799394531249996,1.3958195678710936,23.541984732824428,18.625954198473284,-6.366412213740458,-9.744400756835937,1.4532804077148436,1.4628572143554686,-9.98473282442748,2.1526717557251906,-0.3969465648854962,0.0
10.240000486373901,-8.63109698486328,0.2609679809570312,0.32082302246093747,21.282442748091604,13.114503816793894,-4.885496183206107,-9.777919580078125,1.3431471313476562,1.5514426757812498,-8.106870229007633,0.8091603053435115,-1.297709923664122,0.0
10.250000476837158,-8.63827958984375,0.5123591552734374,0.28012159423828126,22.595419847328245,15.007633587786259,-4.748091603053435,-9.782707983398437,1.4245499877929686,1.714248388671875,-8.244274809160306,-0.04580152671755725,-2.2748091603053435,0.0
10.260001182556152,-8.686163623046875,0.7781155395507812,0.49320554199218747,20.106870229007633,15.465648854961833,-5.32824427480916,-9.667786303710937,1.6472107421875,1.649604943847656,-8.412213740458014,-1.2671755725190839,-2.2595419847328246,0.0
10.270000696182251,-10.129867224121092,1.3670891479492187,1.3048399047851562,18.442748091603054,20.106870229007633,-6.137404580152672,-9.509768994140625,1.6136919189453125,1.8004396484374998,-9.145038167938932,-1.8931297709923665,-2.7938931297709924,0.0
10.280000925064087,-10.884040747070312,1.9800047729492187,1.3335703247070312,11.404580152671755,18.916030534351144,-5.526717557251908,-9.591171850585937,1.7501614135742187,1.7381904052734374,-10.534351145038167,-2.6259541984732824,-2.8702290076335877,0.0
10.290000677108765,-10.972626208496093,2.094926452636719,1.39821376953125,7.221374045801527,19.66412213740458,-5.297709923664122,-9.610325463867188,1.675941162109375,1.8339584716796873,-12.381679389312977,-3.480916030534351,-2.7786259541984735,0.0
10.300039529800415,-10.62307276611328,2.2194249389648437,1.149216796875,-0.9770992366412213,17.84732824427481,-4.687022900763359,-9.409212524414063,1.6424223388671875,1.8339584716796873,-14.16793893129771,-4.290076335877862,-3.0076335877862594,0.0
10.310000658035278,-9.035717065429687,0.6512228515624999,0.41898529052734373,-1.1755725190839694,18.38167938931298,-3.8473282442748094,-9.560047229003906,0.7541735229492187,2.205059729003906,-14.885496183206106,-5.068702290076335,-2.9923664122137406,0.0
10.320000648498535,-8.853757739257812,-0.15083470458984374,-0.29927520751953124,-6.564885496183206,15.603053435114504,-4.1679389312977095,-10.357316381835936,-0.26815058593749996,2.003946789550781,-3.969465648854962,-14.381679389312977,-4.824427480916031,0.0
10.330000638961792,-9.306261853027344,-0.2825157958984375,-0.21068974609375,-7.083969465648855,15.954198473282442,-5.6183206106870225,-10.589553942871094,-0.5530605834960938,3.423708374023437,3.236641221374046,-16.442748091603054,-7.251908396946565,0.0
10.340000867843628,-9.976638317871092,0.47165772705078124,0.5578489868164063,-9.129770992366412,18.9618320610687,-8.076335877862595,-10.374075793457031,0.20829554443359374,2.300827795410156,9.664122137404581,-26.045801526717558,-11.679389312977099,0.0
10.350000619888306,-10.778695874023438,1.7477672119140624,1.6065093139648436,-13.007633587786259,20.870229007633586,-10.320610687022901,-9.162609753417968,-0.0430956298828125,1.3263877197265623,7.312977099236641,-30.12213740458015,-13.541984732824428,0.0
10.360000610351562,-8.410830432128906,-0.30406361083984373,0.7709329345703124,-12.091603053435115,19.862595419847327,-8.259541984732824,-8.154650854492187,4.110844250488281,0.59376201171875,-0.061068702290076333,-33.83206106870229,-17.66412213740458,0.0
10.37000036239624,-9.387664709472656,0.38307226562499996,0.967257470703125,-19.572519083969464,17.358778625954198,-8.106870229007633,-10.309432348632813,1.6112977172851561,1.9009961181640624,-4.824427480916031,-26.30534351145038,-11.022900763358779,0.0
10.380000591278076,-10.319009155273436,0.8834604125976562,1.5466542724609373,-16.946564885496183,16.9618320610687,-9.374045801526718,-10.673351000976561,-0.0047884033203125,3.2513258544921873,1.2366412213740459,-29.6793893129771,-12.13740458015267,0.0
10.390000820159912,-10.223241088867187,0.15562310791015624,1.936909143066406,-5.862595419847328,20.732824427480917,-9.816793893129772,-8.008604553222655,2.901772412109375,1.6160861206054686,0.183206106870229,-36.74809160305343,-19.053435114503817,0.0
10.400136709213257,-10.98699141845703,1.9895815795898437,2.4061726684570313,-8.595419847328245,19.022900763358777,-10.320610687022901,-8.717288244628906,2.142810485839844,2.281674182128906,-12.045801526717558,-27.31297709923664,-15.007633587786259,0.0
10.410000801086426,-10.620678564453124,1.7501614135742187,2.5450363647460934,-11.038167938931299,18.106870229007633,-9.48091603053435,-9.756371765136718,0.16519991455078123,2.7964275390625,-10.946564885496183,-30.15267175572519,-13.312977099236642,0.0
10.420000553131104,-9.442731347656249,0.7996633544921875,1.180341418457031,-8.885496183206106,13.801526717557252,-5.435114503816794,-10.206481677246094,-0.36391865234375,3.31357509765625,-1.1603053435114503,-32.97709923664122,-14.992366412213741,0.0
10.43000054359436,-10.639832177734375,2.693476867675781,1.5418658691406248,-18.82442748091603,9.938931297709924,-4.809160305343512,-7.931990100097655,2.1691467041015624,1.5370774658203123,-2.4122137404580153,-38.51908396946565,-19.236641221374047,0.0
10.440000534057617,-9.2320416015625,0.612915625,0.9888052856445312,-19.282442748091604,9.17557251908397,-0.42748091603053434,-8.678981018066406,0.8930372192382812,2.157175695800781,-14.625954198473282,-27.129770992366414,-13.557251908396946,0.0
10.450000524520874,-9.37808790283203,0.6105214233398437,1.3287819213867187,-20.702290076335878,9.603053435114504,-0.6412213740458015,-10.120290417480469,-0.36152445068359373,3.3111808959960936,-7.022900763358779,-27.786259541984734,-12.061068702290076,0.0
10.46000051498413,-9.670180505371093,0.15322890625,1.4101847778320311,-19.404580152671755,8.106870229007633,-1.5419847328244274,-9.981426721191406,-0.24660277099609373,1.695094775390625,2.519083969465649,-34.58015267175573,-14.534351145038167,0.0
10.470000743865967,-9.299079248046874,-0.2059013427734375,1.3120225097656248,-16.80916030534351,7.541984732824427,-1.6793893129770991,-8.166621862792969,2.511517541503906,0.9265560424804687,-0.21374045801526717,-33.29770992366412,-17.17557251908397,0.0
10.480000495910645,-9.430760339355468,0.36631285400390623,1.8770541015625,-19.64885496183206,7.603053435114504,-3.1603053435114505,-8.334215979003906,1.8363526733398436,3.1220389648437497,-8.961832061068701,-22.412213740458014,-11.83206106870229,0.0
10.490000486373901,-9.79946739501953,0.5770026000976562,2.157175695800781,-21.19083969465649,5.190839694656488,-4.5038167938931295,-9.026140258789061,0.28490999755859375,1.936909143066406,-6.427480916030534,-23.64885496183206,-10.83969465648855,0.0
10.500000238418579,-9.900023864746093,0.4070142822265625,2.0661960327148434,-17.84732824427481,2.381679389312977,-5.0534351145038165,-9.548076220703125,-0.15322890625,2.0542250244140625,1.7251908396946565,-24.33587786259542,-12.763358778625955,0.0
10.510000705718994,-9.5001921875,-0.15562310791015624,2.0781670410156248,-12.15267175572519,0.2595419847328244,-5.0534351145038165,-9.150638745117186,-0.009576806640625,2.3774422485351563,8.305343511450381,-26.076335877862597,-14.381679389312977,0.0
10.52000117301941,-9.581595043945311,0.05985504150390625,2.473210314941406,-6.717557251908397,-1.1145038167938932,-4.244274809160306,-7.881711865234375,1.838746875,2.104503259277344,2.900763358778626,-20.778625954198475,-13.86259541984733,0.0
10.530000686645508,-9.476250170898437,0.7254431030273437,2.6479870361328124,-2.549618320610687,-2.351145038167939,-2.7022900763358777,-6.210559106445312,3.076549133300781,0.7445967163085937,-9.114503816793894,-15.465648854961833,-12.870229007633588,0.0
10.540000677108765,-9.660603698730467,1.24498486328125,2.4492682983398435,-0.8244274809160306,-3.7404580152671754,-0.21374045801526717,-8.643067993164061,0.6536170532226562,2.212242333984375,-11.465648854961833,-6.67175572519084,-7.786259541984733,0.0
10.550000667572021,-8.990227233886719,0.181959326171875,1.2976572998046874,3.404580152671756,-6.152671755725191,2.3053435114503817,-8.865728747558594,-0.2609679809570312,2.887407202148437,-5.022900763358779,-3.801526717557252,-7.969465648854962,0.0
10.560000658035278,-6.9527616210937495,-2.1643583007812497,0.02154781494140625,16.106870229007633,-3.877862595419847,3.450381679389313,-7.4770917846679685,1.2401964599609374,1.9728221679687499,0.5343511450381679,-7.862595419847328,-11.419847328244275,0.0
10.570000648498535,-8.315062365722655,-0.8738836059570312,1.1827356201171875,20.625954198473284,-0.8091603053435115,0.366412213740458,-9.205705383300781,-0.7996633544921875,3.2441432495117186,1.6030534351145038,0.6106870229007634,-8.076335877862595,0.0
10.580000638961792,-8.844180932617187,-1.6903063720703124,1.1133037719726562,41.37404580152672,10.13740458015267,-3.648854961832061,-8.499415893554687,0.0143652099609375,3.1172505615234374,5.969465648854962,-1.7251908396946565,-8.473282442748092,0.0
10.590000629425049,-10.522516296386717,1.5035586425781249,2.3918074584960936,39.038167938931295,10.732824427480915,-8.442748091603054,-9.076418493652342,-0.13646949462890623,2.693476867675781,10.213740458015268,-2.33587786259542,-8.687022900763358,0.0
10.600000619888306,-9.181763366699219,1.2617442749023438,1.8267758666992187,30.83969465648855,1.8625954198473282,-6.534351145038168,-8.346186987304687,0.5339069702148437,2.906560815429687,11.17557251908397,-4.33587786259542,-8.534351145038167,0.0
10.610000848770142,-9.289502441406249,1.39821376953125,1.6472107421875,34.35114503816794,2.4122137404580153,-4.2748091603053435,-8.801085302734375,0.4644751220703125,2.6958710693359373,12.305343511450381,-3.282442748091603,-8.320610687022901,0.0
10.620027303695679,-10.292672937011718,2.5546131713867184,3.1196447631835937,28.076335877862597,1.3282442748091603,-5.0534351145038165,-8.748412866210938,0.5722141967773438,2.987963671875,12.534351145038167,-3.312977099236641,-8.442748091603054,0.0
10.630000829696655,-10.443507641601562,3.1316157714843746,3.1196447631835937,22.33587786259542,-3.1908396946564888,-2.854961832061069,-8.219294299316406,0.7158662963867187,3.0262708984374997,11.679389312977099,-3.099236641221374,-8.488549618320612,0.0
10.640000581741333,-10.340556970214843,2.530671154785156,2.454056701660156,7.8320610687022905,-13.297709923664122,0.9770992366412213,-8.628702783203124,0.584185205078125,2.7365724975585937,10.65648854961832,-3.1908396946564888,-8.610687022900763,0.0
10.650036334991455,-9.038111267089842,0.5291185668945312,1.3766659545898436,13.007633587786259,-13.526717557251908,3.7404580152671754,-8.59997236328125,0.296881005859375,2.9951462768554684,8.748091603053435,-2.7480916030534353,-8.778625954198473,0.0
10.660000562667847,-8.271966735839843,0.19153613281249998,1.1755530151367186,15.84732824427481,-13.297709923664122,3.0839694656488548,-8.066065393066406,0.28012159423828126,3.323151904296875,7.801526717557252,-2.6717557251908395,-9.83206106870229,0.0
10.670000553131104,-9.363722692871093,0.9504980590820312,2.1930887207031247,12.274809160305344,-14.732824427480915,1.2061068702290076,-8.904035974121093,0.03591302490234375,3.555389465332031,9.389312977099237,-3.1755725190839694,-10.610687022900763,0.0
10.68000054359436,-9.129090930175781,0.5219359619140624,2.3822306518554686,14.793893129770993,-16.198473282442748,1.0076335877862594,-8.520963708496094,0.055066638183593745,3.6391865234374996,8.442748091603054,-3.5114503816793894,-11.664122137404581,0.0
10.690000534057617,-8.750807067871094,0.5410895751953124,2.370259643554687,16.80916030534351,-17.52671755725191,0.12213740458015267,-8.33182177734375,0.4070142822265625,3.928884924316406,7.374045801526718,-4.351145038167939,-13.938931297709924,0.0
10.700000524520874,-8.817844714355468,0.689530078125,2.4157494750976563,15.938931297709924,-19.938931297709924,-1.5419847328244274,-8.702923034667968,0.11731588134765625,3.593696691894531,6.534351145038168,-4.244274809160306,-13.908396946564885,0.0
10.71000051498413,-9.162609753417968,0.9888052856445312,2.2768857788085937,15.709923664122137,-22.50381679389313,-2.717557251908397,-8.281543542480469,0.1292868896484375,3.5577836669921874,5.557251908396947,-4.778625954198473,-15.114503816793894,0.0
10.720000505447388,-9.172186560058593,0.8164227661132812,2.607285607910156,18.885496183206108,-24.564885496183205,-2.4427480916030535,-7.790732202148437,0.33758243408203126,3.2034418212890623,3.648854961832061,-5.038167938931298,-15.32824427480916,0.0
10.730000495910645,-9.196128576660156,0.7781155395507812,3.019088293457031,22.519083969465647,-28.732824427480917,-1.1297709923664123,-7.809885815429687,0.38307226562499996,3.6104561035156246,2.1374045801526718,-4.427480916030534,-15.206106870229007,0.0
10.740000486373901,-9.279925634765624,0.9026140258789062,3.5817256835937497,27.908396946564885,-33.16030534351145,0.7938931297709924,-6.924031201171875,1.0773907470703123,3.9360675292968748,-7.4961832061068705,-6.2748091603053435,-16.702290076335878,0.0
10.750000476837158,-9.926360083007811,1.3096283081054687,4.376600634765625,33.343511450381676,-37.32824427480916,3.2977099236641223,-6.476315490722656,1.3527239379882812,2.4061726684570313,-14.80916030534351,-4.152671755725191,-15.17557251908397,0.0
10.760000705718994,-10.139444030761718,1.0390835205078124,5.817910034179687,38.87022900763359,-43.725190839694655,6.595419847328245,-6.189011291503906,1.7357962036132812,2.070984436035156,-18.671755725190838,4.732824427480916,-13.32824427480916,0.0
10.770000457763672,-10.105925207519531,-0.15083470458984374,6.6702458251953125,49.38931297709924,-51.17557251908397,9.358778625954198,-8.1594392578125,0.4070142822265625,3.134009973144531,-15.16030534351145,3.6793893129770994,-10.183206106870228,0.0
10.780001163482666,-10.01015714111328,-0.6464344482421874,6.605602380371093,63.038167938931295,-59.7557251908397,10.290076335877863,-7.417236743164062,0.7733271362304687,2.9472622436523435,-17.16030534351145,3.786259541984733,-12.0,0.0
10.790000677108765,-11.757924353027343,1.714248388671875,6.904877587890625,52.87022900763359,-73.70992366412214,9.083969465648854,-9.86411083984375,0.47165772705078124,3.5027170288085934,-13.541984732824428,4.854961832061068,-15.114503816793894,0.0
10.800000667572021,-11.559205615234374,3.689464758300781,6.545747338867187,30.778625954198475,-93.46564885496183,8.320610687022901,-11.992556115722655,2.6048914062499997,4.762067102050781,-26.900763358778626,7.679389312977099,-22.458015267175572,0.0
10.810000658035278,-12.140996618652343,2.9041666137695312,6.660669018554687,10.183206106870228,-117.09923664122137,10.488549618320612,-16.038756921386717,-0.16998831787109375,5.796362219238281,-40.58015267175573,6.320610687022901,-27.603053435114504,0.0
10.820000648498535,-11.982979309082031,0.2705447875976562,6.232106921386718,14.687022900763358,-134.70229007633588,13.633587786259541,-17.700332873535157,-2.346317626953125,4.824316345214844,-49.48091603053435,3.969465648854962,-33.725190839694655,0.0
10.830000638961792,-13.034033837890624,-1.7334020019531249,5.645527514648437,26.061068702290076,-143.89312977099237,13.541984732824428,-18.212692028808593,-5.123591552734375,5.884947680664062,-35.93893129770992,2.2442748091603053,-36.76335877862596,0.0
10.840000629425049,-13.546392993164062,-3.5984850952148437,3.201047619628906,37.9236641221374,-147.64885496183206,13.740458015267176,-15.66047305908203,-5.681440539550781,3.756502404785156,1.8931297709923665,-20.091603053435115,-32.152671755725194,0.0
10.850000619888306,-15.452177514648437,-4.13718046875,2.0566192260742184,51.12977099236641,-147.57251908396947,11.526717557251908,-9.840168823242188,-2.741360900878906,0.8547299926757812,31.374045801526716,-24.47328244274809,-34.29007633587786,0.0
10.860000610351562,-15.31570802001953,-5.166687182617188,1.2904746948242187,61.343511450381676,-144.27480916030535,11.450381679389313,-7.838616235351562,0.6488286499023437,-3.402160559082031,42.213740458015266,-12.580152671755725,-26.076335877862597,0.0
10.870001077651978,-15.471331127929687,-4.80755693359375,0.7613561279296874,73.09923664122137,-135.78625954198472,11.465648854961833,-7.240065820312499,0.076614453125,-3.756502404785156,52.88549618320611,-5.1603053435114505,-28.641221374045802,0.0
10.880000591278076,-13.002909216308593,-5.504269616699219,-0.4908113403320312,89.77099236641222,-124.04580152671755,11.374045801526718,-7.249642626953125,-0.00239420166015625,-5.5449710449218745,55.7557251908397,-4.33587786259542,-26.259541984732824,0.0
10.890000820159912,-12.181698046874999,-3.5027170288085934,-0.948103857421875,96.70229007633588,-109.96946564885496,9.053435114503817,-9.275137231445312,0.062249243164062495,-4.893748193359374,66.99236641221374,10.198473282442748,-24.198473282442748,0.0
10.90000057220459,-10.929530578613281,-2.133233679199219,-1.216254443359375,86.61068702290076,-99.23664122137404,5.190839694656488,-9.306261853027344,2.2194249389648437,-3.768473413085937,57.587786259541986,19.51145038167939,-21.51145038167939,0.0
10.910000562667847,-9.437942944335937,-1.438915197753906,-1.3455413330078123,74.62595419847328,-87.69465648854961,0.9618320610687023,-10.220846887207031,4.029441394042968,-2.6096798095703124,43.954198473282446,30.290076335877863,-16.106870229007633,0.0
10.920000553131104,-9.445125549316407,0.0526724365234375,-0.7924807495117187,57.969465648854964,-77.38931297709924,-3.3740458015267176,-11.164162341308593,3.294421484375,-1.3192051147460937,23.557251908396946,42.152671755725194,-7.969465648854962,0.0
10.93000054359436,-9.337386474609374,-0.9959878906249999,-0.18435352783203124,41.7557251908397,-66.76335877862596,-6.6106870229007635,-12.962207788085937,0.12449848632812499,0.3711012573242187,20.549618320610687,44.35114503816794,-0.9618320610687023,0.0
10.940000295639038,-9.057264880371093,-1.216254443359375,-0.70868369140625,34.458015267175576,-52.534351145038165,-8.977099236641221,-12.447454431152343,0.14125789794921875,0.2825157958984375,25.72519083969466,36.458015267175576,-1.251908396946565,0.0
10.950000286102295,-8.389282617187499,-0.07422025146484375,-0.4860229370117187,25.923664122137403,-38.19847328244275,-9.923664122137405,-10.934318981933593,1.5801730957031248,0.28012159423828126,20.82442748091603,34.29007633587786,1.5877862595419847,0.0
10.96000051498413,-8.832209924316405,2.039859814453125,0.3591302490234375,3.83206106870229,-30.244274809160306,-13.404580152671755,-9.56962403564453,2.379836450195312,-0.6871358764648438,8.51908396946565,32.58015267175573,6.549618320610687,0.0
10.970000267028809,-7.204152795410156,0.6296750366210937,0.3016694091796875,-16.946564885496183,-28.244274809160306,-13.969465648854962,-10.747571252441405,0.6560112548828124,-0.3136404174804687,-0.04580152671755725,32.82442748091603,12.229007633587786,0.0
10.980000972747803,-8.674192614746094,1.3910311645507811,0.5746083984375,-24.625954198473284,-13.572519083969466,-16.595419847328245,-11.623849060058593,-0.7757213378906249,0.622492431640625,1.6793893129770991,30.47328244274809,14.396946564885496,0.0
10.990000486373901,-7.75721337890625,0.354341845703125,-0.28490999755859375,-36.58015267175573,-11.099236641221374,-16.595419847328245,-10.297461340332031,-0.373495458984375,0.6272808349609375,3.5114503816793894,26.83969465648855,12.885496183206106,0.0
11.000000238418579,-7.053318090820312,1.1252747802734375,-0.10773907470703124,-38.458015267175576,1.4961832061068703,-16.702290076335878,-10.005368737792969,-0.3950432739257812,0.42377369384765623,3.633587786259542,23.64885496183206,12.51908396946565,0.0
11.010000705718994,-6.9144543945312495,1.1085153686523437,-0.39264907226562495,-57.14503816793893,0.48854961832061067,-15.587786259541986,-10.101136804199218,-0.5410895751953124,1.5729904907226562,1.6488549618320612,21.587786259541986,13.221374045801527,0.0
11.02000093460083,-5.961562133789062,0.34237083740234375,-0.7134720947265625,-60.916030534351144,8.274809160305344,-12.442748091603054,-9.198522778320312,0.11252747802734374,2.1715409057617188,-3.66412213740458,19.96946564885496,12.732824427480915,0.0
11.030000448226929,-5.623979699707031,-0.1005564697265625,-1.1516109985351561,-69.17557251908397,11.633587786259541,-9.282442748091603,-9.442731347656249,-0.4908113403320312,2.612074011230469,-5.923664122137405,18.610687022900763,13.587786259541986,0.0
11.040000438690186,-6.526593725585937,0.36391865234375,-1.1180921752929687,-72.41221374045801,19.52671755725191,-6.519083969465649,-9.428366137695312,-1.0486603271484374,3.1292215698242187,-6.244274809160306,15.664122137404581,13.145038167938932,0.0
11.050000667572021,-6.41646044921875,0.12689268798828124,-1.0199299072265624,-70.68702290076335,30.65648854961832,-3.7557251908396947,-9.425971936035156,-0.928950244140625,2.9448680419921875,-6.152671755725191,12.244274809160306,12.045801526717558,0.0
11.060000658035278,-7.474697583007812,1.24498486328125,-0.05027823486328125,-75.40458015267176,37.74045801526717,-2.2290076335877864,-9.176974963378905,-1.1635820068359375,2.932897033691406,-7.862595419847328,10.67175572519084,11.450381679389313,0.0
11.070000648498535,-6.622361791992187,-0.028730419921875,-0.33758243408203126,-76.47328244274809,42.62595419847328,2.427480916030534,-9.315838659667968,-1.5442600708007812,2.9041666137695312,-7.862595419847328,8.946564885496183,10.564885496183207,0.0
11.080000400543213,-7.637503295898437,0.8834604125976562,0.8667010009765624,-77.5114503816794,48.0763358778626,5.0534351145038165,-9.5001921875,-1.5466542724609373,2.9735984619140625,-6.030534351145038,7.068702290076335,8.351145038167939,0.0
11.090000629425049,-5.980715747070312,-1.8171990600585937,0.46686932373046874,-69.45038167938931,52.900763358778626,9.83206106870229,-10.419565624999999,-2.710236279296875,3.6272155151367187,-0.5038167938931297,3.2213740458015265,6.793893129770993,0.0
11.100000619888306,-4.5585599609375,-3.7397429931640622,0.7445967163085937,-50.68702290076336,61.86259541984733,8.82442748091603,-9.6151138671875,-1.9919757812499999,3.6727053466796873,3.435114503816794,-1.4198473282442747,3.3587786259541983,0.0
11.110000848770142,-9.244012609863281,-1.2737152832031249,2.8706477905273435,-59.770992366412216,64.03053435114504,1.4351145038167938,-8.932766394042968,-0.2442085693359375,3.105279553222656,-0.8091603053435115,-3.0839694656488548,1.465648854961832,0.0
11.12000060081482,-6.665457421875,-3.8666356811523435,3.0047230834960934,-51.00763358778626,66.82442748091603,0.9465648854961832,-8.001421948242188,0.6655880615234374,2.001552587890625,-6.900763358778626,-9.648854961832061,1.1145038167938932,0.0
11.130000829696655,-7.831433630371094,-2.0302830078125,3.0310593017578125,-38.152671755725194,71.1145038167939,-1.7251908396946565,-9.291896643066405,-0.8451531860351562,3.347093920898437,-12.351145038167939,-3.0076335877862594,3.114503816793893,0.0
11.140000581741333,-7.60398447265625,-2.906560815429687,3.21780703125,-32.030534351145036,74.41221374045801,-1.2366412213740459,-8.741230261230468,-0.8978256225585937,2.9664158569335934,-12.442748091603054,-6.320610687022901,1.984732824427481,0.0
11.150000810623169,-8.40125362548828,-3.189076611328125,4.604049792480469,-16.65648854961832,82.62595419847328,-0.2595419847328244,-8.959102612304687,-1.1851298217773436,2.961627453613281,-13.053435114503817,-8.793893129770993,0.8854961832061069,0.0
11.160000324249268,-8.82263311767578,-3.0885201416015624,5.753266589355468,-4.778625954198473,86.6412213740458,-1.8931297709923665,-8.750807067871094,-0.7757213378906249,2.8371289672851563,-16.076335877862597,-10.595419847328245,-0.7938931297709924,0.0
11.170000314712524,-9.191340173339842,-2.8802245971679685,7.491456994628906,1.083969465648855,83.09923664122137,-4.458015267175573,-8.528146313476562,-0.737414111328125,2.6527754394531247,-17.17557251908397,-12.82442748091603,-1.8015267175572518,0.0
11.18000054359436,-10.158597644042969,-1.8219874633789062,9.619902270507811,7.694656488549619,76.54961832061069,-8.931297709923664,-8.741230261230468,-0.3064578125,1.9201497314453124,-19.236641221374047,-15.16030534351145,-2.854961832061069,0.0
11.190000295639038,-10.998962426757812,-0.7110778930664062,10.723629235839843,11.725190839694656,62.35114503816794,-10.931297709923664,-8.88009395751953,-0.3112462158203125,1.7118541870117185,-21.64885496183206,-17.31297709923664,-2.3206106870229006,0.0
11.200000762939453,-11.985373510742187,1.5825672973632812,10.953472595214842,15.908396946564885,47.66412213740458,-9.83206106870229,-9.030928662109375,-0.09576806640624999,1.0773907470703123,-25.404580152671755,-18.99236641221374,-2.2900763358778624,0.0
11.21000051498413,-11.516109985351562,2.549824768066406,10.443507641601562,14.50381679389313,30.549618320610687,-5.7251908396946565,-9.083601098632812,-0.36391865234375,0.7972691528320313,-25.923664122137403,-19.51145038167939,-1.1145038167938932,0.0
11.220000267028809,-11.84890401611328,2.868253588867187,9.540893615722656,10.564885496183207,12.885496183206106,-1.1145038167938932,-8.762778076171875,-0.03591302490234375,0.2705447875976562,-26.091603053435115,-18.27480916030534,0.15267175572519084,0.0
11.230000495910645,-11.872846032714843,4.328716601562499,9.229647399902344,6.259541984732825,-3.2213740458015265,5.557251908396947,-8.95670841064453,-0.7876923461914062,-0.22266075439453123,-23.633587786259543,-15.603053435114504,0.5954198473282443,0.0
11.240000247955322,-7.893682873535155,-1.1731588134765625,5.772420202636718,22.519083969465647,-11.358778625954198,17.31297709923664,-8.700528833007812,-1.1611878051757811,-0.23702596435546874,-20.213740458015266,-13.816793893129772,1.3282442748091603,0.0
11.250000238418579,-7.520187414550781,-0.8882488159179687,5.45877978515625,47.847328244274806,-7.862595419847328,20.610687022900763,-9.53131680908203,-1.7429788085937499,0.4165910888671875,-10.534351145038167,-11.954198473282442,1.8015267175572518,0.0
11.260000705718994,-9.85692823486328,2.940079638671875,6.8593877563476555,52.87022900763359,-7.603053435114504,22.03053435114504,-8.544905725097657,-0.9026140258789062,0.5698199951171875,-5.526717557251908,-13.526717557251908,1.083969465648855,0.0
11.270000696182251,-9.976638317871092,4.604049792480469,4.745307690429687,44.13740458015267,-22.53435114503817,34.10687022900763,-9.380482104492186,0.15083470458984374,-0.02154781494140625,-3.954198473282443,-10.534351145038167,3.236641221374046,0.0
11.280000686645508,-9.028534460449219,3.5817256835937497,1.2976572998046874,35.41984732824427,-22.0,45.55725190839695,-11.336544860839844,-2.379836450195312,0.9409212524414062,6.015267175572519,-5.00763358778626,7.648854961832061,0.0
11.290000677108765,-8.817844714355468,2.099714855957031,0.26336218261718747,16.564885496183205,-21.297709923664122,47.14503816793893,-8.801085302734375,0.6153098266601562,0.5051765502929687,11.633587786259541,-9.84732824427481,5.6183206106870225,0.0
11.300000667572021,-10.338162768554687,1.0702081420898437,3.0597897216796874,-2.7786259541984735,-18.213740458015266,45.02290076335878,-11.44667813720703,-1.0654197387695312,1.4101847778320311,15.022900763358779,-7.221374045801527,11.48091603053435,0.0
11.3100004196167,-12.339715356445312,-2.3056161987304686,7.012616662597656,-6.5038167938931295,-20.091603053435115,39.7557251908397,-10.656591589355468,-0.7517793212890624,2.3439234252929686,18.427480916030536,-5.145038167938932,14.946564885496183,0.0
11.320000648498535,-14.774618444824219,-0.5698199951171875,7.8721350585937495,9.145038167938932,-21.16030534351145,36.274809160305345,-10.558429321289061,0.6631938598632812,-0.143652099609375,23.221374045801525,-11.84732824427481,13.740458015267176,0.0
11.330000638961792,-16.56787548828125,4.314351391601562,4.821922143554687,9.358778625954198,-15.633587786259541,34.916030534351144,-11.628637463378906,0.622492431640625,0.1149216796875,23.0381679389313,-6.244274809160306,17.46564885496183,0.0
11.34000039100647,-15.543157177734374,4.084508032226562,1.707065783691406,-30.641221374045802,-19.69465648854962,36.30534351145038,-11.128249316406249,1.695094775390625,0.46686932373046874,18.702290076335878,-4.519083969465649,17.49618320610687,0.0
11.350000619888306,-10.919953771972656,-1.5298948608398437,-0.8786720092773437,-53.06870229007634,-14.274809160305344,36.30534351145038,-11.559205615234374,1.6041151123046875,-0.4525041137695312,12.916030534351146,0.6564885496183206,16.244274809160306,0.0
11.360000610351562,-8.310273962402343,-3.787627026367187,-1.9991583862304687,-57.099236641221374,-4.702290076335878,27.236641221374047,-12.241553088378906,2.6767174560546874,0.14125789794921875,6.015267175572519,6.458015267175573,12.717557251908397,0.0
11.370000839233398,-7.316680273437499,-3.919308117675781,-2.518700146484375,-54.717557251908396,5.862595419847328,17.84732824427481,-13.299790222167967,3.0142998901367184,0.15322890625,-4.091603053435114,11.038167938931299,12.641221374045802,0.0
11.380000591278076,-7.56567724609375,-2.798821740722656,-2.482787121582031,-47.969465648854964,15.114503816793894,8.01526717557252,-12.303802331542968,3.679887951660156,-0.19871873779296872,-17.236641221374047,12.870229007633588,13.17557251908397,0.0
11.390000820159912,-8.458714465332031,-1.649604943847656,-2.2960393920898436,-41.98473282442748,21.603053435114504,1.5267175572519085,-12.600683337402343,2.710236279296875,0.34237083740234375,-21.297709923664122,16.625954198473284,16.946564885496183,0.0
11.40000057220459,-6.959944226074218,-3.277662072753906,-3.303998291015625,-22.610687022900763,29.984732824427482,0.183206106870229,-12.143390820312499,2.9759926635742184,-0.076614453125,-19.770992366412212,15.83206106870229,20.259541984732824,0.0
11.410000801086426,-9.900023864746093,-0.8355763793945312,-1.9967641845703124,-11.969465648854962,42.97709923664122,-5.633587786259542,-12.777854260253905,0.8116343627929687,2.0925322509765625,-9.145038167938932,17.16030534351145,26.27480916030534,0.0
11.420000314712524,-10.235212097167969,0.5674257934570313,-0.8547299926757812,-10.13740458015267,46.93129770992366,-6.442748091603053,-11.401188305664062,2.061407629394531,1.8028338500976562,-6.6106870229007635,14.549618320610687,27.557251908396946,0.0
11.43000054359436,-11.18571015625,1.8842367065429686,0.9888052856445312,-17.450381679389313,50.229007633587784,-5.847328244274809,-10.488997473144531,1.7525556152343749,1.9584569580078124,-4.580152671755725,12.977099236641221,30.3206106870229,0.0
11.440000534057617,-10.697293017578124,2.346317626953125,1.8148048583984373,-27.83206106870229,44.93129770992366,-2.351145038167939,-10.505756884765624,1.6400281372070311,1.695094775390625,-0.9312977099236641,11.34351145038168,31.96946564885496,0.0
11.450000524520874,-9.849745629882811,0.8834604125976562,1.5705962890624998,-27.435114503816795,40.13740458015267,2.122137404580153,-9.892841259765625,1.7764976318359373,1.608903515625,-0.5801526717557252,10.992366412213741,31.984732824427482,0.0
11.460000276565552,-8.851363537597656,-0.7493851196289062,0.8834604125976562,-22.977099236641223,37.45038167938932,3.7709923664122136,-9.447519750976562,1.35990654296875,1.6927005737304686,2.549618320610687,10.290076335877863,31.419847328244273,0.0
11.470000505447388,-9.435548742675781,-0.7781155395507812,0.967257470703125,-18.65648854961832,34.656488549618324,2.3053435114503817,-9.203311181640624,1.1540052001953125,1.5418658691406248,4.977099236641221,10.13740458015267,30.641221374045802,0.0
11.480000495910645,-10.357316381835936,0.19393033447265623,1.8411410766601561,-10.625954198473282,34.83969465648855,0.030534351145038167,-8.834604125976561,0.689530078125,2.04943662109375,7.66412213740458,11.312977099236642,29.52671755725191,0.0
11.490000247955322,-9.739612353515625,-0.4644751220703125,1.2114660400390624,-9.633587786259541,27.251908396946565,1.3435114503816794,-8.463502868652343,0.7661445312499999,1.867477294921875,9.709923664122137,11.251908396946565,27.114503816793892,0.0
11.500000715255737,-9.131485131835937,-1.0295067138671874,1.4125789794921875,-0.3053435114503817,26.549618320610687,0.44274809160305345,-8.959102612304687,0.5889736083984375,1.9512743530273435,13.923664122137405,12.01526717557252,26.0,0.0
11.510000705718994,-9.53131680908203,-0.8499415893554687,1.9728221679687499,6.8396946564885495,24.564885496183205,-2.4427480916030535,-8.743624462890624,0.7996633544921875,1.9512743530273435,16.045801526717558,12.595419847328245,24.091603053435115,0.0
11.52000093460083,-9.464279162597656,-0.6488286499023437,2.0254946044921875,13.511450381679388,23.236641221374047,-3.6030534351145036,-9.212887988281249,0.6823474731445313,1.659181750488281,19.83206106870229,12.01526717557252,22.625954198473284,0.0
11.530000448226929,-9.550470422363281,0.10295067138671875,2.269703173828125,18.916030534351144,21.61832061068702,-4.412213740458015,-9.188945971679686,0.82360537109375,1.7166425903320313,20.99236641221374,11.98473282442748,21.221374045801525,0.0
11.540000677108765,-8.497021691894531,-0.967257470703125,1.5179238525390624,28.519083969465647,21.114503816793892,-3.1755725190839694,-9.473855969238281,0.7685387329101562,1.4532804077148436,22.091603053435115,11.129770992366412,19.419847328244273,0.0
11.550000667572021,-10.091559997558592,1.5346832641601562,2.39420166015625,36.0,25.908396946564885,-6.137404580152672,-9.524134204101562,0.6703764648437499,1.4915876342773438,23.251908396946565,10.274809160305344,17.96946564885496,0.0
11.560000658035278,-9.976638317871092,1.867477294921875,2.221819140625,36.595419847328245,26.65648854961832,-5.740458015267175,-10.122684619140625,0.833182177734375,1.6065093139648436,24.244274809160306,10.15267175572519,16.48854961832061,0.0
11.570000410079956,-10.670956799316405,3.0166940917968748,2.5163059448242184,28.366412213740457,25.099236641221374,-4.534351145038168,-9.957484704589843,0.8092401611328125,1.5945383056640625,23.83206106870229,9.236641221374045,14.15267175572519,0.0
11.580000638961792,-10.160991845703125,1.8148048583984373,1.7262193969726563,27.801526717557252,24.396946564885496,-2.6259541984732824,-9.952696301269532,1.0223241088867188,1.4173673828125,22.106870229007633,7.633587786259542,12.83969465648855,0.0
11.59000039100647,-10.12507882080078,1.7860744384765623,1.3359645263671873,24.641221374045802,23.52671755725191,-2.6412213740458017,-10.05564697265625,1.1827356201171875,1.2210428466796874,21.14503816793893,6.732824427480916,11.068702290076336,0.0
11.600000619888306,-9.543287817382812,1.7381904052734374,0.9457096557617187,19.114503816793892,22.213740458015266,-2.5343511450381677,-9.835380419921874,1.3359645263671873,1.448492004394531,20.18320610687023,4.793893129770993,9.48091603053435,0.0
11.610000848770142,-9.955090502929687,1.9800047729492187,1.1133037719726562,5.801526717557252,18.47328244274809,-1.8473282442748091,-9.734823950195311,1.599326708984375,1.3862427612304686,17.709923664122137,3.6946564885496183,8.198473282442748,0.0
11.62000060081482,-10.510545288085936,2.6144682128906247,1.8267758666992187,-0.6717557251908397,18.671755725190838,-1.8625954198473282,-9.591171850585937,1.7381904052734374,1.484405029296875,14.183206106870228,2.9160305343511452,7.145038167938932,0.0
11.630000591278076,-8.626308581542968,-0.09816226806640624,0.6440402465820312,0.7938931297709924,19.328244274809162,0.2748091603053435,-9.133879333496093,2.1691467041015624,1.189918225097656,9.465648854961833,2.183206106870229,6.427480916030534,0.0
11.640000581741333,-9.931148486328125,1.2210428466796874,1.1947066284179686,-8.091603053435115,18.610687022900763,-2.1068702290076335,-9.17458076171875,2.454056701660156,1.2425906616210938,5.557251908396947,2.3206106870229006,5.358778625954199,0.0
11.650000810623169,-9.459490759277344,-0.27293898925781246,1.3718775512695311,0.24427480916030533,25.17557251908397,-3.7557251908396947,-8.884882360839843,2.511517541503906,1.3335703247070312,-0.030534351145038167,3.145038167938931,5.145038167938932,0.0
11.660000562667847,-10.189722265624999,0.00239420166015625,1.599326708984375,0.5954198473282443,26.610687022900763,-7.00763358778626,-9.117119921875,2.6048914062499997,1.0678139404296874,-4.2748091603053435,3.648854961832061,5.511450381679389,0.0
11.670000553131104,-9.399635717773437,0.5003881469726562,1.458068811035156,3.633587786259542,27.801526717557252,-9.86259541984733,-8.920795385742187,2.549824768066406,0.9002198242187499,-8.641221374045802,4.396946564885496,5.175572519083969,0.0
11.68000078201294,-9.679757312011718,1.458068811035156,1.0941501586914062,-0.42748091603053434,25.801526717557252,-10.717557251908397,-9.428366137695312,2.4899697265625,0.7302315063476562,-11.053435114503817,5.358778625954199,5.129770992366412,0.0
11.690000295639038,-10.177751257324218,2.0446482177734375,1.7022773803710936,-6.748091603053435,26.427480916030536,-11.221374045801527,-9.701305126953125,2.7269956909179687,0.5195417602539062,-13.450381679389313,6.732824427480916,4.900763358778626,0.0
11.700000524520874,-10.896011755371093,2.446874096679687,1.8722656982421875,-15.145038167938932,23.46564885496183,-9.86259541984733,-10.007762939453125,2.9544448486328125,0.4836287353515625,-16.625954198473284,7.923664122137405,4.412213740458015,0.0
11.71000051498413,-10.575188732910156,1.5251064575195312,1.8076222534179687,-11.816793893129772,24.748091603053435,-9.969465648854962,-9.935936889648437,2.7629087158203123,0.9552864624023437,-19.83206106870229,9.511450381679388,4.778625954198473,0.0
11.720000505447388,-10.481814868164061,1.6711527587890624,2.042254016113281,-11.83206106870229,24.03053435114504,-10.076335877862595,-10.158597644042969,2.5354595581054684,1.216254443359375,-22.793893129770993,10.458015267175572,5.068702290076335,0.0
11.730000495910645,-9.358934289550781,0.316034619140625,0.9409212524414062,-12.595419847328245,18.18320610687023,-7.114503816793893,-9.945513696289062,2.3127988037109373,1.5179238525390624,-26.427480916030536,9.877862595419847,4.595419847328245,0.0
11.740000247955322,-10.912771166992187,2.9951462768554684,1.9656395629882812,-16.35114503816794,17.0381679389313,-8.229007633587786,-10.261548315429687,1.8938135131835936,1.8052280517578123,-28.732824427480917,9.435114503816793,4.595419847328245,0.0
11.750000476837158,-9.756371765136718,1.0079588989257813,1.599326708984375,-19.83206106870229,11.587786259541986,-4.778625954198473,-9.861716638183593,1.5634136840820312,2.059013427734375,-32.0,8.977099236641221,4.106870229007634,0.0
11.760000944137573,-9.746794958496093,0.8810662109374999,1.7621324218749999,-13.572519083969466,11.84732824427481,-3.5572519083969465,-9.91438907470703,0.9816226806640624,2.7174188842773437,-32.274809160305345,7.984732824427481,2.9770992366412212,0.0
11.770000696182251,-9.727641345214844,0.852335791015625,1.7693150268554687,-11.603053435114504,11.053435114503817,-4.106870229007634,-9.904812268066406,0.4070142822265625,2.7174188842773437,-29.587786259541986,5.511450381679389,1.7251908396946565,0.0
11.780000686645508,-9.995791931152343,1.0390835205078124,1.3215993164062498,-9.419847328244275,9.786259541984732,-3.9083969465648853,-11.353304272460937,-0.48123453369140623,3.038241906738281,-16.763358778625953,-2.7938931297709924,-1.099236641221374,0.0
11.790000438690186,-9.765948571777344,1.1444283935546875,0.9050082275390624,-7.893129770992366,9.679389312977099,-3.0839694656488548,-8.987833032226561,0.17956512451171874,2.748543505859375,-16.0,-7.847328244274809,-4.809160305343512,0.0
11.800000429153442,-9.567229833984374,0.9169792358398436,1.209071838378906,-9.923664122137405,9.969465648854962,-2.900763358778626,-10.534487304687499,-0.19871873779296872,2.9927520751953125,-5.908396946564886,-11.099236641221374,-5.251908396946565,0.0
11.810000658035278,-9.600748657226562,1.0486603271484374,0.9911994873046874,-9.099236641221374,10.030534351145038,-3.49618320610687,-9.153032946777342,0.49320554199218747,3.143586779785156,-4.67175572519084,-15.84732824427481,-8.870229007633588,0.0
11.820000410079956,-9.320627062988281,0.9241618408203125,0.4572925170898437,-11.98473282442748,9.633587786259541,-2.9160305343511452,-9.82580361328125,1.5729904907226562,1.6424223388671875,1.0076335877862594,-22.3206106870229,-11.725190839694656,0.0
11.830000638961792,-9.430760339355468,1.7980454467773437,0.4070142822265625,-14.65648854961832,11.511450381679388,-3.053435114503817,-8.43956085205078,3.181894006347656,2.1643583007812497,-8.045801526717558,-21.34351145038168,-12.82442748091603,0.0
11.840000629425049,-9.648632690429688,1.9129671264648436,0.9002198242187499,-24.47328244274809,12.091603053435115,-2.122137404580153,-9.399635717773437,0.7206546997070312,2.7365724975585937,-19.129770992366414,-17.17557251908397,-7.603053435114504,0.0
11.850000619888306,-9.813832604980469,1.1516109985351561,1.0989385620117187,-27.099236641221374,10.335877862595419,-2.16793893129771,-10.467449658203124,-0.5147533569335937,2.6910826660156246,-9.16030534351145,-24.213740458015266,-9.923664122137405,0.0
11.860000610351562,-9.919177478027343,0.354341845703125,0.612915625,-25.435114503816795,9.389312977099237,-1.282442748091603,-11.832144604492187,-1.5514426757812498,4.460397692871093,7.206106870229007,-29.221374045801525,-13.389312977099237,0.0
11.870000839233398,-9.672574707031249,0.17238251953125,0.6200982299804687,-23.389312977099237,10.961832061068701,-1.6946564885496183,-8.74601866455078,1.848323681640625,1.936909143066406,4.198473282442748,-37.11450381679389,-18.702290076335878,0.0
11.880000591278076,-9.753977563476562,0.7038952880859375,0.7302315063476562,-26.900763358778626,12.412213740458014,-2.0763358778625953,-9.797073193359374,0.1867477294921875,3.327940307617187,-4.564885496183206,-28.18320610687023,-14.67175572519084,0.0
11.890000581741333,-9.871293444824218,0.565031591796875,1.20667763671875,-29.862595419847327,11.48091603053435,-3.5877862595419847,-10.934318981933593,-0.1197100830078125,3.1747114013671873,3.114503816793893,-35.87786259541985,-14.793893129770993,0.0
11.90000033378601,-9.730035546875,-0.18435352783203124,1.0199299072265624,-27.740458015267176,10.01526717557252,-3.572519083969466,-9.327809667968749,1.5035586425781249,2.3870190551757813,7.633587786259542,-40.48854961832061,-18.35114503816794,0.0
11.910000801086426,-8.767566479492187,-1.3359645263671873,0.689530078125,-21.083969465648856,10.854961832061068,-3.2519083969465647,-7.4962453979492185,3.153163586425781,1.0319009155273438,-4.732824427480916,-33.81679389312977,-18.65648854961832,0.0
11.920000553131104,-10.134655627441406,0.4070142822265625,1.8770541015625,-16.870229007633586,14.274809160305344,-6.625954198473282,-9.830592016601562,0.8930372192382812,2.4899697265625,-8.335877862595419,-29.114503816793892,-12.595419847328245,0.0
11.93000054359436,-9.931148486328125,-0.12689268798828124,1.8914193115234375,-9.297709923664122,15.679389312977099,-7.648854961832061,-8.786720092773438,0.373495458984375,2.3487118286132813,-3.114503816793893,-31.404580152671755,-13.511450381679388,0.0
11.940000534057617,-10.036493359375,0.469263525390625,1.9584569580078124,-4.396946564885496,15.618320610687023,-7.969465648854962,-8.839392529296875,1.3335703247070312,1.6328455322265625,0.16793893129770993,-29.96946564885496,-14.595419847328245,0.0
11.950000524520874,-9.203311181640624,0.5482721801757812,1.7238251953125,-6.488549618320611,10.931297709923664,-6.442748091603053,-7.819462622070312,2.7198130859375,1.2521674682617188,-8.244274809160306,-24.82442748091603,-12.687022900763358,0.0
11.96000051498413,-9.504980590820312,0.7948749511718749,1.7310078002929687,-8.106870229007633,7.923664122137405,-4.778625954198473,-8.877699755859375,1.5634136840820312,1.9608511596679685,-18.931297709923665,-12.427480916030534,-7.374045801526718,0.0
11.970000267028809,-10.17056865234375,1.5155296508789062,2.3582886352539063,-8.748091603053435,6.519083969465649,-5.374045801526718,-7.146691955566406,2.454056701660156,1.22583125,-25.068702290076335,-9.618320610687023,-6.8396946564885495,0.0
11.980000257492065,-9.368511096191405,0.19871873779296872,1.6927005737304686,-0.7175572519083969,3.9236641221374047,-2.4732824427480917,-8.449137658691406,0.7589619262695312,1.5705962890624998,-21.66412213740458,-7.908396946564886,-4.900763358778626,0.0
11.990000486373901,-8.2743609375,-1.0510545288085937,1.0103531005859374,9.099236641221374,1.8931297709923665,-1.1755725190839694,-8.453926062011718,0.3064578125,1.9488801513671874,-15.648854961832061,-5.236641221374046,-4.732824427480916,0.0
12.000000715255737,-8.67658681640625,-0.6560112548828124,1.5586252807617187,20.427480916030536,4.961832061068702,-2.16793893129771,-9.011775048828124,-0.27293898925781246,2.2577321655273437,-9.16030534351145,-4.473282442748092,-4.778625954198473,0.0
12.010000705718994,-9.457096557617186,0.7996633544921875,2.3439234252929686,21.34351145038168,3.404580152671756,-3.450381679389313,-9.306261853027344,-0.24181436767578124,2.0566192260742184,-3.5419847328244276,-4.977099236641221,-4.900763358778626,0.0
12.02000117301941,-10.144232434082031,1.6735469604492186,2.408566870117187,12.564885496183207,-4.473282442748092,-2.1374045801526718,-8.987833032226561,0.033518823242187495,2.6096798095703124,1.7251908396946565,-5.6183206106870225,-4.67175572519084,0.0
12.030000686645508,-9.543287817382812,0.5434837768554687,2.0781670410156248,15.725190839694656,-6.5038167938931295,0.6106870229007634,-9.337386474609374,0.15083470458984374,1.9871873779296874,5.557251908396947,-5.251908396946565,-4.427480916030534,0.0
12.040000677108765,-8.078036401367187,-0.5195417602539062,1.6041151123046875,28.412213740458014,-3.66412213740458,0.9465648854961832,-8.513781103515624,0.36631285400390623,2.896984008789062,9.938931297709924,-4.961832061068702,-4.67175572519084,0.0
12.050000429153442,-9.947907897949218,1.908178723144531,2.6479870361328124,22.244274809160306,-7.679389312977099,-1.4045801526717556,-10.417171423339843,-0.7685387329101562,3.1938650146484373,21.770992366412212,-8.366412213740459,-4.473282442748092,0.0
12.060000658035278,-9.124302526855468,0.6607996582031249,2.138022082519531,22.30534351145038,-12.610687022900763,1.1755725190839694,-9.97903251953125,-0.5458779785156249,3.2728736694335936,23.61832061068702,-6.412213740458015,-5.633587786259542,0.0
12.070000410079956,-8.863334545898438,0.7398083129882812,2.597708801269531,26.53435114503817,-11.16030534351145,0.9465648854961832,-8.884882360839843,0.26815058593749996,3.181894006347656,24.091603053435115,-8.687022900763358,-7.312977099236641,0.0
12.080000638961792,-8.722076647949219,0.7278373046875,2.47081611328125,27.81679389312977,-14.458015267175572,1.0229007633587786,-9.773131176757811,0.1580173095703125,3.3782185424804685,28.38167938931298,-11.007633587786259,-7.770992366412214,0.0
12.090000629425049,-9.038111267089842,1.3934253662109375,2.4157494750976563,31.6793893129771,-14.870229007633588,1.1755725190839694,-8.635885388183594,0.8834604125976562,1.7860744384765623,24.0,-12.259541984732824,-11.16030534351145,0.0
12.100000619888306,-8.535328918457031,1.20667763671875,1.7573440185546874,29.69465648854962,-17.206106870229007,2.33587786259542,-7.3837179199218745,1.407790576171875,2.0350714111328125,20.27480916030534,-16.625954198473284,-12.580152671755725,0.0
12.110000371932983,-9.284714038085937,2.4492682983398435,1.599326708984375,24.442748091603054,-17.34351145038168,1.786259541984733,-8.757989672851561,-0.08858546142578125,3.248931652832031,14.396946564885496,-6.152671755725191,-9.83206106870229,0.0
12.12000060081482,-9.478644372558593,2.5522189697265625,1.8028338500976562,15.404580152671755,-19.022900763358777,2.6106870229007635,-6.995857250976562,0.9720458740234375,3.19865341796875,10.549618320610687,-9.358778625954198,-12.992366412213741,0.0
12.130000829696655,-9.612719665527344,2.2481553588867187,1.7381904052734374,10.244274809160306,-20.610687022900763,5.374045801526718,-8.659827404785156,-0.27293898925781246,3.23696064453125,8.274809160305344,-7.908396946564886,-11.877862595419847,0.0
12.140000581741333,-9.471461767578125,2.0063409912109376,2.212242333984375,10.13740458015267,-21.0381679389313,8.076335877862595,-7.9846625366210935,-0.1197100830078125,3.303998291015625,6.702290076335878,-9.129770992366412,-13.312977099236642,0.0
12.150000810623169,-9.440337145996093,1.6639701538085936,2.2457611572265623,6.427480916030534,-22.564885496183205,9.389312977099237,-8.116343627929687,-0.16041151123046873,2.9544448486328125,5.633587786259542,-9.893129770992367,-14.106870229007633,0.0
12.160000324249268,-9.504980590820312,1.5346832641601562,2.300827795410156,3.5114503816793894,-25.19083969465649,9.694656488549619,-7.742848168945312,0.15083470458984374,2.8562825805664063,3.2061068702290076,-10.045801526717558,-15.603053435114504,0.0
12.170000553131104,-9.409212524414063,0.967257470703125,2.5570073730468748,1.9389312977099236,-28.27480916030534,10.778625954198473,-8.109161022949218,0.3495534423828125,2.834734765625,1.4045801526717556,-10.961832061068701,-16.65648854961832,0.0
12.18000054359436,-8.576030346679687,0.01915361328125,3.0789433349609374,7.419847328244275,-28.85496183206107,11.664122137404581,-7.994239343261718,0.63206923828125,2.868253588867187,-1.7557251908396947,-10.442748091603054,-18.47328244274809,0.0
12.190000295639038,-8.377311608886718,-0.6607996582031249,3.787627026367187,12.870229007633588,-30.793893129770993,9.465648854961833,-8.322244970703125,0.7829039428710937,3.1124621582031247,-4.67175572519084,-10.274809160305344,-19.938931297709924,0.0
12.200000524520874,-8.068459594726562,-1.2976572998046874,3.488351818847656,19.053435114503817,-33.87786259541985,4.870229007633588,-8.070853796386718,0.82360537109375,3.2609026611328122,-7.603053435114504,-10.381679389312977,-21.984732824427482,0.0
12.21000051498413,-8.394071020507813,-1.4508862060546874,3.1220389648437497,21.389312977099237,-37.404580152671755,-1.3740458015267176,-8.307879760742187,0.689530078125,3.517082238769531,-9.099236641221374,-11.053435114503817,-23.068702290076335,0.0
12.220000505447388,-8.465897070312499,-2.1068974609374997,3.4524387939453125,29.068702290076335,-41.282442748091604,-6.152671755725191,-8.204929089355469,1.4149731811523436,3.8235400512695312,-12.916030534351146,-11.435114503816793,-24.549618320610687,0.0
12.230000495910645,-9.289502441406249,-0.7876923461914062,3.9432501342773434,38.717557251908396,-45.57251908396947,-10.732824427480915,-8.578424548339843,1.5825672973632812,5.3390697021484375,-19.954198473282442,-13.526717557251908,-26.16793893129771,0.0
12.240000486373901,-9.974244116210937,0.4525041137695312,4.467580297851562,42.458015267175576,-52.36641221374046,-13.312977099236642,-8.681375219726561,1.4125789794921875,5.805939025878906,-28.53435114503817,-23.404580152671755,-26.885496183206108,0.0
12.250000476837158,-12.808978881835937,4.347870214843749,6.619967590332031,34.83969465648855,-61.52671755725191,-15.419847328244275,-8.48505068359375,1.2952630981445312,4.247313745117188,-31.267175572519083,-29.221374045801525,-28.076335877862597,0.0
12.260000705718994,-11.511321582031249,3.4548329956054684,5.762843395996094,22.778625954198475,-80.97709923664122,-6.625954198473282,-8.207323291015625,2.3319524169921872,2.612074011230469,-41.69465648854962,-12.412213740458014,-27.633587786259543,0.0
12.270000696182251,-12.059593762207031,1.43652099609375,7.381323718261719,26.564885496183205,-89.81679389312977,-0.32061068702290074,-10.726023437499999,0.8762778076171874,2.3247698120117186,-44.12213740458015,4.412213740458015,-24.916030534351144,0.0
12.280000686645508,-12.708422412109375,0.01915361328125,7.994239343261718,35.725190839694655,-101.23664122137404,1.3129770992366412,-12.282254516601562,-0.15322890625,3.423708374023437,-51.20610687022901,21.251908396946565,-28.045801526717558,0.0
12.290000438690186,-13.261482995605467,-1.0438719238281249,7.905653881835937,46.48854961832061,-114.99236641221374,1.9389312977099236,-12.574347119140624,-0.076614453125,3.986345764160156,-45.12977099236641,4.977099236641221,-29.34351145038168,0.0
12.300000429153442,-14.140155004882812,-0.8906430175781249,6.526593725585937,53.465648854961835,-127.7557251908397,1.3129770992366412,-15.39232247314453,-3.612850305175781,6.1818286865234375,-38.50381679389313,8.13740458015267,-27.786259541984734,0.0
12.3100004196167,-13.99410870361328,-1.5442600708007812,5.628768103027343,57.45038167938932,-138.8091603053435,-0.3511450381679389,-14.128183996582031,-3.9504327392578125,4.036623999023437,-15.526717557251908,-1.984732824427481,-34.274809160305345,0.0
12.320000648498535,-14.999673400878905,-1.5658078857421873,5.906495495605468,67.8473282442748,-149.5267175572519,1.0687022900763359,-11.001356628417968,-1.927332336425781,1.7908628417968748,5.038167938931298,-2.687022900763359,-27.6793893129771,0.0
12.330000400543213,-14.906299536132812,-1.879448303222656,5.592855078125,79.05343511450381,-158.27480916030535,5.587786259541985,-11.027692846679686,-4.276044165039062,0.40222587890625,35.83206106870229,-3.404580152671756,-26.946564885496183,0.0
12.34000039100647,-14.865598107910156,-2.1811177124023438,3.861847277832031,90.73282442748092,-162.4885496183206,8.580152671755725,-8.499415893554687,-2.2457611572265623,-2.6144682128906247,66.76335877862596,-8.335877862595419,-28.213740458015266,0.0
12.350000619888306,-14.437036010742187,-1.2473790649414063,2.224213342285156,90.54961832061069,-160.93129770992365,11.801526717557252,-7.7763669921875,0.699106884765625,-3.6008792968749996,73.48091603053435,-1.0687022900763359,-30.259541984732824,0.0
12.360000371932983,-12.76827745361328,-1.0845733520507812,0.4429273071289062,77.23664122137404,-160.24427480916032,13.49618320610687,-7.764395983886718,2.1835119140624997,-3.0454245117187497,66.41221374045801,10.274809160305344,-25.358778625954198,0.0
12.370001077651978,-10.919953771972656,-1.5729904907226562,-1.3287819213867187,72.01526717557252,-154.29007633587787,14.305343511450381,-9.528922607421874,-0.3447650390625,-1.93451494140625,59.64885496183206,22.564885496183205,-19.00763358778626,0.0
12.380000591278076,-9.1554271484375,-2.5139117431640625,-2.961627453613281,78.61068702290076,-139.09923664122138,14.83969465648855,-11.128249316406249,-0.8667010009765624,-0.29927520751953124,62.62595419847328,25.236641221374047,-21.541984732824428,0.0
12.390001058578491,-8.214505895996094,-2.7653029174804686,-2.0278888061523435,87.58778625954199,-119.02290076335878,13.709923664122137,-11.587936035156249,-0.5410895751953124,0.7589619262695312,67.2824427480916,20.717557251908396,-27.770992366412212,0.0
12.40000033378601,-8.305485559082031,-1.465251416015625,-0.2537853759765625,84.01526717557252,-100.47328244274809,8.50381679389313,-11.135431921386719,1.1947066284179686,0.6488286499023437,52.458015267175576,26.198473282442748,-12.870229007633588,0.0
12.410000801086426,-7.4579381713867186,-0.45968671875,-0.4644751220703125,68.61068702290076,-87.38931297709924,2.900763358778626,-11.6070896484375,1.2904746948242187,1.8698714965820311,40.458015267175576,25.801526717557252,-13.725190839694656,0.0
12.420000553131104,-8.1594392578125,1.426944189453125,-0.30406361083984373,51.725190839694655,-70.85496183206106,-2.3206106870229006,-10.824185705566405,0.7733271362304687,0.7852981445312499,26.82442748091603,28.610687022900763,-6.717557251908397,0.0
12.43000054359436,-7.137115148925781,0.9840168823242187,-1.2401964599609374,27.251908396946565,-59.51145038167939,-2.2900763358778624,-10.433930834960936,-0.04548983154296875,0.34237083740234375,25.49618320610687,19.984732824427482,-6.015267175572519,0.0
12.440000534057617,-7.886500268554687,1.3742717529296875,-0.0047884033203125,9.572519083969466,-43.12977099236641,-3.435114503816794,-11.03248125,-1.0438719238281249,0.17956512451171874,26.244274809160306,16.396946564885496,-4.152671755725191,0.0
12.450000286102295,-6.5026517089843745,0.9816226806640624,0.18435352783203124,-9.618320610687023,-32.045801526717554,-5.465648854961832,-9.718064538574218,0.5698199951171875,-0.37828386230468747,20.38167938931298,11.236641221374045,-4.9465648854961835,0.0
12.46000051498413,-5.717353564453124,0.6368576416015624,-0.6560112548828124,-30.549618320610687,-22.35114503816794,-7.175572519083969,-9.801861596679688,1.0127473022460938,-1.0414777221679687,12.885496183206106,10.106870229007633,-2.50381679389313,0.0
12.470000505447388,-5.698199951171874,0.8451531860351562,-0.718260498046875,-49.343511450381676,-15.450381679389313,-8.854961832061068,-10.007762939453125,0.7709329345703124,-0.03591302490234375,4.0,13.816793893129772,1.0534351145038168,0.0
12.480000495910645,-6.224924316406249,0.7996633544921875,-0.8116343627929687,-63.55725190839695,-5.419847328244275,-9.526717557251908,-10.014945544433592,0.70868369140625,0.6512228515624999,-1.4809160305343512,14.82442748091603,2.9618320610687023,0.0
12.490000486373901,-6.337451794433593,0.9002198242187499,-0.6105214233398437,-69.29770992366412,8.50381679389313,-9.83206106870229,-10.084377392578125,0.2609679809570312,1.2617442749023438,-4.0,16.03053435114504,3.83206106870229,0.0
12.500000715255737,-6.363788012695312,0.7254431030273437,-0.9600748657226562,-81.25190839694656,11.267175572519085,-8.992366412213741,-9.737218151855469,0.36631285400390623,1.7429788085937499,-5.816793893129771,16.27480916030534,4.977099236641221,0.0
12.510000467300415,-5.104437939453125,-0.5195417602539062,-1.438915197753906,-73.78625954198473,27.129770992366414,-5.66412213740458,-9.255983618164063,0.38786066894531246,2.2194249389648437,-8.564885496183207,15.893129770992367,7.190839694656488,0.0
12.52000093460083,-6.8976949829101555,1.62805712890625,-0.36391865234375,-84.3969465648855,32.778625954198475,-7.0534351145038165,-9.04050546875,0.51714755859375,2.427720483398437,-11.007633587786259,15.282442748091603,8.763358778625955,0.0
12.530000686645508,-5.700594152832031,0.2705447875976562,-0.7062894897460937,-86.97709923664122,40.61068702290076,-1.984732824427481,-9.184157568359375,-0.04548983154296875,2.9472622436523435,-14.061068702290076,13.603053435114504,11.129770992366412,0.0
12.540000677108765,-4.285620971679688,-1.7764976318359373,-1.3144167114257812,-82.3206106870229,48.3206106870229,1.9236641221374047,-8.999804040527343,-0.7302315063476562,3.0837317382812497,-15.465648854961833,12.885496183206106,11.511450381679388,0.0
12.550000667572021,-7.4794859863281244,0.8786720092773437,0.8068459594726562,-85.14503816793894,61.32824427480916,-0.3969465648854962,-9.60793126220703,-1.2976572998046874,3.095702746582031,-11.954198473282442,10.030534351145038,10.763358778625955,0.0
12.560000658035278,-4.2305543334960936,-2.9664158569335934,0.22026655273437498,-73.41984732824427,66.68702290076335,4.351145038167939,-8.655039001464843,-0.8403647827148437,2.7581203125,-14.946564885496183,7.038167938931298,9.465648854961833,0.0
12.570000410079956,-4.601655590820312,-3.0621839233398433,1.4532804077148436,-56.30534351145038,78.30534351145039,2.900763358778626,-9.220070593261719,-1.8602946899414061,2.8610709838867185,-13.312977099236642,6.2748091603053435,9.541984732824428,0.0
12.580000638961792,-6.028599780273437,-2.1068974609374997,3.1459809814453124,-47.770992366412216,88.68702290076335,-2.9160305343511452,-9.167398156738281,-2.2481553588867187,2.849099975585937,-9.954198473282442,3.969465648854962,7.709923664122138,0.0
12.590000629425049,-7.012616662597656,-1.9512743530273435,3.6367923217773437,-41.099236641221374,94.12213740458016,-4.854961832061068,-9.351751684570312,-2.185906115722656,2.971204260253906,-5.877862595419847,0.183206106870229,5.679389312977099,0.0
12.600000619888306,-7.350199096679687,-1.6352397338867186,4.369418029785156,-31.83206106870229,99.22137404580153,-5.450381679389313,-8.827421520996094,-1.599326708984375,2.750937707519531,-4.732824427480916,-3.1755725190839694,3.0229007633587788,0.0
12.610000848770142,-8.161833459472655,-1.3168109130859373,6.0333881835937495,-26.458015267175572,100.80916030534351,-6.2748091603053435,-9.303867651367186,-1.235408056640625,2.8562825805664063,-4.473282442748092,-5.877862595419847,1.6030534351145038,0.0
12.62000060081482,-8.84178673095703,-1.7980454467773437,7.601590270996093,-13.786259541984732,101.98473282442748,-5.465648854961832,-8.777143286132812,-0.63206923828125,2.8802245971679685,-7.236641221374046,-7.343511450381679,0.2900763358778626,0.0
12.630000591278076,-9.68454571533203,-1.3024457031249999,8.377311608886718,-4.854961832061068,99.26717557251908,-5.755725190839694,-8.846575134277343,-0.09816226806640624,2.6336218261718747,-9.664122137404581,-8.580152671755725,-0.3969465648854962,0.0
12.640000581741333,-10.601524951171875,-0.3184288208007812,9.459490759277344,-0.366412213740458,92.79389312977099,-5.9541984732824424,-8.913612780761719,-0.0047884033203125,2.094926452636719,-14.0,-8.427480916030534,-0.12213740458015267,0.0
12.650000810623169,-11.125855114746093,0.3950432739257812,10.101136804199218,-1.6641221374045803,79.90839694656489,-5.801526717557252,-8.66940421142578,0.469263525390625,1.9847931762695312,-18.396946564885496,-8.702290076335878,1.297709923664122,0.0
12.660000562667847,-11.312602844238281,1.3551181396484375,10.232817895507813,0.10687022900763359,67.93893129770993,-5.083969465648855,-8.578424548339843,0.5626373901367188,1.254561669921875,-25.64885496183206,-8.748091603053435,2.7480916030534353,0.0
12.670000314712524,-11.559205615234374,2.2361843505859373,10.481814868164061,-3.7709923664122136,50.18320610687023,-2.8396946564885495,-9.244012609863281,0.17238251953125,1.4700398193359374,-28.366412213740457,-7.450381679389313,5.343511450381679,0.0
12.68000054359436,-11.884817041015625,2.9831752685546875,10.20887587890625,-9.32824427480916,35.16030534351145,-0.10687022900763359,-9.018957653808593,-0.086191259765625,1.0606313354492187,-30.702290076335878,-8.198473282442748,7.251908396946565,0.0
12.691897630691528,-11.595118640136718,2.7844565307617186,9.83777462158203,-15.923664122137405,18.33587786259542,5.00763358778626,-9.696516723632811,-0.7661445312499999,1.3455413330078123,-30.229007633587788,-6.702290076335878,10.65648854961832,0.0
12.700000286102295,-8.741230261230468,-1.8507178833007811,6.967126831054687,4.290076335877862,6.33587786259542,16.229007633587788,-9.572018237304688,-1.4221557861328125,1.5921441040039062,-29.00763358778626,-4.961832061068702,13.053435114503817,0.0
12.71000051498413,-8.820238916015624,-2.375048046875,7.0844427124023435,37.12977099236641,10.854961832061068,20.748091603053435,-9.674968908691406,-2.1547814941406247,1.4820108276367188,-23.587786259541986,-3.8473282442748094,13.389312977099237,0.0
12.720000267028809,-9.988609326171874,-0.2825157958984375,6.294356164550781,56.13740458015267,12.305343511450381,22.748091603053435,-9.567229833984374,-2.0063409912109376,1.005564697265625,-14.67175572519084,-4.748091603053435,14.290076335877863,0.0
12.730000257492065,-9.014169250488282,-0.5961562133789062,2.588131994628906,44.916030534351144,4.854961832061068,27.083969465648856,-9.504980590820312,-1.4437036010742186,1.0534487304687499,-7.694656488549619,-3.450381679389313,16.229007633587788,0.0
12.740000486373901,-12.088324182128906,2.655169641113281,4.620809204101562,31.419847328244273,12.259541984732824,25.480916030534353,-9.275137231445312,-0.9648632690429687,0.469263525390625,-5.374045801526718,-0.22900763358778625,18.18320610687023,0.0
12.750000476837158,-12.873622326660156,0.46208092041015625,6.0333881835937495,8.83969465648855,3.954198473282443,25.49618320610687,-10.673351000976561,-1.9823989746093749,1.2473790649414063,2.8244274809160306,-2.4122137404580153,20.763358778625953,0.0
12.760000944137573,-13.670891479492187,0.28969840087890625,9.330203869628905,8.50381679389313,2.931297709923664,21.49618320610687,-10.077194787597655,-0.4955997436523437,0.7781155395507812,5.679389312977099,-3.9083969465648853,19.389312977099237,0.0
12.770000696182251,-12.574347119140624,0.19632453613281248,9.054870678710937,3.66412213740458,-11.908396946564885,19.862595419847327,-10.01733974609375,-0.14125789794921875,0.4165910888671875,5.374045801526718,-2.4885496183206106,20.03053435114504,0.0
12.780000925064087,-13.520056774902343,3.095702746582031,8.104372619628906,-2.50381679389313,-15.679389312977099,16.564885496183205,-9.919177478027343,-0.3758896606445312,0.8283937744140625,4.8396946564885495,-1.1297709923664123,20.82442748091603,0.0
12.790000677108765,-13.113042492675781,4.414907861328125,4.6998178588867185,-22.610687022900763,-21.480916030534353,19.49618320610687,-10.220846887207031,-0.16759411621093748,0.062249243164062495,3.8473282442748094,-0.5801526717557252,21.251908396946565,0.0
12.800000429153442,-12.140996618652343,3.967192150878906,1.3575123413085937,-39.969465648854964,-19.068702290076335,24.900763358778626,-10.137049829101562,0.411802685546875,0.1867477294921875,3.9083969465648853,2.3053435114503817,21.938931297709924,0.0
12.810000658035278,-9.354145886230468,0.488417138671875,-1.20667763671875,-54.274809160305345,-12.702290076335878,29.114503816793892,-10.989385620117186,0.7230489013671875,-0.41419688720703124,3.480916030534351,4.778625954198473,22.458015267175572,0.0
12.820000648498535,-9.124302526855468,-1.3862427612304686,-1.2641384765625,-55.282442748091604,3.4656488549618323,26.427480916030536,-11.190498559570312,0.9050082275390624,-0.047884033203124995,3.3893129770992365,8.274809160305344,23.572519083969464,0.0
12.830000877380371,-6.593631372070312,-3.3303345092773435,-1.5562310791015623,-44.87022900763359,20.16793893129771,21.022900763358777,-11.221623181152344,1.2737152832031249,0.02633621826171875,2.2900763358778624,10.748091603053435,24.625954198473284,0.0
12.840000867843628,-9.617508068847656,0.3495534423828125,0.5147533569335937,-51.404580152671755,27.572519083969464,11.419847328244275,-11.44667813720703,2.6958710693359373,-0.8690952026367187,-0.33587786259541985,12.992366412213741,25.206106870229007,0.0
12.850000619888306,-9.485826977539062,0.25139117431640623,-0.16041151123046873,-56.36641221374046,27.801526717557252,10.427480916030534,-12.20085166015625,1.1827356201171875,1.180341418457031,-3.877862595419847,21.64885496183206,30.763358778625953,0.0
12.860000610351562,-9.715670336914062,-0.11013327636718749,0.5099649536132812,-54.458015267175576,33.00763358778626,10.549618320610687,-11.654973681640625,0.7996633544921875,1.8171990600585937,-3.7251908396946565,24.931297709923665,32.458015267175576,0.0
12.870000839233398,-8.145074047851562,-2.133233679199219,-0.16998831787109375,-43.00763358778626,38.83969465648855,8.412213740458014,-9.658209497070311,1.7166425903320313,0.2753331909179687,-4.656488549618321,22.16793893129771,30.35114503816794,0.0
12.880000591278076,-9.993397729492187,-1.139639990234375,0.928950244140625,-37.06870229007634,45.404580152671755,3.1908396946564888,-9.433154541015625,1.5442600708007812,0.9121908325195311,-5.801526717557252,25.129770992366414,30.16793893129771,0.0
12.890000820159912,-9.823409411621093,-0.4285620971679687,1.0821791503906248,-30.83969465648855,47.81679389312977,0.4122137404580153,-9.900023864746093,1.8339584716796873,1.714248388671875,-4.885496183206107,28.427480916030536,31.129770992366414,0.0
12.90000033378601,-9.418789331054686,0.3016694091796875,1.3527239379882812,-24.870229007633586,47.81679389312977,-0.2748091603053435,-9.540893615722656,0.8403647827148437,1.8746598999023436,-8.702290076335878,34.18320610687023,32.274809160305345,0.0
12.910000562667847,-9.804255798339844,0.5219359619140624,1.7022773803710936,-21.557251908396946,46.778625954198475,-1.2366412213740459,-10.280701928710936,-0.8547299926757812,2.4756045166015626,-1.0381679389312977,33.11450381679389,30.244274809160306,0.0
12.920000553131104,-9.880870251464843,-0.3184288208007812,2.020706201171875,-17.72519083969466,43.12977099236641,-1.8931297709923665,-10.390835205078124,-0.3902548706054687,3.414131567382812,13.129770992366412,28.396946564885496,25.84732824427481,0.0
12.93000054359436,-9.619902270507811,0.023942016601562498,2.2577321655273437,-11.84732824427481,40.93129770992366,-2.763358778625954,-9.95987890625,0.9504980590820312,2.5570073730468748,23.221374045801525,19.19083969465649,19.61832061068702,0.0
12.940000295639038,-10.77630167236328,0.9217676391601562,1.8938135131835936,-9.312977099236642,37.099236641221374,-4.030534351145038,-10.144232434082031,1.3838485595703125,3.3399113159179685,23.206106870229007,19.96946564885496,17.81679389312977,0.0
12.950000286102295,-10.730811840820312,1.8219874633789062,1.707065783691406,-7.633587786259542,34.916030534351144,-4.458015267175573,-9.414000927734374,2.3127988037109373,2.7341782958984373,19.114503816793892,16.015267175572518,15.938931297709924,0.0
12.96000051498413,-9.404424121093749,0.488417138671875,1.0773907470703123,-4.0458015267175576,32.44274809160305,-2.9923664122137406,-9.923965881347655,1.9393033447265624,3.1771056030273437,18.48854961832061,15.206106870229007,16.702290076335878,0.0
12.970000267028809,-10.793061083984375,1.9991583862304687,1.8076222534179687,-10.625954198473282,27.72519083969466,-3.618320610687023,-9.770736975097655,2.123656872558594,3.0119056884765625,17.61832061068702,13.526717557251908,15.877862595419847,0.0
12.980000495910645,-9.610325463867188,0.35194764404296874,1.5107412475585937,-6.015267175572519,25.587786259541986,-0.2900763358778626,-9.988609326171874,1.6519991455078125,3.1842882080078123,17.603053435114504,11.969465648854962,16.870229007633586,0.0
12.990000486373901,-9.49300958251953,0.14125789794921875,1.7381904052734374,0.2900763358778626,25.450381679389313,0.21374045801526717,-9.68454571533203,1.8339584716796873,2.9735984619140625,17.0381679389313,10.381679389312977,16.015267175572518,0.0
13.000000238418579,-7.532158422851562,-2.300827795410156,0.8595183959960937,11.908396946564885,25.633587786259543,1.3435114503816794,-9.713276135253906,1.4125789794921875,3.047818713378906,17.83206106870229,8.885496183206106,15.83206106870229,0.0
13.010000705718994,-9.107543115234375,-0.3327940307617187,2.221819140625,20.931297709923665,31.633587786259543,-4.977099236641221,-9.72285294189453,1.4628572143554686,2.8658593872070313,16.9618320610687,5.6183206106870225,15.19083969465649,0.0
13.02000093460083,-10.007762939453125,-0.12210428466796874,2.473210314941406,22.80916030534351,30.717557251908396,-6.916030534351145,-9.87608184814453,1.5490484741210937,2.77727392578125,15.725190839694656,3.1603053435114505,15.068702290076336,0.0
13.030000686645508,-8.571241943359375,0.7900865478515624,1.6017209106445311,24.778625954198475,27.755725190839694,-7.129770992366412,-9.708487731933593,1.8746598999023436,2.4013842651367185,12.229007633587786,0.7175572519083969,13.98473282442748,0.0
13.040000677108765,-10.13226142578125,1.3862427612304686,1.838746875,22.0,28.610687022900763,-7.557251908396947,-10.031704956054687,1.8602946899414061,2.2601263671875,10.335877862595419,-0.549618320610687,14.045801526717558,0.0
13.050000667572021,-10.335768566894531,2.492363928222656,2.4684219116210935,20.702290076335878,29.633587786259543,-7.893129770992366,-9.514557397460937,2.1691467041015624,1.9297265380859374,6.5038167938931295,-2.549618320610687,12.946564885496183,0.0
13.060000658035278,-10.369287390136718,1.9823989746093749,2.1595698974609374,13.786259541984732,24.519083969465647,-4.870229007633588,-9.842563024902343,1.9416975463867185,1.9512743530273435,3.66412213740458,-3.099236641221374,13.267175572519085,0.0
13.070000648498535,-9.552864624023437,0.93852705078125,1.438915197753906,15.236641221374045,22.045801526717558,-2.5801526717557253,-9.481038574218749,1.9416975463867185,1.6136919189453125,0.6870229007633588,-4.778625954198473,12.198473282442748,0.0
13.080000400543213,-8.805873706054687,0.4477157104492187,1.5322890624999999,17.69465648854962,24.045801526717558,-2.4427480916030535,-9.6151138671875,1.3287819213867187,1.867477294921875,-0.7175572519083969,-4.534351145038168,12.198473282442748,0.0
13.09000039100647,-10.503362683105468,0.5985504150390625,2.3056161987304686,19.206106870229007,26.732824427480917,-4.595419847328245,-10.575188732910156,1.0319009155273438,1.3718775512695311,5.541984732824427,-8.381679389312977,10.51908396946565,0.0
13.100000619888306,-9.26316622314453,1.2808978881835937,1.8291700683593748,16.16793893129771,21.740458015267176,-4.152671755725191,-8.839392529296875,1.9201497314453124,1.7860744384765623,-3.816793893129771,-7.251908396946565,8.091603053435115,0.0
13.110000371932983,-9.277531433105468,1.7645266235351562,2.454056701660156,6.137404580152672,19.17557251908397,-3.8625954198473282,-8.781931689453124,2.645592834472656,0.1771709228515625,-7.893129770992366,-12.51908396946565,6.916030534351145,0.0
13.12000060081482,-10.682927807617187,3.6008792968749996,2.9185318237304685,-7.465648854961832,12.946564885496183,-3.2213740458015265,-9.361328491210937,1.9943699829101562,1.1180921752929687,-15.206106870229007,-4.458015267175573,9.725190839694656,0.0
13.130000591278076,-9.576806640625,1.5945383056640625,2.3391350219726563,-10.106870229007633,10.687022900763358,0.21374045801526717,-8.774749084472656,2.0446482177734375,0.6416460449218749,-18.82442748091603,-5.343511450381679,8.427480916030534,0.0
13.140000343322754,-8.422801440429687,0.02154781494140625,1.7214309936523438,0.3816793893129771,15.099236641221374,-0.04580152671755725,-9.035717065429687,1.3646949462890625,0.7302315063476562,-17.893129770992367,-2.7786259541984735,7.526717557251908,0.0
13.15000057220459,-8.710105639648438,0.22744915771484372,1.20667763671875,-2.9770992366412212,12.65648854961832,-1.1450381679389312,-9.476250170898437,0.028730419921875,1.3048399047851562,-11.618320610687023,-2.16793893129771,6.99236641221374,0.0
13.160000562667847,-9.215282189941405,0.7038952880859375,1.0893617553710937,-4.595419847328245,11.786259541984732,-2.4427480916030535,-9.016563452148437,0.7924807495117187,0.5123591552734374,-4.183206106870229,-8.50381679389313,2.015267175572519,0.0
13.170000553131104,-9.564835632324218,1.1923124267578125,1.5682020874023437,-2.9160305343511452,15.221374045801527,-3.66412213740458,-10.206481677246094,0.7350199096679687,1.4796166259765624,-1.465648854961832,-4.488549618320611,1.5114503816793894,0.0
13.18000054359436,-10.907982763671875,3.4835634155273434,3.0166940917968748,-11.770992366412214,15.49618320610687,-5.847328244274809,-9.993397729492187,1.5418658691406248,-0.22026655273437498,2.687022900763359,-10.381679389312977,-1.786259541984733,0.0
13.190000295639038,-10.230423693847655,2.540247961425781,1.9800047729492187,-23.14503816793893,8.290076335877863,-1.8778625954198473,-10.24000050048828,2.2385785522460937,0.4213794921875,3.236641221374046,-10.732824427480915,-4.793893129770993,0.0
13.200000286102295,-9.066841687011719,1.1133037719726562,1.4724340209960938,-21.17557251908397,9.358778625954198,0.9770992366412213,-9.193734375,1.4413093994140624,0.47165772705078124,-1.7099236641221374,-10.442748091603054,-5.969465648854962,0.0
13.210000276565552,-9.524134204101562,1.5921441040039062,1.7549498168945312,-22.564885496183205,10.549618320610687,-0.030534351145038167,-9.87608184814453,2.693476867675781,1.1947066284179686,-6.122137404580153,-8.351145038167939,-6.229007633587786,0.0
13.220000505447388,-9.411606726074218,1.5083470458984374,1.3670891479492187,-24.870229007633586,10.091603053435115,-0.16793893129770993,-8.767566479492187,2.8371289672851563,1.4915876342773438,-16.18320610687023,-6.0,-5.816793893129771,0.0
13.230000257492065,-9.974244116210937,1.8363526733398436,1.5801730957031248,-28.99236641221374,10.396946564885496,-0.24427480916030533,-12.50730947265625,2.109291662597656,4.829104748535156,-18.48854961832061,-5.297709923664122,1.297709923664122,0.0
13.240000486373901,-9.624690673828125,1.5753846923828123,1.6424223388671875,-33.29770992366412,9.648854961832061,-0.12213740458015267,-7.824251025390624,3.2824504760742186,1.2928688964843749,-31.297709923664122,-4.488549618320611,-6.076335877862595,0.0
13.250000476837158,-9.406818322753905,0.5722141967773438,0.9648632690429687,-31.87786259541985,8.748091603053435,1.8473282442748091,-9.627084875488281,1.5155296508789062,2.0661960327148434,-33.51145038167939,-0.21374045801526717,-4.3816793893129775,0.0
13.260000944137573,-9.306261853027344,0.38307226562499996,1.4149731811523436,-22.85496183206107,14.687022900763358,-0.8091603053435115,-9.916783276367187,1.0007762939453124,2.6527754394531247,-33.38931297709924,1.099236641221374,-5.221374045801527,0.0
13.270000696182251,-9.478644372558593,0.622492431640625,1.5059528442382812,-22.99236641221374,15.419847328244275,-2.6564885496183206,-9.94072529296875,0.4955997436523437,3.201047619628906,-29.34351145038168,-1.450381679389313,-5.66412213740458,0.0
13.280000925064087,-8.643067993164061,-0.30406361083984373,0.39264907226562495,-23.893129770992367,11.725190839694656,-1.6030534351145038,-8.805873706054687,1.4820108276367188,2.319981408691406,-26.061068702290076,-10.564885496183207,-9.083969465648854,0.0
13.290000677108765,-9.188945971679686,0.28012159423828126,0.5530605834960938,-23.404580152671755,12.549618320610687,-1.5419847328244274,-9.579200842285156,0.9888052856445312,2.73896669921875,-22.83969465648855,-12.16793893129771,-9.419847328244275,0.0
13.300000667572021,-10.287884533691406,1.4413093994140624,1.3623007446289062,-26.778625954198475,12.80916030534351,-3.450381679389313,-11.123460913085937,0.29927520751953124,4.453215087890625,-17.72519083969466,-8.793893129770993,-6.33587786259542,0.0
13.310000658035278,-9.765948571777344,0.48123453369140623,1.465251416015625,-19.66412213740458,17.908396946564885,-3.572519083969466,-10.46984385986328,1.2856862915039062,3.0238766967773434,-10.778625954198473,-20.3206106870229,-10.290076335877863,0.0
13.320000410079956,-9.380482104492186,0.3280056274414062,0.6512228515624999,-20.549618320610687,16.3206106870229,-3.5877862595419847,-13.500903161621093,-0.9744400756835937,7.381323718261719,5.587786259541985,-21.709923664122137,-10.610687022900763,0.0
13.330000638961792,-10.532093103027343,2.5905261962890624,1.4317325927734375,-33.847328244274806,12.610687022900763,-5.374045801526718,-7.6614453125,4.254496350097656,2.128445275878906,-13.725190839694656,-26.12213740458015,-14.16793893129771,0.0
13.34000039100647,-9.042899670410156,0.5746083984375,0.928950244140625,-39.9236641221374,11.374045801526718,-1.4961832061068703,-10.223241088867187,1.6328455322265625,3.2034418212890623,-24.83969465648855,-17.435114503816795,-4.3816793893129775,0.0
13.350000619888306,-9.866505041503906,0.8212111694335937,1.4987702392578124,-39.221374045801525,11.664122137404581,-3.83206106870229,-10.256759912109374,0.5458779785156249,2.858676782226562,-20.702290076335878,-22.732824427480917,-6.687022900763359,0.0
13.360000371932983,-10.17056865234375,0.40222587890625,1.1180921752929687,-38.76335877862596,10.01526717557252,-3.450381679389313,-10.560823522949217,-0.2609679809570312,3.5697546752929687,-13.908396946564885,-25.96946564885496,-9.17557251908397,0.0
13.370000839233398,-9.557653027343749,0.28490999755859375,0.9313444458007812,-35.7557251908397,10.717557251908397,-3.145038167938931,-7.694964135742187,2.693476867675781,1.8243816650390623,-19.083969465648856,-28.213740458015266,-13.694656488549619,0.0
13.380000352859497,-9.6917283203125,0.93852705078125,1.177947216796875,-38.0,12.045801526717558,-3.312977099236641,-9.488221179199218,1.0342951171875,3.1938650146484373,-28.732824427480917,-16.625954198473284,-7.145038167938932,0.0
13.390000820159912,-9.72285294189453,0.689530078125,1.0462661254882812,-39.49618320610687,10.793893129770993,-3.4198473282442747,-8.971073620605468,0.2705447875976562,2.1547814941406247,-22.717557251908396,-23.51145038167939,-8.580152671755725,0.0
13.40000057220459,-8.046911779785155,-2.1452046874999997,-0.23702596435546874,-28.458015267175572,11.664122137404581,-2.351145038167939,-9.82580361328125,0.011971008300781249,3.0813375366210938,-12.977099236641221,-25.129770992366414,-10.687022900763358,0.0
13.410000801086426,-8.444349255371094,-0.8643067993164062,0.5123591552734374,-20.83969465648855,15.129770992366412,-6.305343511450381,-8.087613208007811,1.005564697265625,1.905784521484375,-11.34351145038168,-26.3206106870229,-13.34351145038168,0.0
13.420000553131104,-8.736441857910156,-0.469263525390625,0.6488286499023437,-24.061068702290076,12.641221374045802,-6.8396946564885495,-7.4220251464843745,1.7334020019531249,1.1516109985351561,-23.450381679389313,-21.221374045801525,-12.83969465648855,0.0
13.43000054359436,-8.542511523437499,0.3399766357421875,0.7829039428710937,-23.221374045801525,13.374045801526718,-6.33587786259542,-7.900865478515625,1.6160861206054686,2.1787235107421874,-32.396946564885496,-10.65648854961832,-8.931297709923664,0.0
13.440000534057617,-8.91840118408203,-0.031124621582031248,0.7062894897460937,-26.763358778625953,10.335877862595419,-5.908396946564886,-8.406042028808594,0.8738836059570312,1.889025109863281,-29.51145038167939,-13.206106870229007,-8.946564885496183,0.0
13.450000524520874,-8.33182177734375,-0.5817910034179687,0.507570751953125,-13.893129770992367,13.236641221374045,-6.442748091603053,-9.141061938476563,-0.93852705078125,2.7174188842773437,-17.572519083969464,-14.549618320610687,-9.801526717557252,0.0
13.46000051498413,-10.637437976074217,0.4955997436523437,1.8531120849609375,-11.725190839694656,14.641221374045802,-9.16030534351145,-10.321403356933594,-1.5825672973632812,3.507505432128906,-3.6946564885496183,-14.305343511450381,-11.633587786259541,0.0
13.470000505447388,-10.347739575195313,-1.3838485595703125,1.697488977050781,-5.175572519083969,13.679389312977099,-8.198473282442748,-8.252813122558594,0.0,2.583343591308594,5.236641221374046,-21.893129770992367,-14.549618320610687,0.0
13.480000495910645,-9.131485131835937,-0.430956298828125,1.2617442749023438,5.770992366412214,14.687022900763358,-9.129770992366412,-7.089231115722656,1.3838485595703125,1.8195932617187498,1.5267175572519085,-20.702290076335878,-15.129770992366412,0.0
13.490000486373901,-8.959102612304687,0.8547299926757812,1.6543933471679686,1.2213740458015268,12.15267175572519,-10.320610687022901,-8.322244970703125,1.9991583862304687,2.408566870117187,-3.0839694656488548,-11.877862595419847,-9.923664122137405,0.0
13.500000715255737,-8.583212951660157,0.031124621582031248,0.9193734375,-4.519083969465649,6.3816793893129775,-7.267175572519084,-7.237671618652343,2.085349645996094,1.8148048583984373,-16.80916030534351,-1.0229007633587786,-8.106870229007633,0.0
13.510000467300415,-8.872911352539061,-0.04548983154296875,1.407790576171875,-0.5648854961832062,7.587786259541985,-7.00763358778626,-7.917624890136718,0.9792284790039062,2.214636535644531,-12.580152671755725,-3.0229007633587788,-6.137404580152672,0.0
13.520000696182251,-8.932766394042968,-0.9720458740234375,1.16837041015625,4.076335877862595,3.3740458015267176,-6.885496183206107,-8.2743609375,-0.22744915771484372,2.731784094238281,-8.51908396946565,2.687022900763359,-6.5038167938931295,0.0
13.530000686645508,-8.662221606445312,-1.0414777221679687,1.68551796875,14.549618320610687,5.236641221374046,-6.427480916030534,-7.970297326660156,-0.7230489013671875,3.2034418212890623,-4.458015267175573,2.931297709923664,-6.1679389312977095,0.0
13.540000677108765,-7.869740856933594,-1.6711527587890624,1.2880804931640624,17.572519083969464,2.198473282442748,-6.030534351145038,-7.728482958984374,-0.8643067993164062,3.2058360229492187,0.5801526717557252,1.6793893129770991,-7.190839694656488,0.0
13.550000667572021,-7.917624890136718,-0.08140285644531249,2.291250988769531,22.702290076335878,5.0534351145038165,-8.580152671755725,-8.068459594726562,-0.8212111694335937,3.105279553222656,3.801526717557252,1.5267175572519085,-7.648854961832061,0.0
13.560000658035278,-7.867346655273437,-0.584185205078125,1.8818425048828125,18.82442748091603,-1.099236641221374,-8.854961832061068,-7.955932116699218,-0.6009446166992187,2.8514941772460936,6.061068702290076,2.33587786259542,-8.51908396946565,0.0
13.570000648498535,-8.453926062011718,0.21787235107421873,2.2361843505859373,21.709923664122137,-0.8549618320610687,-10.229007633587786,-7.592013464355468,-0.4740519287109375,3.076549133300781,7.435114503816794,2.6259541984732824,-9.725190839694656,0.0
13.580000638961792,-9.576806640625,1.3263877197265623,2.901772412109375,15.618320610687023,-3.8625954198473282,-11.679389312977099,-7.551312036132812,-0.44532150878906246,2.8802245971679685,7.969465648854962,3.068702290076336,-9.877862595419847,0.0
13.59000039100647,-10.292672937011718,1.7453730102539062,3.737348791503906,16.763358778625953,-1.8778625954198473,-12.732824427480915,-7.4028715332031245,-0.12689268798828124,3.124433166503906,7.862595419847328,4.030534351145038,-9.816793893129772,0.0
13.600000381469727,-9.543287817382812,1.2617442749023438,3.9743747558593747,16.83969465648855,-3.801526717557252,-13.48091603053435,-7.165845568847656,0.13646949462890623,2.896984008789062,5.862595419847328,3.4198473282442747,-10.244274809160306,0.0
13.610000371932983,-8.935160595703124,0.8738836059570312,3.725377783203125,18.427480916030536,-7.236641221374046,-12.702290076335878,-7.4794859863281244,0.37828386230468747,2.8467057739257813,3.7251908396946565,3.8473282442748094,-9.083969465648854,0.0
13.62000036239624,-10.551246716308594,2.9448680419921875,5.4515971801757805,15.038167938931299,-11.145038167938932,-13.877862595419847,-6.7277066650390625,1.3000515014648437,3.5577836669921874,-2.854961832061069,2.900763358778626,-8.83969465648855,0.0
13.630000829696655,-10.103531005859374,2.7629087158203123,5.504269616699219,1.0381679389312977,-27.0381679389313,-9.83206106870229,-7.6470801025390625,1.5466542724609373,3.430890979003906,-9.84732824427481,2.50381679389313,-7.404580152671755,0.0
13.640000581741333,-9.3852705078125,1.7262193969726563,5.614402893066406,7.022900763358779,-34.916030534351144,-4.67175572519084,-6.797138513183594,2.2553379638671873,4.491522314453125,-21.022900763358777,1.450381679389313,-7.938931297709924,0.0
13.650000810623169,-8.010998754882811,-0.1388636962890625,5.2433016357421875,22.870229007633586,-41.86259541984733,0.04580152671755725,-7.723694555664062,1.158793603515625,5.377376928710937,-33.41984732824427,-2.0,-7.267175572519084,0.0
13.660000562667847,-8.271966735839843,0.40462008056640625,6.174646081542968,40.595419847328245,-46.83969465648855,1.9389312977099236,-8.458714465332031,0.20829554443359374,5.1690813842773435,-39.23664122137404,-9.16030534351145,-9.312977099236642,0.0
13.670000553131104,-8.80347950439453,1.6136919189453125,6.806715319824218,49.16030534351145,-54.595419847328245,6.137404580152672,-10.568006127929687,-0.5506663818359374,4.9823336547851556,-36.33587786259542,-13.236641221374045,-16.80916030534351,0.0
13.68000054359436,-10.512939489746094,2.4061726684570313,6.272808349609375,36.595419847328245,-71.19083969465649,8.305343511450381,-14.197615844726561,-2.6767174560546874,6.56968935546875,-37.11450381679389,-7.435114503816794,-21.435114503816795,0.0
13.690000534057617,-11.595118640136718,1.8171990600585937,6.136338854980468,20.641221374045802,-86.91603053435115,7.282442748091603,-17.5064025390625,-5.066130712890625,7.637503295898437,-36.961832061068705,-11.007633587786259,-29.87786259541985,0.0
13.700000524520874,-13.397952490234374,0.19871873779296872,5.494692810058593,8.274809160305344,-103.77099236641222,4.549618320610687,-18.164807995605468,-6.016628771972656,6.6319385986328125,-23.19083969465649,-21.404580152671755,-34.51908396946565,0.0
13.71000051498413,-15.387534069824218,-2.4157494750976563,4.783614916992187,20.549618320610687,-116.50381679389314,2.50381679389313,-14.092270971679687,-4.826710546875,4.11802685546875,-0.7480916030534351,-29.938931297709924,-33.05343511450382,0.0
13.720000267028809,-16.440982800292968,-3.83072265625,4.472368701171875,50.213740458015266,-121.0381679389313,6.320610687022901,-10.692504614257812,-3.411737365722656,1.2306196533203124,14.900763358778626,-26.763358778625953,-36.732824427480914,0.0
13.730000495910645,-17.31247220458984,-3.5051112304687497,4.062960217285156,76.16793893129771,-122.38167938931298,11.358778625954198,-7.529764221191406,-2.269703173828125,-1.1372457885742187,44.229007633587784,-29.96946564885496,-36.213740458015266,0.0
13.740000247955322,-16.34282053222656,-4.209006518554688,2.4205378784179685,85.86259541984732,-122.1526717557252,16.916030534351144,-3.545812658691406,2.3223756103515623,-5.3199160888671875,64.25954198473282,-17.480916030534353,-40.79389312977099,0.0
13.750000476837158,-14.88714592285156,-3.3016040893554686,1.3766659545898436,87.0381679389313,-119.80152671755725,20.137404580152673,-5.623979699707031,1.905784521484375,-6.078878015136718,41.81679389312977,3.7709923664122136,-36.732824427480914,0.0
13.760000944137573,-13.620613244628906,-2.7820623291015623,0.6081272216796875,78.53435114503817,-120.10687022900764,19.022900763358777,-7.062894897460937,0.8403647827148437,-4.3239281982421875,40.19847328244275,25.87786259541985,-28.27480916030534,0.0
13.770000696182251,-11.434707128906249,-3.8139632446289062,-0.5458779785156249,78.27480916030534,-116.6412213740458,16.47328244274809,-9.572018237304688,-1.7238251953125,-2.152387292480469,34.48854961832061,26.48854961832061,-24.38167938931298,0.0
13.780000925064087,-9.677363110351562,-3.6391865234374996,-1.0630255371093749,88.42748091603053,-107.52671755725191,12.229007633587786,-10.733206042480468,2.4133552734375,-1.924938134765625,44.79389312977099,27.46564885496183,-33.786259541984734,0.0
13.790000677108765,-8.813056311035156,-3.071760729980469,-0.8978256225585937,84.9618320610687,-97.02290076335878,8.549618320610687,-12.337321154785155,1.695094775390625,1.0175357055664063,65.17557251908397,28.3206106870229,-14.16793893129771,0.0
13.800000667572021,-7.577648254394531,-3.77326181640625,-1.0271125122070313,80.56488549618321,-87.52671755725191,2.885496183206107,-14.207192651367187,-0.4572925170898437,1.1563994018554686,-44.01526717557252,10.427480916030534,0.24427480916030533,0.0
13.810000658035278,-7.893682873535155,-2.3223756103515623,-1.1827356201171875,77.81679389312977,-71.26717557251908,-4.0,-10.843339318847656,4.374206433105469,3.2632968627929686,97.43511450381679,43.93893129770992,-10.366412213740459,0.0
13.820000648498535,-7.45075556640625,-1.0366893188476562,-1.4245499877929686,63.770992366412216,-57.05343511450382,-6.442748091603053,-11.214440576171874,4.163516687011718,-0.4261678955078125,39.43511450381679,34.54961832061068,-0.9312977099236641,0.0
13.830000638961792,-7.230489013671875,-0.277727392578125,-1.1324573852539062,50.61068702290076,-44.35114503816794,-9.664122137404581,-11.686098303222655,1.429338391113281,0.7398083129882812,23.236641221374047,26.717557251908396,6.091603053435114,0.0
13.840000867843628,-6.7277066650390625,-1.2042834350585936,-1.2856862915039062,38.62595419847328,-34.42748091603053,-13.98473282442748,-10.907982763671875,0.12689268798828124,0.17956512451171874,15.32824427480916,24.15267175572519,5.694656488549619,0.0
13.850000619888306,-6.251260534667968,-2.185906115722656,-1.3742717529296875,28.717557251908396,-24.702290076335878,-18.595419847328245,-10.261548315429687,-0.02154781494140625,-0.06703764648437499,9.038167938931299,29.14503816793893,4.030534351145038,0.0
13.860000371932983,-7.740453967285156,0.17956512451171874,0.229843359375,20.80916030534351,-8.213740458015268,-26.106870229007633,-9.962273107910155,0.5410895751953124,-1.0654197387695312,4.5038167938931295,18.900763358778626,2.0,0.0
13.870000839233398,-7.843404638671874,1.3455413330078123,0.26336218261718747,-6.67175572519084,-7.282442748091603,-29.206106870229007,-9.452308154296874,1.120486376953125,0.08379705810546874,-0.6412213740458015,9.770992366412214,4.793893129770993,0.0
13.880000352859497,-8.080430603027343,1.7788918334960937,-0.1005564697265625,-25.633587786259543,-5.3893129770992365,-28.83969465648855,-9.390058911132812,0.7661445312499999,0.6296750366210937,-9.068702290076336,9.725190839694656,6.595419847328245,0.0
13.890000820159912,-7.896077075195312,1.3814543579101561,-0.51714755859375,-40.61068702290076,-0.916030534351145,-26.610687022900763,-9.658209497070311,0.105344873046875,1.0869675537109373,-13.038167938931299,10.13740458015267,7.587786259541985,0.0
13.90000057220459,-7.857769848632812,0.9864110839843749,-1.1180921752929687,-52.87022900763359,4.488549618320611,-23.83206106870229,-9.617508068847656,-0.3495534423828125,2.01112939453125,-14.396946564885496,10.702290076335878,8.01526717557252,0.0
13.910000801086426,-7.800309008789062,0.9840168823242187,-1.216254443359375,-61.06870229007634,10.488549618320612,-20.48854961832061,-9.351751684570312,-0.59376201171875,2.176329309082031,-15.511450381679388,10.763358778625955,8.366412213740459,0.0
13.920000314712524,-8.243236315917969,1.1827356201171875,-0.8547299926757812,-69.92366412213741,15.786259541984732,-16.732824427480917,-9.124302526855468,-0.7062894897460937,2.2074539306640624,-15.114503816793894,10.67175572519084,9.053435114503817,0.0
13.93000054359436,-7.668627917480468,0.46686932373046874,-0.8068459594726562,-75.1145038167939,19.984732824427482,-11.83206106870229,-8.916006982421875,-0.9959878906249999,2.0183119995117185,-13.786259541984732,9.312977099236642,9.32824427480916,0.0
13.940000295639038,-8.37012900390625,0.7517793212890624,0.1149216796875,-78.8854961832061,25.31297709923664,-7.801526717557252,-9.291896643066405,-1.0678139404296874,2.114080065917969,-11.541984732824428,8.702290076335878,9.603053435114504,0.0
13.950000524520874,-7.800309008789062,-0.20350714111328125,0.16998831787109375,-75.43511450381679,29.053435114503817,-2.122137404580153,-9.548076220703125,-1.3527239379882812,2.2002713256835937,-9.358778625954198,6.885496183206107,9.083969465648854,0.0
13.96000051498413,-8.125920434570313,-0.08140285644531249,1.0917559570312498,-70.3206106870229,34.44274809160305,1.9236641221374047,-9.710881933593749,-1.3910311645507811,2.1739351074218747,-7.526717557251908,5.4961832061068705,8.427480916030534,0.0
13.970000505447388,-7.4579381713867186,-1.1827356201171875,1.350329736328125,-66.53435114503817,36.0763358778626,5.480916030534351,-9.275137231445312,-1.1923124267578125,2.2290017456054687,-6.625954198473282,3.3282442748091605,7.6183206106870225,0.0
13.980000257492065,-8.044517578125,-1.1180921752929687,2.501940734863281,-61.57251908396947,39.41984732824427,6.305343511450381,-8.916006982421875,-1.5035586425781249,2.0829554443359375,-4.748091603053435,0.6870229007633588,6.732824427480916,0.0
13.990000247955322,-6.189011291503906,-4.333505004882812,1.5969325073242187,-48.229007633587784,41.11450381679389,8.442748091603054,-8.702923034667968,-0.70868369140625,1.7788918334960937,-3.4198473282442747,-0.8549618320610687,4.809160305343512,0.0
14.000000715255737,-6.775590698242187,-3.756502404785156,2.7150246826171873,-33.49618320610687,47.64885496183206,5.541984732824427,-9.030928662109375,-1.0271125122070313,2.27927998046875,-3.5877862595419847,0.24427480916030533,5.541984732824427,0.0
14.010000705718994,-8.300697155761718,-3.2345664428710936,4.012681982421875,-31.297709923664122,52.030534351145036,0.6259541984732825,-9.411606726074218,-2.0159177978515626,2.8107927490234372,-1.7099236641221374,-0.5648854961832062,5.557251908396947,0.0
14.02000093460083,-8.66940421142578,-2.806004345703125,5.03740029296875,-21.755725190839694,53.81679389312977,-1.3893129770992367,-8.805873706054687,-0.47884033203125,1.1085153686523437,3.068702290076336,-8.595419847328245,1.2061068702290076,0.0
14.030000686645508,-9.038111267089842,-1.915361328125,5.837063647460937,-16.366412213740457,52.58015267175573,-1.9389312977099236,-9.17458076171875,-0.6081272216796875,2.059013427734375,-2.0610687022900764,-2.0610687022900764,3.114503816793893,0.0
14.040000438690186,-9.643844287109374,-1.4987702392578124,7.019799267578125,-14.50381679389313,49.41984732824427,-3.0229007633587788,-9.8449572265625,-0.7924807495117187,1.9608511596679685,0.9312977099236641,-6.076335877862595,3.1297709923664123,0.0
14.050000667572021,-9.009380847167968,-2.070984436035156,7.4220251464843745,-5.877862595419847,42.36641221374046,-2.9618320610687023,-8.334215979003906,0.3399766357421875,1.7597382202148437,-4.015267175572519,-4.0458015267175576,2.3053435114503817,0.0
14.060000658035278,-8.992621435546875,-2.3295582153320313,8.116343627929687,5.0534351145038165,37.51145038167939,-2.9160305343511452,-8.480262280273436,-0.181959326171875,1.2114660400390624,-4.0458015267175576,-4.717557251908397,3.1297709923664123,0.0
14.070000648498535,-9.447519750976562,-1.2330138549804688,8.458714465332031,12.549618320610687,28.30534351145038,-3.984732824427481,-9.725247143554688,-1.4245499877929686,1.6711527587890624,-1.8778625954198473,-4.977099236641221,4.320610687022901,0.0
14.080000400543213,-10.35492218017578,0.5770026000976562,9.085995300292968,26.137404580152673,25.69465648854962,-3.312977099236641,-9.042899670410156,-1.177947216796875,1.6543933471679686,0.9312977099236641,-6.1679389312977095,4.442748091603053,0.0
14.09000039100647,-8.650250598144531,-0.5817910034179687,7.613561279296874,37.603053435114504,16.519083969465647,2.4427480916030535,-9.217676391601563,-1.0965443603515623,1.4413093994140624,3.954198473282443,-6.870229007633588,5.038167938931298,0.0
14.100000381469727,-8.034940771484374,-0.00239420166015625,6.60799658203125,53.221374045801525,10.80916030534351,7.129770992366412,-9.445125549316407,-0.9696516723632812,1.6112977172851561,5.7251908396946565,-6.3816793893129775,4.977099236641221,0.0
14.110000848770142,-9.313444458007812,2.1452046874999997,7.108384729003906,54.83969465648855,3.969465648854962,10.80916030534351,-9.07163009033203,-0.7685387329101562,0.9002198242187499,6.564885496183206,-6.656488549618321,5.709923664122138,0.0
14.12000060081482,-8.2360537109375,0.5386953735351562,6.5601125488281244,69.6793893129771,2.213740458015267,19.00763358778626,-8.920795385742187,-0.5291185668945312,0.6368576416015624,8.183206106870228,-5.511450381679389,6.33587786259542,0.0
14.130000591278076,-9.397241516113281,2.882618798828125,7.752424975585937,85.22137404580153,-0.8396946564885496,25.862595419847327,-7.8529814453124995,0.258573779296875,1.2330138549804688,3.2213740458015265,1.2061068702290076,8.030534351145038,0.0
14.140000581741333,-8.327033374023436,3.1507693847656246,3.81156904296875,76.33587786259542,-1.0534351145038168,32.396946564885496,-9.150638745117186,-0.7613561279296874,1.6400281372070311,3.7404580152671754,2.0610687022900764,10.427480916030534,0.0
14.150000810623169,-7.8338278320312495,4.826710546875,-0.13407529296874998,49.9236641221374,0.8549618320610687,32.35114503816794,-9.495403784179686,-0.59376201171875,1.8243816650390623,5.923664122137405,2.717557251908397,12.244274809160306,0.0
14.160000562667847,-9.253589416503905,4.297591979980469,0.02154781494140625,-0.8549618320610687,-1.5267175572519085,30.85496183206107,-9.76116016845703,0.13168109130859373,1.8339584716796873,6.488549618320611,3.984732824427481,16.564885496183205,0.0
14.170000553131104,-10.254365710449218,0.4333505004882812,3.3710359375,-29.267175572519083,-3.267175572519084,31.61832061068702,-10.726023437499999,1.5251064575195312,1.0031704956054688,1.8015267175572518,3.3435114503816794,20.50381679389313,0.0
14.18000054359436,-12.440271826171875,-0.5315127685546874,8.303091357421874,-35.770992366412216,-5.0534351145038165,29.282442748091604,-9.49300958251953,2.85388837890625,0.6655880615234374,-10.351145038167939,3.9236641221374047,24.106870229007633,0.0
14.190000295639038,-14.183250634765624,0.1149216796875,10.058041174316406,-30.946564885496183,-13.48091603053435,30.290076335877863,-9.662997900390625,0.8403647827148437,0.9744400756835937,-22.198473282442748,14.122137404580153,31.603053435114504,0.0
14.200000524520874,-15.598223815917969,2.0302830078125,7.194575988769531,-27.49618320610687,-20.946564885496183,32.83969465648855,-11.669338891601562,-2.868253588867187,0.7852981445312499,-9.98473282442748,13.038167938931299,34.6412213740458,0.0
14.21000051498413,-15.136142895507811,2.5761609863281247,3.430890979003906,-24.412213740458014,-13.297709923664122,32.50381679389313,-11.6070896484375,-0.9050082275390624,0.5793968017578125,5.572519083969466,7.435114503816794,28.213740458015266,0.0
14.220000267028809,-14.164097021484373,2.896984008789062,1.3192051147460937,-60.2442748091603,-14.870229007633588,28.748091603053435,-11.054029064941405,0.612915625,0.00718260498046875,3.1908396946564888,6.931297709923665,23.389312977099237,0.0
14.230000257492065,-10.532093103027343,-0.41419688720703124,-1.8770541015625,-68.80916030534351,-10.65648854961832,29.755725190839694,-11.999738720703125,1.2330138549804688,-0.6105214233398437,0.7480916030534351,7.480916030534351,21.740458015267176,0.0
14.240000247955322,-7.769184387207031,-2.7174188842773437,-3.246537451171875,-63.55725190839695,2.16793893129771,26.610687022900763,-12.026074938964843,2.4301146850585935,-0.8906430175781249,-5.1603053435114505,10.213740458015268,19.61832061068702,0.0
14.250000476837158,-6.069301208496094,-4.338293408203125,-2.4875755249023435,-42.656488549618324,22.259541984732824,18.061068702290076,-11.456254943847656,2.3319524169921872,-1.0893617553710937,-9.34351145038168,15.282442748091603,19.862595419847327,0.0
14.260000944137573,-8.109161022949218,-1.0223241088867188,-1.3383587280273437,-42.36641221374046,27.49618320610687,7.419847328244275,-11.504138977050781,3.0693665283203124,1.1659762084960936,-13.740458015267176,23.87786259541985,21.450381679389313,0.0
14.270000696182251,-8.70771143798828,0.0909796630859375,-1.6041151123046875,-42.2442748091603,28.549618320610687,5.511450381679389,-11.927912670898436,2.1883003173828124,2.061407629394531,-14.381679389312977,27.740458015267176,24.732824427480917,0.0
14.280000925064087,-9.222464794921875,-0.4429273071289062,-1.5442600708007812,-37.14503816793893,32.51908396946565,5.923664122137405,-11.678915698242188,0.2442085693359375,1.6543933471679686,-6.656488549618321,25.31297709923664,25.541984732824428,0.0
14.290000677108765,-10.05564697265625,-1.8339584716796873,-0.8188169677734375,-22.748091603053435,42.70229007633588,2.595419847328244,-11.099518896484375,1.697488977050781,1.4413093994140624,3.2213740458015265,19.740458015267176,22.30534351145038,0.0
14.300000667572021,-10.309432348632813,-0.8690952026367187,0.6153098266601562,-17.419847328244273,47.267175572519086,-1.8473282442748091,-11.882422839355469,0.55545478515625,3.4524387939453125,10.67175572519084,22.83969465648855,24.458015267175572,0.0
14.310000658035278,-10.539275708007812,-0.5267243652343749,1.458068811035156,-13.954198473282442,48.213740458015266,-3.1297709923664123,-10.13226142578125,2.1404162841796874,2.9281086303710935,10.076335877862595,16.076335877862597,22.27480916030534,0.0
14.320000648498535,-10.551246716308594,0.48123453369140623,2.1619640991210938,-12.946564885496183,47.282442748091604,-2.8396946564885495,-10.089165795898436,2.1691467041015624,2.7940333374023436,9.435114503816793,13.49618320610687,23.19083969465649,0.0
14.330000638961792,-10.17056865234375,1.5586252807617187,1.608903515625,-16.27480916030534,40.2442748091603,-1.4198473282442747,-9.828197814941406,2.3343466186523436,2.597708801269531,10.259541984732824,11.49618320610687,23.740458015267176,0.0
14.340000629425049,-10.953472595214842,2.0374656127929685,1.8171990600585937,-26.610687022900763,32.732824427480914,0.07633587786259542,-9.677363110351562,2.272097375488281,2.6312276245117188,11.038167938931299,9.786259541984732,23.786259541984734,0.0
14.350000619888306,-9.244012609863281,-0.06943184814453125,1.6400281372070311,-18.442748091603054,31.206106870229007,2.4885496183206106,-9.3086560546875,2.0733786376953125,2.5809493896484375,10.381679389312977,9.297709923664122,23.129770992366414,0.0
14.360000610351562,-9.94072529296875,-0.17477672119140625,1.1133037719726562,-16.717557251908396,27.709923664122137,0.8549618320610687,-9.291896643066405,1.8746598999023436,2.492363928222656,11.312977099236642,8.83969465648855,21.83206106870229,0.0
14.370000839233398,-9.756371765136718,-0.6655880615234374,0.6344634399414062,-8.366412213740459,26.442748091603054,-0.15267175572519084,-9.167398156738281,1.9201497314453124,2.3822306518554686,10.50381679389313,8.458015267175572,20.83969465648855,0.0
14.380000591278076,-9.950302099609374,-0.3854664672851562,1.254561669921875,-2.946564885496183,25.572519083969464,-1.282442748091603,-9.519345800781249,1.6639701538085936,2.437297290039062,11.358778625954198,8.381679389312977,20.290076335877863,0.0
14.390000820159912,-9.641450085449218,-0.13407529296874998,1.235408056640625,2.2900763358778624,24.03053435114504,-2.2748091603053435,-9.188945971679686,1.9536685546875,2.114080065917969,8.748091603053435,7.603053435114504,18.3206106870229,0.0
14.40000057220459,-9.588777648925781,0.12449848632812499,1.209071838378906,5.32824427480916,23.221374045801525,-3.0229007633587788,-9.548076220703125,1.6927005737304686,2.059013427734375,8.65648854961832,6.67175572519084,18.48854961832061,0.0
14.410000801086426,-9.543287817382812,0.7829039428710937,1.7764976318359373,6.106870229007634,22.106870229007633,-4.0,-9.244012609863281,1.8028338500976562,1.8818425048828125,6.748091603053435,5.374045801526718,17.46564885496183,0.0
14.420000553131104,-9.840168823242188,1.0486603271484374,1.8028338500976562,5.450381679389313,21.786259541984734,-4.305343511450381,-9.476250170898437,1.3359645263671873,2.090138049316406,6.732824427480916,4.458015267175573,17.206106870229007,0.0
14.430000305175781,-9.746794958496093,1.4101847778320311,2.1068974609374997,3.801526717557252,21.404580152671755,-4.137404580152672,-8.923189587402343,1.7190367919921874,1.5322890624999999,4.580152671755725,2.183206106870229,16.33587786259542,0.0
14.440000772476196,-9.605537060546874,1.4149731811523436,1.9393033447265624,1.1145038167938932,20.68702290076336,-2.854961832061069,-9.296685046386719,1.6136919189453125,1.5634136840820312,4.030534351145038,2.9923664122137406,16.15267175572519,0.0
14.450000524520874,-9.641450085449218,1.5562310791015623,1.8219874633789062,-0.5343511450381679,19.786259541984734,-2.8091603053435112,-9.129090930175781,2.020706201171875,1.1444283935546875,2.030534351145038,2.213740458015267,14.67175572519084,0.0
14.46000051498413,-9.713276135253906,1.3239935180664062,1.5131354492187499,-2.885496183206107,18.85496183206107,-2.4580152671755724,-10.127473022460936,1.16837041015625,1.3335703247070312,4.091603053435114,2.900763358778626,13.587786259541986,0.0
14.470000505447388,-9.483432775878907,1.005564697265625,1.1324573852539062,-2.0916030534351147,19.450381679389313,-2.6259541984732824,-8.116343627929687,3.5122938354492184,-0.181959326171875,-5.755725190839694,0.3816793893129771,7.969465648854962,0.0
14.480000495910645,-7.486668591308593,-1.3048399047851562,0.17956512451171874,9.053435114503817,22.427480916030536,-1.4961832061068703,-10.235212097167969,1.4891934326171874,0.2537853759765625,-5.984732824427481,5.847328244274809,9.969465648854962,0.0
14.490000247955322,-9.358934289550781,-0.46686932373046874,1.5203180541992187,18.47328244274809,30.12213740458015,-7.587786259541985,-9.950302099609374,1.5945383056640625,0.5698199951171875,-6.030534351145038,6.320610687022901,6.702290076335878,0.0
14.500000715255737,-9.418789331054686,0.06943184814453125,1.5131354492187499,21.206106870229007,30.9618320610687,-8.900763358778626,-10.110713610839843,1.5610194824218748,0.9409212524414062,-4.99236641221374,5.480916030534351,4.427480916030534,0.0
14.510000705718994,-10.235212097167969,1.6639701538085936,2.1116858642578125,18.412213740458014,31.099236641221374,-10.030534351145038,-10.084377392578125,1.5634136840820312,1.1348515869140625,-6.656488549618321,4.687022900763359,0.732824427480916,0.0
14.52000093460083,-9.10993731689453,1.956062756347656,1.5179238525390624,11.816793893129772,25.419847328244273,-7.709923664122138,-10.014945544433592,1.7357962036132812,1.5514426757812498,-8.213740458015268,3.66412213740458,-0.9007633587786259,0.0
14.530000686645508,-11.022904443359375,2.703053674316406,2.2002713256835937,5.312977099236641,24.366412213740457,-6.885496183206107,-9.866505041503906,1.898601916503906,1.8746598999023436,-11.389312977099237,1.7557251908396947,-2.2290076335877864,0.0
14.540000677108765,-11.382034692382812,3.124433166503906,2.29843359375,-5.679389312977099,18.732824427480917,-5.557251908396947,-9.883264453125,1.254561669921875,2.592920397949219,-12.458015267175572,-0.0,-2.595419847328244,0.0
14.550000667572021,-10.63025537109375,1.7190367919921874,2.233790148925781,-5.358778625954199,17.251908396946565,-3.1755725190839694,-9.744400756835937,1.7597382202148437,1.6112977172851561,-7.450381679389313,-9.19083969465649,-4.656488549618321,0.0
14.560000658035278,-9.883264453125,0.7829039428710937,1.6543933471679686,-13.068702290076336,9.84732824427481,-0.8549618320610687,-8.963891015625,3.0813375366210938,1.350329736328125,-17.236641221374047,-10.076335877862595,-6.748091603053435,0.0
14.570000648498535,-9.698910925292969,0.6416460449218749,1.618480322265625,-10.702290076335878,10.900763358778626,-0.5190839694656488,-10.967837805175781,0.354341845703125,3.5817256835937497,-17.14503816793893,-3.9236641221374047,-0.8091603053435115,0.0
14.580000638961792,-9.7683427734375,0.622492431640625,1.3383587280273437,-10.549618320610687,10.030534351145038,-2.1526717557251906,-10.098742602539062,0.8379705810546875,3.5793314819335937,-16.244274809160306,-7.251908396946565,-3.450381679389313,0.0
14.59000039100647,-9.80665,0.4836287353515625,0.8810662109374999,-12.351145038167939,8.580152671755725,-2.6106870229007635,-10.067617980957031,-0.047884033203124995,2.6431986328124997,-9.557251908396946,-13.587786259541986,-4.427480916030534,0.0
14.600000619888306,-9.363722692871093,0.2154781494140625,0.5147533569335937,-9.954198473282442,8.900763358778626,-3.282442748091603,-10.754753857421875,-0.19632453613281248,3.1004911499023438,-0.5343511450381679,-19.221374045801525,-7.526717557251908,0.0
14.610000848770142,-9.3086560546875,0.5363011718749999,0.6105214233398437,-10.931297709923664,10.412213740458014,-3.7404580152671754,-9.6917283203125,0.8858546142578124,2.422932080078125,2.6259541984732824,-26.595419847328245,-10.748091603053435,0.0
14.62000036239624,-9.006986645507812,0.6655880615234374,0.3950432739257812,-12.396946564885496,12.549618320610687,-3.7404580152671754,-8.667010009765624,2.7940333374023436,1.1827356201171875,-5.251908396946565,-28.229007633587788,-12.13740458015267,0.0
14.630000829696655,-9.3086560546875,1.158793603515625,0.8355763793945312,-17.0381679389313,14.458015267175572,-3.8931297709923665,-9.035717065429687,3.4859576171874997,0.852335791015625,-19.66412213740458,-18.85496183206107,-9.48091603053435,0.0
14.640000581741333,-7.750030773925781,-1.0917559570312498,0.143652099609375,-10.763358778625955,16.885496183206108,-3.2977099236641223,-8.547299926757812,3.0166940917968748,0.7302315063476562,-28.53435114503817,-16.519083969465647,-7.679389312977099,0.0
14.650000810623169,-9.100360510253905,0.3184288208007812,1.024718310546875,-6.244274809160306,22.16793893129771,-7.465648854961832,-10.931924780273437,0.3591302490234375,2.4253262817382812,-20.198473282442748,-10.931297709923664,-5.068702290076335,0.0
14.660000562667847,-10.038887561035155,0.05746083984375,0.7134720947265625,-4.366412213740458,21.297709923664122,-8.244274809160306,-8.836998327636719,0.2154781494140625,2.1643583007812497,-16.946564885496183,-16.27480916030534,-9.98473282442748,0.0
14.670000553131104,-9.184157568359375,-0.5746083984375,0.7254431030273437,-2.0610687022900764,22.061068702290076,-8.061068702290076,-10.019733947753906,-0.1580173095703125,2.346317626953125,-6.687022900763359,-21.755725190839694,-11.969465648854962,0.0
14.68000054359436,-9.469067565917967,0.07422025146484375,0.5770026000976562,0.5343511450381679,20.595419847328245,-8.916030534351146,-9.129090930175781,0.9265560424804687,2.2481553588867187,-6.519083969465649,-20.427480916030536,-12.931297709923664,0.0
14.690000772476196,-11.0707884765625,1.6328455322265625,2.1619640991210938,-5.6183206106870225,23.603053435114504,-11.221374045801527,-8.810662109374999,1.656787548828125,1.1707646118164061,-11.221374045801527,-21.786259541984734,-12.50381679389313,0.0
14.700000524520874,-11.020510241699219,2.5330653564453125,2.1595698974609374,-11.679389312977099,20.27480916030534,-9.694656488549619,-4.747701892089843,4.489128112792969,-0.15562310791015624,-25.083969465648856,-19.389312977099237,-13.572519083969466,0.0
14.71000075340271,-10.68053360595703,2.176329309082031,2.1883003173828124,-19.419847328244273,17.709923664122137,-6.076335877862595,-9.612719665527344,0.7661445312499999,1.8746598999023436,-25.755725190839694,-7.511450381679389,-3.404580152671756,0.0
14.720000505447388,-8.650250598144531,-1.1276689819335937,0.6296750366210937,-9.435114503816793,14.198473282442748,-3.114503816793893,-7.888894470214844,1.8770541015625,1.0079588989257813,-16.38167938931298,-12.259541984732824,-7.8320610687022905,0.0
14.730000495910645,-8.537723120117187,-1.3048399047851562,0.3806780639648437,-3.2519083969465647,14.748091603053435,-3.572519083969466,-8.738836059570312,-0.16280571289062498,2.4947581298828125,-9.709923664122137,-8.259541984732824,-6.33587786259542,0.0
14.740000486373901,-9.888052856445311,-0.1867477294921875,1.1635820068359375,-5.511450381679389,13.145038167938932,-6.488549618320611,-10.17056865234375,-0.8595183959960937,2.839523168945312,2.16793893129771,-9.648854961832061,-5.6183206106870225,0.0
14.750000476837158,-10.572794531249999,-0.5961562133789062,1.714248388671875,6.030534351145038,17.587786259541986,-8.412213740458014,-17.300501196289062,-5.135562561035156,8.75320126953125,36.33587786259542,-15.755725190839694,-9.236641221374045,0.0
14.760000705718994,-8.432378247070313,-1.5849614990234373,0.9959878906249999,12.061068702290076,15.282442748091603,-11.526717557251908,-7.235277416992187,3.9528269409179684,1.5849614990234373,31.862595419847327,-33.83206106870229,-11.664122137404581,0.0
14.770000696182251,-10.570400329589843,2.262520568847656,2.3319524169921872,0.732824427480916,13.083969465648854,-13.16030534351145,-9.399635717773437,0.9433154541015625,2.437297290039062,23.129770992366414,-23.6793893129771,-9.587786259541986,0.0
14.780000686645508,-9.519345800781249,0.6248866333007812,2.032677209472656,-5.374045801526718,6.564885496183206,-11.068702290076336,-9.397241516113281,0.3280056274414062,2.4109610717773435,25.61832061068702,-25.282442748091604,-9.221374045801527,0.0
