timestamp,Thigh_L_Acc_X,Thigh_L_Acc_Y,Thigh_L_Acc_Z,Thigh_L_Gyr_X,Thigh_L_Gyr_Y,Thigh_L_Gyr_Z,Thigh_R_Acc_X,Thigh_R_Acc_Y,Thigh_R_Acc_Z,Thigh_R_Gyr_X,Thigh_R_Gyr_Y,Thigh_R_Gyr_Z,gpio_output
10.000000715255737,-8.046911779785155,0.16519991455078123,3.2417490478515623,-1.251908396946565,90.13740458015268,-10.091603053435115,-8.21690009765625,0.1867477294921875,-0.9864110839843749,-4.076335877862595,-10.65648854961832,-3.572519083969466,0.0
10.010000705718994,-8.219294299316406,-0.02154781494140625,4.072537023925781,4.137404580152672,86.29007633587786,-13.679389312977099,-6.8569935546875,0.44053310546874996,-1.5538368774414062,4.152671755725191,-9.19083969465649,-6.854961832061068,1.0
10.020000457763672,-8.300697155761718,-0.8834604125976562,4.479551306152343,10.351145038167939,79.19083969465649,-16.442748091603054,-6.904877587890625,0.411802685546875,-1.9943699829101562,18.53435114503817,-5.450381679389313,-6.641221374045801,1.0
10.030000686645508,-7.9295958984374995,-1.2832920898437499,4.651933825683593,22.50381679389313,75.00763358778626,-20.045801526717558,-5.971138940429687,0.8307879760742187,-2.4013842651367185,29.87786259541985,-1.4198473282442747,-7.374045801526718,1.0
10.040000438690186,-8.671798413085938,-0.34237083740234375,4.469974499511719,28.778625954198475,69.5114503816794,-24.3206106870229,-7.522581616210937,0.584185205078125,-1.9680337646484374,50.656488549618324,-2.5801526717557253,-7.343511450381679,1.0
10.050000667572021,-8.137891442871092,-0.32561142578124996,4.661510632324219,33.63358778625954,63.267175572519086,-25.984732824427482,-6.327874987792969,2.85388837890625,-3.5697546752929687,50.16793893129771,-3.648854961832061,-11.450381679389313,1.0
10.060000658035278,-9.03332286376953,0.7350199096679687,4.939238024902344,34.82442748091603,57.89312977099237,-27.69465648854962,-7.455543969726562,0.9888052856445312,-0.38307226562499996,43.05343511450382,8.67175572519084,-9.297709923664122,1.0
10.070000886917114,-8.394071020507813,0.09337386474609374,4.879382983398437,36.091603053435115,50.58015267175573,-28.16793893129771,-7.163451367187499,0.16041151123046873,-0.016759411621093748,64.74809160305344,-4.732824427480916,-7.145038167938932,1.0
10.080000400543213,-9.004592443847656,0.8307879760742187,5.125985754394531,40.16793893129771,47.49618320610687,-29.770992366412212,-7.8912886718749995,-0.07422025146484375,1.867477294921875,73.70992366412214,-8.900763358778626,-6.977099236641221,1.0
10.090001106262207,-9.394847314453125,1.5801730957031248,4.390965844726562,37.32824427480916,42.2442748091603,-27.740458015267176,-7.261613635253906,1.7693150268554687,1.3120225097656248,79.49618320610686,-21.114503816793892,-10.748091603053435,1.0
10.100000619888306,-9.85692823486328,3.299209887695312,4.6255976074218745,26.549618320610687,36.213740458015266,-25.14503816793893,-7.575254052734374,3.670311145019531,-0.6727706665039062,62.87022900763359,-22.106870229007633,-11.725190839694656,1.0
10.110000371932983,-9.598354455566406,3.9624037475585934,4.805162731933594,19.954198473282442,34.82442748091603,-21.251908396946565,-7.651868505859374,3.9791631591796874,0.0,44.2442748091603,-22.244274809160306,-11.221374045801527,1.0
10.12000060081482,-9.926360083007811,3.801992236328125,4.146757275390625,3.236641221374046,24.977099236641223,-16.793893129770993,-10.081983190917969,1.0031704956054688,2.863465185546875,40.18320610687023,-21.541984732824428,-5.541984732824427,1.0
10.130000829696655,-9.320627062988281,2.6623522460937497,3.394977954101562,1.0381679389312977,23.114503816793892,-12.15267175572519,-9.670180505371093,1.649604943847656,-0.1867477294921875,45.98473282442748,-37.00763358778626,-8.702290076335878,1.0
10.140000343322754,-8.75320126953125,2.2361843505859373,2.7916391357421872,-0.8396946564885496,22.519083969465647,-8.564885496183207,-9.368511096191405,2.5234885498046875,0.21308394775390624,32.10687022900763,-35.63358778625954,-11.694656488549619,1.0
10.150000810623169,-7.991845141601562,1.1540052001953125,2.6886884643554687,4.0,27.72519083969466,-7.786259541984733,-9.670180505371093,1.3407529296874998,0.7709329345703124,20.412213740458014,-35.11450381679389,-11.908396946564885,1.0
10.160000324249268,-8.640673791503906,0.9074024291992187,1.8267758666992187,6.488549618320611,28.916030534351144,-9.236641221374045,-12.107477795410155,-0.076614453125,1.5083470458984374,31.541984732824428,-40.458015267175576,-10.900763358778626,1.0
10.170000553131104,-8.985438830566405,1.2904746948242187,1.9393033447265624,8.931297709923664,30.83969465648855,-10.992366412213741,-10.17056865234375,2.499546533203125,0.17238251953125,29.938931297709924,-51.57251908396947,-16.778625954198475,1.0
10.18000078201294,-9.588777648925781,3.574543078613281,1.4987702392578124,0.8244274809160306,29.81679389312977,-10.427480916030534,-9.411606726074218,3.5146880371093747,0.41419688720703124,5.709923664122138,-45.05343511450382,-18.717557251908396,1.0
10.190000295639038,-9.935936889648437,3.124433166503906,1.22583125,-8.80916030534351,28.137404580152673,-7.343511450381679,-11.872846032714843,0.5147533569335937,2.8275521606445313,4.1679389312977095,-41.55725190839695,-14.274809160305344,1.0
10.200000524520874,-10.409988818359375,2.3487118286132813,1.2138602416992186,-13.435114503816793,28.82442748091603,-6.015267175572519,-11.801019982910155,1.2425906616210938,1.9009961181640624,16.091603053435115,-52.13740458015267,-16.732824427480917,1.0
10.21000051498413,-11.326968054199218,2.6695348510742187,1.7932570434570312,-23.587786259541986,29.267175572519083,-6.0458015267175576,-9.588777648925781,3.6439749267578123,-0.16998831787109375,3.5877862595419847,-54.44274809160305,-20.82442748091603,0.0
10.220000505447388,-10.963049401855468,2.1787235107421874,1.6927005737304686,-34.68702290076336,26.27480916030534,-4.290076335877862,-11.532869396972655,1.1659762084960936,2.123656872558594,-4.564885496183206,-48.54961832061068,-16.641221374045802,0.0
10.230000257492065,-10.436325036621094,0.6416460449218749,0.9600748657226562,-35.51145038167939,26.366412213740457,-4.793893129770993,-10.134655627441406,2.7533319091796873,0.36631285400390623,1.5725190839694656,-58.56488549618321,-18.580152671755727,0.0
10.24000072479248,-10.062829577636718,0.2442085693359375,0.6464344482421874,-34.6412213740458,28.27480916030534,-5.6183206106870225,-9.528922607421874,2.6048914062499997,0.36631285400390623,-16.076335877862597,-49.55725190839695,-17.31297709923664,0.0
10.250000476837158,-8.717288244628906,-0.7733271362304687,0.7541735229492187,-32.412213740458014,29.923664122137403,-7.022900763358779,-10.613495959472656,1.5179238525390624,1.1061211669921875,-11.770992366412214,-51.969465648854964,-14.564885496183207,0.0
10.260001182556152,-10.026916552734374,-0.7805097412109374,1.9105729248046874,-28.03053435114504,34.229007633587784,-11.541984732824428,-10.158597644042969,1.1516109985351561,1.2282254516601563,-7.435114503816794,-52.62595419847328,-14.458015267175572,0.0
10.270000696182251,-9.220070593261719,-0.9337386474609375,1.2808978881835937,-23.358778625954198,32.76335877862596,-12.687022900763358,-8.295908752441406,2.1404162841796874,0.16998831787109375,-16.16793893129771,-52.38167938931298,-16.33587786259542,0.0
10.280000448226929,-10.098742602539062,-0.11013327636718749,2.3774422485351563,-21.740458015267176,34.961832061068705,-16.27480916030534,-11.288660827636718,-0.4836287353515625,1.9009961181640624,-7.893129770992366,-47.908396946564885,-12.274809160305344,0.0
10.290000677108765,-9.555258825683593,-0.2753331909179687,1.7381904052734374,-16.427480916030536,32.030534351145036,-16.65648854961832,-9.574412438964844,0.6200982299804687,0.5985504150390625,4.015267175572519,-55.770992366412216,-16.015267175572518,0.0
10.300000667572021,-9.085995300292968,0.031124621582031248,1.6927005737304686,-13.389312977099237,30.427480916030536,-16.53435114503817,-9.442731347656249,-0.0047884033203125,1.599326708984375,2.9923664122137406,-48.778625954198475,-14.641221374045802,0.0
10.310000658035278,-10.357316381835936,0.6536170532226562,2.9448680419921875,-12.870229007633588,32.732824427480914,-18.0,-10.886434948730468,-1.407790576171875,1.5753846923828123,23.297709923664122,-56.12213740458015,-13.923664122137405,0.0
10.320000648498535,-10.05564697265625,0.30406361083984373,2.001552587890625,-6.641221374045801,29.389312977099237,-16.900763358778626,-8.243236315917969,0.6081272216796875,0.4070142822265625,29.572519083969464,-58.50381679389313,-18.12213740458015,0.0
10.330000638961792,-9.737218151855469,0.9888052856445312,1.6352397338867186,-5.450381679389313,27.96946564885496,-15.541984732824428,-9.756371765136718,-0.23702596435546874,1.158793603515625,32.30534351145038,-53.83206106870229,-14.870229007633588,0.0
10.34000039100647,-8.315062365722655,0.21308394775390624,1.1372457885742187,-3.0839694656488548,25.099236641221374,-14.458015267175572,-8.954314208984375,0.5722141967773438,0.5913678100585937,39.465648854961835,-57.267175572519086,-17.0381679389313,0.0
10.350000858306885,-8.712499841308594,0.5267243652343749,1.695094775390625,2.5343511450381677,29.358778625954198,-14.83969465648855,-7.900865478515625,1.7334020019531249,0.46686932373046874,29.61832061068702,-47.725190839694655,-18.15267175572519,0.0
10.360000848770142,-8.767566479492187,0.6919242797851562,1.0438719238281249,4.687022900763359,28.732824427480917,-15.297709923664122,-10.213664282226562,0.10773907470703124,1.216254443359375,34.30534351145038,-44.900763358778626,-15.099236641221374,0.0
10.370000839233398,-9.011775048828124,0.20350714111328125,0.7541735229492187,9.450381679389313,28.82442748091603,-15.740458015267176,-8.645462194824217,0.4429273071289062,1.0582371337890624,41.63358778625954,-46.56488549618321,-17.358778625954198,0.0
10.380000591278076,-9.34696328125,0.44053310546874996,1.2689268798828124,15.114503816793894,30.9618320610687,-16.82442748091603,-7.999027746582031,2.1715409057617188,0.5147533569335937,35.61832061068702,-44.274809160305345,-18.641221374045802,0.0
10.390000820159912,-9.07163009033203,0.6272808349609375,1.6352397338867186,17.374045801526716,31.66412213740458,-17.66412213740458,-8.588001354980468,1.8698714965820311,1.3096283081054687,21.46564885496183,-35.86259541984733,-15.923664122137405,0.0
10.40000033378601,-9.04050546875,-0.36391865234375,1.4772224243164063,22.900763358778626,30.366412213740457,-17.6793893129771,-9.792284790039062,0.39264907226562495,2.3918074584960936,19.954198473282442,-34.732824427480914,-13.221374045801527,0.0
10.410000562667847,-9.4618849609375,0.105344873046875,1.697488977050781,33.49618320610687,33.02290076335878,-19.862595419847327,-9.521740002441407,0.6823474731445313,2.128445275878906,27.51145038167939,-38.44274809160305,-14.83969465648855,0.0
10.420000553131104,-9.840168823242188,0.7398083129882812,2.1906945190429687,33.221374045801525,30.53435114503817,-21.068702290076335,-8.741230261230468,1.0175357055664063,1.4724340209960938,23.404580152671755,-37.49618320610687,-17.221374045801525,0.0
10.43000054359436,-9.945513696289062,1.1324573852539062,2.6384102294921874,32.54961832061068,29.52671755725191,-20.47328244274809,-8.214505895996094,2.1547814941406247,1.8650830932617186,17.862595419847327,-38.25954198473283,-17.862595419847327,0.0
10.440000295639038,-9.713276135253906,1.4053963745117186,2.6886884643554687,29.84732824427481,25.587786259541986,-18.671755725190838,-8.75320126953125,1.5514426757812498,2.549824768066406,11.32824427480916,-33.038167938931295,-15.84732824427481,0.0
10.450000524520874,-9.91438907470703,2.2026655273437497,3.028665100097656,26.30534351145038,22.30534351145038,-17.786259541984734,-8.492233288574218,1.3431471313476562,1.6903063720703124,9.435114503816793,-32.01526717557252,-15.770992366412214,0.0
10.46000051498413,-10.522516296386717,2.4253262817382812,3.3327287109375,21.603053435114504,18.68702290076336,-16.916030534351144,-8.82263311767578,0.20829554443359374,2.0661960327148434,17.251908396946565,-31.83206106870229,-16.0,0.0
10.470000743865967,-9.785102185058593,1.8219874633789062,2.8514941772460936,18.625954198473284,10.473282442748092,-12.885496183206106,-9.49300958251953,-0.26336218261718747,2.059013427734375,20.27480916030534,-29.282442748091604,-15.557251908396946,0.0
10.480000972747803,-10.32379755859375,1.3144167114257812,3.327940307617187,20.748091603053435,13.022900763358779,-10.396946564885496,-7.170633972167968,1.0438719238281249,1.216254443359375,18.50381679389313,-28.198473282442748,-17.374045801526716,0.0
10.490000486373901,-9.911994873046874,1.4341267944335936,2.185906115722656,17.251908396946565,8.51908396946565,-7.572519083969466,-7.371746911621093,2.080561242675781,0.8307879760742187,8.549618320610687,-20.366412213740457,-17.435114503816795,0.0
10.500000953674316,-9.042899670410156,1.1611878051757811,1.9584569580078124,16.47328244274809,9.358778625954198,-5.755725190839694,-8.099584216308592,1.0989385620117187,1.2114660400390624,-0.5343511450381679,-9.84732824427481,-14.549618320610687,0.0
10.510000705718994,-10.59194814453125,1.3742717529296875,2.7437551025390623,14.061068702290076,12.045801526717558,-7.404580152671755,-7.417236743164062,0.7350199096679687,0.7876923461914062,1.9541984732824427,-8.916030534351146,-14.885496183206106,0.0
10.520000696182251,-9.138667736816405,1.1324573852539062,1.9895815795898437,10.595419847328245,6.412213740458015,-6.442748091603053,-8.190563879394531,-0.11013327636718749,1.3311761230468748,8.01526717557252,-5.129770992366412,-13.648854961832061,0.0
10.530000448226929,-10.670956799316405,1.5394716674804687,2.626439221191406,5.648854961832061,7.465648854961832,-8.870229007633588,-7.9655089233398435,0.14604630126953125,1.13006318359375,14.045801526717558,-2.8091603053435112,-14.061068702290076,0.0
10.540000915527344,-8.552088330078124,0.17477672119140625,1.5203180541992187,7.480916030534351,2.2900763358778624,-7.358778625954199,-8.264784130859374,0.51714755859375,1.3766659545898436,20.259541984732824,-1.0381679389312977,-12.900763358778626,0.0
10.550000667572021,-9.181763366699219,0.12449848632812499,2.6288334228515624,14.13740458015267,6.549618320610687,-9.664122137404581,-7.8338278320312495,0.7757213378906249,1.2473790649414063,23.251908396946565,2.213740458015267,-12.488549618320612,0.0
10.560000658035278,-9.634267480468749,0.9265560424804687,3.5721488769531247,13.17557251908397,3.3740458015267176,-11.877862595419847,-8.537723120117187,1.0989385620117187,1.8028338500976562,27.52671755725191,3.801526717557252,-11.725190839694656,0.0
10.570000648498535,-7.062894897460937,-2.1930887207031247,2.8898014038085935,32.213740458015266,2.33587786259542,-8.946564885496183,-8.281543542480469,1.0103531005859374,2.2002713256835937,28.16793893129771,4.900763358778626,-12.16793893129771,0.0
10.580000400543213,-8.762778076171875,-0.16280571289062498,3.6104561035156246,44.534351145038165,2.946564885496183,-12.82442748091603,-9.121908325195312,0.5578489868164063,1.9321207397460936,31.923664122137403,6.030534351145038,-12.122137404580153,0.0
10.590000629425049,-10.845733520507812,2.1906945190429687,5.135562561035156,43.00763358778626,-1.297709923664122,-15.511450381679388,-8.858546142578124,0.6967126831054687,0.18914193115234373,31.61832061068702,7.526717557251908,-13.709923664122137,0.0
10.600000858306885,-11.001356628417968,2.123656872558594,5.5258174316406246,35.908396946564885,-14.396946564885496,-11.419847328244275,-7.900865478515625,0.9504980590820312,-0.03591302490234375,24.85496183206107,16.732824427480917,-14.396946564885496,0.0
10.610000848770142,-11.092336291503905,2.987963671875,6.045359191894531,38.534351145038165,-21.236641221374047,-8.610687022900763,-7.879317663574218,1.9728221679687499,-0.43574470214843747,24.412213740458014,21.480916030534353,-14.65648854961832,0.0
10.62000060081482,-11.901576452636718,2.5617957763671875,5.430049365234375,40.42748091603053,-32.33587786259542,-4.473282442748092,-9.2320416015625,2.243366955566406,1.0390835205078124,23.31297709923664,20.045801526717558,-11.98473282442748,0.0
10.630001068115234,-12.988544006347656,3.897760302734375,6.528987927246093,43.099236641221374,-42.93129770992366,0.5801526717557252,-8.892064965820312,2.224213342285156,2.104503259277344,16.702290076335878,15.145038167938932,-10.916030534351146,0.0
10.640000581741333,-10.606313354492187,1.218648645019531,5.595249279785156,48.091603053435115,-55.52671755725191,10.045801526717558,-8.999804040527343,3.758896606445312,0.8714894042968749,0.6870229007633588,17.083969465648856,-9.648854961832061,0.0
10.650000810623169,-13.328520642089844,3.6846763549804686,8.264784130859374,61.57251908396947,-59.343511450381676,15.526717557251908,-10.311826550292968,3.392583752441406,0.9720458740234375,-12.702290076335878,20.16793893129771,-7.709923664122138,0.0
10.660000562667847,-13.895946435546874,3.84987626953125,9.931148486328125,65.5114503816794,-73.78625954198473,24.396946564885496,-10.309432348632813,3.746925598144531,1.2521674682617188,-27.297709923664122,20.916030534351144,-5.480916030534351,0.0
10.670000553131104,-17.496825732421875,7.264007836914062,12.670115185546875,59.93893129770992,-97.54198473282443,32.717557251908396,-13.005303417968749,1.5011644409179687,1.8650830932617186,-30.793893129770993,22.106870229007633,-0.9465648854961832,0.0
10.680000305175781,-17.753005310058594,8.662221606445312,10.603919152832031,35.05343511450382,-127.31297709923665,45.74045801526717,-13.031639636230468,1.0462661254882812,1.13006318359375,-28.610687022900763,12.427480916030534,-4.076335877862595,0.0
10.690000772476196,-17.90862841796875,6.909665991210937,8.396465222167969,-6.6106870229007635,-155.38931297709922,54.778625954198475,-11.01332763671875,2.0350714111328125,0.9097966308593749,-35.404580152671755,11.358778625954198,-7.938931297709924,0.0
10.700000286102295,-17.860744384765624,4.551377355957031,6.524199523925781,-43.02290076335878,-179.48091603053436,60.50381679389313,-10.330980163574218,1.7453730102539062,0.040701428222656245,-46.717557251908396,14.122137404580153,-5.541984732824427,0.0
10.71000051498413,-12.990938208007812,-2.288856787109375,2.123656872558594,-47.81679389312977,-197.6030534351145,68.12213740458016,-10.156203442382813,0.0430956298828125,0.5961562133789062,-45.41984732824427,11.648854961832061,-1.099236641221374,0.0
10.720000505447388,-11.9135474609375,-5.312733483886719,3.0214824951171875,-12.625954198473282,-185.93893129770993,71.46564885496183,-9.258377819824219,-0.93852705078125,0.49320554199218747,-36.25954198473283,10.0,-2.198473282442748,0.0
10.730000495910645,-11.614272253417967,-5.403713146972656,3.3255461059570313,12.16793893129771,-180.18320610687022,72.41221374045801,-9.414000927734374,-1.6065093139648436,0.6153098266601562,-25.954198473282442,9.206106870229007,-3.450381679389313,0.0
10.74000072479248,-14.714763403320312,-1.618480322265625,2.6096798095703124,13.893129770992367,-171.80152671755727,67.61832061068702,-9.141061938476563,-1.0295067138671874,0.22026655273437498,-23.893129770992367,8.16793893129771,-4.473282442748092,0.0
10.750000476837158,-12.188880651855468,-1.5442600708007812,1.8148048583984373,-16.35114503816794,-177.64885496183206,61.48091603053435,-8.597578161621094,0.7134720947265625,-0.02154781494140625,-37.847328244274806,15.099236641221374,-2.717557251908397,0.0
10.760000944137573,-10.014945544433592,-4.072537023925781,-1.1372457885742187,-27.6793893129771,-172.8091603053435,57.954198473282446,-10.68053360595703,-2.1021090576171875,0.8188169677734375,-42.70229007633588,22.977099236641223,2.900763358778626,0.0
10.770000457763672,-8.188169677734374,-6.339845996093749,-1.8626888916015625,-20.213740458015266,-158.3969465648855,51.12977099236641,-10.577582934570312,-3.284844677734375,0.316034619140625,-29.740458015267176,18.47328244274809,1.0076335877862594,0.0
10.780000686645508,-8.262389929199218,-6.4643444824218745,-2.636016027832031,-6.0458015267175576,-139.09923664122138,41.9236641221374,-10.199299072265624,-2.817975354003906,0.4908113403320312,-25.84732824427481,19.0381679389313,-1.786259541984733,0.0
10.790000677108765,-7.783549597167968,-4.934449621582031,-1.4891934326171874,-1.9389312977099236,-120.13740458015268,28.16793893129771,-9.674968908691406,-1.1516109985351561,0.17956512451171874,-26.549618320610687,20.38167938931298,-0.9770992366412213,0.0
10.800000667572021,-8.451531860351562,-2.5139117431640625,-0.0047884033203125,2.427480916030534,-106.16793893129771,18.748091603053435,-9.3086560546875,0.17956512451171874,-0.488417138671875,-34.30534351145038,23.66412213740458,1.4198473282442747,0.0
10.810000658035278,-6.794744311523437,-2.9448680419921875,-0.8714894042968749,19.267175572519083,-93.55725190839695,20.9618320610687,-9.897629663085937,-0.6823474731445313,-0.1292868896484375,-37.63358778625954,28.793893129770993,5.32824427480916,0.0
10.820000410079956,-7.922413293457031,0.5219359619140624,1.3431471313476562,40.152671755725194,-71.31297709923665,22.53435114503817,-10.307038146972655,-1.9847931762695312,1.1635820068359375,-28.900763358778626,30.793893129770993,8.213740458015268,0.0
10.830000638961792,-8.80347950439453,3.2609026611328122,2.123656872558594,26.213740458015266,-68.62595419847328,23.770992366412212,-9.868899243164062,-2.2457611572265623,0.6631938598632812,-16.80916030534351,28.778625954198475,8.15267175572519,0.0
10.840000629425049,-8.901641772460938,3.447650390625,3.2728736694335936,1.9083969465648856,-67.40458015267176,23.6793893129771,-9.117119921875,0.16041151123046873,0.4908113403320312,-13.435114503816793,27.633587786259543,6.854961832061068,0.0
10.850000858306885,-7.678204724121093,2.5163059448242184,2.9376854370117185,-30.061068702290076,-74.22900763358778,22.82442748091603,-8.815450512695312,1.5394716674804687,-0.10773907470703124,-23.61832061068702,33.70992366412214,9.633587786259541,0.0
10.860000610351562,-7.917624890136718,2.7437551025390623,1.8938135131835936,-47.64885496183206,-73.41984732824427,22.244274809160306,-9.435548742675781,1.8818425048828125,0.2346317626953125,-37.786259541984734,40.29007633587786,13.19083969465649,0.0
10.870000839233398,-5.992686755371094,0.30406361083984373,-0.02154781494140625,-54.30534351145038,-71.40458015267176,24.259541984732824,-9.842563024902343,0.23702596435546874,0.93852705078125,-40.0763358778626,45.29770992366412,17.801526717557252,0.0
10.880000591278076,-7.295132458496093,1.1252747802734375,0.948103857421875,-59.282442748091604,-63.61832061068702,19.404580152671755,-10.838550915527343,-2.5905261962890624,1.216254443359375,-27.633587786259543,42.396946564885496,19.206106870229007,0.0
10.890000820159912,-6.169857678222656,-0.39743747558593745,0.82360537109375,-68.94656488549619,-65.41984732824427,17.49618320610687,-10.297461340332031,-2.5043349365234375,1.5586252807617187,-12.198473282442748,36.916030534351144,16.931297709923665,0.0
10.90000057220459,-4.826710546875,-1.946485949707031,0.16519991455078123,-58.778625954198475,-56.48854961832061,17.022900763358777,-10.031704956054687,-1.649604943847656,0.8667010009765624,1.251908396946565,29.755725190839694,15.389312977099237,0.0
10.910000562667847,-3.6918589599609373,-1.89620771484375,0.3854664672851562,-44.2442748091603,-42.36641221374046,15.587786259541986,-9.112331518554686,-0.22505495605468748,1.0031704956054688,1.1297709923664123,30.229007633587788,14.458015267175572,0.0
10.920000314712524,-3.9169139160156248,-2.1715409057617188,1.3455413330078123,-34.030534351145036,-29.282442748091604,12.458015267175572,-10.108319409179687,-0.8307879760742187,1.6112977172851561,6.030534351145038,30.946564885496183,17.236641221374047,0.0
10.93000078201294,-3.2249896362304686,-2.195482922363281,1.6735469604492186,-19.557251908396946,-16.778625954198475,9.938931297709924,-9.727641345214844,-0.45968671875,1.6065093139648436,8.885496183206106,27.633587786259543,15.465648854961833,0.0
10.940000534057617,-4.302380383300781,-0.6751648681640625,2.7198130859375,-22.564885496183205,-9.358778625954198,5.786259541984733,-10.084377392578125,-0.5482721801757812,1.7693150268554687,12.045801526717558,26.18320610687023,15.786259541984732,0.0
10.950000524520874,-4.826710546875,0.4261678955078125,4.455609289550781,-27.69465648854962,-5.1603053435114505,3.145038167938931,-10.062829577636718,-0.737414111328125,1.6352397338867186,12.381679389312977,23.984732824427482,15.19083969465649,0.0
10.96000051498413,-4.84586416015625,-0.033518823242187495,4.944026428222656,-22.702290076335878,-0.10687022900763359,3.2977099236641223,-9.842563024902343,-0.6081272216796875,1.2473790649414063,11.221374045801527,22.549618320610687,14.351145038167939,0.0
10.970000505447388,-4.426878869628906,-0.47884033203125,4.987122058105468,-24.47328244274809,-0.5343511450381679,3.6946564885496183,-8.327033374023436,0.5027823486328125,0.9361328491210937,-0.061068702290076333,23.541984732824428,12.381679389312977,0.0
10.980000734329224,-5.197811804199218,0.49320554199218747,5.887341882324218,-16.16793893129771,5.587786259541985,3.2213740458015265,-9.0788126953125,0.4165910888671875,0.5339069702148437,-7.374045801526718,27.206106870229007,14.473282442748092,0.0
10.990000247955322,-6.160280871582031,0.9624690673828125,6.284779357910156,-18.061068702290076,4.595419847328245,2.3206106870229006,-9.255983618164063,-0.36631285400390623,1.455674609375,-13.511450381679388,31.572519083969464,14.885496183206106,0.0
11.000000715255737,-6.042964990234375,0.23702596435546874,6.83783994140625,-15.633587786259541,2.8396946564885495,3.053435114503817,-9.464279162597656,-2.003946789550781,1.4915876342773438,-8.0,31.801526717557252,15.022900763358779,0.0
11.010000705718994,-5.827486840820312,-0.6105214233398437,7.070077502441406,-6.0,2.3969465648854964,3.5877862595419847,-10.314220751953124,-3.2513258544921873,1.7166425903320313,7.526717557251908,27.053435114503817,12.16793893129771,0.0
11.020000696182251,-6.021417175292968,-0.6655880615234374,7.331045483398437,6.5038167938931295,4.641221374045801,3.8625954198473282,-10.158597644042969,-2.039859814453125,1.9656395629882812,13.114503816793894,23.81679389312977,9.022900763358779,0.0
11.030000448226929,-6.418854650878906,-0.19393033447265623,7.3549875,15.694656488549619,5.679389312977099,3.6030534351145036,-10.08677159423828,-1.1372457885742187,2.099714855957031,13.312977099236642,24.68702290076336,8.992366412213741,0.0
11.040000677108765,-6.72291826171875,0.354341845703125,7.352593298339843,20.458015267175572,5.633587786259542,3.1603053435114505,-9.9215716796875,0.6536170532226562,1.37906015625,8.427480916030534,22.229007633587788,8.198473282442748,0.0
11.050000667572021,-7.1035963256835934,1.1037269653320312,7.3549875,20.244274809160306,5.603053435114504,2.9923664122137406,-9.145850341796875,1.7022773803710936,1.6543933471679686,-5.297709923664122,24.763358778625953,10.335877862595419,0.0
11.0600004196167,-7.247248425292969,0.9624690673828125,7.055712292480468,16.290076335877863,4.580152671755725,3.3740458015267176,-10.326191760253906,1.5969325073242187,0.6847416748046875,-13.709923664122137,29.00763358778626,14.595419847328245,0.0
11.070000410079956,-7.398083129882812,0.8283937744140625,8.40843623046875,14.610687022900763,2.351145038167939,2.9770992366412212,-10.079588989257813,-0.5099649536132812,2.7078420776367187,-20.641221374045802,33.11450381679389,18.12213740458015,0.0
11.080000638961792,-7.467514978027343,0.8259995727539062,9.028534460449219,17.6793893129771,-0.2595419847328244,4.152671755725191,-10.558429321289061,-1.917755529785156,1.5658078857421873,-9.358778625954198,26.35114503816794,18.946564885496183,0.0
11.090000629425049,-7.189787585449218,1.4987702392578124,7.975085729980468,20.137404580152673,0.44274809160305345,7.3893129770992365,-10.084377392578125,-1.458068811035156,1.20667763671875,-7.786259541984733,22.778625954198475,17.129770992366414,0.0
11.100000619888306,-7.184999182128906,2.461239306640625,6.600813977050781,11.633587786259541,3.267175572519084,12.045801526717558,-8.954314208984375,0.21787235107421873,-0.9744400756835937,-11.618320610687023,19.81679389312977,15.877862595419847,0.0
11.110000371932983,-6.698976245117187,1.0797849487304687,5.006275671386718,-5.32824427480916,2.854961832061069,15.679389312977099,-9.406818322753905,-0.5147533569335937,0.25139117431640623,-23.49618320610687,27.16030534351145,19.557251908396946,0.0
11.12000060081482,-6.423643054199219,-0.3016694091796875,4.094084838867187,2.564885496183206,13.236641221374045,15.282442748091603,-11.061211669921875,-2.123656872558594,0.37828386230468747,-18.106870229007633,25.83206106870229,20.793893129770993,0.0
11.130000829696655,-7.431601953125,-0.5243301635742187,5.336675500488281,-1.099236641221374,14.946564885496183,11.603053435114504,-11.513715783691406,-2.5043349365234375,1.0893617553710937,-6.931297709923665,23.236641221374047,20.748091603053435,0.0
11.140000820159912,-7.632714892578124,-0.35673604736328124,6.737283471679687,0.5038167938931297,16.870229007633586,11.251908396946565,-8.300697155761718,0.44532150878906246,-3.057395520019531,-13.954198473282442,12.01526717557252,11.938931297709924,0.0
11.150000810623169,-8.973467822265624,1.3359645263671873,8.67658681640625,1.7099236641221374,16.48854961832061,15.206106870229007,-9.504980590820312,2.2457611572265623,-2.252943762207031,-39.9236641221374,27.083969465648856,15.435114503816793,0.0
11.160000562667847,-9.145850341796875,1.2832920898437499,8.999804040527343,7.526717557251908,15.969465648854962,21.72519083969466,-11.537657800292967,-1.0773907470703123,0.28969840087890625,-42.01526717557252,34.44274809160305,21.52671755725191,0.0
11.170000314712524,-7.539341027832031,-0.0526724365234375,5.7149593627929685,22.396946564885496,18.85496183206107,25.96946564885496,-11.853692419433592,-2.4564509033203126,0.3591302490234375,-19.46564885496183,26.519083969465647,22.16793893129771,0.0
11.18000054359436,-8.154650854492187,-0.086191259765625,4.802768530273437,23.81679389312977,24.564885496183205,21.404580152671755,-9.105148913574219,-0.17956512451171874,-2.7820623291015623,-12.885496183206106,14.351145038167939,15.419847328244275,0.0
11.190000534057617,-8.463502868652343,0.06464344482421874,4.405331054687499,17.984732824427482,31.66412213740458,17.480916030534353,-9.789890588378906,1.5322890624999999,-2.7269956909179687,-19.083969465648856,21.19083969465649,13.969465648854962,0.0
11.200000524520874,-7.802703210449218,0.3016694091796875,2.645592834472656,18.38167938931298,40.74809160305343,15.83206106870229,-10.060435375976562,3.6463691284179687,-3.902548706054687,-41.45038167938932,25.221374045801525,12.82442748091603,0.0
11.21000051498413,-8.17141026611328,0.4070142822265625,2.250549560546875,22.931297709923665,51.541984732824424,11.84732824427481,-13.278242407226562,1.1444283935546875,-0.44053310546874996,-49.19083969465649,35.81679389312977,18.549618320610687,0.0
11.220000267028809,-8.643067993164061,0.7852981445312499,2.6096798095703124,22.793893129770993,61.57251908396947,4.793893129770993,-12.665326782226561,2.3319524169921872,-2.185906115722656,-42.213740458015266,26.3206106870229,18.137404580152673,0.0
11.230000495910645,-10.864887133789061,1.917755529785156,2.722207287597656,16.18320610687023,66.73282442748092,-0.4732824427480916,-13.251906188964844,3.248931652832031,-1.946485949707031,-48.732824427480914,27.404580152671755,19.31297709923664,0.0
11.24000072479248,-10.292672937011718,1.8124106567382812,2.6623522460937497,14.702290076335878,74.42748091603053,-1.9083969465648856,-12.974178796386719,6.835445739746094,-5.9017070922851556,-71.2824427480916,27.87786259541985,16.35114503816794,0.0
11.250000476837158,-12.059593762207031,2.2744915771484373,3.0526071166992184,3.7557251908396947,77.55725190839695,-5.938931297709924,-15.310919616699218,2.844311572265625,0.59376201171875,-80.76335877862596,40.50381679389313,24.16793893129771,0.0
11.260001182556152,-11.939883679199218,0.023942016601562498,2.5450363647460934,4.137404580152672,82.44274809160305,-7.6183206106870225,-14.202404248046873,4.314351391601562,-1.7884686401367187,-70.07633587786259,26.061068702290076,24.977099236641223,0.0
11.270000696182251,-12.969390393066405,1.5203180541992187,2.683900061035156,2.8244274809160306,87.77099236641222,-11.557251908396946,-14.539986682128905,2.626439221191406,0.8834604125976562,-74.19847328244275,28.18320610687023,27.740458015267176,0.0
11.280000686645508,-11.927912670898436,0.7948749511718749,2.1452046874999997,2.9770992366412212,89.12977099236642,-13.022900763358779,-13.883975427246092,1.0797849487304687,1.43652099609375,-48.62595419847328,13.419847328244275,30.366412213740457,0.0
11.290000915527344,-12.097900988769531,1.599326708984375,2.398990063476562,0.9465648854961832,91.41984732824427,-15.816793893129772,-14.195221643066406,1.1109095703125,1.3359645263671873,-27.72519083969466,5.297709923664122,29.81679389312977,0.0
11.300000429153442,-11.125855114746093,1.5490484741210937,1.3263877197265623,-4.442748091603053,90.80916030534351,-16.580152671755727,-11.030087048339842,3.440467785644531,0.3136404174804687,-29.251908396946565,-4.885496183206107,24.091603053435115,0.0
11.310000658035278,-11.125855114746093,1.9680337646484374,1.5251064575195312,-9.511450381679388,93.38931297709924,-18.259541984732824,-11.276689819335937,2.6288334228515624,-0.07422025146484375,-25.16030534351145,-7.038167938931298,25.022900763358777,0.0
11.320000886917114,-10.58476553955078,1.6400281372070311,0.8882488159179687,-12.977099236641221,93.57251908396947,-19.0381679389313,-10.752359655761719,2.2768857788085937,0.09576806640624999,-25.557251908396946,-5.877862595419847,23.786259541984734,0.0
11.330000638961792,-9.516951599121093,0.6584054565429687,0.8188169677734375,-8.122137404580153,97.17557251908397,-19.206106870229007,-9.746794958496093,1.3958195678710936,0.3591302490234375,-23.435114503816795,-8.427480916030534,22.12213740458015,0.0
11.34000039100647,-9.497797985839844,1.39821376953125,1.1923124267578125,-2.717557251908397,100.18320610687023,-20.793893129770993,-9.782707983398437,0.2154781494140625,0.44053310546874996,-18.259541984732824,-9.511450381679388,18.916030534351144,0.0
11.350000858306885,-8.817844714355468,0.9864110839843749,1.2114660400390624,2.427480916030534,100.01526717557252,-20.595419847328245,-8.813056311035156,-0.040701428222656245,0.13168109130859373,-13.572519083969466,-11.801526717557252,14.687022900763358,0.0
11.360000610351562,-8.458714465332031,1.5011644409179687,1.7741034301757812,7.709923664122138,100.06106870229007,-21.587786259541986,-8.468291271972657,-0.34715924072265625,-0.24660277099609373,-7.755725190839694,-13.32824427480916,9.633587786259541,0.0
11.37000060081482,-8.154650854492187,1.3838485595703125,2.0542250244140625,9.022900763358779,96.2442748091603,-21.34351145038168,-7.785943798828124,-0.0718260498046875,-0.08379705810546874,-2.3206106870229006,-13.572519083969466,4.229007633587786,0.0
11.380000591278076,-8.312668164062499,1.6735469604492186,2.6671406494140624,12.13740458015267,93.00763358778626,-20.946564885496183,-7.611167077636718,-0.4333505004882812,0.3064578125,4.427480916030534,-13.618320610687023,-1.5114503816793894,0.0
11.390000820159912,-8.348581188964843,1.5514426757812498,3.0789433349609374,12.900763358778626,88.90076335877863,-20.549618320610687,-7.271190441894531,-0.11252747802734374,-0.7134720947265625,10.244274809160306,-14.641221374045802,-6.015267175572519,0.0
11.40000057220459,-8.71489404296875,1.3192051147460937,3.564966271972656,15.32824427480916,84.83969465648855,-20.290076335877863,-7.015010864257812,-0.08140285644531249,-1.4245499877929686,18.16793893129771,-12.82442748091603,-9.389312977099237,0.0
11.410000801086426,-8.643067993164061,0.7278373046875,3.766079211425781,16.229007633587788,77.58778625954199,-20.519083969465647,-5.68862314453125,0.4908113403320312,-1.6903063720703124,26.519083969465647,-8.65648854961832,-11.34351145038168,0.0
11.420000791549683,-8.537723120117187,-0.0718260498046875,4.027047192382812,20.9618320610687,72.53435114503817,-21.31297709923664,-6.696582043457031,0.9145850341796874,-2.023100402832031,38.68702290076336,-3.2213740458015265,-10.458015267175572,0.0
11.43000054359436,-8.513781103515624,0.15562310791015624,4.225765930175781,27.419847328244273,68.25954198473282,-22.732824427480917,-5.834669445800781,2.1356278808593747,-2.0446482177734375,38.80916030534351,-1.2213740458015268,-13.725190839694656,0.0
11.440000534057617,-9.284714038085937,0.4860229370117187,4.572925170898437,24.68702290076336,59.20610687022901,-23.61832061068702,-8.145074047851562,0.7326257080078125,-0.3591302490234375,49.12977099236641,3.282442748091603,-10.305343511450381,0.0
11.450000762939453,-8.743624462890624,-0.4165910888671875,3.5817256835937497,32.99236641221374,58.19847328244275,-22.946564885496183,-6.68461103515625,2.195482922363281,-1.2928688964843749,54.030534351145036,-6.916030534351145,-12.366412213740459,0.0
11.460000276565552,-9.665392102050781,1.1563994018554686,4.2688615600585935,31.206106870229007,52.76335877862596,-25.480916030534353,-8.913612780761719,1.197100830078125,0.9864110839843749,55.83206106870229,-2.7480916030534353,-10.045801526717558,0.0
11.470000505447388,-9.883264453125,2.0542250244140625,4.225765930175781,28.244274809160306,47.7557251908397,-25.96946564885496,-8.382100012207031,3.1100679565429687,0.21068974609375,56.50381679389313,-15.450381679389313,-11.98473282442748,0.0
11.480000734329224,-10.079588989257813,3.4931402221679684,4.125209460449218,18.778625954198475,39.87786259541985,-24.702290076335878,-7.7787611938476555,2.750937707519531,1.4891934326171874,42.36641221374046,-15.465648854961833,-11.633587786259541,0.0
11.490000486373901,-9.519345800781249,2.712630480957031,3.670311145019531,12.961832061068701,36.85496183206107,-21.572519083969464,-7.838616235351562,2.6336218261718747,0.49320554199218747,32.6412213740458,-20.045801526717558,-10.992366412213741,0.0
11.500000476837158,-9.37808790283203,1.5610194824218748,2.1021090576171875,9.282442748091603,29.801526717557252,-18.27480916030534,-10.716446630859375,-1.4341267944335936,4.302380383300781,43.603053435114504,-18.793893129770993,-5.648854961832061,0.0
11.510000705718994,-9.466673364257812,1.1755530151367186,1.9895815795898437,16.82442748091603,34.534351145038165,-18.106870229007633,-9.600748657226562,0.047884033203124995,0.7398083129882812,66.59541984732824,-43.45038167938932,-11.099236641221374,0.0
11.520000696182251,-9.406818322753905,3.1603461914062496,2.2074539306640624,12.290076335877863,32.3206106870229,-17.068702290076335,-8.999804040527343,1.9895815795898437,-0.5434837768554687,46.01526717557252,-42.2442748091603,-18.778625954198475,0.0
11.530000686645508,-9.655815295410155,3.0933085449218747,2.138022082519531,1.083969465648855,30.412213740458014,-14.534351145038167,-10.845733520507812,0.8738836059570312,0.29927520751953124,43.23664122137404,-44.62595419847328,-18.85496183206107,0.0
11.540000438690186,-11.212046374511718,4.371812231445312,2.3678654418945313,-9.022900763358779,28.946564885496183,-14.290076335877863,-11.159373937988281,1.407790576171875,0.33518823242187495,40.01526717557252,-48.12213740458015,-20.82442748091603,0.0
11.5500009059906,-10.280701928710936,3.038241906738281,1.70467158203125,-14.732824427480915,28.48854961832061,-11.358778625954198,-9.459490759277344,3.287238879394531,-0.7134720947265625,24.106870229007633,-48.62595419847328,-22.595419847328245,0.0
11.560000658035278,-11.058817468261719,3.0119056884765625,1.8339584716796873,-21.374045801526716,26.50381679389313,-10.534351145038167,-11.717222924804688,0.46686932373046874,1.9584569580078124,25.923664122137403,-46.01526717557252,-18.290076335877863,0.0
11.570000648498535,-9.9215716796875,1.4149731811523436,0.44053310546874996,-20.427480916030536,24.549618320610687,-8.870229007633588,-9.797073193359374,2.645592834472656,-0.5793968017578125,25.557251908396946,-53.29770992366412,-23.068702290076335,0.0
11.580000638961792,-9.062053283691405,0.6177040283203125,0.44532150878906246,-21.374045801526716,25.786259541984734,-7.633587786259542,-9.888052856445311,3.289633081054687,0.29448680419921874,9.083969465648854,-42.99236641221374,-22.290076335877863,0.0
11.59000039100647,-9.323021264648437,-0.19632453613281248,-0.09576806640624999,-19.938931297709924,25.19083969465649,-8.320610687022901,-10.697293017578124,1.6400281372070311,0.9624690673828125,7.603053435114504,-42.80916030534351,-19.938931297709924,0.0
11.600000619888306,-9.435548742675781,-0.3136404174804687,-0.11252747802734374,-12.916030534351146,27.603053435114504,-10.961832061068701,-11.722011328125,1.0654197387695312,1.6328455322265625,19.603053435114504,-47.05343511450382,-19.404580152671755,0.0
11.610000848770142,-9.394847314453125,-0.15322890625,0.4381389038085937,-9.618320610687023,30.27480916030534,-12.595419847328245,-9.299079248046874,3.31357509765625,-0.06943184814453125,15.16030534351145,-52.045801526717554,-23.755725190839694,0.0
11.62000036239624,-9.495403784179686,0.6584054565429687,0.7158662963867187,-12.854961832061068,28.900763358778626,-13.954198473282442,-10.443507641601562,3.0526071166992184,1.149216796875,1.816793893129771,-43.847328244274806,-19.83206106870229,0.0
11.630000829696655,-9.299079248046874,0.47165772705078124,1.1611878051757811,-14.534351145038167,27.14503816793893,-15.297709923664122,-10.752359655761719,1.8602946899414061,1.4030021728515625,5.038167938931298,-46.42748091603053,-17.31297709923664,0.0
11.640000581741333,-10.237606298828124,-0.4740519287109375,0.3016694091796875,-12.15267175572519,26.53435114503817,-15.206106870229007,-11.312602844238281,0.2920926025390625,2.0470424194335934,16.50381679389313,-49.05343511450382,-16.53435114503817,0.0
11.650000810623169,-9.435548742675781,-0.7206546997070312,1.1444283935546875,-2.7480916030534353,30.625954198473284,-16.427480916030536,-9.138667736816405,2.231395947265625,-0.22505495605468748,19.893129770992367,-57.31297709923664,-19.557251908396946,0.0
11.660000324249268,-9.497797985839844,-0.055066638183593745,0.9911994873046874,4.0458015267175576,30.916030534351144,-17.740458015267176,-10.520122094726561,0.6248866333007812,1.0462661254882812,14.961832061068701,-49.083969465648856,-15.633587786259541,0.0
11.670000791549683,-10.139444030761718,0.4836287353515625,1.7094599853515624,4.748091603053435,32.61068702290076,-20.3206106870229,-9.923965881347655,0.7445967163085937,0.7062894897460937,23.0381679389313,-54.30534351145038,-17.19083969465649,0.0
11.68000054359436,-10.673351000976561,1.1085153686523437,1.1252747802734375,1.2671755725190839,27.419847328244273,-19.541984732824428,-8.137891442871092,2.43250888671875,-0.1867477294921875,16.702290076335878,-52.36641221374046,-17.984732824427482,0.0
11.690000534057617,-8.882488159179687,0.63206923828125,0.7015010864257812,4.687022900763359,26.778625954198475,-18.50381679389313,-9.60793126220703,0.9696516723632812,0.7589619262695312,10.061068702290076,-43.05343511450382,-14.091603053435115,0.0
11.700000524520874,-9.14824454345703,0.44053310546874996,1.024718310546875,7.267175572519084,27.19083969465649,-19.358778625954198,-9.516951599121093,-0.2705447875976562,1.1540052001953125,22.519083969465647,-46.33587786259542,-13.664122137404581,0.0
11.71000051498413,-10.943895788574219,1.4891934326171874,1.4939818359375,7.267175572519084,25.786259541984734,-19.46564885496183,-9.011775048828124,0.8954314208984374,0.8212111694335937,25.786259541984734,-47.23664122137404,-15.34351145038168,0.0
11.720000505447388,-9.612719665527344,1.419761584472656,1.3479355346679687,3.4198473282442747,20.885496183206108,-16.625954198473284,-8.473079675292968,1.235408056640625,0.612915625,17.404580152671755,-41.19083969465649,-15.32824427480916,0.0
11.730000495910645,-9.909600671386718,1.189918225097656,1.3455413330078123,-1.5114503816793894,16.213740458015266,-14.412213740458014,-9.557653027343749,0.01915361328125,1.4413093994140624,18.885496183206108,-39.221374045801525,-13.236641221374045,0.0
11.74000072479248,-10.072406384277343,0.5363011718749999,1.2378022583007813,8.15267175572519,19.083969465648856,-13.053435114503817,-10.04846436767578,-1.5083470458984374,1.9608511596679685,31.66412213740458,-41.11450381679389,-13.236641221374045,0.0
11.750000476837158,-9.437942944335937,-0.22744915771484372,0.7158662963867187,12.396946564885496,17.541984732824428,-11.908396946564885,-9.121908325195312,-0.11731588134765625,1.6041151123046875,39.55725190839695,-44.229007633587784,-16.977099236641223,0.0
11.760000944137573,-9.358934289550781,1.2378022583007813,1.7741034301757812,20.213740458015266,21.862595419847327,-13.251908396946565,-9.176974963378905,0.8571241943359375,1.5179238525390624,38.412213740458014,-43.16030534351145,-16.244274809160306,0.0
11.770000457763672,-10.666168395996094,2.2936451904296873,2.528276953125,13.068702290076336,21.221374045801525,-14.732824427480915,-9.4618849609375,0.5722141967773438,1.85790048828125,38.396946564885496,-43.45038167938932,-14.916030534351146,0.0
11.780000686645508,-11.03248125,2.6001030029296874,2.375048046875,6.259541984732825,16.061068702290076,-13.725190839694656,-10.556035119628906,0.36391865234375,1.7908628417968748,45.38931297709924,-45.14503816793893,-14.106870229007633,0.0
11.790000677108765,-8.583212951660157,-0.12689268798828124,0.6536170532226562,13.34351145038168,14.198473282442748,-9.572519083969466,-8.655039001464843,2.157175695800781,1.2856862915039062,41.98473282442748,-46.67175572519084,-17.0381679389313,0.0
11.800000429153442,-9.612719665527344,1.0869675537109373,1.1037269653320312,5.7251908396946565,11.572519083969466,-11.099236641221374,-8.619125976562499,2.104503259277344,1.7908628417968748,27.435114503816795,-37.49618320610687,-15.16030534351145,0.0
11.810000658035278,-10.295067138671874,1.7310078002929687,1.7286135986328124,5.343511450381679,13.267175572519085,-13.389312977099237,-10.378864196777343,0.603338818359375,2.4013842651367185,29.053435114503817,-38.06106870229008,-13.068702290076336,0.0
11.820000886917114,-9.509768994140625,-0.1484405029296875,0.5339069702148437,6.549618320610687,7.129770992366412,-11.374045801526718,-9.179369165039063,0.5817910034179687,2.0302830078125,34.61068702290076,-40.0,-14.732824427480915,0.0
11.830000400543213,-9.706093530273437,-0.15083470458984374,0.9097966308593749,26.229007633587788,17.450381679389313,-12.351145038167939,-7.728482958984374,1.8363526733398436,0.9193734375,33.16030534351145,-39.343511450381676,-16.977099236641223,0.0
11.840000629425049,-10.560823522949217,1.936909143066406,2.0877438476562498,20.259541984732824,17.786259541984734,-16.65648854961832,-8.372523205566406,1.7190367919921874,1.4221557861328125,20.0,-30.80916030534351,-15.114503816793894,0.0
11.850001096725464,-10.831368310546875,1.6639701538085936,1.6615759521484375,15.038167938931299,15.389312977099237,-17.954198473282442,-8.540117321777343,1.0989385620117187,0.5698199951171875,16.778625954198475,-27.282442748091604,-13.908396946564885,0.0
11.860000848770142,-11.233594189453123,1.6998831787109374,1.7477672119140624,13.84732824427481,13.236641221374045,-18.931297709923665,-9.830592016601562,0.19153613281249998,1.898601916503906,25.083969465648856,-23.282442748091604,-12.961832061068701,0.0
11.870000839233398,-10.419565624999999,0.16998831787109375,1.39821376953125,24.076335877862597,14.748091603053435,-17.51145038167939,-8.619125976562499,0.3495534423828125,0.7613561279296874,33.98473282442748,-25.49618320610687,-15.145038167938932,0.0
11.880000591278076,-9.753977563476562,0.5027823486328125,0.7517793212890624,29.14503816793893,12.320610687022901,-16.198473282442748,-8.176198669433592,1.158793603515625,0.8092401611328125,32.38167938931298,-21.221374045801525,-15.923664122137405,0.0
11.890001058578491,-8.700528833007812,0.9959878906249999,0.584185205078125,34.229007633587784,13.83206106870229,-16.549618320610687,-8.291120349121094,1.7549498168945312,0.8403647827148437,23.053435114503817,-9.618320610687023,-13.938931297709924,0.0
11.90000033378601,-8.365340600585936,1.2114660400390624,0.7230489013671875,32.82442748091603,15.007633587786259,-17.633587786259543,-7.295132458496093,2.518700146484375,0.201112939453125,14.702290076335878,-4.122137404580153,-13.801526717557252,0.0
11.910000562667847,-10.881646545410156,2.291250988769531,2.166752502441406,24.83969465648855,14.198473282442748,-20.198473282442748,-8.398859423828124,1.4772224243164063,0.49799394531249996,16.3206106870229,0.7633587786259542,-10.580152671755725,0.0
11.920000791549683,-10.13226142578125,1.3407529296874998,1.1420341918945311,26.091603053435115,10.16793893129771,-19.34351145038168,-8.384494213867187,0.6679822631835937,0.9337386474609375,20.259541984732824,5.450381679389313,-10.732824427480915,0.0
11.93000054359436,-9.485826977539062,0.7733271362304687,0.82360537109375,23.61832061068702,5.969465648854962,-18.717557251908396,-8.221688500976562,0.93852705078125,1.0462661254882812,23.114503816793892,7.450381679389313,-10.961832061068701,0.0
11.940000534057617,-10.36210478515625,1.7645266235351562,1.4867992309570313,24.27480916030534,6.9465648854961835,-19.6793893129771,-8.358157995605469,0.7015010864257812,1.1947066284179686,24.9618320610687,10.946564885496183,-10.80916030534351,0.0
11.950000286102295,-10.934318981933593,3.1771056030273437,2.2840683837890623,15.32824427480916,5.267175572519084,-20.870229007633586,-8.25520732421875,1.0654197387695312,0.6440402465820312,25.801526717557252,13.587786259541986,-11.053435114503817,0.0
11.96000051498413,-9.572018237304688,1.3407529296874998,1.43652099609375,8.641221374045802,-1.3893129770992367,-18.0,-8.073247998046874,1.158793603515625,0.5746083984375,26.793893129770993,15.282442748091603,-11.19083969465649,0.0
11.970000505447388,-9.56962403564453,1.2880804931640624,1.9656395629882812,11.038167938931299,-0.6870229007633588,-17.16030534351145,-8.29351455078125,1.2569558715820313,1.4963760375976562,25.69465648854962,18.137404580152673,-12.13740458015267,0.0
11.980000257492065,-10.211270080566406,1.7549498168945312,2.4492682983398435,6.442748091603053,-2.6564885496183206,-17.435114503816795,-8.042123376464843,0.9696516723632812,1.8555062866210936,23.938931297709924,17.022900763358777,-11.877862595419847,0.0
11.990000486373901,-10.965443603515624,2.2074539306640624,2.8323405639648436,1.8015267175572518,-5.633587786259542,-15.84732824427481,-8.173804467773436,1.0678139404296874,0.9145850341796874,22.03053435114504,18.076335877862597,-12.65648854961832,0.0
12.000000715255737,-10.922347973632812,2.731784094238281,3.5913024902343746,-2.2748091603053435,-9.679389312977099,-13.099236641221374,-7.445967163085937,2.6048914062499997,0.3711012573242187,12.412213740458014,26.80916030534351,-10.488549618320612,0.0
12.010000944137573,-11.077971081542968,3.0071172851562498,4.170699291992188,-5.938931297709924,-15.206106870229007,-8.885496183206106,-8.997409838867187,2.6336218261718747,-0.055066638183593745,11.816793893129772,24.244274809160306,-6.5038167938931295,0.0
12.02000093460083,-11.18571015625,2.5546131713867184,4.584896179199219,-2.50381679389313,-22.30534351145038,-2.351145038167939,-9.311050256347656,3.0813375366210938,1.7334020019531249,6.519083969465649,26.778625954198475,-3.282442748091603,0.0
12.030000686645508,-11.125855114746093,2.039859814453125,5.327098693847656,3.114503816793893,-28.870229007633586,3.3282442748091605,-8.9255837890625,3.6391865234374996,1.2569558715820313,-5.9541984732824424,23.31297709923664,-3.5114503816793894,0.0
12.040000915527344,-10.87925234375,1.7932570434570312,6.58884296875,10.259541984732824,-37.725190839694655,9.267175572519085,-9.239224206542968,4.4005426513671875,1.70467158203125,-20.3206106870229,21.297709923664122,-2.0916030534351147,0.0
12.050000667572021,-11.073182678222656,1.7501614135742187,7.556100439453124,20.68702290076336,-46.25954198473283,15.312977099236642,-9.79946739501953,3.8379052612304685,1.7118541870117185,-43.9236641221374,26.0,1.7099236641221374,0.0
12.060000658035278,-11.96382569580078,3.478775012207031,9.210493786621093,26.442748091603054,-58.412213740458014,20.458015267175572,-11.49216796875,0.8954314208984374,2.123656872558594,-48.56488549618321,23.221374045801525,7.00763358778626,0.0
12.070000648498535,-12.600683337402343,4.623203405761719,10.378864196777343,19.435114503816795,-81.87786259541984,27.358778625954198,-12.892775939941405,-1.2282254516601563,2.43250888671875,-40.70229007633588,17.6793893129771,4.931297709923665,0.0
12.080000638961792,-14.7482822265625,5.212177014160156,12.038045947265624,9.16030534351145,-109.19083969465649,37.83206106870229,-12.289437121582031,-0.842758984375,2.1715409057617188,-33.12977099236641,9.603053435114504,-0.7938931297709924,0.0
12.090000629425049,-15.969325073242187,4.76924970703125,12.638990563964843,6.198473282442748,-136.12213740458014,47.52671755725191,-11.367669482421874,-0.24660277099609373,1.3431471313476562,-35.64885496183206,8.320610687022901,-3.1297709923664123,0.0
12.100000381469727,-16.249446667480466,2.7629087158203123,10.43153663330078,17.419847328244273,-163.1145038167939,60.93129770992366,-10.900800158691405,-0.8547299926757812,0.8307879760742187,-40.36641221374046,9.938931297709924,-2.381679389312977,0.0
12.110000848770142,-16.66843195800781,1.1635820068359375,4.1563340820312495,12.900763358778626,-177.57251908396947,68.99236641221374,-12.105083593749999,-3.296815686035156,1.0342951171875,-27.801526717557252,9.267175572519085,-1.2213740458015268,0.0
12.120000839233398,-12.684480395507812,-4.07971962890625,0.7805097412109374,16.564885496183205,-182.85496183206106,74.6412213740458,-10.457872851562499,-2.6767174560546874,-0.0718260498046875,-15.694656488549619,3.5572519083969465,-5.984732824427481,0.0
12.130000829696655,-13.256694592285156,-4.790797521972656,-0.8547299926757812,40.961832061068705,-163.7709923664122,77.0381679389313,-9.9215716796875,-2.176329309082031,0.09816226806640624,-11.740458015267176,6.458015267175573,-8.427480916030534,0.0
12.140000581741333,-13.194445349121093,-4.601655590820312,0.5315127685546874,50.85496183206107,-151.5114503816794,78.50381679389314,-8.626308581542968,-0.3854664672851562,-0.3591302490234375,-13.541984732824428,7.984732824427481,-8.763358778625955,0.0
12.150000810623169,-12.792219470214842,-3.306392492675781,0.8212111694335937,64.67175572519083,-136.42748091603053,80.59541984732824,-9.018957653808593,-0.7661445312499999,0.031124621582031248,-18.793893129770993,16.259541984732824,-5.038167938931298,0.0
12.160000562667847,-13.735534924316406,-1.905784521484375,0.11013327636718749,41.32824427480916,-124.22900763358778,73.16030534351145,-10.216058483886718,-1.8339584716796873,0.277727392578125,-10.595419847328245,16.35114503816794,-3.2977099236641223,0.0
12.170000553131104,-12.160150231933594,-2.932897033691406,-1.2569558715820313,-7.435114503816794,-128.0,58.76335877862596,-10.120290417480469,-1.0342951171875,-0.2920926025390625,-8.305343511450381,17.34351145038168,-3.786259541984733,0.0
12.180000305175781,-10.273519323730468,-4.417302062988281,-0.9121908325195311,-19.419847328244273,-126.25954198473282,47.37404580152672,-9.935936889648437,0.45489831542968745,-0.70868369140625,-13.32824427480916,20.213740458015266,-1.9083969465648856,0.0
12.190000534057617,-9.548076220703125,-3.071760729980469,-0.19632453613281248,-19.572519083969464,-120.50381679389314,38.045801526717554,-9.967061511230469,0.8475473876953125,-0.7637503295898437,-23.770992366412212,26.580152671755727,2.7022900763358777,0.0
12.200000524520874,-9.311050256347656,-1.7501614135742187,0.45010991210937495,-13.221374045801527,-110.58015267175573,32.030534351145036,-10.187328063964843,-0.5434837768554687,-0.6200982299804687,-25.419847328244273,29.87786259541985,7.419847328244275,0.0
12.21000051498413,-9.581595043945311,-0.7565677246093749,1.467645617675781,-5.7251908396946565,-100.36641221374046,30.671755725190838,-10.692504614257812,-1.01514150390625,0.02633621826171875,-16.702290076335878,32.76335877862596,9.465648854961833,0.0
12.220000505447388,-7.869740856933594,-2.176329309082031,0.8451531860351562,1.0076335877862594,-93.29770992366412,32.900763358778626,-10.28549033203125,-1.4915876342773438,0.1388636962890625,-3.3893129770992365,30.30534351145038,10.15267175572519,0.0
12.230000495910645,-7.510610607910156,-1.2641384765625,1.2210428466796874,14.0,-77.54198473282443,29.557251908396946,-10.524910498046875,-2.0063409912109376,0.3711012573242187,10.442748091603054,29.66412213740458,11.526717557251908,0.0
12.24000072479248,-7.56567724609375,0.55545478515625,1.5849614990234373,5.847328244274809,-73.41984732824427,24.091603053435115,-9.272743029785156,-0.41419688720703124,0.430956298828125,15.465648854961833,30.12213740458015,8.961832061068701,0.0
12.250000476837158,-8.212111694335936,2.4588451049804685,1.9991583862304687,-16.83969465648855,-72.4885496183206,20.47328244274809,-8.597578161621094,1.5514426757812498,-0.21308394775390624,12.534351145038167,30.03053435114504,9.083969465648854,0.0
12.260000705718994,-7.314286071777343,2.123656872558594,1.4101847778320311,-37.57251908396947,-72.25954198473282,19.81679389312977,-9.248801013183593,1.24498486328125,0.6488286499023437,4.732824427480916,36.79389312977099,13.038167938931299,0.0
12.270000696182251,-6.981492041015625,0.8403647827148437,1.3431471313476562,-48.33587786259542,-70.4885496183206,19.61832061068702,-8.564059338378906,0.718260498046875,0.6631938598632812,-0.5801526717557252,35.25190839694657,14.122137404580153,0.0
12.280000686645508,-6.323086584472656,-0.5913678100585937,0.44532150878906246,-50.030534351145036,-66.29007633587786,18.82442748091603,-9.179369165039063,-0.33039982910156246,1.407790576171875,0.0,35.099236641221374,15.633587786259541,0.0
12.290000915527344,-6.277596752929687,-1.0366893188476562,1.4173673828125,-43.37404580152672,-56.93129770992366,16.793893129770993,-9.160215551757812,-0.05985504150390625,1.189918225097656,-3.4198473282442747,35.80152671755725,14.259541984732824,0.0
12.300000429153442,-5.674257934570313,-1.4963760375976562,1.2473790649414063,-39.37404580152672,-52.12213740458015,15.84732824427481,-9.955090502929687,-0.4261678955078125,1.467645617675781,-6.244274809160306,36.458015267175576,15.114503816793894,0.0
12.3100004196167,-6.337451794433593,-1.199495031738281,2.0757728393554684,-32.51908396946565,-45.3587786259542,12.992366412213741,-10.687716210937499,-1.1180921752929687,2.6791116577148437,-6.824427480916031,35.93893129770992,15.450381679389313,0.0
12.320000648498535,-8.14028564453125,2.2385785522460937,3.6176387084960937,-30.198473282442748,-36.045801526717554,8.870229007633588,-9.947907897949218,-2.1883003173828124,2.729389892578125,-1.3282442748091603,32.38167938931298,14.610687022900763,0.0
12.330000638961792,-8.109161022949218,1.7836802368164062,4.407725256347656,-51.61832061068702,-47.69465648854962,9.312977099236642,-10.309432348632813,-1.3192051147460937,1.675941162109375,-0.5038167938931297,28.610687022900763,14.335877862595419,0.0
12.340000629425049,-6.5577183471679685,-0.469263525390625,4.486733911132812,-44.045801526717554,-45.770992366412216,13.267175572519085,-10.35492218017578,-1.5514426757812498,1.5514426757812498,6.580152671755725,22.80916030534351,14.488549618320612,0.0
12.350000858306885,-6.4092778442382805,-0.9744400756835937,4.551377355957031,-27.633587786259543,-38.97709923664122,13.83206106870229,-9.117119921875,-0.32082302246093747,1.7477672119140624,-2.4122137404580153,23.893129770992367,12.595419847328245,0.0
12.360000610351562,-6.852205151367187,-0.9217676391601562,4.903325,-16.519083969465647,-34.48854961832061,15.740458015267176,-9.811438403320311,0.14125789794921875,0.9361328491210937,-6.076335877862595,24.65648854961832,14.259541984732824,0.0
12.370000839233398,-5.212177014160156,-0.9337386474609375,4.96078583984375,2.7786259541984735,-29.46564885496183,18.03053435114504,-9.756371765136718,-0.4525041137695312,1.6328455322265625,-10.641221374045802,27.801526717557252,15.19083969465649,0.0
12.380000352859497,-4.235342736816406,-0.5817910034179687,5.516240625,17.96946564885496,-24.885496183206108,20.061068702290076,-8.034940771484374,1.1516109985351561,-0.9816226806640624,-17.801526717557252,26.870229007633586,11.664122137404581,0.0
12.390000820159912,-5.645527514648437,1.2832920898437499,6.093243225097656,20.33587786259542,-21.450381679389313,19.862595419847327,-9.205705383300781,-1.0965443603515623,1.9512743530273435,-28.549618320610687,40.38167938931298,15.938931297709924,0.0
12.40000033378601,-7.149086157226562,2.959233251953125,7.000645654296875,15.801526717557252,-20.458015267175572,18.53435114503817,-10.108319409179687,-2.7078420776367187,0.9193734375,-10.641221374045802,34.48854961832061,15.511450381679388,0.0
12.410000562667847,-5.724536169433593,1.1731588134765625,6.7037646484375,15.068702290076336,-23.450381679389313,21.633587786259543,-8.710105639648438,-0.6512228515624999,0.373495458984375,-9.84732824427481,33.3587786259542,12.610687022900763,0.0
12.420000553131104,-6.117185241699218,1.7405846069335937,7.3837179199218745,18.18320610687023,-18.48854961832061,22.610687022900763,-8.781931689453124,0.2346317626953125,-0.9026140258789062,-18.3206106870229,37.06870229007634,11.312977099236642,0.0
12.43000054359436,-6.308721374511719,1.484405029296875,7.558494641113281,14.106870229007633,-19.541984732824428,21.419847328244273,-10.448296044921875,-1.8195932617187498,1.6903063720703124,-8.885496183206106,39.9236641221374,14.091603053435115,0.0
12.440000534057617,-6.081272216796875,2.2553379638671873,8.353369592285155,16.595419847328245,-20.16793893129771,20.580152671755727,-8.480262280273436,2.152387292480469,-1.24498486328125,-14.992366412213741,31.114503816793892,8.732824427480915,0.0
12.450000524520874,-6.586448767089843,4.017470385742187,8.611943371582031,-5.00763358778626,-29.206106870229007,22.549618320610687,-10.773907470703124,0.05746083984375,2.0278888061523435,-24.732824427480917,41.06870229007634,15.038167938931299,0.0
12.46000051498413,-5.422866760253906,2.310404602050781,6.804321118164062,-12.82442748091603,-28.65648854961832,23.786259541984734,-10.251971508789062,0.13407529296874998,0.9600748657226562,-16.458015267175572,31.72519083969466,15.083969465648854,0.0
12.470000505447388,-4.390965844726562,1.2569558715820313,4.84586416015625,-13.83206106870229,-25.893129770992367,23.328244274809162,-9.143456140136719,2.5737667846679684,-1.3551181396484375,-32.458015267175576,33.7557251908397,13.908396946564885,0.0
12.480000734329224,-4.0988732421875,0.46208092041015625,4.163516687011718,-12.473282442748092,-20.458015267175572,21.068702290076335,-9.234435803222656,1.1731588134765625,0.9169792358398436,-38.045801526717554,36.35114503816794,19.358778625954198,0.0
12.490000486373901,-4.185064501953125,0.143652099609375,2.602497204589844,-4.732824427480916,-7.4961832061068705,18.30534351145038,-10.613495959472656,-0.5339069702148437,1.1109095703125,-33.725190839694655,34.83969465648855,22.946564885496183,0.0
12.500000715255737,-2.9568390502929685,-0.08858546142578125,1.180341418457031,1.2213740458015268,5.358778625954199,15.17557251908397,-9.442731347656249,-0.23223756103515625,-0.03591302490234375,-30.793893129770993,28.580152671755727,22.015267175572518,0.0
12.510000705718994,-4.177881896972656,1.1875240234375,0.814028564453125,-8.717557251908397,20.48854961832061,9.557251908396946,-9.674968908691406,-0.181959326171875,0.5003881469726562,-35.404580152671755,29.404580152671755,22.82442748091603,0.0
12.520000457763672,-0.4429273071289062,-5.465962390136719,-1.1228805786132812,-6.809160305343512,27.984732824427482,12.381679389312977,-9.835380419921874,-0.4860229370117187,-1.6903063720703124,-37.37404580152672,25.893129770992367,22.35114503816794,0.0
12.530000686645508,-4.637568615722656,-4.707000463867187,3.4261025756835934,36.87022900763359,57.14503816793893,5.862595419847328,-11.573570825195311,-2.0159177978515626,0.7422025146484375,-31.251908396946565,28.778625954198475,24.38167938931298,0.0
12.540000438690186,-8.190563879394531,-1.0941501586914062,9.215282189941405,78.73282442748092,63.16030534351145,4.076335877862595,-11.192892761230468,0.258573779296875,-1.2114660400390624,-29.69465648854962,23.0381679389313,20.0,0.0
12.550000667572021,-12.907141149902342,6.086060620117187,11.403582507324218,92.58015267175573,68.07633587786259,6.091603053435114,-10.151415039062499,1.5251064575195312,-1.7357962036132812,-43.465648854961835,25.61832061068702,18.03053435114504,0.0
12.5600004196167,-10.55364091796875,2.91134921875,7.0102224609374995,69.64885496183206,59.16030534351145,14.16793893129771,-10.165780249023436,2.070984436035156,-1.9871873779296874,-64.53435114503817,33.29770992366412,15.32824427480916,0.0
12.570000410079956,-13.833697192382811,4.204218115234375,3.1699229980468746,46.54961832061068,63.70992366412214,7.435114503816794,-13.898340637207031,-1.6256629272460936,0.36631285400390623,-55.61832061068702,35.29770992366412,20.9618320610687,0.0
12.580000638961792,-11.465831750488281,1.7669208251953124,1.458068811035156,27.34351145038168,58.01526717557252,4.870229007633588,-12.588712329101561,1.3670891479492187,-2.2744915771484373,-42.16793893129771,21.541984732824428,18.641221374045802,0.0
12.590000629425049,-11.468225952148437,1.7334020019531249,3.6535517333984373,23.206106870229007,61.19083969465649,-0.2595419847328244,-13.582306018066406,0.967257470703125,-1.16837041015625,-58.10687022900763,30.442748091603054,17.66412213740458,0.0
12.600000619888306,-9.909600671386718,0.28969840087890625,1.8315642700195311,19.709923664122137,62.10687022900763,-2.6412213740458017,-15.030798022460937,-0.2561795776367187,0.833182177734375,-35.038167938931295,23.801526717557252,18.549618320610687,0.0
12.610000848770142,-10.101136804199218,1.429338391113281,2.7150246826171873,17.297709923664122,66.16793893129771,-8.290076335877863,-14.061146350097655,1.2473790649414063,-0.5434837768554687,-21.938931297709924,13.297709923664122,14.01526717557252,0.0
12.620000839233398,-10.445901843261717,1.218648645019531,2.109291662597656,8.01526717557252,67.16030534351145,-12.229007633587786,-14.022839123535155,3.4955344238281247,-0.6751648681640625,-16.290076335877863,0.732824427480916,11.236641221374045,0.0
12.630000829696655,-10.831368310546875,1.62805712890625,2.1595698974609374,2.549618320610687,72.35114503816794,-15.679389312977099,-14.063540551757812,4.486733911132812,-0.4381389038085937,-24.12213740458015,-1.2671755725190839,11.129770992366412,0.0
12.640000581741333,-12.088324182128906,1.6256629272460936,1.3862427612304686,-6.091603053435114,75.69465648854961,-20.366412213740457,-13.749900134277343,4.491522314453125,-0.03591302490234375,-31.923664122137403,-3.3740458015267176,11.740458015267176,0.0
12.650000810623169,-11.755530151367187,0.5578489868164063,0.8882488159179687,-8.992366412213741,78.9618320610687,-22.03053435114504,-13.184868542480467,4.319139794921875,0.41898529052734373,-36.48854961832061,-6.442748091603053,13.541984732824428,0.0
12.660000562667847,-11.566388220214844,0.36631285400390623,1.0390835205078124,-1.8931297709923665,86.77862595419847,-23.251908396946565,-12.15536182861328,3.909731311035156,0.7948749511718749,-38.3206106870229,-9.17557251908397,15.022900763358779,0.0
12.670000553131104,-11.987767712402343,1.4006079711914061,1.37906015625,-2.122137404580153,90.9618320610687,-26.259541984732824,-11.123460913085937,3.6343981201171873,0.4261678955078125,-38.06106870229008,-11.297709923664122,15.32824427480916,0.0
12.680000305175781,-11.207257971191405,0.45968671875,1.1180921752929687,5.450381679389313,95.31297709923665,-26.442748091603054,-11.161768139648437,2.8467057739257813,-0.07900865478515624,-36.83969465648855,-11.557251908396946,15.236641221374045,0.0
12.690000772476196,-11.116278308105468,1.189918225097656,0.9911994873046874,6.641221374045801,97.89312977099236,-28.259541984732824,-10.601524951171875,2.1643583007812497,-0.08140285644531249,-34.30534351145038,-12.01526717557252,14.50381679389313,0.0
12.700000524520874,-9.943119494628906,1.1444283935546875,0.699106884765625,10.290076335877863,99.0381679389313,-29.206106870229007,-10.079588989257813,1.3383587280273437,0.35673604736328124,-31.938931297709924,-12.992366412213741,14.122137404580153,0.0
12.710000276565552,-10.070012182617187,2.231395947265625,0.3591302490234375,8.946564885496183,99.55725190839695,-29.984732824427482,-9.574412438964844,0.8667010009765624,0.18914193115234373,-29.46564885496183,-15.022900763358779,11.557251908396946,0.0
12.720000505447388,-9.318232861328125,1.9632453613281249,0.7613561279296874,10.564885496183207,100.74809160305344,-29.17557251908397,-9.03332286376953,0.1771709228515625,0.055066638183593745,-24.18320610687023,-16.458015267175572,8.50381679389313,0.0
12.730000495910645,-9.279925634765624,2.616862414550781,1.3670891479492187,8.244274809160306,101.45038167938931,-30.091603053435115,-8.389282617187499,0.15562310791015624,-0.2561795776367187,-18.885496183206108,-16.16793893129771,4.137404580152672,0.0
12.74000072479248,-8.544905725097657,1.2761094848632812,1.0366893188476562,10.793893129770993,99.83206106870229,-29.87786259541985,-8.693346228027343,0.20350714111328125,-0.4908113403320312,-13.053435114503817,-13.725190839694656,0.9007633587786259,0.0
12.750000476837158,-8.532934716796875,1.5873557006835937,1.5658078857421873,12.396946564885496,97.74045801526718,-30.30534351145038,-7.802703210449218,0.51714755859375,-0.6177040283203125,-8.244274809160306,-13.679389312977099,-3.267175572519084,0.0
12.760000705718994,-7.8553756469726554,0.19153613281249998,1.7932570434570312,13.17557251908397,94.33587786259542,-30.290076335877863,-8.358157995605469,-0.36152445068359373,0.30406361083984373,4.152671755725191,-9.923664122137405,-3.3435114503816794,0.0
12.770000457763672,-8.475473876953124,0.6607996582031249,2.281674182128906,17.923664122137403,92.53435114503817,-31.786259541984734,-6.900089184570312,-0.6488286499023437,-0.6488286499023437,17.786259541984734,-9.816793893129772,-4.488549618320611,0.0
12.780000686645508,-8.420407238769531,-0.373495458984375,2.9041666137695312,22.702290076335878,88.83969465648855,-31.770992366412212,-6.981492041015625,-0.229843359375,-0.5410895751953124,28.610687022900763,-9.312977099236642,-5.9541984732824424,0.0
12.790000677108765,-8.750807067871094,0.7565677246093749,3.047818713378906,25.87786259541985,88.27480916030534,-33.89312977099237,-6.2584431396484375,1.618480322265625,-1.6208745239257811,26.137404580152673,-8.122137404580153,-9.297709923664122,0.0
12.800000667572021,-9.179369165039063,0.4070142822265625,3.440467785644531,18.85496183206107,80.13740458015268,-35.93893129770992,-7.003039855957031,2.3582886352539063,-1.838746875,29.633587786259543,-6.595419847328245,-7.862595419847328,0.0
12.810000658035278,-8.951920007324219,0.612915625,3.327940307617187,24.793893129770993,77.93893129770993,-37.083969465648856,-8.058882788085937,1.5562310791015623,-0.143652099609375,36.48854961832061,-4.67175572519084,-5.145038167938932,0.0
12.820000410079956,-9.275137231445312,1.5155296508789062,3.028665100097656,25.96946564885496,74.45801526717557,-37.908396946564885,-6.629544396972656,3.229778039550781,0.01915361328125,28.35114503816794,-5.862595419847328,-6.809160305343512,0.0
12.830000638961792,-8.726865051269531,0.40462008056640625,2.825157958984375,24.290076335877863,65.55725190839695,-35.083969465648856,-7.359775903320312,2.616862414550781,0.009576806640625,24.80916030534351,-5.923664122137405,-4.091603053435114,0.0
12.840000629425049,-9.926360083007811,2.0350714111328125,3.4332851806640625,25.129770992366414,61.786259541984734,-35.038167938931295,-9.184157568359375,0.3184288208007812,2.6527754394531247,37.29770992366412,-7.114503816793893,0.32061068702290074,0.0
12.850000381469727,-9.540893615722656,2.1068974609374997,3.3782185424804685,21.374045801526716,57.49618320610687,-33.87786259541985,-6.150704064941406,2.4875755249023435,-0.24181436767578124,31.954198473282442,-20.259541984732824,-5.374045801526718,0.0
12.860000371932983,-10.04846436767578,2.4684219116210935,3.4069489624023435,11.511450381679388,49.06870229007634,-32.19847328244275,-8.985438830566405,-1.5873557006835937,4.000710974121094,38.778625954198475,-14.274809160305344,-1.0534351145038168,0.0
12.870000839233398,-9.102754711914063,1.4221557861328125,1.9225439331054686,17.587786259541986,46.458015267175576,-28.916030534351144,-9.370905297851563,-1.0845733520507812,1.6807295654296874,66.36641221374046,-36.595419847328245,-4.732824427480916,0.0
12.880000591278076,-10.946289990234375,4.951209033203125,3.651157531738281,11.419847328244275,44.44274809160305,-29.419847328244273,-8.619125976562499,2.0159177978515626,-0.8475473876953125,51.282442748091604,-42.13740458015267,-13.099236641221374,0.0
12.890000820159912,-10.819397302246093,4.716577270507813,2.77727392578125,-10.15267175572519,33.93893129770992,-24.68702290076336,-9.09796630859375,1.7932570434570312,0.05985504150390625,33.908396946564885,-38.62595419847328,-13.86259541984733,0.0
12.90000057220459,-10.328585961914062,2.990357873535156,1.6065093139648436,-26.091603053435115,25.053435114503817,-21.984732824427482,-10.579977136230468,1.0295067138671874,0.7541735229492187,33.221374045801525,-42.19847328244275,-12.946564885496183,0.0
12.910000562667847,-10.467449658203124,2.6575638427734374,1.66636435546875,-15.236641221374045,32.51908396946565,-19.862595419847327,-8.647856396484375,3.737348791503906,-0.0718260498046875,16.83969465648855,-46.58015267175573,-15.83206106870229,0.0
12.920000314712524,-11.520898388671874,3.584119885253906,1.8531120849609375,-24.977099236641223,29.14503816793893,-18.412213740458014,-10.955866796875,0.6584054565429687,2.138022082519531,11.877862595419847,-38.50381679389313,-11.419847328244275,0.0
12.93000054359436,-10.261548315429687,1.9656395629882812,0.6200982299804687,-20.15267175572519,27.404580152671755,-15.038167938931299,-9.727641345214844,1.2018892333984375,0.8020575561523438,19.6793893129771,-51.43511450381679,-14.82442748091603,0.0
12.940000534057617,-8.128314636230469,0.7517793212890624,-0.4285620971679687,-21.83206106870229,23.954198473282442,-11.877862595419847,-9.318232861328125,3.114856359863281,0.5315127685546874,4.824427480916031,-47.32824427480916,-16.885496183206108,0.0
12.950000524520874,-9.428366137695312,0.38786066894531246,-0.6272808349609375,-19.46564885496183,28.259541984732824,-11.511450381679388,-10.328585961914062,1.917755529785156,1.024718310546875,-2.5801526717557253,-44.61068702290076,-14.946564885496183,0.0
12.96000051498413,-9.253589416503905,0.3232172241210937,-0.4644751220703125,-13.114503816793894,31.480916030534353,-12.366412213740459,-12.50730947265625,-1.1324573852539062,3.27526787109375,14.83969465648855,-46.99236641221374,-12.198473282442748,0.0
12.970000505447388,-8.889670764160156,0.5410895751953124,-0.15083470458984374,-16.564885496183205,29.603053435114504,-13.801526717557252,-10.04846436767578,2.3487118286132813,-0.22744915771484372,24.03053435114504,-60.87022900763359,-17.435114503816795,0.0
12.980000734329224,-8.688557824707031,0.3591302490234375,0.5770026000976562,-23.66412213740458,27.267175572519083,-14.122137404580153,-10.189722265624999,1.89620771484375,1.0989385620117187,8.65648854961832,-51.43511450381679,-16.625954198473284,0.0
12.990000486373901,-9.397241516113281,-0.40940848388671874,-0.3806780639648437,-23.83206106870229,26.748091603053435,-15.099236641221374,-10.903194360351561,1.5370774658203123,0.7709329345703124,16.48854961832061,-58.85496183206107,-16.53435114503817,0.0
13.000000476837158,-10.445901843261717,0.8068459594726562,1.0127473022460938,-22.12213740458015,30.9618320610687,-17.862595419847327,-9.641450085449218,2.987963671875,-0.0526724365234375,6.229007633587786,-53.786259541984734,-16.366412213740457,0.0
13.010000705718994,-9.33978067626953,-0.7493851196289062,-0.17956512451171874,-14.229007633587786,30.198473282442748,-17.19083969465649,-9.873687646484374,1.9584569580078124,0.38307226562499996,2.854961832061069,-50.6412213740458,-13.389312977099237,0.0
13.020000457763672,-9.265560424804686,-0.7062894897460937,-0.17956512451171874,-0.12213740458015267,34.3206106870229,-18.137404580152673,-9.852139831542969,1.0031704956054688,0.507570751953125,10.931297709923664,-51.74045801526717,-12.900763358778626,0.0
13.030000686645508,-9.94072529296875,1.7621324218749999,0.5722141967773438,1.251908396946565,35.61832061068702,-19.786259541984734,-8.169016064453125,2.9855694702148434,-0.7924807495117187,7.00763358778626,-50.56488549618321,-15.419847328244275,0.0
13.040000677108765,-9.938331091308592,2.327164013671875,0.4165910888671875,-8.259541984732824,32.80916030534351,-20.33587786259542,-8.573636145019531,1.879448303222656,-0.05027823486328125,-7.801526717557252,-38.30534351145038,-11.526717557251908,0.0
13.050000667572021,-9.686939916992188,0.7422025146484375,-0.02154781494140625,-7.938931297709924,31.81679389312977,-19.603053435114504,-9.457096557617186,0.59376201171875,0.9361328491210937,-0.9618320610687023,-38.47328244274809,-9.679389312977099,0.0
13.060000658035278,-10.376469995117187,0.7254431030273437,-0.1292868896484375,-1.83206106870229,35.6793893129771,-20.259541984732824,-9.004592443847656,0.4381389038085937,0.8068459594726562,8.335877862595419,-38.97709923664122,-10.51908396946565,0.0
13.070000648498535,-10.251971508789062,0.411802685546875,0.4261678955078125,-0.5801526717557252,36.152671755725194,-19.709923664122137,-8.798691101074219,1.2306196533203124,0.6488286499023437,11.129770992366412,-38.83969465648855,-10.778625954198473,0.0
13.080000400543213,-9.009380847167968,-0.7158662963867187,0.3064578125,5.1603053435114505,34.778625954198475,-18.900763358778626,-8.312668164062499,2.2649147705078123,0.24899697265624998,4.366412213740458,-34.80916030534351,-11.32824427480916,0.0
13.09000039100647,-9.878476049804688,0.9888052856445312,1.7621324218749999,6.137404580152672,35.80152671755725,-20.625954198473284,-9.210493786621093,1.5251064575195312,1.47482822265625,0.9618320610687023,-29.267175572519083,-8.687022900763358,0.0
13.100000619888306,-10.50815108642578,1.1252747802734375,1.7908628417968748,1.5267175572519085,31.66412213740458,-22.076335877862597,-10.275913525390624,-0.296881005859375,1.898601916503906,6.0,-27.633587786259543,-6.580152671755725,0.0
13.110000848770142,-10.43153663330078,0.6775590698242188,1.608903515625,7.450381679389313,29.389312977099237,-21.17557251908397,-10.742782849121093,-0.9888052856445312,2.3415292236328122,21.572519083969464,-33.83206106870229,-7.557251908396947,0.0
13.12000060081482,-8.839392529296875,1.5945383056640625,1.5442600708007812,12.625954198473282,23.358778625954198,-18.16793893129771,-9.337386474609374,0.3711012573242187,1.697488977050781,28.045801526717558,-40.458015267175576,-11.633587786259541,0.0
13.130000829696655,-11.015721838378905,3.5338416503906247,2.9735984619140625,4.549618320610687,19.129770992366414,-16.916030534351144,-9.133879333496093,1.2832920898437499,1.1420341918945311,24.793893129770993,-40.01526717557252,-12.564885496183207,0.0
13.140000343322754,-8.420407238769531,-0.15322890625,0.5961562133789062,11.770992366412214,12.900763358778626,-9.34351145038168,-9.495403784179686,1.0007762939453124,1.6448165405273436,19.328244274809162,-36.6412213740458,-12.01526717557252,0.0
13.150000810623169,-10.570400329589843,2.442085693359375,1.7334020019531249,3.3587786259541983,8.427480916030534,-8.290076335877863,-9.4618849609375,1.3527239379882812,1.8004396484374998,18.564885496183205,-35.25190839694657,-12.687022900763358,0.0
13.160000324249268,-10.625466967773438,2.1906945190429687,1.5610194824218748,5.0534351145038165,9.099236641221374,-6.305343511450381,-11.77228956298828,-1.4772224243164063,2.4947581298828125,33.41984732824427,-36.44274809160305,-10.717557251908397,0.0
13.170000553131104,-9.70369932861328,1.1252747802734375,0.6440402465820312,0.2595419847328244,2.595419847328244,-4.3816793893129775,-8.463502868652343,2.2673089721679687,0.8451531860351562,36.0,-45.11450381679389,-16.9618320610687,0.0
13.18000054359436,-9.952696301269532,1.139639990234375,0.6919242797851562,2.4427480916030535,4.259541984732825,-3.068702290076336,-9.859322436523437,1.4030021728515625,1.7932570434570312,24.47328244274809,-35.099236641221374,-13.17557251908397,0.0
13.190000534057617,-9.955090502929687,1.0103531005859374,0.39743747558593745,0.5190839694656488,2.595419847328244,-4.229007633587786,-10.043675964355469,1.3263877197265623,2.059013427734375,28.366412213740457,-36.29007633587786,-12.595419847328245,0.0
13.200000524520874,-9.93354268798828,0.6943184814453125,0.0143652099609375,2.1374045801526718,2.1526717557251906,-4.290076335877862,-10.453084448242187,0.97683427734375,1.917755529785156,32.656488549618324,-37.69465648854962,-13.419847328244275,0.0
13.210000276565552,-9.72285294189453,0.7541735229492187,-0.21068974609375,4.183206106870229,3.267175572519084,-4.152671755725191,-8.087613208007811,3.1196447631835937,0.93852705078125,28.259541984732824,-38.36641221374046,-14.534351145038167,0.0
13.220000267028809,-9.816226806640625,1.1109095703125,-0.16280571289062498,3.0839694656488548,3.4656488549618323,-4.732824427480916,-9.042899670410156,3.2417490478515623,1.4532804077148436,13.297709923664122,-27.801526717557252,-11.709923664122137,0.0
13.230000257492065,-9.550470422363281,0.5195417602539062,-0.5913678100585937,3.786259541984733,3.2977099236641223,-4.5038167938931295,-8.504204296874999,2.3223756103515623,1.4125789794921875,5.129770992366412,-25.81679389312977,-10.13740458015267,0.0
13.240000247955322,-9.923965881347655,-0.22505495605468748,-0.3854664672851562,26.763358778625953,16.18320610687023,-5.114503816793893,-9.600748657226562,0.74699091796875,2.7174188842773437,10.854961832061068,-21.358778625954198,-9.068702290076336,0.0
13.250000238418579,-10.608707556152343,0.6344634399414062,-0.8379705810546875,18.595419847328245,10.091603053435115,-7.32824427480916,-10.27830772705078,0.5530605834960938,1.8100164550781248,24.18320610687023,-26.12213740458015,-10.80916030534351,0.0
13.260000944137573,-9.950302099609374,1.0007762939453124,-0.43574470214843747,13.19083969465649,8.687022900763358,-8.610687022900763,-8.465897070312499,1.6400281372070311,1.139639990234375,24.671755725190838,-26.3206106870229,-11.038167938931299,0.0
13.270000696182251,-10.304643945312499,2.4109610717773435,0.15322890625,-4.9465648854961835,6.091603053435114,-9.664122137404581,-8.300697155761718,3.555389465332031,0.9217676391601562,15.633587786259541,-22.53435114503817,-11.450381679389313,0.0
13.280000925064087,-9.60793126220703,0.2657563842773437,-0.9169792358398436,-6.106870229007634,5.435114503816794,-7.801526717557252,-8.307879760742187,3.4763808105468748,1.139639990234375,0.4580152671755725,-15.17557251908397,-8.793893129770993,0.0
13.290000677108765,-9.78031378173828,0.20350714111328125,-0.6344634399414062,-6.549618320610687,7.190839694656488,-9.297709923664122,-9.0021982421875,2.3678654418945313,1.927332336425781,-6.99236641221374,-6.793893129770993,-7.374045801526718,0.0
13.300000667572021,-9.85692823486328,-0.49320554199218747,-0.5482721801757812,-5.816793893129771,7.32824427480916,-9.83206106870229,-7.350199096679687,2.808398547363281,1.2401964599609374,-18.38167938931298,-1.6946564885496183,-7.740458015267175,0.0
13.310000658035278,-7.630320690917968,-2.7581203125,-1.7334020019531249,13.312977099236642,10.916030534351146,-8.16793893129771,-7.8338278320312495,1.3862427612304686,1.886630908203125,-17.801526717557252,-1.2671755725190839,-5.572519083969466,0.0
13.320000648498535,-10.235212097167969,1.5801730957031248,0.9457096557617187,9.877862595419847,13.221374045801527,-13.664122137404581,-8.834604125976561,0.8451531860351562,1.3144167114257812,-15.954198473282442,0.3511450381679389,-5.175572519083969,0.0
13.330000400543213,-9.34696328125,1.0510545288085937,0.8906430175781249,6.442748091603053,9.038167938931299,-12.778625954198473,-8.379705810546875,0.8643067993164062,1.9321207397460936,-14.320610687022901,1.2213740458015268,-5.709923664122138,0.0
13.34000039100647,-9.624690673828125,1.9033903198242186,1.0773907470703123,2.1526717557251906,3.49618320610687,-12.045801526717558,-8.40843623046875,0.7685387329101562,2.370259643554687,-13.068702290076336,1.1908396946564885,-5.7251908396946565,0.0
13.350000858306885,-10.426748229980468,2.1021090576171875,1.39821376953125,-10.198473282442748,-4.931297709923665,-9.908396946564885,-9.105148913574219,0.8738836059570312,1.4173673828125,-12.244274809160306,1.7099236641221374,-6.0,0.0
13.360000610351562,-9.897629663085937,1.3144167114257812,1.1324573852539062,-3.786259541984733,-6.885496183206107,-7.129770992366412,-8.508992700195313,0.8978256225585937,1.675941162109375,-11.694656488549619,2.6106870229007635,-7.038167938931298,0.0
13.370000839233398,-10.189722265624999,1.6160861206054686,1.9129671264648436,0.6259541984732825,-8.030534351145038,-5.282442748091603,-8.748412866210938,0.74699091796875,1.6424223388671875,-8.442748091603054,2.4885496183206106,-7.816793893129771,0.0
13.380000591278076,-10.211270080566406,1.618480322265625,1.7908628417968748,3.312977099236641,-11.099236641221374,-3.114503816793893,-8.319850769042969,0.9217676391601562,1.7980454467773437,-6.122137404580153,2.4427480916030535,-8.717557251908397,0.0
13.390000820159912,-10.101136804199218,1.5203180541992187,1.8291700683593748,6.106870229007634,-14.748091603053435,-1.83206106870229,-8.889670764160156,0.34715924072265625,1.9393033447265624,-0.32061068702290074,3.267175572519084,-8.748091603053435,0.0
13.40000057220459,-9.897629663085937,1.5107412475585937,1.9895815795898437,8.458015267175572,-17.603053435114504,-0.33587786259541985,-8.650250598144531,0.7302315063476562,1.3958195678710936,2.8702290076335877,3.480916030534351,-9.923664122137405,0.0
13.410000562667847,-9.718064538574218,1.3766659545898436,1.848323681640625,11.099236641221374,-20.47328244274809,0.04580152671755725,-8.975862023925782,0.5386953735351562,1.6065093139648436,6.9465648854961835,4.778625954198473,-10.610687022900763,0.0
13.420000314712524,-9.488221179199218,1.599326708984375,2.080561242675781,13.664122137404581,-23.251908396946565,0.7175572519083969,-6.976703637695312,2.530671154785156,0.7350199096679687,2.4732824427480917,5.129770992366412,-13.954198473282442,0.0
13.43000054359436,-10.194510668945313,1.9680337646484374,2.5857377929687497,14.213740458015268,-26.748091603053435,2.2900763358778624,-7.939172705078125,1.3239935180664062,1.848323681640625,-4.412213740458015,11.648854961832061,-11.038167938931299,0.0
13.440000534057617,-10.417171423339843,1.5586252807617187,2.9376854370117185,16.229007633587788,-31.96946564885496,3.5267175572519083,-9.153032946777342,0.7302315063476562,1.714248388671875,2.015267175572519,11.969465648854962,-10.122137404580153,0.0
13.450000524520874,-10.848127722167968,1.6352397338867186,3.1483751831054687,22.80916030534351,-36.85496183206107,5.312977099236641,-8.695740429687499,0.10773907470703124,1.5921441040039062,6.412213740458015,15.587786259541986,-10.091603053435115,0.0
13.46000051498413,-11.06360587158203,1.47482822265625,4.278438366699218,33.89312977099237,-42.152671755725194,8.320610687022901,-8.48505068359375,2.2385785522460937,0.36152445068359373,11.801526717557252,15.099236641221374,-11.19083969465649,0.0
13.470000505447388,-12.741941235351561,4.972756848144531,7.264007836914062,33.267175572519086,-51.16030534351145,9.84732824427481,-8.245630517578125,4.177881896972656,-0.7637503295898437,7.1603053435114505,21.022900763358777,-10.549618320610687,0.0
13.480000257492065,-14.367604162597656,5.434837768554687,9.167398156738281,30.290076335877863,-66.91603053435115,13.404580152671755,-7.513004809570312,5.837063647460937,-1.2976572998046874,-10.702290076335878,30.38167938931298,-9.648854961832061,0.0
13.490000486373901,-15.547945581054687,6.584054565429687,9.442731347656249,25.954198473282442,-92.41221374045801,20.595419847328245,-10.04846436767578,3.2920272827148436,0.6823474731445313,-22.244274809160306,40.717557251908396,-2.1068702290076335,0.0
13.500000715255737,-15.140931298828123,7.134720947265625,7.764395983886718,15.770992366412214,-113.31297709923665,28.16793893129771,-9.90241806640625,1.9488801513671874,1.0869675537109373,-23.72519083969466,37.267175572519086,-2.9770992366412212,0.0
13.510000705718994,-15.27740079345703,7.785943798828124,6.732495068359374,-4.870229007633588,-135.78625954198472,37.02290076335878,-9.600748657226562,2.8850130004882812,1.005564697265625,-32.274809160305345,38.0,-4.198473282442748,0.0
13.520000696182251,-16.060304736328124,6.1650692749023435,7.259219433593749,-18.091603053435115,-153.46564885496184,49.954198473282446,-11.755530151367187,0.9864110839843749,2.7940333374023436,-36.13740458015267,39.12977099236641,1.099236641221374,0.0
13.530000686645508,-14.997279199218749,4.484339709472656,7.170633972167968,-28.53435114503817,-172.53435114503816,61.86259541984733,-11.401188305664062,0.7302315063476562,3.0071172851562498,-25.450381679389313,27.801526717557252,1.0687022900763359,0.0
13.540000677108765,-14.8248966796875,1.2569558715820313,5.590460876464843,-41.31297709923664,-185.93893129770993,70.03053435114504,-10.69968721923828,2.3535002319335936,2.6312276245117188,-25.282442748091604,21.786259541984734,-0.5343511450381679,0.0
13.550000667572021,-15.52639776611328,-1.5275006591796874,7.7763669921875,-28.83969465648855,-195.55725190839695,76.38167938931298,-10.340556970214843,1.8315642700195311,2.31758720703125,-34.10687022900763,19.740458015267176,1.7099236641221374,0.0
13.560000658035278,-15.646107849121092,-3.8043864379882812,6.940790612792968,-6.0458015267175576,-202.13740458015266,80.36641221374046,-10.876858142089842,-0.8930372192382812,2.0638018310546875,-31.84732824427481,15.419847328244275,2.885496183206107,0.0
13.570000410079956,-15.368380456542967,-3.7205893798828122,3.2824504760742186,4.488549618320611,-201.84732824427482,75.64885496183206,-11.463437548828125,-2.9975404785156248,1.7884686401367187,-21.46564885496183,8.534351145038167,1.099236641221374,0.0
13.580000638961792,-13.678074084472655,-3.67749375,-0.19153613281249998,8.549618320610687,-197.6030534351145,72.21374045801527,-10.807426293945312,-2.7629087158203123,0.5458779785156249,-13.221374045801527,2.717557251908397,-5.374045801526718,0.0
13.590001106262207,-12.820949890136719,-3.1172505615234374,-1.139639990234375,14.259541984732824,-185.32824427480915,71.29770992366412,-11.073182678222656,-2.77727392578125,0.5817910034179687,-10.045801526717558,3.572519083969466,-7.526717557251908,0.0
13.600000619888306,-9.555258825683593,-4.7884033203125,-3.651157531738281,20.091603053435115,-169.38931297709922,71.95419847328245,-10.20169327392578,-1.5897499023437498,0.22744915771484372,-11.17557251908397,4.625954198473282,-8.702290076335878,0.0
13.610000848770142,-9.880870251464843,-4.402936853027343,-5.190629199218749,22.80916030534351,-146.35114503816794,69.80152671755725,-8.846575134277343,-0.9050082275390624,-0.40940848388671874,-20.99236641221374,9.923664122137405,-6.595419847328245,0.0
13.62000060081482,-9.425971936035156,-4.671087438964843,-2.233790148925781,28.870229007633586,-128.793893129771,65.66412213740458,-9.414000927734374,-0.6967126831054687,-0.19153613281249998,-29.389312977099237,15.435114503816793,-3.1755725190839694,0.0
13.630000591278076,-8.59278975830078,-4.110844250488281,-0.36152445068359373,29.938931297709924,-117.38931297709924,56.091603053435115,-10.66137999267578,-2.2553379638671873,0.3711012573242187,-29.389312977099237,21.17557251908397,1.5725190839694656,0.0
13.640000581741333,-10.496180078124999,-0.35673604736328124,0.36631285400390623,21.450381679389313,-110.77862595419847,45.38931297709924,-11.001356628417968,-2.5354595581054684,0.3591302490234375,-24.30534351145038,23.16030534351145,3.1297709923664123,0.0
13.650000810623169,-11.698069311523437,2.3295582153320313,0.6105214233398437,13.86259541984733,-104.59541984732824,47.19083969465649,-11.961431494140625,-4.764461303710937,0.33758243408203126,-7.603053435114504,23.755725190839694,3.9389312977099236,0.0
13.660000562667847,-11.654973681640625,3.6559459350585937,0.7589619262695312,5.236641221374046,-95.31297709923665,54.87022900763359,-9.694122521972655,-1.5969325073242187,-1.455674609375,-4.488549618320611,19.69465648854962,0.9618320610687023,0.0
13.670000791549683,-11.238382592773437,3.1603461914062496,0.6272808349609375,-17.908396946564885,-89.90839694656489,58.534351145038165,-10.32379755859375,-0.8738836059570312,-0.7637503295898437,-5.297709923664122,26.931297709923665,3.648854961832061,0.0
13.68000054359436,-10.421959826660157,1.9991583862304687,0.6631938598632812,-44.93129770992366,-87.96946564885496,55.282442748091604,-9.943119494628906,-0.1771709228515625,-0.5339069702148437,-5.435114503816794,28.702290076335878,4.595419847328245,0.0
13.690000534057617,-7.762001782226562,-0.5793968017578125,-0.4261678955078125,-57.61832061068702,-83.26717557251908,51.49618320610687,-8.259995727539062,0.9097966308593749,-0.6153098266601562,-14.030534351145038,30.870229007633586,5.450381679389313,0.0
13.700000524520874,-6.888118176269531,-1.7453730102539062,-0.6655880615234374,-60.900763358778626,-73.7557251908397,45.06870229007634,-8.348581188964843,1.7238251953125,-0.814028564453125,-20.412213740458014,36.94656488549618,6.656488549618321,0.0
13.71000075340271,-4.6351744140625,-3.306392492675781,-1.5849614990234373,-56.33587786259542,-62.16793893129771,39.11450381679389,-7.058106494140625,0.9002198242187499,-1.3335703247070312,-31.31297709923664,39.17557251908397,9.389312977099237,0.0
13.720000505447388,-4.355052819824219,-2.8012159423828122,-1.3215993164062498,-47.80152671755725,-48.19847328244275,31.00763358778626,-10.735600244140624,-1.3551181396484375,2.3726538452148436,-25.786259541984734,47.282442748091604,15.17557251908397,0.0
13.730000257492065,-3.641580725097656,-3.1771056030273437,-0.6775590698242188,-39.64885496183206,-36.458015267175576,22.99236641221374,-8.973467822265624,-0.040701428222656245,-0.11252747802734374,-12.442748091603054,32.2442748091603,10.778625954198473,0.0
13.74000072479248,-4.185064501953125,-1.9393033447265624,0.7254431030273437,-34.030534351145036,-26.076335877862597,16.748091603053435,-9.390058911132812,2.473210314941406,0.70868369140625,-19.572519083969464,34.38167938931298,11.84732824427481,0.0
13.750000715255737,-3.1292215698242187,-1.8555062866210936,1.2042834350585936,-31.053435114503817,-17.236641221374047,10.183206106870228,-9.586383447265625,1.89620771484375,0.6679822631835937,-32.656488549618324,40.045801526717554,15.725190839694656,0.0
13.760000705718994,-3.0334535034179684,-1.2785036865234374,1.369483349609375,-15.282442748091603,-3.969465648854962,4.305343511450381,-6.500257507324219,4.1754876953124995,-1.6304513305664061,-46.152671755725194,34.61068702290076,15.114503816793894,0.0
13.770000696182251,-3.775656018066406,-1.3910311645507811,1.4604630126953124,-25.022900763358777,-4.351145038167939,-0.916030534351145,-10.383652600097655,-0.833182177734375,2.8131869506835936,-48.6412213740458,47.404580152671755,24.061068702290076,0.0
13.780000448226929,-4.067748620605468,-0.5674257934570313,2.5617957763671875,-22.198473282442748,1.0534351145038168,-6.809160305343512,-10.709264025878905,-4.04141240234375,2.5067291381835934,-17.267175572519083,37.9236641221374,21.954198473282442,0.0
13.790000438690186,-4.927267016601562,0.21787235107421873,3.0406361083984375,-22.732824427480917,4.33587786259542,-9.648854961832061,-10.273519323730468,-2.990357873535156,2.003946789550781,2.900763358778626,28.259541984732824,18.885496183206108,0.0
13.8000009059906,-4.7189714721679685,0.28490999755859375,3.8091748413085935,-23.053435114503817,8.610687022900763,-10.793893129770993,-8.418013037109375,0.05746083984375,-0.0909796630859375,1.7099236641221374,24.48854961832061,15.19083969465649,0.0
13.810000658035278,-5.9376201171875,0.5243301635742187,4.015076184082031,-26.15267175572519,11.938931297709924,-11.49618320610687,-8.647856396484375,-0.1388636962890625,1.4939818359375,-8.473282442748092,31.770992366412212,16.702290076335878,0.0
13.820000648498535,-5.779602807617187,0.04548983154296875,4.553771557617187,-20.564885496183205,15.34351145038168,-10.580152671755725,-9.373299499511718,-0.201112939453125,1.7741034301757812,0.7480916030534351,27.31297709923664,17.267175572519083,0.0
13.830000638961792,-6.53138212890625,0.718260498046875,5.465962390136719,-8.213740458015268,18.229007633587788,-7.8320610687022905,-9.610325463867188,-1.6735469604492186,2.051830822753906,2.4732824427480917,30.229007633587788,19.374045801526716,0.0
13.840000629425049,-6.598419775390624,1.0630255371093749,6.315903979492187,6.0,18.396946564885496,-4.427480916030534,-9.888052856445311,-1.22583125,1.0390835205078124,9.022900763358779,28.15267175572519,18.3206106870229,0.0
13.850000381469727,-7.417236743164062,2.3295582153320313,7.144297753906249,15.465648854961833,18.931297709923665,-1.251908396946565,-10.1131078125,-1.235408056640625,1.2713210815429687,1.1450381679389312,31.709923664122137,16.931297709923665,0.0
13.860000610351562,-7.419630944824219,2.9041666137695312,7.8362220336914055,18.213740458015266,15.938931297709924,2.7480916030534353,-8.001421948242188,0.9121908325195311,-1.0797849487304687,-16.412213740458014,35.7557251908397,13.694656488549619,0.0
13.870000839233398,-7.572859851074218,0.4955997436523437,7.572859851074218,24.35114503816794,11.465648854961833,8.351145038167939,-10.36210478515625,-3.1028853515624997,2.9544448486328125,-6.9465648854961835,42.94656488549618,21.17557251908397,0.0
13.880000591278076,-9.86411083984375,4.146757275390625,12.445060229492187,56.10687022900763,10.80916030534351,12.091603053435115,-9.191340173339842,-1.7334020019531249,0.74699091796875,7.587786259541985,36.88549618320611,20.045801526717558,0.0
13.890000820159912,-10.66856259765625,6.5409589355468745,13.778630554199218,42.83969465648855,-2.3969465648854964,22.763358778625953,-9.141061938476563,-1.7645266235351562,1.3766659545898436,-4.106870229007634,43.7557251908397,15.541984732824428,0.0
13.90000057220459,-21.918916198730468,25.49824768066406,17.83680236816406,-26.748091603053435,6.1679389312977095,11.007633587786259,-10.613495959472656,-2.6408044311523438,1.6400281372070311,12.244274809160306,36.88549618320611,16.9618320610687,0.0
13.910000562667847,-15.219939953613281,11.362881079101562,9.528922607421874,-204.59541984732823,-87.81679389312977,14.122137404580153,-9.49300958251953,1.3120225097656248,-0.2537853759765625,1.2671755725190839,29.83206106870229,16.763358778625953,0.0
13.920000553131104,-7.848193041992187,-0.4525041137695312,2.1835119140624997,-181.93893129770993,-102.21374045801527,32.93129770992366,-10.778695874023438,0.201112939453125,-0.34715924072265625,-14.091603053435115,28.50381679389313,21.450381679389313,0.0
13.93000054359436,-2.6958710693359373,-7.132326745605468,-0.59376201171875,-105.54198473282443,-80.29007633587786,45.23664122137404,-11.434707128906249,-1.5873557006835937,0.5506663818359374,5.083969465648855,25.66412213740458,23.801526717557252,0.0
13.940000534057617,-0.9265560424804687,-10.9941740234375,-2.1906945190429687,-27.328244274809162,-31.709923664122137,40.12213740458015,-11.058817468261719,-1.4724340209960938,-0.14604630126953125,21.19083969465649,21.099236641221374,22.30534351145038,0.0
13.950000524520874,0.4261678955078125,-13.397952490234374,-0.603338818359375,22.549618320610687,5.786259541984733,20.519083969465647,-10.51533369140625,-0.9624690673828125,-1.1827356201171875,22.977099236641223,19.572519083969464,17.61832061068702,0.0
13.960000276565552,-3.201047619628906,-7.685387329101562,5.394136340332031,56.29007633587786,38.030534351145036,-1.984732824427481,-10.050858569335936,0.3806780639648437,-1.7262193969726563,22.748091603053435,17.221374045801525,15.267175572519085,0.0
13.970000505447388,-6.330269189453125,0.8499415893554687,9.318232861328125,75.09923664122137,48.54961832061068,-12.50381679389313,-9.907206469726562,1.0079588989257813,-0.40222587890625,10.65648854961832,21.328244274809162,15.145038167938932,0.0
13.980000257492065,-8.2743609375,5.755660791015624,8.67658681640625,67.41984732824427,49.19083969465649,-11.908396946564885,-10.35492218017578,2.195482922363281,-1.5035586425781249,3.6030534351145036,20.82442748091603,16.412213740458014,0.0
13.990000247955322,-9.042899670410156,4.393360046386719,7.963114721679687,41.87786259541985,44.25954198473283,-9.511450381679388,-10.527304699707031,2.674323254394531,-1.9105729248046874,-4.763358778625954,20.47328244274809,15.938931297709924,0.0
14.000000715255737,-8.815450512695312,1.1420341918945311,5.327098693847656,24.946564885496183,37.86259541984733,-7.694656488549619,-10.101136804199218,3.670311145019531,-3.7397429931640622,-20.9618320610687,21.328244274809162,14.702290076335878,0.0
14.010000705718994,-10.9941740234375,2.5043349365234375,2.942473840332031,8.458015267175572,39.49618320610687,-13.007633587786259,-12.248735693359373,2.70065947265625,-1.8459294799804686,-35.61832061068702,31.755725190839694,15.770992366412214,0.0
14.020000696182251,-11.678915698242188,1.8267758666992187,3.0741549316406247,-2.122137404580153,42.36641221374046,-18.793893129770993,-14.657302563476561,1.0606313354492187,-0.16759411621093748,-26.076335877862597,32.412213740458014,19.801526717557252,0.0
14.030000686645508,-11.956643090820311,2.612074011230469,2.2553379638671873,-12.01526717557252,38.51908396946565,-20.198473282442748,-14.762647436523437,1.5011644409179687,-0.8738836059570312,-14.01526717557252,21.46564885496183,20.045801526717558,0.0
14.040000677108765,-10.682927807617187,1.1085153686523437,2.1691467041015624,-4.748091603053435,48.412213740458014,-17.603053435114504,-14.595053320312498,2.990357873535156,-1.7956512451171873,-19.236641221374047,18.946564885496183,18.793893129770993,0.0
14.050000429153442,-11.3006318359375,1.1228805786132812,2.2553379638671873,2.427480916030534,59.00763358778626,-19.206106870229007,-14.884751721191405,3.756502404785156,-0.9241618408203125,-21.19083969465649,19.053435114503817,20.458015267175572,0.0
14.060000658035278,-11.628637463378906,2.6599580444335937,1.448492004394531,3.49618320610687,66.70229007633588,-20.48854961832061,-14.875174914550781,3.8762124877929685,-0.16998831787109375,-22.671755725190838,15.435114503816793,22.580152671755727,0.0
14.070000648498535,-11.305420239257812,3.076549133300781,1.0007762939453124,-0.7633587786259542,70.77862595419847,-18.763358778625953,-14.324508532714843,3.7612908081054686,0.4740519287109375,-26.15267175572519,10.80916030534351,23.587786259541986,0.0
14.080000638961792,-11.765106958007811,3.9695863525390624,1.4796166259765624,-3.83206106870229,78.21374045801527,-16.53435114503817,-14.209586853027343,3.6056677001953124,-0.0143652099609375,-28.259541984732824,4.809160305343512,25.374045801526716,0.0
14.090152263641357,-10.87206973876953,3.754108203125,0.7948749511718749,-13.618320610687023,79.41984732824427,-11.908396946564885,-12.935871569824219,3.1938650146484373,0.36152445068359373,-29.52671755725191,0.13740458015267176,25.587786259541986,0.0
14.100000858306885,-10.692504614257812,2.9544448486328125,0.6871358764648438,-16.03053435114504,86.04580152671755,-9.786259541984732,-12.71081661376953,2.73896669921875,0.3016694091796875,-29.236641221374047,-2.2748091603053435,25.66412213740458,0.0
14.110000848770142,-10.714052429199219,2.6503812377929687,1.216254443359375,-20.106870229007633,87.58778625954199,-8.458015267175572,-11.609483850097655,2.3295582153320313,0.14125789794921875,-28.580152671755727,-4.931297709923665,23.480916030534353,0.0
14.12000060081482,-10.374075793457031,1.8339584716796873,2.001552587890625,-21.022900763358777,90.16793893129771,-8.595419847328245,-10.905588562011719,2.0542250244140625,-0.2657563842773437,-26.16793893129771,-6.549618320610687,21.480916030534353,0.0
14.130000591278076,-9.6151138671875,0.82360537109375,1.7860744384765623,-20.53435114503817,90.25954198473282,-8.931297709923664,-10.156203442382813,1.7405846069335937,-0.5722141967773438,-20.763358778625953,-7.282442748091603,19.267175572519083,0.0
14.140000820159912,-9.208099584960937,0.5434837768554687,1.9393033447265624,-16.33587786259542,93.61832061068702,-11.19083969465649,-10.050858569335936,0.7996633544921875,-0.22026655273437498,-12.458015267175572,-7.00763358778626,17.755725190839694,0.0
14.150000810623169,-8.930372192382812,0.6943184814453125,2.4875755249023435,-13.618320610687023,92.04580152671755,-14.366412213740459,-8.499415893554687,1.43652099609375,-0.7733271362304687,-11.49618320610687,-8.259541984732824,12.885496183206106,0.0
14.160000801086426,-8.315062365722655,0.5027823486328125,2.5139117431640625,-7.267175572519084,90.91603053435115,-14.870229007633588,-8.0828248046875,0.5099649536132812,-0.10295067138671875,-7.404580152671755,-7.450381679389313,10.610687022900763,0.0
14.170000553131104,-8.207323291015625,-0.0047884033203125,3.0813375366210938,-1.5114503816793894,88.61068702290076,-17.541984732824428,-8.911218579101561,0.45968671875,0.09816226806640624,12.366412213740459,-12.732824427480915,8.732824427480915,0.0
14.18000054359436,-8.865728747558594,1.6424223388671875,4.055777612304687,2.687022900763359,86.85496183206106,-20.366412213740457,-7.319074475097656,-0.6416460449218749,1.6400281372070311,3.7404580152671754,-6.824427480916031,3.648854961832061,0.0
14.190016984939575,-8.042123376464843,0.9241618408203125,3.7995980346679685,-0.9312977099236641,77.64885496183206,-19.267175572519083,-7.1395093505859375,-0.3902548706054687,0.7206546997070312,16.244274809160306,-14.274809160305344,1.8625954198473282,0.0
14.200000286102295,-8.786720092773438,1.0821791503906248,4.434061474609375,3.8473282442748094,76.13740458015268,-20.16793893129771,-7.754819177246094,-0.15322890625,0.6679822631835937,19.587786259541986,-9.450381679389313,0.015267175572519083,0.0
14.21000051498413,-8.453926062011718,0.689530078125,4.2497079467773435,5.847328244274809,68.51908396946565,-20.198473282442748,-7.3861121215820305,-0.9528922607421875,-0.29448680419921874,32.595419847328245,-15.068702290076336,-1.6488549618320612,0.0
14.220000505447388,-8.358157995605469,0.2705447875976562,4.3071687866210935,11.725190839694656,65.55725190839695,-20.80916030534351,-6.0884548217773435,-0.0909796630859375,-1.235408056640625,48.778625954198475,-18.641221374045802,-4.885496183206107,0.0
14.230000257492065,-8.808267907714843,1.0366893188476562,5.054159704589844,13.32824427480916,61.20610687022901,-21.954198473282442,-4.963180041503906,3.0621839233398433,-2.592920397949219,40.595419847328245,-15.938931297709924,-10.274809160305344,0.0
14.24000072479248,-8.154650854492187,0.9648632690429687,5.123591552734375,13.572519083969466,54.94656488549618,-19.786259541984734,-7.089231115722656,3.8187516479492185,-2.499546533203125,29.755725190839694,-6.396946564885496,-9.572519083969466,0.0
14.250000476837158,-8.580818749999999,1.2114660400390624,4.6255976074218745,16.610687022900763,50.030534351145036,-18.793893129770993,-8.590395556640624,1.8339584716796873,-0.4429273071289062,24.778625954198475,2.732824427480916,-3.9389312977099236,0.0
14.260000944137573,-9.449913952636718,0.9121908325195311,4.829104748535156,19.51145038167939,47.954198473282446,-19.435114503816795,-8.817844714355468,0.4477157104492187,0.14604630126953125,31.083969465648856,2.8702290076335877,-2.900763358778626,0.0
14.27000093460083,-8.520963708496094,1.1659762084960936,4.347870214843749,24.106870229007633,41.74045801526717,-18.229007633587788,-7.589619262695312,1.0630255371093749,0.01915361328125,35.31297709923664,-1.6946564885496183,-5.083969465648855,0.0
14.280000686645508,-10.24000050048828,2.6862942626953124,4.450820886230469,21.358778625954198,38.97709923664122,-17.603053435114504,-8.992621435546875,-0.296881005859375,1.6017209106445311,40.80916030534351,-1.6488549618320612,-3.3893129770992365,0.0
14.290000677108765,-9.789890588378906,2.0973206542968748,4.168305090332031,13.572519083969466,29.114503816793892,-14.854961832061068,-8.377311608886718,0.47644613037109373,0.26336218261718747,51.954198473282446,-14.732824427480915,-4.8396946564885495,0.0
14.300000667572021,-9.943119494628906,2.114080065917969,4.357447021484375,17.83206106870229,30.15267175572519,-13.86259541984733,-8.192958081054687,1.8770541015625,0.016759411621093748,52.85496183206107,-21.984732824427482,-8.564885496183207,0.0
14.3100004196167,-9.622296472167967,2.3415292236328122,3.287238879394531,8.396946564885496,21.770992366412212,-11.923664122137405,-9.442731347656249,2.2266075439453124,0.48123453369140623,43.74045801526717,-20.519083969465647,-10.274809160305344,0.0
14.320000886917114,-9.267954626464844,2.528276953125,3.0238766967773434,5.801526717557252,22.27480916030534,-10.534351145038167,-8.90643017578125,3.323151904296875,-0.0526724365234375,29.801526717557252,-27.16030534351145,-12.534351145038167,0.0
14.330000638961792,-9.648632690429688,3.1651345947265623,2.901772412109375,-1.9236641221374047,20.38167938931298,-10.610687022900763,-10.366893188476562,2.43250888671875,0.49320554199218747,18.229007633587788,-26.15267175572519,-10.488549618320612,0.0
14.340000629425049,-10.900800158691405,2.3822306518554686,2.549824768066406,-10.50381679389313,18.198473282442748,-10.061068702290076,-21.531055529785156,-9.603142858886718,11.640608471679688,70.1526717557252,-32.56488549618321,-9.725190839694656,0.0
14.350000858306885,-9.129090930175781,-1.6472107421875,1.0271125122070313,3.9389312977099236,17.083969465648856,-10.51908396946565,-13.5224509765625,-5.427655163574219,1.2042834350585936,150.59541984732823,-88.18320610687023,-12.748091603053435,0.0
14.360000610351562,-9.37808790283203,-0.3064578125,0.316034619140625,15.17557251908397,22.106870229007633,-12.67175572519084,-10.120290417480469,5.626373901367187,0.2346317626953125,142.54961832061068,-104.58015267175573,-27.282442748091604,0.0
14.370000839233398,-9.035717065429687,2.3965958618164063,1.1827356201171875,14.549618320610687,30.396946564885496,-15.358778625954198,-8.935160595703124,4.199429711914062,-0.9959878906249999,92.0,-95.63358778625954,-34.33587786259542,0.0
14.380000591278076,-10.472238061523436,5.904101293945312,1.9488801513671874,-19.267175572519083,24.198473282442748,-15.893129770992367,-9.380482104492186,7.350199096679687,-1.2042834350585936,60.595419847328245,-93.52671755725191,-34.35114503816794,0.0
14.390000820159912,-9.794678991699218,5.346252307128906,1.429338391113281,-42.274809160305345,19.908396946564885,-9.34351145038168,-7.790732202148437,9.76116016845703,-1.7166425903320313,15.007633587786259,-79.20610687022901,-27.87786259541985,0.0
14.40000057220459,-8.750807067871094,3.2225954345703123,1.4915876342773438,-46.091603053435115,27.00763358778626,-5.022900763358779,-9.720458740234374,6.600813977050781,-0.296881005859375,-18.931297709923665,-58.12213740458015,-16.82442748091603,0.0
14.410000801086426,-10.69968721923828,3.5673604736328124,1.43652099609375,-61.63358778625954,23.206106870229007,-5.511450381679389,-8.257601525878906,5.437231970214843,-0.46686932373046874,-42.01526717557252,-45.48091603053435,-16.16793893129771,0.0
14.420000553131104,-9.97903251953125,1.2976572998046874,0.612915625,-66.91603053435115,20.18320610687023,-1.297709923664122,-8.406042028808594,2.5258827514648434,-0.3112462158203125,-57.12977099236641,-35.12977099236641,-13.633587786259541,0.0
14.43000054359436,-8.82981572265625,-0.39743747558593745,0.699106884765625,-62.83969465648855,21.587786259541986,-1.5419847328244274,-5.7077767578125,2.9089550170898435,-2.2864625854492187,-62.778625954198475,-34.58015267175573,-16.3206106870229,0.0
14.440000534057617,-9.698910925292969,-1.158793603515625,1.0582371337890624,-57.89312977099237,21.6793893129771,-5.343511450381679,-9.131485131835937,1.0462661254882812,-0.07422025146484375,-51.3587786259542,-28.763358778625953,-10.625954198473282,0.0
14.450000524520874,-9.78031378173828,-2.29843359375,1.199495031738281,-44.6412213740458,20.977099236641223,-7.786259541984733,-9.390058911132812,0.3711012573242187,0.3327940307617187,-35.038167938931295,-28.9618320610687,-10.854961832061068,0.0
14.460000276565552,-7.6614453125,-4.446032482910156,0.9097966308593749,-17.297709923664122,26.015267175572518,-9.114503816793894,-9.540893615722656,0.7206546997070312,0.699106884765625,-20.198473282442748,-28.412213740458014,-11.404580152671755,0.0
14.470000505447388,-9.667786303710937,-2.8802245971679685,2.039859814453125,0.24427480916030533,34.36641221374046,-17.954198473282442,-10.601524951171875,-0.34237083740234375,1.7094599853515624,-1.1450381679389312,-32.213740458015266,-10.229007633587786,0.0
14.480000257492065,-8.489839086914062,-2.3774422485351563,1.1563994018554686,13.694656488549619,31.17557251908397,-21.31297709923664,-9.861716638183593,0.6751648681640625,1.1611878051757811,16.244274809160306,-40.47328244274809,-10.961832061068701,0.0
14.490000486373901,-9.74200655517578,-0.44532150878906246,2.528276953125,20.0,36.0763358778626,-26.259541984732824,-8.542511523437499,1.905784521484375,0.7015010864257812,10.732824427480915,-37.908396946564885,-10.229007633587786,0.0
14.500000715255737,-7.706935144042968,-0.33758243408203126,1.5418658691406248,20.977099236641223,31.0381679389313,-26.03053435114504,-8.959102612304687,1.8171990600585937,1.1324573852539062,8.610687022900763,-35.86259541984733,-7.938931297709924,0.0
14.510000705718994,-9.241618408203124,0.565031591796875,2.281674182128906,24.85496183206107,33.74045801526717,-28.564885496183205,-10.766724865722656,0.29927520751953124,2.2002713256835937,14.595419847328245,-35.7557251908397,-6.961832061068702,0.0
14.52000093460083,-9.050082275390624,0.5889736083984375,2.418143676757812,26.65648854961832,32.33587786259542,-28.763358778625953,-8.049305981445311,1.5466542724609373,1.0917559570312498,7.740458015267175,-35.38931297709924,-10.610687022900763,0.0
14.530000686645508,-9.062053283691405,1.7501614135742187,2.868253588867187,28.9618320610687,32.48854961832061,-27.72519083969466,-9.572018237304688,0.354341845703125,2.2074539306640624,1.4809160305343512,-29.099236641221374,-8.488549618320612,0.0
14.540000677108765,-9.660603698730467,1.9321207397460936,3.1771056030273437,27.87786259541985,27.557251908396946,-26.885496183206108,-10.884040747070312,-1.8339584716796873,3.5482068603515624,16.38167938931298,-31.83206106870229,-7.526717557251908,0.0
14.550000667572021,-9.981426721191406,1.956062756347656,3.517082238769531,32.54961832061068,26.16793893129771,-23.923664122137403,-9.160215551757812,-1.419761584472656,2.205059729003906,34.67175572519084,-41.908396946564885,-12.51908396946565,0.0
14.560000658035278,-9.279925634765624,1.3718775512695311,2.583343591308594,38.36641221374046,22.427480916030536,-19.374045801526716,-8.892064965820312,-0.076614453125,1.43652099609375,39.98473282442748,-40.10687022900763,-14.427480916030534,0.0
14.570000648498535,-10.556035119628906,3.361459130859375,3.1962592163085937,39.83206106870229,23.34351145038168,-17.786259541984734,-8.59997236328125,1.3263877197265623,0.8164227661132812,36.87022900763359,-36.56488549618321,-14.854961832061068,0.0
14.580000638961792,-10.32379755859375,3.105279553222656,2.9855694702148434,31.358778625954198,16.702290076335878,-14.763358778625955,-9.631873278808593,0.3711012573242187,1.9943699829101562,40.19847328244275,-33.969465648854964,-12.625954198473282,0.0
14.59000039100647,-10.62307276611328,3.1603461914062496,2.935291235351562,27.72519083969466,14.335877862595419,-12.106870229007633,-8.959102612304687,-0.0383072265625,1.9536685546875,47.57251908396947,-38.87022900763359,-13.099236641221374,0.0
14.600000619888306,-10.635043774414061,3.1794998046874996,2.5737667846679684,18.091603053435115,9.297709923664122,-9.877862595419847,-8.671798413085938,1.7525556152343749,1.608903515625,44.88549618320611,-39.48091603053435,-14.961832061068701,0.0
14.610000848770142,-11.128249316406249,4.065354418945312,2.6910826660156246,6.534351145038168,6.122137404580153,-8.473282442748092,-8.118737829589843,2.906560815429687,1.5634136840820312,24.366412213740457,-34.961832061068705,-15.557251908396946,0.0
14.62000060081482,-10.213664282226562,2.906560815429687,1.936909143066406,-10.885496183206106,-2.6412213740458017,-4.427480916030534,-7.771578588867187,3.651157531738281,1.6424223388671875,0.10687022900763359,-26.80916030534351,-13.541984732824428,0.0
14.630000829696655,-9.476250170898437,1.3192051147460937,1.889025109863281,-11.419847328244275,-2.3206106870229006,-2.2900763358778624,-9.749189160156249,1.2569558715820313,2.8850130004882812,-6.122137404580153,-24.931297709923665,-8.610687022900763,0.0
14.640000581741333,-9.6917283203125,0.5434837768554687,1.879448303222656,-9.893129770992367,-3.2213740458015265,-3.7557251908396947,-9.035717065429687,0.45489831542968745,3.0334535034179684,-2.427480916030534,-25.69465648854962,-10.01526717557252,0.0
14.650000810623169,-9.179369165039063,-0.6560112548828124,1.5227122558593749,-3.1908396946564888,-2.9770992366412212,-3.816793893129771,-9.928754284667969,-0.15562310791015624,3.4620156005859375,5.633587786259542,-26.427480916030536,-11.435114503816793,0.0
14.660000801086426,-8.494627490234375,-1.2952630981445312,1.6831237670898436,16.763358778625953,5.267175572519084,-6.106870229007634,-9.986215124511718,-0.7781155395507812,3.6750995483398436,14.534351145038167,-30.396946564885496,-13.48091603053435,0.0
14.670000553131104,-9.509768994140625,0.07900865478515624,2.3726538452148436,18.68702290076336,8.091603053435115,-11.297709923664122,-9.81862100830078,0.011971008300781249,2.767697119140625,25.893129770992367,-33.12977099236641,-14.732824427480915,0.0
14.680000305175781,-9.725247143554688,0.28969840087890625,2.35589443359375,21.17557251908397,7.00763358778626,-13.374045801526718,-8.640673791503906,1.3144167114257812,0.8810662109374999,26.793893129770993,-32.80916030534351,-17.221374045801525,0.0
14.690000534057617,-9.138667736816405,1.2593500732421874,2.0542250244140625,17.022900763358777,3.0229007633587788,-14.290076335877863,-9.203311181640624,1.9919757812499999,1.4125789794921875,19.236641221374047,-22.198473282442748,-17.61832061068702,0.0
14.700000524520874,-7.824251025390624,0.6464344482421874,1.5897499023437498,15.419847328244275,-0.33587786259541985,-13.48091603053435,-7.742848168945312,2.31758720703125,1.369483349609375,4.793893129770993,-12.763358778625955,-16.396946564885496,0.0
14.71000051498413,-9.349357482910156,-0.0909796630859375,2.5163059448242184,15.48091603053435,1.099236641221374,-14.259541984732824,-8.420407238769531,1.0223241088867188,1.2785036865234374,8.748091603053435,-13.450381679389313,-14.916030534351146,0.0
14.720000982284546,-3.42849677734375,-6.818686328125,-0.7350199096679687,64.41221374045801,13.740458015267176,-10.625954198473282,-8.343792785644531,0.26336218261718747,1.5729904907226562,15.557251908396946,-9.038167938931299,-15.877862595419847,0.0
14.730000734329224,-6.785167504882812,-2.8107927490234372,-0.9050082275390624,105.49618320610686,42.595419847328245,-22.259541984732824,-8.317456567382813,-0.10773907470703124,1.47482822265625,26.0,-6.396946564885496,-15.938931297709924,0.0
14.740000247955322,-8.70771143798828,-0.12449848632812499,-0.7158662963867187,99.41984732824427,43.343511450381676,-30.763358778625953,-8.652644799804687,0.296881005859375,1.4006079711914061,34.732824427480914,-8.442748091603054,-15.19083969465649,0.0
14.750000476837158,-10.532093103027343,3.1028853515624997,0.6200982299804687,88.58015267175573,46.38167938931298,-31.297709923664122,-8.130708837890625,1.1013327636718748,1.0414777221679687,37.45038167938932,-8.442748091603054,-15.526717557251908,0.0
14.760000944137573,-7.240065820312499,0.22505495605468748,-1.0582371337890624,64.62595419847328,38.458015267175576,-24.870229007633586,-7.955932116699218,2.2553379638671873,0.5865794067382812,34.97709923664122,-7.343511450381679,-15.954198473282442,0.0
14.770000696182251,-9.184157568359375,3.2154128295898436,0.8714894042968749,66.50381679389314,48.01526717557252,-25.96946564885496,-6.121973645019531,3.4332851806640625,0.373495458984375,22.213740458015266,-0.6717557251908397,-16.748091603053435,0.0
14.780000686645508,-4.900930798339844,-2.437297290039062,-1.3623007446289062,57.587786259541986,38.10687022900763,-22.15267175572519,-8.990227233886719,2.360682836914062,1.3287819213867187,17.572519083969464,5.4961832061068705,-10.549618320610687,0.0
