timestamp,Thigh_L_Acc_X,Thigh_L_Acc_Y,Thigh_L_Acc_Z,Thigh_L_Gyr_X,Thigh_L_Gyr_Y,Thigh_L_Gyr_Z,Thigh_R_Acc_X,Thigh_R_Acc_Y,Thigh_R_Acc_Z,Thigh_R_Gyr_X,Thigh_R_Gyr_Y,Thigh_R_Gyr_Z,gpio_output
10.000000238418579,-8.793902697753905,12.67250938720703,3.181894006347656,85.00763358778626,-7.343511450381679,40.44274809160305,-11.154585534667968,-1.956062756347656,1.6328455322265625,-9.541984732824428,42.38167938931298,18.977099236641223,0.0
10.010000705718994,-9.354145886230468,11.705251916503906,1.6448165405273436,32.56488549618321,-7.114503816793893,49.83206106870229,-11.822567797851562,-3.3207577026367185,1.6472107421875,-7.175572519083969,33.02290076335878,20.3206106870229,1.0
10.020000696182251,-12.89038173828125,8.961496813964843,5.116408947753906,-18.366412213740457,-5.511450381679389,52.229007633587784,-12.375628381347655,-1.9728221679687499,-0.35194764404296874,-10.259541984732824,21.419847328244273,14.396946564885496,1.0
10.030000686645508,-16.864756494140625,3.3494881225585935,9.909600671386718,-67.34351145038168,-2.3053435114503817,48.778625954198475,-15.045163232421874,-2.1499930908203124,0.3112462158203125,-17.221374045801525,17.297709923664122,14.244274809160306,1.0
10.040000915527344,-18.308460095214844,-0.4860229370117187,9.540893615722656,-92.54961832061069,-8.458015267175572,35.61832061068702,-15.033192224121093,0.3854664672851562,-0.8451531860351562,-20.48854961832061,1.5572519083969465,10.625954198473282,1.0
10.050000667572021,-15.50724415283203,-3.308786694335937,4.498704919433593,-97.34351145038168,-5.297709923664122,27.587786259541986,-14.839261889648437,2.612074011230469,-1.4221557861328125,-34.0763358778626,-7.7251908396946565,8.67175572519084,1.0
10.060000658035278,-10.927136376953124,-4.814739538574218,-1.7118541870117185,-87.23664122137404,9.297709923664122,24.977099236641223,-14.200010046386717,5.276820458984375,-2.5378537597656248,-47.74045801526717,-12.213740458015268,9.358778625954198,1.0
10.070000648498535,-7.266402038574219,-5.999869360351562,-4.3071687866210935,-60.10687022900763,28.595419847328245,22.99236641221374,-13.874398620605469,6.742071875,-3.0334535034179684,-68.27480916030534,-13.17557251908397,10.900763358778626,1.0
10.080000638961792,-8.432378247070313,-2.4588451049804685,-1.5298948608398437,-34.6412213740458,52.717557251908396,7.038167938931298,-14.334085339355468,6.785167504882812,-3.2824504760742186,-85.6793893129771,-11.893129770992367,14.580152671755725,1.0
10.090000867843628,-4.742913488769531,-4.903325,-3.854664672851562,-35.29770992366412,49.80152671755725,1.7557251908396947,-13.49611475830078,5.904101293945312,-3.1316157714843746,-96.06106870229007,-10.427480916030534,18.82442748091603,1.0
10.100000858306885,-4.977545251464844,-4.220977526855468,-3.5338416503906247,-10.16793893129771,70.56488549618321,-8.687022900763358,-14.39633458251953,2.6503812377929687,-2.0183119995117185,-84.22900763358778,-9.618320610687023,26.290076335877863,1.0
10.110000610351562,-7.6614453125,-1.139639990234375,-3.189076611328125,3.3740458015267176,84.58015267175573,-17.96946564885496,-11.362881079101562,3.5314474487304683,-3.0909143432617188,-74.1526717557252,-16.48854961832061,24.442748091603054,1.0
10.12000060081482,-9.399635717773437,1.4604630126953124,-2.2577321655273437,-4.2748091603053435,93.32824427480917,-22.137404580152673,-9.926360083007811,4.3239281982421875,-3.181894006347656,-71.1145038167939,-16.900763358778626,26.82442748091603,1.0
10.130000352859497,-10.266336718749999,1.6328455322265625,-1.177947216796875,-22.732824427480917,95.52671755725191,-24.0,-10.127473022460936,2.133233679199219,-1.6903063720703124,-62.10687022900763,-12.748091603053435,32.42748091603053,1.0
10.140000343322754,-10.204087475585936,0.4477157104492187,-0.29927520751953124,-34.961832061068705,96.53435114503817,-24.625954198473284,-8.578424548339843,0.8810662109374999,-0.8212111694335937,-56.97709923664122,-12.687022900763358,31.328244274809162,1.0
10.150000810623169,-10.728417639160156,0.5602431884765625,1.1372457885742187,-42.274809160305345,93.55725190839695,-25.64885496183206,-6.734889270019531,0.6153098266601562,-1.7525556152343749,-51.89312977099237,-15.435114503816793,27.022900763358777,1.0
10.160000562667847,9.052476477050782,-22.273258044433593,-12.629413757324219,19.96946564885496,78.25954198473282,-2.854961832061069,-6.421248852539062,-2.1499930908203124,-0.2442085693359375,-35.3587786259542,-13.740458015267176,24.916030534351144,1.0
10.170000791549683,-1.9129671264648436,-15.71793389892578,-5.42047255859375,171.9236641221374,178.77862595419847,-41.603053435114504,-7.580042456054687,-4.012681982421875,-0.076614453125,-10.076335877862595,-10.83969465648855,17.984732824427482,1.0
10.18000054359436,-18.279729675292966,7.8170684204101555,5.087678527832031,171.08396946564886,177.16030534351145,-78.19847328244275,-7.505822204589843,-0.17956512451171874,-2.1116858642578125,8.793893129770993,-15.557251908396946,4.687022900763359,1.0
10.190000295639038,-18.945317736816406,18.157625390625,6.56968935546875,27.938931297709924,113.26717557251908,-64.12213740458016,-7.742848168945312,2.0254946044921875,-2.47081611328125,4.625954198473282,-11.603053435114504,5.129770992366412,1.0
10.200000524520874,-22.002713256835936,22.052991491699217,10.091559997558592,-98.27480916030534,76.68702290076335,-53.587786259541986,-7.4603323730468745,4.331110803222656,-3.5673604736328124,-10.641221374045802,-6.412213740458015,4.015267175572519,1.0
10.210000276565552,-15.29655440673828,10.912771166992187,5.552153649902343,-200.29007633587787,6.122137404580153,-29.17557251908397,-7.467514978027343,4.350264416503906,-3.859453076171875,-25.81679389312977,-0.030534351145038167,7.358778625954199,0.0
10.220000505447388,-11.264718811035156,1.3934253662109375,1.8076222534179687,-179.32824427480915,-10.763358778625955,-5.816793893129771,-8.90643017578125,1.4772224243164063,-2.252943762207031,-25.328244274809162,5.541984732824427,10.916030534351146,0.0
10.230000495910645,-7.285555651855469,-6.794744311523437,-1.5346832641601562,-124.29007633587786,-11.083969465648854,5.358778625954199,-8.257601525878906,1.5562310791015623,-1.7980454467773437,-18.564885496183205,5.740458015267175,8.01526717557252,0.0
10.240000486373901,-10.752359655761719,-2.978386865234375,-0.49320554199218747,-73.57251908396947,3.5267175572519083,-1.3282442748091603,-7.544129431152343,1.7884686401367187,-1.2952630981445312,-11.251908396946565,2.549618320610687,4.732824427480916,0.0
10.250000476837158,-6.801926916503906,-6.873752966308594,-0.9265560424804687,-19.81679389312977,17.64885496183206,0.4122137404580153,-6.940790612792968,2.0087351928710935,-0.2825157958984375,-11.923664122137405,5.893129770992366,3.7557251908396947,0.0
10.260000467300415,-8.664615808105468,-3.861847277832031,1.7884686401367187,14.67175572519084,37.20610687022901,-11.282442748091603,-9.284714038085937,0.9696516723632812,0.19871873779296872,-0.030534351145038167,4.580152671755725,3.145038167938931,0.0
10.270000696182251,-11.374852087402344,2.2026655273437497,4.050989208984375,7.083969465648855,32.152671755725194,-18.641221374045802,-9.97184991455078,0.6655880615234374,0.6775590698242188,-6.0458015267175576,3.053435114503817,-1.099236641221374,0.0
10.280000925064087,-16.010026501464843,9.907206469726562,6.804321118164062,-27.068702290076335,20.27480916030534,-19.236641221374047,-10.838550915527343,0.8714894042968749,0.5722141967773438,-4.320610687022901,-5.938931297709924,-4.656488549618321,0.0
10.290000915527344,-12.457031237792968,6.924031201171875,4.3071687866210935,-66.18320610687023,-11.358778625954198,-4.931297709923665,-11.092336291503905,0.354341845703125,0.4836287353515625,-1.9236641221374047,-14.13740458015267,-7.465648854961832,0.0
10.3000009059906,-9.655815295410155,2.3295582153320313,3.0358477050781247,-60.79389312977099,-18.671755725190838,8.229007633587786,-11.889605444335936,-0.3495534423828125,1.4772224243164063,13.48091603053435,-28.16793893129771,-11.251908396946565,0.0
10.310000658035278,-8.55448253173828,-0.13646949462890623,2.090138049316406,-35.02290076335878,-15.236641221374045,13.541984732824428,-11.688492504882811,-1.2593500732421874,1.8028338500976562,30.12213740458015,-39.343511450381676,-17.297709923664122,0.0
10.320000648498535,-7.6279264892578125,-1.3910311645507811,0.7900865478515624,-2.2900763358778624,-7.923664122137405,15.83206106870229,-11.058817468261719,0.00718260498046875,0.7589619262695312,46.94656488549618,-56.717557251908396,-25.572519083969464,0.0
10.330000638961792,-7.323862878417969,-1.3024457031249999,-0.09337386474609374,16.885496183206108,-2.0916030534351147,15.435114503816793,-9.56962403564453,3.229778039550781,-0.612915625,37.66412213740458,-61.51145038167939,-33.12977099236641,0.0
10.34000039100647,-6.720524060058593,-1.6256629272460936,-0.2825157958984375,26.47328244274809,3.8931297709923665,12.900763358778626,-11.3389390625,1.656787548828125,1.13006318359375,32.82442748091603,-57.16030534351145,-30.53435114503817,0.0
10.350000619888306,-9.636661682128906,2.597708801269531,0.7589619262695312,22.53435114503817,11.038167938931299,4.137404580152672,-9.720458740234374,3.478775012207031,-0.5147533569335937,35.74045801526717,-65.89312977099236,-34.274809160305345,0.0
10.360000371932983,-9.655815295410155,3.2632968627929686,0.3950432739257812,6.8396946564885495,5.8320610687022905,4.977099236641221,-8.40843623046875,4.752490295410156,-0.9552864624023437,14.83969465648855,-57.267175572519086,-34.50381679389313,0.0
10.37000036239624,-9.440337145996093,2.4779987182617185,0.28012159423828126,-6.320610687022901,5.3893129770992365,5.770992366412214,-9.64623848876953,2.6527754394531247,0.584185205078125,7.6183206106870225,-50.61068702290076,-28.80916030534351,0.0
10.380000591278076,-9.81862100830078,0.8571241943359375,0.6584054565429687,-13.19083969465649,5.038167938931298,4.519083969465649,-9.246406811523437,1.6639701538085936,0.737414111328125,14.992366412213741,-51.32824427480916,-27.19083969465649,0.0
10.390000820159912,-9.662997900390625,-0.5003881469726562,0.2059013427734375,-12.793893129770993,6.885496183206107,4.870229007633588,-9.265560424804686,2.602497204589844,-0.5219359619140624,18.38167938931298,-53.63358778625954,-27.557251908396946,0.0
10.40000057220459,-9.394847314453125,-0.9265560424804687,0.19871873779296872,-13.435114503816793,11.389312977099237,2.8244274809160306,-8.240842114257813,3.9624037475585934,-0.86191259765625,5.0534351145038165,-49.603053435114504,-28.045801526717558,0.0
10.410000562667847,-9.564835632324218,-0.6009446166992187,0.3016694091796875,-15.740458015267176,15.694656488549619,-0.24427480916030533,-8.13310303955078,3.402160559082031,-1.3287819213867187,-8.50381679389313,-43.343511450381676,-24.625954198473284,0.0
10.420000553131104,-10.235212097167969,-0.3902548706054687,0.45968671875,-19.908396946564885,17.740458015267176,-3.282442748091603,-10.041281762695311,1.7884686401367187,1.0797849487304687,-7.7251908396946565,-36.83969465648855,-20.03053435114504,0.0
10.43000078201294,-10.165780249023436,-0.9337386474609375,0.41419688720703124,-20.83969465648855,19.099236641221374,-5.419847328244275,-9.828197814941406,0.07422025146484375,1.1755530151367186,10.274809160305344,-43.45038167938932,-18.702290076335878,0.0
10.440000534057617,-9.957484704589843,-1.3096283081054687,0.5339069702148437,-17.022900763358777,20.68702290076336,-8.15267175572519,-9.907206469726562,0.1867477294921875,0.9433154541015625,21.541984732824428,-48.61068702290076,-20.885496183206108,0.0
10.450000762939453,-9.631873278808593,-1.2282254516601563,0.9121908325195311,-12.83969465648855,22.702290076335878,-10.16793893129771,-8.135497241210937,1.8219874633789062,-0.29927520751953124,15.816793893129772,-49.63358778625954,-23.404580152671755,0.0
10.46000051498413,-8.731653454589843,-1.7405846069335937,1.1468225952148436,-8.01526717557252,23.61832061068702,-11.923664122137405,-9.191340173339842,1.1276689819335937,1.0486603271484374,5.740458015267175,-39.98473282442748,-19.862595419847327,0.0
10.470000505447388,-9.447519750976562,-1.3838485595703125,1.7429788085937499,3.5419847328244276,30.244274809160306,-17.099236641221374,-10.98699141845703,-0.44532150878906246,1.3814543579101561,19.740458015267176,-43.02290076335878,-16.99236641221374,0.0
10.480000495910645,-9.052476477050782,-0.7996633544921875,2.1787235107421874,10.854961832061068,28.137404580152673,-19.938931297709924,-9.181763366699219,0.354341845703125,0.2657563842773437,30.33587786259542,-47.786259541984734,-21.236641221374047,0.0
10.490000486373901,-9.375693701171874,-0.0909796630859375,1.93451494140625,16.595419847328245,29.083969465648856,-20.48854961832061,-8.315062365722655,1.2665326782226562,-0.8571241943359375,27.00763358778626,-42.93129770992366,-22.045801526717558,0.0
10.500000476837158,-10.041281762695311,0.7278373046875,3.394977954101562,20.076335877862597,29.96946564885496,-21.114503816793892,-13.000515014648437,-3.6176387084960937,3.5218706420898434,39.48091603053435,-33.725190839694655,-12.870229007633588,0.0
10.510000944137573,-10.177751257324218,0.7972691528320313,3.3542765258789062,24.0,25.419847328244273,-21.52671755725191,-11.180921752929686,-2.8036101440429686,1.1540052001953125,88.29007633587786,-59.786259541984734,-19.923664122137403,0.0
10.52000093460083,-10.78348427734375,1.429338391113281,2.6791116577148437,25.66412213740458,22.748091603053435,-19.893129770992367,-8.214505895996094,0.16519991455078123,-0.16759411621093748,88.01526717557252,-56.778625954198475,-26.870229007633586,0.0
10.530000686645508,-11.394005700683593,3.4572271972656248,3.438073583984375,15.709923664122137,20.931297709923665,-18.595419847328245,-10.647014782714843,-0.239420166015625,1.158793603515625,91.78625954198473,-55.282442748091604,-20.259541984732824,0.0
10.540001153945923,-10.59194814453125,2.1835119140624997,3.1747114013671873,6.580152671755725,12.106870229007633,-14.67175572519084,-12.073958972167969,-0.7733271362304687,2.446874096679687,92.07633587786259,-51.48091603053435,-17.587786259541986,0.0
10.550000667572021,-9.8449572265625,0.7517793212890624,2.9975404785156248,7.801526717557252,10.15267175572519,-13.083969465648854,-9.679757312011718,1.3383587280273437,0.5410895751953124,114.18320610687023,-72.38167938931298,-20.290076335877863,0.0
10.560000658035278,-9.804255798339844,0.29448680419921874,2.999934680175781,12.748091603053435,9.816793893129772,-13.282442748091603,-10.702081420898438,-0.33518823242187495,4.328716601562499,110.22900763358778,-57.02290076335878,-14.412213740458014,0.0
10.570000648498535,-9.100360510253905,0.3184288208007812,3.287238879394531,17.46564885496183,11.541984732824428,-15.19083969465649,-7.170633972167968,2.4564509033203126,-0.21787235107421873,121.83206106870229,-84.12213740458016,-20.763358778625953,0.0
10.580000638961792,-9.435548742675781,1.1037269653320312,2.9041666137695312,14.473282442748092,6.793893129770993,-15.389312977099237,-8.772354882812499,2.5139117431640625,0.5099649536132812,102.82442748091603,-66.58015267175573,-18.30534351145038,0.0
10.59000039100647,-8.930372192382812,1.956062756347656,3.294421484375,11.786259541984732,7.236641221374046,-14.335877862595419,-4.896142395019531,5.367800122070312,0.38307226562499996,66.73282442748092,-52.213740458015266,-19.34351145038168,0.0
10.600000858306885,-9.150638745117186,2.3127988037109373,3.6535517333984373,4.0458015267175576,6.244274809160306,-12.366412213740459,-7.721300354003906,4.163516687011718,0.679953271484375,42.25954198473283,-37.02290076335878,-11.725190839694656,0.0
10.610000371932983,-9.7683427734375,1.9105729248046874,3.8379052612304685,2.213740458015267,3.4656488549618323,-10.381679389312977,-8.204929089355469,3.1675287963867187,0.12210428466796874,25.61832061068702,-28.0,-8.229007633587786,0.0
10.62000060081482,-9.390058911132812,0.21068974609375,3.564966271972656,4.900763358778626,0.9007633587786259,-8.16793893129771,-6.600813977050781,2.5665841796874997,0.076614453125,14.977099236641221,-20.885496183206108,-8.992366412213741,0.0
10.630000591278076,-9.952696301269532,-0.584185205078125,4.304774584960938,19.96946564885496,5.847328244274809,-9.358778625954198,-8.113949426269532,0.7733271362304687,1.0510545288085937,12.335877862595419,-13.664122137404581,-5.8320610687022905,0.0
10.640000581741333,-9.758765966796874,-0.7637503295898437,4.860229370117187,26.9618320610687,1.7251908396946565,-11.603053435114504,-6.83783994140625,0.9935936889648437,0.5339069702148437,11.053435114503817,-11.541984732824428,-7.312977099236641,0.0
10.650000810623169,-10.330980163574218,-0.2561795776367187,6.1626750732421876,29.404580152671755,-2.427480916030534,-12.778625954198473,-6.967126831054687,0.6177040283203125,0.316034619140625,6.351145038167939,-3.312977099236641,-6.396946564885496,0.0
10.660000562667847,-10.876858142089842,0.02633621826171875,7.685387329101562,27.755725190839694,-10.702290076335878,-13.816793893129772,-7.043741284179687,0.9648632690429687,-0.51714755859375,10.076335877862595,-6.152671755725191,-6.33587786259542,0.0
10.670000791549683,-11.461043347167967,0.04548983154296875,8.456320263671875,22.885496183206108,-26.3206106870229,-14.198473282442748,-8.506598498535157,-0.40222587890625,0.36152445068359373,9.038167938931299,3.9236641221374047,-4.809160305343512,0.0
10.68000054359436,-10.800243688964843,-1.0342951171875,9.739612353515625,38.045801526717554,-34.396946564885496,-13.923664122137405,-6.912060192871094,0.33039982910156246,-0.4333505004882812,14.16793893129771,-1.6030534351145038,-7.3893129770992365,0.0
10.690000772476196,-10.766724865722656,-1.4413093994140624,11.164162341308593,55.954198473282446,-47.19083969465649,-15.526717557251908,-6.675034228515624,0.33518823242187495,-0.1005564697265625,14.473282442748092,2.351145038167939,-7.893129770992366,0.0
10.700000286102295,-11.915941662597655,0.6200982299804687,14.058752148437499,75.87786259541984,-63.45038167938932,-17.709923664122137,-6.586448767089843,0.9097966308593749,-0.009576806640625,14.793893129770993,1.2213740458015268,-6.244274809160306,0.0
10.71000051498413,-14.676456176757812,4.50109912109375,16.53675086669922,68.51908396946565,-94.16793893129771,-15.816793893129772,-6.770802294921874,1.5825672973632812,0.20350714111328125,14.65648854961832,-1.0381679389312977,-4.488549618320611,0.0
10.720000505447388,-15.399505078125,7.340622290039062,16.141707592773436,54.0,-134.3206106870229,-4.412213740458015,-7.400477331542969,1.5897499023437498,-0.45010991210937495,10.83969465648855,-1.0229007633587786,-4.809160305343512,0.0
10.730000495910645,-15.0164328125,8.188169677734374,14.449007019042968,25.129770992366414,-171.17557251908397,4.015267175572519,-7.333439685058593,1.9680337646484374,-1.9512743530273435,4.977099236641221,0.366412213740458,-9.053435114503817,0.0
10.740000486373901,-14.240711474609375,5.190629199218749,13.936647863769531,-2.931297709923664,-206.33587786259542,9.34351145038168,-9.363722692871093,1.7310078002929687,-2.291250988769531,-3.7251908396946565,12.106870229007633,-15.450381679389313,0.0
10.750000476837158,-15.310919616699218,0.18435352783203124,10.766724865722656,1.0534351145038168,-233.5267175572519,22.18320610687023,-14.080299963378906,1.1133037719726562,-0.9720458740234375,-6.519083969465649,31.099236641221374,-17.908396946564885,0.0
10.760000944137573,-14.271836096191405,-5.197811804199218,7.304709265136719,33.19083969465649,-240.68702290076337,38.47328244274809,-18.588581689453125,0.55545478515625,1.3096283081054687,15.465648854961833,27.572519083969464,-14.351145038167939,0.0
10.770000696182251,-12.873622326660156,-8.990227233886719,0.4165910888671875,67.57251908396947,-229.17557251908397,49.31297709923664,-16.54153927001953,4.027047192382812,2.0877438476562498,35.51145038167939,20.717557251908396,-9.664122137404581,0.0
10.780001163482666,-11.547234606933593,-9.986215124511718,-4.1754876953124995,95.25190839694656,-210.87022900763358,45.31297709923664,-14.547169287109375,4.678270043945313,2.5905261962890624,37.11450381679389,24.3206106870229,3.618320610687023,0.0
10.790000438690186,-10.436325036621094,-8.288726147460936,-7.362170104980469,121.86259541984732,-189.08396946564886,34.656488549618324,-12.07874737548828,3.593696691894531,0.507570751953125,40.412213740458014,15.969465648854962,13.755725190839694,0.0
10.800000667572021,-8.176198669433592,-4.534617944335937,-8.566453540039062,134.90076335877862,-162.0763358778626,23.083969465648856,-6.619967590332031,3.191470812988281,-2.530671154785156,15.572519083969466,21.96946564885496,10.83969465648855,0.0
10.810000896453857,-8.657433203124999,-1.5179238525390624,-6.830657336425781,100.33587786259542,-135.54198473282443,13.618320610687023,-6.572083557128906,0.33518823242187495,-4.062960217285156,-7.938931297709924,38.152671755725194,12.65648854961832,0.0
10.820000648498535,-12.071564770507813,0.8810662109374999,-1.1348515869140625,58.35114503816794,-115.48091603053435,1.5267175572519085,-7.850587243652344,-3.900154504394531,-6.193799694824218,-14.961832061068701,43.00763358778626,11.725190839694656,0.0
10.830000400543213,-13.036428039550781,2.310404602050781,1.5203180541992187,48.68702290076336,-103.8473282442748,-0.33587786259541985,-8.576030346679687,-5.204994409179688,-6.8569935546875,-23.69465648854962,50.44274809160305,3.816793893129771,0.0
10.840000629425049,-13.405135095214844,3.296815686035156,3.83072265625,44.35114503816794,-95.46564885496183,4.244274809160306,-9.066841687011719,-3.4907460205078125,-5.987898352050781,-13.053435114503817,56.595419847328245,-0.7022900763358778,0.0
10.850000619888306,-12.097900988769531,3.768473413085937,3.342305517578125,26.977099236641223,-92.33587786259542,9.404580152671755,-9.995791931152343,-0.5602431884765625,-2.829946362304687,-23.236641221374047,62.900763358778626,2.213740458015267,0.0
10.860000848770142,-10.32379755859375,2.7916391357421872,1.2856862915039062,5.755725190839694,-88.41221374045801,11.816793893129772,-11.750741748046874,-1.22583125,0.13168109130859373,-24.641221374045802,66.85496183206106,5.435114503816794,0.0
10.87000060081482,-8.664615808105468,2.6862942626953124,-1.5610194824218748,-23.87786259541985,-84.73282442748092,11.572519083969466,-11.89439384765625,-0.5578489868164063,0.8978256225585937,-15.17557251908397,63.25190839694657,1.465648854961832,0.0
10.880000591278076,-6.461950280761719,2.521094348144531,-2.978386865234375,-53.908396946564885,-74.25954198473282,12.65648854961832,-10.881646545410156,-0.15083470458984374,2.834734765625,-10.51908396946565,59.74045801526717,1.7709923664122138,0.0
10.890000820159912,-5.049371301269531,2.5234885498046875,-3.258508459472656,-81.00763358778626,-64.01526717557252,13.19083969465649,-10.845733520507812,0.852335791015625,2.461239306640625,-13.022900763358779,51.9236641221374,5.0534351145038165,0.0
10.90000057220459,-3.342305517578125,1.2832920898437499,-3.5338416503906247,-90.6412213740458,-48.36641221374046,16.48854961832061,-11.631031665039062,-0.07900865478515624,3.782838623046875,-17.358778625954198,45.786259541984734,12.748091603053435,0.0
10.910000801086426,-2.310404602050781,0.6512228515624999,-3.9360675292968748,-97.32824427480917,-30.15267175572519,19.0381679389313,-10.263942517089843,-0.00718260498046875,2.559401574707031,-18.18320610687023,34.93129770992366,11.83206106870229,0.0
10.920000553131104,-1.369483349609375,-1.1372457885742187,-4.716577270507813,-89.69465648854961,-8.900763358778626,22.427480916030536,-10.654197387695312,-0.46208092041015625,1.6735469604492186,-12.82442748091603,27.938931297709924,11.908396946564885,0.0
10.93000078201294,-1.0079588989257813,-1.0893617553710937,-4.819527941894531,-82.7175572519084,9.801526717557252,23.541984732824428,-9.227253198242186,-1.1156979736328125,2.2290017456054687,-10.030534351145038,24.47328244274809,10.748091603053435,0.0
10.940000534057617,-3.5410242553710933,1.407790576171875,-3.9695863525390624,-89.14503816793894,29.51145038167939,21.770992366412212,-9.095572106933593,-0.9026140258789062,1.7405846069335937,-7.251908396946565,21.480916030534353,11.206106870229007,0.0
10.950000524520874,-2.789244934082031,0.8116343627929687,-4.1946413085937495,-97.54198473282443,37.099236641221374,25.893129770992367,-8.671798413085938,-0.5410895751953124,0.7972691528320313,-7.603053435114504,18.549618320610687,11.007633587786259,0.0
10.96000051498413,-3.8857892944335934,1.005564697265625,-3.4069489624023435,-110.4885496183206,47.74045801526717,29.6793893129771,-8.264784130859374,-0.36391865234375,0.45010991210937495,-8.992366412213741,17.64885496183206,10.580152671755725,0.0
10.970000505447388,-1.5634136840820312,-2.4875755249023435,-2.77727392578125,-102.3206106870229,63.49618320610687,36.18320610687023,-8.245630517578125,-0.062249243164062495,-0.41419688720703124,-10.305343511450381,19.908396946564885,10.65648854961832,0.0
10.980000495910645,-2.549824768066406,-4.189852905273438,0.8307879760742187,-95.09923664122137,79.78625954198473,31.603053435114504,-7.702146740722656,-0.4213794921875,-0.08858546142578125,-7.648854961832061,22.213740458015266,10.045801526717558,0.0
10.990000486373901,-3.1100679565429687,-5.875370874023437,4.498704919433593,-89.1145038167939,88.33587786259542,23.72519083969466,-8.09479581298828,-0.4333505004882812,-0.05985504150390625,-3.1297709923664123,25.572519083969464,9.893129770992367,0.0
11.000000238418579,-4.034229797363281,-6.6702458251953125,8.427589843749999,-66.07633587786259,95.70992366412214,18.50381679389313,-8.762778076171875,-0.3687070556640625,-0.08858546142578125,1.1908396946564885,29.221374045801525,9.114503816793894,0.0
11.010000705718994,-6.023811376953125,-5.947196923828125,11.875240234375,-32.229007633587784,101.72519083969466,15.251908396946565,-9.291896643066405,-0.41898529052734373,0.11731588134765625,7.374045801526718,32.16793893129771,7.587786259541985,0.0
11.020000696182251,-7.448361364746093,-5.928043310546875,13.321338037109374,-1.3282442748091603,99.89312977099236,13.007633587786259,-9.627084875488281,0.3232172241210937,-0.33758243408203126,11.053435114503817,35.541984732824424,5.923664122137405,0.0
11.030000686645508,-7.951143713378905,-5.389347937011719,13.883975427246092,28.610687022900763,95.05343511450381,8.854961832061068,-9.70369932861328,0.9720458740234375,0.5339069702148437,4.916030534351145,45.87786259541985,6.854961832061068,0.0
11.040000915527344,-9.162609753417968,-5.382165332031249,14.044386938476562,45.954198473282446,83.08396946564885,1.1297709923664123,-10.58476553955078,0.5339069702148437,1.4341267944335936,5.358778625954199,51.02290076335878,10.351145038167939,0.0
11.050000667572021,-10.204087475585936,-4.311957189941406,14.305354919433594,56.396946564885496,68.01526717557252,-6.534351145038168,-9.801861596679688,0.6392518432617187,1.2832920898437499,4.183206106870229,51.847328244274806,8.106870229007633,0.0
11.060000658035278,-11.259930407714844,-1.7381904052734374,14.628572143554686,61.37404580152672,47.06870229007634,-12.595419847328245,-9.260772021484375,0.4429273071289062,0.6775590698242188,-5.526717557251908,56.0763358778626,4.809160305343512,0.0
11.070000648498535,-11.149797131347656,1.2689268798828124,14.140155004882812,70.04580152671755,29.72519083969466,-11.404580152671755,-9.064447485351561,0.2657563842773437,1.35990654296875,-18.18320610687023,64.10687022900764,6.1679389312977095,0.0
11.080000877380371,-11.959037292480469,4.352658618164062,13.532027783203125,71.16030534351145,14.977099236641221,-3.8473282442748094,-10.618284362792968,-1.1563994018554686,2.2266075439453124,-14.763358778625955,65.58778625954199,11.755725190839694,0.0
11.09000039100647,-11.21683477783203,7.072471704101562,12.287042919921875,77.70992366412214,2.519083969465649,10.229007633587786,-11.247959399414063,-1.0630255371093749,0.0909796630859375,-5.8320610687022905,55.55725190839695,8.83969465648855,0.0
11.100000619888306,-8.166621862792969,7.017405065917968,8.916006982421875,88.38167938931298,-5.923664122137405,29.87786259541985,-10.43871923828125,0.03591302490234375,0.07422025146484375,-8.381679389312977,51.52671755725191,8.625954198473282,0.0
11.110000610351562,-8.21690009765625,12.55758770751953,1.9297265380859374,80.83969465648855,0.07633587786259542,45.267175572519086,-12.255918298339843,-1.1252747802734375,0.5913678100585937,-10.198473282442748,50.82442748091603,15.022900763358779,0.0
11.120052814483643,-11.034875451660156,12.655749975585938,0.9840168823242187,22.99236641221374,-2.4885496183206106,51.43511450381679,-13.584700219726562,-2.0374656127929685,0.8906430175781249,-4.3816793893129775,39.12977099236641,16.99236641221374,0.0
11.130000352859497,-13.857639208984374,7.323862878417969,5.250484240722656,-35.404580152671755,-1.5877862595419847,51.343511450381676,-15.528791967773437,-0.8092401611328125,0.21068974609375,-4.656488549618321,29.541984732824428,15.725190839694656,0.0
11.140000343322754,-14.628572143554686,2.43250888671875,8.13310303955078,-80.3206106870229,-3.0839694656488548,45.343511450381676,-15.205574743652344,1.1707646118164061,0.26336218261718747,-18.916030534351144,16.290076335877863,13.114503816793894,0.0
11.150001049041748,-13.51526837158203,-2.5617957763671875,7.958326318359375,-102.4885496183206,-7.374045801526718,38.94656488549618,-15.370774658203125,3.1387983764648437,1.2593500732421874,-37.11450381679389,9.893129770992367,12.82442748091603,0.0
11.160000324249268,-11.281478222656249,-6.208164904785156,4.414907861328125,-91.98473282442748,2.595419847328244,34.10687022900763,-13.36203946533203,4.611232397460937,-0.5386953735351562,-61.61832061068702,1.984732824427481,12.106870229007633,0.0
11.170000791549683,-10.919953771972656,-4.367023828124999,0.20350714111328125,-69.7557251908397,17.81679389312977,28.717557251908396,-13.728352319335936,4.843469958496094,-0.7134720947265625,-83.0381679389313,2.4732824427480917,14.366412213740459,0.0
11.180000305175781,-9.95987890625,-3.028665100097656,-3.0214824951171875,-51.51145038167939,33.51145038167939,26.366412213740457,-16.029180114746094,2.8802245971679685,-0.07900865478515624,-79.63358778625954,0.7175572519083969,20.671755725190838,0.0
11.190000534057617,-7.299920861816406,-4.580107775878906,-3.7517140014648436,-38.900763358778626,42.29007633587786,20.793893129770993,-13.316549633789062,5.456385583496093,-2.2553379638671873,-82.33587786259542,-14.366412213740459,15.251908396946565,0.0
11.200000524520874,-4.733336682128906,-4.874594580078124,-3.1364041748046874,-16.82442748091603,61.14503816793893,11.083969465648854,-12.914323754882812,4.857835168457031,-1.6472107421875,-98.36641221374046,-8.030534351145038,20.580152671755727,0.0
11.21000051498413,-6.514622717285156,-2.3319524169921872,-2.990357873535156,-11.389312977099237,74.04580152671755,-1.6641221374045803,-12.31577333984375,3.373430139160156,-1.149216796875,-95.70992366412214,-6.732824427480916,23.938931297709924,0.0
11.220000505447388,-8.010998754882811,-1.1659762084960936,-2.959233251953125,-10.610687022900763,81.90839694656489,-8.488549618320612,-12.19366905517578,1.7693150268554687,-0.679953271484375,-81.7557251908397,-8.564885496183207,27.61832061068702,0.0
11.230000495910645,-9.890447058105469,-0.08140285644531249,-1.8195932617187498,-11.694656488549619,92.21374045801527,-12.290076335877863,-9.811438403320311,1.668758557128906,-1.2282254516601563,-77.96946564885496,-7.4961832061068705,26.458015267175572,0.0
11.240000486373901,-10.8409451171875,0.8954314208984374,-0.18914193115234373,-22.33587786259542,91.98473282442748,-14.16793893129771,-10.376469995117187,0.2059013427734375,-2.068590234375,-59.786259541984734,-10.01526717557252,26.977099236641223,0.0
11.250000476837158,-11.149797131347656,0.7158662963867187,1.3096283081054687,-28.778625954198475,88.13740458015268,-15.48091603053435,-8.535328918457031,0.12210428466796874,-1.5035586425781249,-48.6412213740458,-14.16793893129771,22.580152671755727,0.0
11.260000944137573,-11.247959399414063,0.8116343627929687,2.9855694702148434,-35.11450381679389,83.12977099236642,-16.610687022900763,-9.198522778320312,-1.2832920898437499,-0.3064578125,-28.3206106870229,-13.969465648854962,21.51145038167939,0.0
11.270000696182251,-11.537657800292967,0.9121908325195311,3.323151904296875,-38.50381679389313,72.25954198473282,-16.16793893129771,-8.099584216308592,-1.7094599853515624,-0.3232172241210937,-10.0,-18.427480916030536,14.320610687022901,0.0
11.280000925064087,-10.134655627441406,-0.04548983154296875,3.0238766967773434,-33.099236641221374,65.16030534351145,-15.251908396946565,-6.323086584472656,-1.139639990234375,-0.9050082275390624,-0.5038167938931297,-19.053435114503817,7.603053435114504,0.0
11.290000438690186,-9.26316622314453,0.1484405029296875,1.9991583862304687,-26.198473282442748,58.412213740458014,-14.977099236641221,-6.174646081542968,0.2920926025390625,-1.6903063720703124,1.297709923664122,-15.725190839694656,1.7709923664122138,0.0
11.3000009059906,-9.414000927734374,0.3806780639648437,2.77727392578125,-22.244274809160306,54.79389312977099,-15.48091603053435,-6.385335827636719,1.2761094848632812,-1.905784521484375,0.5038167938931297,-7.099236641221374,1.4961832061068703,0.0
11.310000658035278,-8.865728747558594,-0.3902548706054687,2.0757728393554684,-14.076335877862595,49.786259541984734,-14.16793893129771,-6.215347509765625,1.8507178833007811,-2.7054478759765623,-1.3129770992366412,-0.015267175572519083,1.9541984732824427,0.0
11.320000648498535,-9.023746057128905,-1.0295067138671874,2.35589443359375,-2.732824427480916,49.14503816793893,-15.145038167938932,-6.967126831054687,1.1468225952148436,-3.6248213134765623,8.412213740458014,3.648854961832061,2.4885496183206106,0.0
11.330000638961792,-9.234435803222656,-0.47884033203125,2.7269956909179687,9.694656488549619,46.44274809160305,-15.099236641221374,-7.132326745605468,1.3838485595703125,-3.708618371582031,19.603053435114504,9.114503816793894,-0.13740458015267176,0.0
11.340000629425049,-9.287108239746093,-0.19393033447265623,2.408566870117187,17.908396946564885,43.25190839694657,-13.465648854961833,-8.461108666992187,1.9967641845703124,-3.5003228271484375,27.480916030534353,11.389312977099237,-0.7938931297709924,0.0
11.350000619888306,-8.980650427246093,0.21308394775390624,2.7461493041992187,26.82442748091603,41.603053435114504,-13.49618320610687,-9.267954626464844,2.6910826660156246,-2.6791116577148437,30.82442748091603,9.755725190839694,-1.816793893129771,0.0
11.360000610351562,-9.011775048828124,0.6440402465820312,2.9640216552734375,30.549618320610687,39.969465648854964,-13.419847328244275,-9.315838659667968,3.5673604736328124,-1.216254443359375,29.49618320610687,5.633587786259542,-1.8931297709923665,0.0
11.37000060081482,-9.90241806640625,1.3192051147460937,3.766079211425781,29.938931297709924,38.82442748091603,-14.198473282442748,-9.737218151855469,4.367023828124999,-0.5410895751953124,23.19083969465649,0.5648854961832062,-0.8702290076335878,0.0
11.380000591278076,-8.690952026367187,1.7645266235351562,2.8275521606445313,26.671755725190838,32.458015267175576,-11.618320610687023,-9.605537060546874,4.513070129394531,0.33758243408203126,11.053435114503817,-6.320610687022901,-0.22900763358778625,0.0
11.390000343322754,-9.124302526855468,2.674323254394531,2.9089550170898435,20.763358778625953,32.0763358778626,-10.122137404580153,-9.579200842285156,4.2688615600585935,1.2617442749023438,-2.122137404580153,-12.80916030534351,-0.33587786259541985,0.0
11.40000057220459,-9.80665,3.394977954101562,2.4756045166015626,11.725190839694656,31.267175572519083,-7.8320610687022905,-9.739612353515625,4.228160131835938,1.3479355346679687,-15.633587786259541,-19.740458015267176,-0.9618320610687023,0.0
11.410000801086426,-9.988609326171874,3.845087866210937,2.2840683837890623,1.6793893129770991,30.106870229007633,-4.900763358778626,-9.660603698730467,3.9600095458984375,1.22583125,-30.885496183206108,-26.33587786259542,-2.2595419847328246,0.0
11.420000553131104,-10.189722265624999,3.3638533325195312,1.4772224243164063,-8.01526717557252,27.61832061068702,-1.297709923664122,-10.067617980957031,2.877830395507812,1.467645617675781,-40.94656488549618,-30.99236641221374,-2.2900763358778624,0.0
11.43000078201294,-9.270348828125,2.461239306640625,0.842758984375,-12.732824427480915,24.47328244274809,1.1755725190839694,-11.458649145507811,0.4525041137695312,1.5825672973632812,-32.93129770992366,-43.61832061068702,-3.66412213740458,0.0
11.440000534057617,-10.687716210937499,2.2385785522460937,1.2785036865234374,-16.198473282442748,26.595419847328245,0.5648854961832062,-11.982979309082031,-0.8930372192382812,2.0638018310546875,-22.137404580152673,-54.48854961832061,-9.770992366412214,0.0
11.450000524520874,-9.536105212402344,1.7573440185546874,0.38307226562499996,-19.770992366412212,24.48854961832061,3.5877862595419847,-11.820173596191406,-0.2920926025390625,1.467645617675781,-8.580152671755725,-69.5114503816794,-17.022900763358777,0.0
11.46000051498413,-9.976638317871092,2.2074539306640624,1.0007762939453124,-25.96946564885496,26.641221374045802,4.061068702290076,-9.502586389160156,2.7724855224609373,0.05985504150390625,-20.519083969465647,-73.1145038167939,-24.580152671755727,0.0
11.470000267028809,-10.754753857421875,2.398990063476562,1.4030021728515625,-37.038167938931295,27.404580152671755,4.99236641221374,-11.79144317626953,1.1755530151367186,0.7805097412109374,-20.68702290076336,-73.22137404580153,-21.083969465648856,0.0
11.480000495910645,-9.981426721191406,1.429338391113281,1.2378022583007813,-44.045801526717554,24.82442748091603,5.343511450381679,-9.22485899658203,3.1004911499023438,-0.25139117431640623,-23.6793893129771,-80.77862595419847,-25.938931297709924,0.0
11.490000486373901,-11.01332763671875,2.3151930053710936,1.4317325927734375,-59.57251908396947,20.396946564885496,4.99236641221374,-10.127473022460936,2.360682836914062,0.16998831787109375,-34.274809160305345,-69.90839694656489,-23.129770992366414,0.0
11.500000476837158,-10.144232434082031,0.7517793212890624,1.197100830078125,-63.786259541984734,17.954198473282442,6.99236641221374,-10.165780249023436,1.39821376953125,0.32082302246093747,-29.64885496183206,-73.80152671755725,-24.549618320610687,0.0
11.510000705718994,-8.671798413085938,-1.158793603515625,0.8044517578125,-55.969465648854964,19.450381679389313,7.297709923664122,-7.936778503417968,2.4851813232421875,-1.3742717529296875,-35.48091603053435,-70.13740458015268,-29.389312977099237,0.0
11.52000093460083,-10.199299072265624,0.15562310791015624,1.5514426757812498,-50.54961832061068,25.34351145038168,3.0839694656488548,-10.532093103027343,0.3758896606445312,0.4429273071289062,-34.12213740458015,-60.13740458015267,-25.450381679389313,0.0
11.530000686645508,-10.1131078125,-0.55545478515625,1.7788918334960937,-43.3587786259542,26.229007633587788,1.9541984732824427,-9.928754284667969,-0.062249243164062495,0.47644613037109373,-18.50381679389313,-65.5114503816794,-28.549618320610687,0.0
11.540001153945923,-9.476250170898437,-0.82360537109375,2.0159177978515626,-36.85496183206107,26.03053435114504,0.6717557251908397,-8.207323291015625,1.7166425903320313,-0.8858546142578124,-15.893129770992367,-60.900763358778626,-32.213740458015266,0.0
11.550000667572021,-8.475473876953124,-1.16837041015625,2.1021090576171875,-30.564885496183205,25.022900763358777,-0.0,-9.34696328125,0.5698199951171875,0.143652099609375,-10.793893129770993,-52.97709923664122,-28.442748091603054,0.0
11.560000658035278,-9.528922607421874,-1.3359645263671873,2.5617957763671875,-25.022900763358777,27.083969465648856,-3.1908396946564888,-10.761936462402343,-0.40462008056640625,0.45489831542968745,8.229007633587786,-55.847328244274806,-28.50381679389313,0.0
11.570000410079956,-10.12507882080078,-0.9241618408203125,3.2130186279296873,-19.022900763358777,25.083969465648856,-5.938931297709924,-8.068459594726562,1.6400281372070311,0.0143652099609375,13.84732824427481,-54.10687022900763,-31.374045801526716,0.0
11.580000638961792,-9.97903251953125,-0.6536170532226562,4.103661645507812,-15.129770992366412,22.717557251908396,-6.595419847328245,-8.355763793945313,1.6807295654296874,-0.22505495605468748,8.16793893129771,-47.14503816793893,-28.229007633587788,0.0
11.590000629425049,-9.514557397460937,-0.3327940307617187,3.5865140869140624,-10.045801526717558,19.00763358778626,-5.419847328244275,-9.753977563476562,0.7493851196289062,1.1611878051757811,14.946564885496183,-45.43511450381679,-25.72519083969466,0.0
11.600000619888306,-11.274295617675781,0.5770026000976562,4.786009118652344,-6.076335877862595,18.47328244274809,-6.137404580152672,-8.71489404296875,0.4333505004882812,1.2689268798828124,25.16030534351145,-48.396946564885496,-26.47328244274809,0.0
11.610000610351562,-11.44667813720703,1.350329736328125,4.7955859252929685,-2.50381679389313,14.946564885496183,-5.083969465648855,-7.0844427124023435,2.3630770385742186,-0.2705447875976562,21.923664122137403,-44.35114503816794,-28.045801526717558,0.0
11.62000060081482,-10.433930834960936,1.4006079711914061,4.347870214843749,-7.633587786259542,6.99236641221374,-1.0534351145038168,-6.9336080078124995,2.70065947265625,0.7038952880859375,8.381679389312977,-33.7557251908397,-23.541984732824428,0.0
11.630000591278076,-9.68454571533203,1.0103531005859374,4.367023828124999,-0.015267175572519083,8.488549618320612,0.2748091603053435,-7.541735229492187,1.5394716674804687,1.1085153686523437,3.068702290076336,-27.206106870229007,-20.15267175572519,0.0
11.640000581741333,-9.706093530273437,0.3854664672851562,3.7924154296875,-4.076335877862595,4.534351145038168,0.07633587786259542,-9.162609753417968,0.6416460449218749,1.9201497314453124,14.274809160305344,-28.33587786259542,-18.03053435114504,0.0
11.650000810623169,-9.062053283691405,-0.5817910034179687,2.70065947265625,8.198473282442748,8.0,-0.15267175572519084,-9.5001921875,-0.7781155395507812,2.3343466186523436,20.244274809160306,-28.015267175572518,-19.17557251908397,0.0
11.660000562667847,-8.10197841796875,-0.2346317626953125,2.7629087158203123,14.763358778625955,12.213740458015268,-2.3053435114503817,-8.487444885253906,-0.3711012573242187,3.124433166503906,21.557251908396946,-28.702290076335878,-22.366412213740457,0.0
11.670000791549683,-8.655039001464843,0.842758984375,3.1771056030273437,15.389312977099237,15.17557251908397,-5.755725190839694,-9.514557397460937,1.1563994018554686,3.469198205566406,17.83206106870229,-27.801526717557252,-21.603053435114504,0.0
11.68000054359436,-8.741230261230468,1.8243816650390623,3.2154128295898436,7.755725190839694,13.618320610687023,-6.213740458015267,-8.86812294921875,2.023100402832031,3.861847277832031,5.709923664122138,-27.6793893129771,-19.938931297709924,0.0
11.690000534057617,-9.813832604980469,2.6384102294921874,4.04141240234375,0.030534351145038167,12.65648854961832,-6.534351145038168,-8.43956085205078,1.8698714965820311,4.1754876953124995,-8.213740458015268,-24.213740458015266,-16.610687022900763,0.0
11.700000524520874,-10.1131078125,3.2034418212890623,5.015852478027344,-14.793893129770993,6.488549618320611,-4.931297709923665,-8.185775476074218,1.0845733520507812,3.9719805541992184,-12.961832061068701,-27.435114503816795,-14.122137404580153,0.0
11.71000051498413,-10.290278735351562,2.5330653564453125,5.6407391113281244,-18.396946564885496,0.44274809160305345,-1.282442748091603,-7.785943798828124,0.07900865478515624,3.418919970703125,-15.572519083969466,-26.549618320610687,-12.610687022900763,0.0
11.720000505447388,-10.532093103027343,2.499546533203125,6.536170532226562,-17.419847328244273,-4.778625954198473,2.4732824427480917,-7.481880187988281,-0.5339069702148437,2.6312276245117188,-15.099236641221374,-24.916030534351144,-12.610687022900763,0.0
11.730000495910645,-11.121066711425781,2.3343466186523436,7.187393383789062,-17.435114503816795,-14.748091603053435,6.519083969465649,-7.201758593749999,-0.8499415893554687,1.7812860351562498,-11.816793893129772,-22.519083969465647,-13.251908396946565,0.0
11.740000486373901,-10.89840595703125,1.7477672119140624,8.760383874511719,-15.053435114503817,-25.61832061068702,10.351145038167939,-6.643909606933593,-0.9217676391601562,1.2497732666015624,-7.236641221374046,-20.68702290076336,-13.526717557251908,0.0
11.750000476837158,-11.884817041015625,1.5418658691406248,9.552864624023437,-19.96946564885496,-42.30534351145038,14.16793893129771,-6.193799694824218,-0.4836287353515625,0.8403647827148437,-3.435114503816794,-18.595419847328245,-12.534351145038167,0.0
11.760000944137573,-10.493785876464843,-0.7733271362304687,10.165780249023436,-4.244274809160306,-55.43511450381679,17.16030534351145,-5.4707507934570305,-0.04548983154296875,0.622492431640625,-1.0687022900763359,-17.297709923664122,-10.442748091603054,0.0
11.770000696182251,-9.583989245605467,-2.070984436035156,10.66137999267578,12.183206106870228,-67.98473282442748,17.16030534351145,-5.023035083007812,0.1149216796875,0.5961562133789062,2.183206106870229,-15.679389312977099,-8.717557251908397,0.0
11.780000686645508,-9.674968908691406,-1.944091748046875,11.504138977050781,30.366412213740457,-82.01526717557252,14.15267175572519,-5.228936425781249,0.9169792358398436,1.0199299072265624,6.625954198473282,-16.412213740458014,-6.351145038167939,0.0
11.790000677108765,-12.203245861816406,1.7860744384765623,13.038822241210937,26.27480916030534,-107.96946564885496,10.290076335877863,-6.155492468261718,1.9033903198242186,1.2401964599609374,8.885496183206106,-17.709923664122137,-4.961832061068702,0.0
11.8000009059906,-12.416329809570312,1.7741034301757812,14.322114331054687,13.572519083969466,-139.6030534351145,13.755725190839694,-7.364564306640625,2.1787235107421874,0.39983167724609375,7.572519083969466,-18.595419847328245,-4.854961832061068,0.0
11.810000658035278,-12.631807958984375,1.0630255371093749,14.034810131835936,10.687022900763358,-170.06106870229007,15.404580152671755,-9.713276135253906,1.1156979736328125,-1.9752163696289062,6.595419847328245,-14.992366412213741,-10.641221374045802,0.0
11.820000648498535,-12.495338464355468,-2.4444798950195312,10.242394702148436,3.572519083969466,-192.793893129771,13.893129770992367,-13.134590307617186,0.016759411621093748,-2.1499930908203124,1.83206106870229,-1.816793893129771,-24.396946564885496,0.0
11.830000400543213,-13.520056774902343,-7.706935144042968,5.214571215820312,3.7099236641221376,-208.0763358778626,5.083969465648855,-21.114464440917967,-0.2154781494140625,1.924938134765625,11.877862595419847,12.80916030534351,-32.68702290076336,0.0
11.840000629425049,-14.666879370117186,-10.565611926269531,-0.0526724365234375,40.50381679389313,-209.3587786259542,0.549618320610687,-21.428104858398438,4.017470385742187,6.265625744628906,21.541984732824428,5.251908396946565,-21.908396946564885,0.0
11.850000858306885,-12.55758770751953,-11.547234606933593,-3.0909143432617188,96.94656488549619,-191.45038167938932,-1.1145038167938932,-15.942988854980468,7.484274389648437,5.691017346191406,7.938931297709924,1.4045801526717556,-3.648854961832061,0.0
11.860000610351562,-11.355698474121093,-9.947907897949218,-5.418078356933593,146.38167938931298,-169.29770992366412,-6.458015267175573,-11.980585107421874,6.574477758789062,1.8124106567382812,5.480916030534351,-8.198473282442748,11.86259541984733,0.0
11.87000060081482,-10.570400329589843,-5.248090039062499,-5.284003063964843,163.72519083969465,-144.4732824427481,-17.770992366412212,-5.6958057495117185,1.9033903198242186,-3.6631285400390623,-8.900763358778626,-0.1984732824427481,11.083969465648854,0.0
11.880000591278076,-12.581529724121093,-2.080561242675781,-3.3159692993164063,139.45038167938932,-127.90839694656489,-26.549618320610687,-6.418854650878906,-2.4013842651367185,-4.786009118652344,-10.091603053435115,10.564885496183207,12.641221374045802,0.0
11.890001058578491,-14.025233325195313,1.3192051147460937,-0.8403647827148437,106.74809160305344,-119.86259541984732,-33.099236641221374,-7.335833886718749,-5.315127685546875,-6.586448767089843,2.1068702290076335,11.526717557251908,8.854961832061068,0.0
11.90000057220459,-14.437036010742187,2.9089550170898435,1.678335363769531,91.93893129770993,-110.77862595419847,-30.16793893129771,-7.939172705078125,-5.178658190917968,-6.138733056640625,5.908396946564886,25.358778625954198,2.2900763358778624,0.0
11.910001039505005,-15.0547400390625,4.347870214843749,4.106055847167968,78.79389312977099,-105.19083969465649,-22.9618320610687,-10.714052429199219,-7.381323718261719,-11.81059678955078,7.923664122137405,35.00763358778626,-0.5343511450381679,0.0
11.920000791549683,-13.376404675292967,4.074931225585937,3.4859576171874997,63.221374045801525,-103.40458015267176,-16.03053435114504,-10.096348400878906,-3.450044592285156,-6.5026517089843745,47.37404580152672,43.20610687022901,-6.717557251908397,0.0
11.93000078201294,-11.67652149658203,4.958391638183594,1.5011644409179687,37.05343511450382,-100.4885496183206,-13.358778625954198,-11.0707884765625,-1.8171990600585937,-4.3071687866210935,48.030534351145036,51.69465648854962,-3.6030534351145036,0.0
11.940000534057617,-9.157821350097656,4.3454760131835934,-1.6160861206054686,4.854961832061068,-97.49618320610686,-9.740458015267176,-9.955090502929687,1.7549498168945312,-2.825157958984375,50.36641221374046,61.282442748091604,-9.19083969465649,0.0
11.950000524520874,-7.022193469238281,3.5290532470703124,-2.090138049316406,-31.603053435114504,-88.2442748091603,-8.061068702290076,-8.896853369140624,4.778826513671874,-1.6615759521484375,32.74809160305343,72.41221374045801,-7.419847328244275,0.0
11.96000051498413,-5.913678100585937,1.927332336425781,-2.3487118286132813,-54.656488549618324,-78.90076335877863,-4.885496183206107,-9.636661682128906,4.572925170898437,0.9361328491210937,18.763358778625953,82.22900763358778,3.786259541984733,0.0
11.970000743865967,-4.697423657226563,1.4101847778320311,-3.0645781249999997,-65.6793893129771,-65.6793893129771,-2.7938931297709924,-11.03248125,2.920926025390625,1.8171990600585937,18.519083969465647,74.09160305343511,13.664122137404581,0.0
11.980000495910645,-2.731784094238281,0.411802685546875,-3.383006945800781,-67.46564885496183,-47.69465648854962,0.2748091603053435,-10.17056865234375,2.8658593872070313,1.189918225097656,17.84732824427481,63.37404580152672,16.625954198473284,0.0
11.990000486373901,-2.2290017456054687,0.316034619140625,-3.778050219726562,-67.77099236641222,-28.732824427480917,1.3893129770992367,-10.149020837402343,2.1906945190429687,2.3319524169921872,12.67175572519084,58.93129770992366,20.18320610687023,0.0
12.000000953674316,-2.147598889160156,-0.023942016601562498,-3.564966271972656,-70.3969465648855,-12.290076335877863,1.984732824427481,-10.83376251220703,0.7972691528320313,2.8227637573242186,8.01526717557252,58.62595419847328,25.17557251908397,0.0
12.010000705718994,-1.13006318359375,-0.6488286499023437,-4.778826513671874,-71.14503816793894,5.908396946564886,3.49618320610687,-9.746794958496093,0.814028564453125,1.944091748046875,5.770992366412214,47.57251908396947,23.358778625954198,0.0
12.02000117301941,-1.9225439331054686,-0.45489831542968745,-4.141968872070312,-68.2442748091603,24.03053435114504,2.427480916030534,-9.229647399902344,0.19393033447265623,1.6328455322265625,1.5877862595419847,45.6793893129771,23.81679389312977,0.0
12.030000925064087,-1.8148048583984373,-0.8403647827148437,-3.9360675292968748,-67.48091603053435,37.20610687022901,4.412213740458015,-8.846575134277343,-0.5291185668945312,1.465251416015625,0.44274809160305345,41.86259541984733,23.96946564885496,0.0
12.040001153945923,-4.228160131835938,1.216254443359375,-1.9297265380859374,-76.13740458015268,48.97709923664122,4.9465648854961835,-8.825027319335938,-0.9313444458007812,1.7262193969726563,0.48854961832061067,38.35114503816794,23.099236641221374,0.0
12.050000667572021,-4.611232397460937,0.7661445312499999,0.040701428222656245,-83.6793893129771,55.64885496183206,9.48091603053435,-9.143456140136719,-1.24498486328125,2.1116858642578125,2.33587786259542,35.083969465648856,21.17557251908397,0.0
12.060000896453857,-5.05655390625,0.47644613037109373,2.6623522460937497,-101.20610687022901,57.14503816793893,9.908396946564885,-9.296685046386719,-1.5538368774414062,2.5474305664062498,4.702290076335878,33.06870229007634,18.16793893129771,0.0
12.070000648498535,-4.6064439941406246,-2.9041666137695312,5.655104321289063,-96.76335877862596,64.6412213740458,12.534351145038167,-9.267954626464844,-1.7836802368164062,2.85388837890625,8.641221374045802,32.80916030534351,15.129770992366412,0.0
12.080000877380371,-5.260061047363281,-5.504269616699219,8.870517150878905,-71.5114503816794,70.82442748091603,14.335877862595419,-9.76116016845703,-2.0159177978515626,2.961627453613281,16.015267175572518,32.38167938931298,12.15267175572519,0.0
12.090000629425049,-6.5505357421875,-7.419630944824219,10.735600244140624,-29.572519083969464,76.65648854961832,14.13740458015267,-9.65342109375,-2.020706201171875,2.8323405639648436,22.290076335877863,30.48854961832061,9.312977099236642,0.0
12.100000619888306,-6.461950280761719,-7.551312036132812,11.77228956298828,14.183206106870228,78.54961832061069,9.938931297709924,-7.970297326660156,0.2705447875976562,1.1348515869140625,16.03053435114504,29.31297709923664,4.702290076335878,0.0
12.110000610351562,-7.096413720703125,-6.167463476562499,11.86805762939453,51.3587786259542,77.95419847328245,3.4198473282442747,-7.740453967285156,1.2521674682617188,1.2497732666015624,0.015267175572519083,41.43511450381679,8.458015267175572,0.0
12.12000060081482,-9.184157568359375,-4.611232397460937,13.122619299316405,60.732824427480914,69.92366412213741,-4.458015267175573,-8.86094034423828,0.0,1.7477672119140624,-11.312977099236642,52.916030534351144,14.229007633587786,0.0
12.130007028579712,-10.912771166992187,-3.7397429931640622,14.018050720214843,66.9618320610687,57.11450381679389,-9.419847328244275,-9.41639512939453,-1.47482822265625,1.9991583862304687,-3.5572519083969465,52.82442748091603,13.908396946564885,0.0
12.140000581741333,-12.325350146484375,-1.4939818359375,15.634136840820311,78.91603053435115,40.2442748091603,-11.679389312977099,-9.217676391601563,-1.5155296508789062,1.687912170410156,-0.42748091603053434,53.404580152671755,8.961832061068701,0.0
12.15000033378601,-13.180080139160156,1.426944189453125,15.224728356933593,81.38931297709924,20.793893129770993,-8.946564885496183,-9.809044201660155,-1.5873557006835937,1.4030021728515625,-7.068702290076335,60.93129770992366,9.114503816793894,0.0
12.160000324249268,-12.102689392089843,3.0430303100585934,13.589488623046874,79.02290076335878,2.4885496183206106,-2.1374045801526718,-12.145785021972655,-2.128445275878906,1.9776105712890624,3.236641221374046,59.31297709923664,12.732824427480915,0.0
12.170000791549683,-10.651803186035156,3.5984850952148437,12.035651745605469,87.09923664122137,-8.83969465648855,8.16793893129771,-10.563217724609375,-0.201112939453125,0.6081272216796875,2.4885496183206106,50.778625954198475,9.893129770992367,0.0
12.18000078201294,-6.074089611816406,4.398148449707031,7.175422375488281,114.30534351145039,-3.068702290076336,27.450381679389313,-9.737218151855469,1.0510545288085937,0.7541735229492187,-7.6183206106870225,52.82442748091603,12.030534351145038,0.0
12.190000534057617,-5.3199160888671875,10.263942517089843,0.4285620971679687,98.74809160305344,8.351145038167939,37.51145038167939,-12.284648718261717,-0.7876923461914062,1.2713210815429687,-10.076335877862595,52.80916030534351,18.702290076335878,0.0
12.200000524520874,-7.053318090820312,11.463437548828125,-1.9752163696289062,33.11450381679389,9.877862595419847,39.908396946564885,-13.122619299316405,-1.618480322265625,0.86191259765625,-4.396946564885496,42.58015267175573,21.72519083969466,0.0
12.21000051498413,-10.395623608398436,6.785167504882812,2.5234885498046875,-35.02290076335878,15.648854961832061,41.282442748091604,-13.029245434570312,-0.5219359619140624,-0.4477157104492187,-3.0229007633587788,33.83206106870229,20.18320610687023,0.0
12.220000505447388,-13.464990136718749,2.592920397949219,7.953537915039062,-80.70229007633588,15.038167938931299,36.900763358778626,-14.111424584960936,1.2018892333984375,-0.36631285400390623,-17.66412213740458,30.977099236641223,17.64885496183206,0.0
12.230000495910645,-13.900734838867187,-2.530671154785156,9.976638317871092,-83.6030534351145,9.816793893129772,35.11450381679389,-15.318102221679686,0.7948749511718749,0.7350199096679687,-23.053435114503817,24.900763358778626,19.51145038167939,0.0
12.240000486373901,-13.970166687011718,-2.6527754394531247,5.91846650390625,-61.43511450381679,19.083969465648856,30.885496183206108,-16.26141767578125,1.7262193969726563,1.6831237670898436,-15.694656488549619,13.282442748091603,18.83969465648855,0.0
12.250000476837158,-11.264718811035156,-3.5290532470703124,0.373495458984375,-38.47328244274809,32.88549618320611,30.244274809160306,-16.4338001953125,3.8690298828125,0.46686932373046874,-23.19083969465649,4.6106870229007635,16.18320610687023,0.0
12.260000944137573,-8.757989672851561,-4.50109912109375,-2.398990063476562,-22.106870229007633,46.79389312977099,28.885496183206108,-14.642937353515624,6.45476767578125,-0.031124621582031248,-38.33587786259542,-5.557251908396947,13.969465648854962,0.0
12.270000696182251,-6.265625744628906,-4.833893151855468,-2.920926025390625,-18.9618320610687,54.2442748091603,17.84732824427481,-13.567940808105467,7.843404638671874,-0.7613561279296874,-60.13740458015267,-7.603053435114504,19.908396946564885,0.0
12.280001163482666,-6.574477758789062,-3.6679169433593746,-1.7405846069335937,-16.18320610687023,63.083969465648856,3.053435114503817,-12.138602416992187,7.503428002929687,-0.51714755859375,-74.47328244274809,-7.129770992366412,25.984732824427482,0.0
12.290000677108765,-7.268796240234375,-2.3295582153320313,-1.5873557006835937,-9.908396946564885,68.74809160305344,-6.351145038167939,-11.54244620361328,5.597643481445312,-0.4285620971679687,-80.54961832061069,-6.213740458015267,31.374045801526716,0.0
12.3000009059906,-8.29351455078125,-0.9361328491210937,-1.5466542724609373,-2.732824427480916,78.90076335877863,-11.648854961832061,-11.58075343017578,2.825157958984375,0.04548983154296875,-75.31297709923665,-5.709923664122138,36.6412213740458,0.0
12.310000658035278,-9.679757312011718,1.446097802734375,-0.8475473876953125,-1.984732824427481,86.62595419847328,-14.396946564885496,-9.957484704589843,1.7262193969726563,-0.3016694091796875,-64.21374045801527,-11.34351145038168,34.091603053435115,0.0
12.320000648498535,-9.988609326171874,2.626439221191406,0.14125789794921875,-7.786259541984733,87.40458015267176,-13.374045801526718,-9.196128576660156,1.3958195678710936,-1.2593500732421874,-57.541984732824424,-13.389312977099237,31.786259541984734,0.0
12.330000638961792,-10.512939489746094,2.9496564453125,0.7852981445312499,-19.755725190839694,86.77862595419847,-10.290076335877863,-8.382100012207031,0.8259995727539062,-1.2425906616210938,-53.43511450381679,-13.114503816793894,30.16793893129771,0.0
12.340000629425049,-11.360486877441405,2.760514514160156,2.920926025390625,-31.46564885496183,83.08396946564885,-8.82442748091603,-9.138667736816405,-0.7062894897460937,-1.0821791503906248,-39.87786259541985,-12.473282442748092,29.480916030534353,0.0
12.350000619888306,-10.939107385253905,1.47482822265625,3.3303345092773435,-35.05343511450382,74.7175572519084,-5.877862595419847,-7.824251025390624,-0.9504980590820312,-0.7422025146484375,-32.48854961832061,-11.145038167938932,22.931297709923665,0.0
12.360000610351562,-9.591171850585937,0.6943184814453125,2.9089550170898435,-35.908396946564885,69.14503816793894,-5.206106870229007,-7.058106494140625,-0.239420166015625,-1.6519991455078125,-25.083969465648856,-11.877862595419847,14.977099236641221,0.0
12.37000036239624,-9.775525378417969,-0.105344873046875,2.73896669921875,-33.45038167938932,61.11450381679389,-6.961832061068702,-9.102754711914063,-2.5617957763671875,-0.2825157958984375,-7.694656488549619,-6.5038167938931295,14.061068702290076,0.0
12.380000591278076,-9.14824454345703,-1.618480322265625,3.0023288818359375,-22.458015267175572,57.69465648854962,-9.893129770992367,-7.40526573486328,-0.258573779296875,-1.4604630126953124,8.045801526717558,-10.0,4.061068702290076,0.0
12.390000820159912,-9.907206469726562,-1.0462661254882812,3.423708374023437,-14.610687022900763,53.343511450381676,-13.374045801526718,-7.809885815429687,-0.411802685546875,-1.8148048583984373,19.66412213740458,-5.511450381679389,2.2290076335877864,0.0
12.40000057220459,-9.801861596679688,-0.44532150878906246,3.718195178222656,-6.793893129770993,46.88549618320611,-15.114503816793894,-6.660669018554687,0.5482721801757812,-2.310404602050781,31.633587786259543,-6.564885496183206,-2.4580152671755724,0.0
12.410000801086426,-9.497797985839844,-0.34237083740234375,2.6216508178710938,0.9312977099236641,42.47328244274809,-13.969465648854962,-6.658274816894531,2.39420166015625,-4.254496350097656,37.05343511450382,-6.0,-4.763358778625954,0.0
12.420000314712524,-9.457096557617186,-0.05027823486328125,3.4524387939453125,13.511450381679388,42.01526717557252,-13.587786259541986,-7.192181787109375,4.209006518554688,-4.096479040527344,32.656488549618324,0.8702290076335878,-5.282442748091603,0.0
12.43000078201294,-8.609549169921875,0.507570751953125,2.73896669921875,22.977099236641223,39.083969465648856,-11.801526717557252,-9.244012609863281,3.430890979003906,-2.8107927490234372,28.85496183206107,5.465648854961832,-2.6259541984732824,0.0
12.440000295639038,-9.660603698730467,0.8714894042968749,2.85388837890625,29.6793893129771,40.47328244274809,-11.389312977099237,-9.775525378417969,3.208230224609375,-1.6328455322265625,28.82442748091603,4.244274809160306,-1.8931297709923665,0.0
12.450000524520874,-8.892064965820312,1.697488977050781,3.009511486816406,31.34351145038168,38.030534351145036,-9.465648854961833,-9.41639512939453,3.5003228271484375,-0.4955997436523437,27.14503816793893,-0.15267175572519084,-2.7938931297709924,0.0
12.46000051498413,-9.576806640625,2.308010400390625,2.6336218261718747,26.564885496183205,37.11450381679389,-7.740458015267175,-9.200916979980468,3.6679169433593746,0.9050082275390624,19.984732824427482,-5.038167938931298,-3.312977099236641,0.0
12.470000267028809,-8.719682446289061,2.6336218261718747,2.252943762207031,18.3206106870229,33.725190839694655,-5.847328244274809,-9.323021264648437,3.4644098022460934,1.5298948608398437,10.473282442748092,-10.702290076335878,-3.480916030534351,0.0
12.480000495910645,-9.014169250488282,3.0430303100585934,2.4157494750976563,7.526717557251908,32.0,-4.564885496183206,-9.627084875488281,3.782838623046875,1.5921441040039062,-2.2595419847328246,-17.206106870229007,-4.061068702290076,0.0
12.490000486373901,-9.521740002441407,2.834734765625,2.365471240234375,-2.549618320610687,32.717557251908396,-3.0076335877862594,-9.442731347656249,3.699041564941406,2.118868469238281,-16.35114503816794,-22.671755725190838,-5.3893129770992365,0.0
12.500000476837158,-9.33978067626953,2.3487118286132813,1.0558429321289062,-7.6183206106870225,32.33587786259542,-0.9618320610687023,-10.694898815917968,2.118868469238281,2.664746447753906,-22.885496183206108,-27.755725190839694,-4.1679389312977095,0.0
12.510000705718994,-9.957484704589843,1.637633935546875,1.369483349609375,-11.16030534351145,34.396946564885496,-0.7175572519083969,-11.267113012695312,2.346317626953125,1.8076222534179687,-19.72519083969466,-40.778625954198475,-9.34351145038168,0.0
12.52000093460083,-9.658209497070311,1.7525556152343749,0.584185205078125,-12.595419847328245,35.29770992366412,0.4732824427480916,-10.31661495361328,2.5617957763671875,1.1085153686523437,-26.259541984732824,-46.595419847328245,-13.893129770992367,0.0
12.530000686645508,-9.952696301269532,2.39420166015625,0.6967126831054687,-20.38167938931298,35.12977099236641,0.2900763358778626,-10.759542260742187,1.2114660400390624,1.458068811035156,-31.068702290076335,-50.213740458015266,-14.83969465648855,0.0
12.540000915527344,-11.164162341308593,2.578555187988281,0.928950244140625,-33.05343511450382,31.923664122137403,-0.0,-12.322955944824217,0.5817910034179687,1.7022773803710936,-19.435114503816795,-58.732824427480914,-16.213740458015266,0.0
12.5500009059906,-10.876858142089842,2.243366955566406,1.7214309936523438,-42.36641221374046,27.862595419847327,1.4198473282442747,-10.453084448242187,1.8555062866210936,1.0797849487304687,-13.053435114503817,-70.58015267175573,-23.83206106870229,0.0
12.560000658035278,-10.206481677246094,1.3359645263671873,0.9744400756835937,-49.37404580152672,24.83969465648855,4.0,-9.634267480468749,1.707065783691406,1.3048399047851562,-25.954198473282442,-63.770992366412216,-25.328244274809162,0.0
12.570000648498535,-10.299855541992187,0.9217676391601562,1.4939818359375,-57.02290076335878,21.46564885496183,4.641221374045801,-10.86009873046875,1.4053963745117186,0.9313444458007812,-19.61832061068702,-69.06870229007633,-24.519083969465647,0.0
12.580000877380371,-10.486603271484375,0.8930372192382812,1.9895815795898437,-50.87022900763359,23.923664122137403,3.1755725190839694,-8.36294639892578,2.971204260253906,-0.26336218261718747,-22.549618320610687,-70.38167938931298,-30.045801526717558,0.0
12.59000039100647,-9.509768994140625,-0.08858546142578125,1.9033903198242186,-45.06870229007634,22.68702290076336,4.595419847328245,-9.253589416503905,1.4987702392578124,0.699106884765625,-30.595419847328245,-57.70992366412214,-27.801526717557252,0.0
12.600000619888306,-8.832209924316405,-1.1324573852539062,1.6807295654296874,-41.603053435114504,20.80916030534351,5.312977099236641,-10.127473022460936,0.430956298828125,1.2210428466796874,-16.946564885496183,-61.83206106870229,-27.801526717557252,0.0
12.610000610351562,-9.167398156738281,-0.8978256225585937,1.7693150268554687,-33.19083969465649,21.099236641221374,5.129770992366412,-8.197746484375,1.6208745239257811,-0.028730419921875,-14.961832061068701,-59.17557251908397,-32.717557251908396,0.0
12.62000060081482,-9.435548742675781,-0.26815058593749996,1.3407529296874998,-28.65648854961832,21.16030534351145,5.648854961832061,-8.93755479736328,1.4101847778320311,-0.5027823486328125,-20.091603053435115,-49.93893129770992,-32.6412213740458,0.0
12.630000591278076,-9.0788126953125,-0.63206923828125,1.2042834350585936,-24.9618320610687,22.53435114503817,5.862595419847328,-10.266336718749999,0.009576806640625,0.3687070556640625,-7.8320610687022905,-47.45038167938932,-30.732824427480917,0.0
12.640000581741333,-9.6151138671875,-1.3527239379882812,1.9752163696289062,-16.38167938931298,28.625954198473284,2.1068702290076335,-10.096348400878906,-0.011971008300781249,-0.5746083984375,11.801526717557252,-51.80152671755725,-33.14503816793893,0.0
12.650000810623169,-9.3086560546875,-0.6105214233398437,1.2425906616210938,-12.213740458015268,29.572519083969464,-1.1297709923664123,-8.36294639892578,2.138022082519531,-0.8379705810546875,12.793893129770993,-46.61068702290076,-35.19083969465649,0.0
12.660000562667847,-10.338162768554687,0.13168109130859373,1.3934253662109375,-16.885496183206108,30.68702290076336,-4.106870229007634,-8.566453540039062,2.1547814941406247,0.373495458984375,10.51908396946565,-39.51145038167939,-31.389312977099237,0.0
12.670000791549683,-10.402806213378906,-0.8307879760742187,2.1883003173828124,-18.900763358778626,30.412213740458014,-5.984732824427481,-9.526528405761718,0.9648632690429687,1.3024457031249999,14.778625954198473,-40.44274809160305,-28.12213740458015,0.0
12.680000305175781,-9.45470235595703,-1.9991583862304687,2.6048914062499997,-8.870229007633588,30.47328244274809,-7.755725190839694,-9.064447485351561,0.51714755859375,2.104503259277344,25.19083969465649,-41.9236641221374,-28.366412213740457,0.0
12.690000534057617,-9.258377819824219,-1.6017209106445311,2.896984008789062,1.3435114503816794,33.81679389312977,-11.221374045801527,-7.184999182128906,1.7094599853515624,0.70868369140625,25.51145038167939,-41.87786259541985,-30.290076335877863,0.0
12.700000524520874,-9.718064538574218,-0.3112462158203125,2.674323254394531,5.32824427480916,33.3587786259542,-12.50381679389313,-7.568071447753906,2.6767174560546874,0.8499415893554687,10.961832061068701,-30.12213740458015,-28.442748091603054,0.0
12.710000276565552,-9.574412438964844,0.4285620971679687,3.1411925781249996,5.801526717557252,33.099236641221374,-13.32824427480916,-8.394071020507813,2.1308394775390624,1.4939818359375,3.114503816793893,-23.19083969465649,-23.267175572519083,0.0
12.720000267028809,-10.510545288085936,1.0295067138671874,3.3327287109375,3.435114503816794,28.83969465648855,-13.954198473282442,-8.307879760742187,1.149216796875,2.0757728393554684,-1.1297709923664123,-17.053435114503817,-19.984732824427482,0.0
12.730000495910645,-10.254365710449218,0.2059013427734375,3.909731311035156,4.183206106870229,25.114503816793892,-12.946564885496183,-9.272743029785156,0.086191259765625,2.4851813232421875,12.274809160305344,-22.27480916030534,-20.045801526717558,0.0
12.740000247955322,-10.077194787597655,0.39983167724609375,3.756502404785156,8.83969465648855,24.38167938931298,-12.641221374045802,-9.3852705078125,-1.5777788940429687,2.7437551025390623,18.702290076335878,-21.221374045801525,-22.15267175572519,0.0
12.750000476837158,-10.038887561035155,1.3096283081054687,3.845087866210937,8.702290076335878,20.33587786259542,-12.473282442748092,-8.28633194580078,-0.5195417602539062,2.8850130004882812,21.49618320610687,-24.290076335877863,-25.022900763358777,0.0
12.760000944137573,-10.819397302246093,2.4061726684570313,4.259284753417968,4.656488549618321,16.50381679389313,-10.549618320610687,-9.253589416503905,-0.05027823486328125,3.9408559326171875,21.49618320610687,-23.938931297709924,-23.49618320610687,0.0
12.770000696182251,-9.686939916992188,2.588131994628906,4.592078784179687,-2.2290076335877864,7.145038167938932,-6.702290076335878,-8.602366564941406,0.2537853759765625,4.058171813964844,14.106870229007633,-24.27480916030534,-23.557251908396946,0.0
12.780000925064087,-10.467449658203124,3.1962592163085937,5.702988354492187,-9.49618320610687,3.1908396946564888,-3.5877862595419847,-8.090007409667969,0.1292868896484375,4.314351391601562,6.778625954198473,-24.259541984732824,-22.137404580152673,0.0
12.790000677108765,-10.474632263183594,2.626439221191406,5.971138940429687,-13.709923664122137,-3.450381679389313,-0.7633587786259542,-9.464279162597656,-1.1372457885742187,4.7884033203125,14.16793893129771,-30.35114503816794,-18.610687022900763,0.0
12.800000667572021,-9.516951599121093,1.0582371337890624,6.2392895263671875,-11.938931297709924,-13.022900763358779,3.3893129770992365,-7.134720947265625,-0.4477157104492187,3.7229835815429686,10.916030534351146,-28.778625954198475,-20.12213740458015,0.0
12.8100004196167,-10.026916552734374,0.7781155395507812,7.055712292480468,-11.816793893129772,-21.34351145038168,5.6183206106870225,-6.490680700683593,0.7996633544921875,2.530671154785156,11.358778625954198,-31.66412213740458,-19.34351145038168,0.0
12.820000410079956,-10.000580334472655,0.5099649536132812,8.240842114257813,1.0381679389312977,-26.549618320610687,6.244274809160306,-7.390900524902343,0.19871873779296872,2.1930887207031247,8.244274809160306,-24.47328244274809,-16.412213740458014,0.0
12.830000638961792,-9.394847314453125,-0.9433154541015625,8.71489404296875,6.137404580152672,-42.916030534351144,7.7251908396946565,-6.414066247558593,0.17238251953125,1.687912170410156,10.625954198473282,-24.061068702290076,-16.259541984732824,0.0
12.840000629425049,-9.045293872070312,-2.2744915771484373,9.871293444824218,26.580152671755727,-54.62595419847328,5.526717557251908,-6.4092778442382805,-0.47884033203125,0.842758984375,14.625954198473282,-21.358778625954198,-15.603053435114504,0.0
12.850000619888306,-9.102754711914063,-3.0645781249999997,10.996568225097656,47.48091603053435,-67.64885496183206,1.816793893129771,-5.6191912963867185,-0.0909796630859375,1.1851298217773436,22.213740458015266,-19.84732824427481,-15.068702290076336,0.0
12.860000610351562,-9.512163195800781,-2.7533319091796873,12.133814013671874,67.69465648854961,-83.2824427480916,-3.3435114503816794,-5.468356591796875,0.4261678955078125,1.1133037719726562,29.328244274809162,-19.480916030534353,-13.206106870229007,0.0
12.87000060081482,-12.119448803710936,0.4572925170898437,14.425065002441405,63.06870229007634,-113.3587786259542,-9.587786259541986,-6.375759020996093,1.9393033447265624,1.4508862060546874,33.25190839694657,-20.641221374045802,-11.786259541984732,0.0
12.880000591278076,-13.41950030517578,2.0302830078125,14.968548779296874,50.79389312977099,-147.29770992366412,-8.396946564885496,-6.983886242675781,2.8658593872070313,2.085349645996094,28.99236641221374,-23.435114503816795,-10.580152671755725,0.0
12.890000820159912,-13.512874169921874,0.5530605834960938,15.47611953125,44.79389312977099,-183.6030534351145,-4.198473282442748,-8.283937744140625,3.0310593017578125,-1.3766659545898436,24.091603053435115,-22.748091603053435,-10.564885496183207,0.0
12.90000057220459,-14.829685083007812,-1.946485949707031,13.242329382324218,46.47328244274809,-212.06106870229007,-4.534351145038168,-10.943895788574219,2.214636535644531,-3.5482068603515624,21.34351145038168,-14.900763358778626,-20.061068702290076,0.0
12.910000801086426,-15.75624112548828,-5.791573815917968,8.001421948242188,53.221374045801525,-229.6030534351145,-7.022900763358779,-19.33796680908203,-1.668758557128906,1.1037269653320312,20.16793893129771,6.412213740458015,-32.10687022900763,0.0
12.920000553131104,-16.302119104003904,-8.920795385742187,2.8610709838867185,76.70229007633588,-230.76335877862596,-7.847328244274809,-23.005883752441406,-0.1867477294921875,5.691017346191406,30.595419847328245,4.106870229007634,-32.74809160305343,0.0
12.930001020431519,-15.435418103027343,-10.421959826660157,-3.5122938354492184,128.90076335877862,-216.94656488549617,-5.145038167938932,-18.44492958984375,5.6407391113281244,4.3430818115234375,32.82442748091603,-7.175572519083969,-17.16030534351145,0.0
12.940038919448853,-13.704410302734374,-8.722076647949219,-5.908889697265625,174.5648854961832,-194.83969465648855,-5.358778625954199,-10.340556970214843,6.191405493164062,0.6177040283203125,8.51908396946565,-0.061068702290076333,-3.4656488549618323,0.0
12.950000286102295,-11.935095275878906,-5.061342309570312,-7.455543969726562,192.76335877862596,-166.8854961832061,-8.183206106870228,-7.864952453613281,1.7501614135742187,-3.81156904296875,6.885496183206107,-0.183206106870229,4.244274809160306,0.0
12.96000051498413,-13.249511987304686,-1.6017209106445311,-5.473144995117187,169.74045801526717,-142.67175572519085,-13.969465648854962,-5.755660791015624,-1.2904746948242187,-4.76924970703125,7.343511450381679,4.885496183206107,4.015267175572519,0.0
12.970000505447388,-13.148955517578123,-0.6464344482421874,-2.1212626708984375,131.89312977099237,-125.2824427480916,-18.48854961832061,-5.8226984375,-4.091690637207031,-6.208164904785156,14.045801526717558,9.740458015267176,4.366412213740458,0.0
12.980000734329224,-13.498508959960937,3.009511486816406,1.93451494140625,103.49618320610686,-108.74809160305344,-20.137404580152673,-7.096413720703125,-4.2688615600585935,-8.556876733398436,14.992366412213741,24.091603053435115,2.16793893129771,0.0
12.99000072479248,-14.264653491210936,4.525041137695312,4.220977526855468,87.87786259541984,-103.20610687022901,-12.320610687022901,-10.27830772705078,-4.292803576660156,-6.696582043457031,25.6793893129771,40.94656488549618,-0.32061068702290074,0.0
13.000000476837158,-12.524068884277343,3.5003228271484375,4.678270043945313,80.80916030534351,-98.8854961832061,-4.030534351145038,-12.684480395507812,-3.8762124877929685,-5.384559533691406,37.00763358778626,49.64885496183206,-4.656488549618321,0.0
13.010000467300415,-12.334926953124999,4.747701892089843,3.2034418212890623,55.099236641221374,-97.2824427480916,-3.068702290076336,-11.61906065673828,-1.5658078857421873,-3.9600095458984375,51.86259541984733,57.69465648854962,-9.267175572519085,0.0
13.02000093460083,-10.587159741210938,5.501875415039062,0.1771709228515625,12.83969465648855,-100.87022900763358,-2.9618320610687023,-9.464279162597656,2.039859814453125,-3.488351818847656,47.25190839694657,67.72519083969466,-10.427480916030534,0.0
13.030000925064087,-8.870517150878905,5.702988354492187,-1.3168109130859373,-33.603053435114504,-97.14503816793894,0.44274809160305345,-9.758765966796874,3.347093920898437,-0.7661445312499999,36.229007633587784,79.87786259541984,-2.4885496183206106,0.0
13.040000915527344,-6.217741711425781,2.607285607910156,-1.8746598999023436,-65.25190839694656,-90.54961832061069,4.549618320610687,-10.759542260742187,3.3111808959960936,0.63206923828125,34.87022900763359,76.06106870229007,4.916030534351145,0.0
13.050000429153442,-4.783614916992187,0.5386953735351562,-1.9680337646484374,-78.04580152671755,-77.6793893129771,5.679389312977099,-9.981426721191406,4.733336682128906,1.1755530151367186,31.84732824427481,70.87022900763358,8.351145038167939,0.0
13.060000658035278,-2.731784094238281,-0.7661445312499999,-3.1316157714843746,-76.68702290076335,-58.83969465648855,7.4961832061068705,-10.8409451171875,4.211400720214844,1.9393033447265624,25.87786259541985,65.92366412213741,16.137404580152673,0.0
13.070000648498535,-2.0733786376953125,-0.44053310546874996,-3.5865140869140624,-75.12977099236642,-39.57251908396947,6.595419847328245,-10.409988818359375,4.357447021484375,1.898601916503906,5.297709923664122,64.27480916030534,22.35114503816794,0.0
13.080000638961792,-1.2378022583007813,-0.6153098266601562,-4.266467358398438,-72.76335877862596,-20.412213740458014,7.206106870229007,-10.603919152832031,3.497928625488281,1.7238251953125,-10.778625954198473,63.541984732824424,28.015267175572518,0.0
13.090000629425049,-1.388636962890625,-0.07422025146484375,-3.536235852050781,-71.90839694656489,-1.083969465648855,6.259541984732825,-8.48505068359375,2.4349030883789062,1.2425906616210938,-30.229007633587788,58.412213740458014,28.595419847328245,0.0
13.100000858306885,-1.6352397338867186,0.19871873779296872,-3.976768957519531,-75.45038167938931,11.251908396946565,6.244274809160306,-9.689334118652344,-1.2713210815429687,1.1611878051757811,-34.12213740458015,59.83206106870229,31.770992366412212,0.0
13.110000610351562,-2.252943762207031,-0.39983167724609375,-2.7341782958984373,-73.86259541984732,23.52671755725191,6.732824427480916,-9.193734375,-2.7557261108398436,1.0821791503906248,-22.916030534351144,48.6412213740458,27.893129770992367,0.0
13.12000060081482,-2.5905261962890624,-0.7589619262695312,-2.1811177124023438,-72.73282442748092,32.85496183206107,10.076335877862595,-9.859322436523437,-4.369418029785156,1.4628572143554686,-8.900763358778626,45.11450381679389,25.801526717557252,0.0
13.130000591278076,-4.723759875488281,0.7422025146484375,0.09337386474609374,-79.87786259541984,45.465648854961835,10.290076335877863,-9.014169250488282,-3.84987626953125,1.8650830932617186,1.1450381679389312,40.656488549618324,20.778625954198475,0.0
13.140000581741333,-5.286397265624999,0.9145850341796874,1.6304513305664061,-95.2824427480916,48.12213740458015,10.977099236641221,-9.141061938476563,-3.009511486816406,2.501940734863281,10.610687022900763,36.25954198473283,17.358778625954198,0.0
13.15000033378601,-5.597643481445312,-0.1867477294921875,4.13718046875,-102.70229007633588,50.030534351145036,12.564885496183207,-9.727641345214844,-1.9919757812499999,2.7078420776367187,14.977099236641221,32.0763358778626,14.717557251908397,0.0
13.160000324249268,-4.309562988281249,-4.453215087890625,5.044582897949218,-88.85496183206106,51.63358778625954,19.557251908396946,-9.81862100830078,-1.2808978881835937,2.6958710693359373,17.083969465648856,31.31297709923664,11.801526717557252,0.0
13.170000791549683,-2.6982652709960937,-7.663839514160156,7.505822204589843,-46.51908396946565,65.25190839694656,21.66412213740458,-0.7924807495117187,7.407659936523437,-4.328716601562499,-19.129770992366414,12.564885496183207,-8.900763358778626,0.0
13.18000054359436,-5.0757075195312495,-6.299144567871093,9.3852705078125,-1.0076335877862594,78.41221374045801,18.15267175572519,-9.674968908691406,5.693411547851563,4.402936853027343,-92.59541984732824,85.86259541984732,17.282442748091604,0.0
13.190000534057617,-6.160280871582031,-7.074865905761718,11.334150659179686,25.83206106870229,81.95419847328245,12.274809160305344,-10.881646545410156,0.4572925170898437,3.0071172851562498,-113.14503816793894,99.19083969465649,28.229007633587788,0.0
13.200000524520874,-7.343016491699219,-8.578424548339843,11.231199987792968,57.038167938931295,77.6793893129771,3.3435114503816794,-12.854468713378905,-6.0142345703124995,3.6918589599609373,-72.29007633587786,92.27480916030534,27.46564885496183,0.0
13.21000051498413,-10.000580334472655,-8.609549169921875,12.145785021972655,85.78625954198473,72.91603053435115,-11.022900763358779,-12.531251489257812,-10.570400329589843,3.1364041748046874,6.702290076335878,71.98473282442748,15.908396946564885,0.0
13.220000505447388,-11.8369330078125,-5.315127685546875,13.503297363281249,101.93893129770993,61.41984732824427,-22.015267175572518,-11.077971081542968,-7.711723547363281,1.484405029296875,49.969465648854964,58.13740458015267,2.4885496183206106,0.0
13.230000495910645,-13.0627642578125,0.7781155395507812,14.367604162597656,100.79389312977099,42.778625954198475,-24.412213740458014,-9.200916979980468,-1.6519991455078125,0.30406361083984373,53.786259541984734,50.3206106870229,1.9694656488549618,0.0
13.240000486373901,-12.234370483398436,3.88818349609375,13.876792822265624,87.12977099236642,21.34351145038168,-18.198473282442748,-9.60793126220703,2.6192566162109374,1.0726023437499999,34.396946564885496,50.961832061068705,5.816793893129771,0.0
13.250000476837158,-9.76116016845703,3.507505432128906,11.403582507324218,74.7175572519084,2.7022900763358777,-7.267175572519084,-10.599130749511717,4.015076184082031,1.6352397338867186,14.335877862595419,51.37404580152672,15.007633587786259,0.0
13.260000944137573,-7.1778165771484375,2.7198130859375,9.157821350097656,89.05343511450381,5.66412213740458,3.0229007633587788,-10.797849487304687,1.22583125,1.2641384765625,-2.8396946564885495,50.80916030534351,21.6793893129771,0.0
13.27000093460083,-6.323086584472656,6.030993981933594,5.1140147460937495,101.61832061068702,14.091603053435115,18.65648854961832,-12.416329809570312,-3.1028853515624997,0.09816226806640624,-0.7022900763358778,46.534351145038165,24.198473282442748,0.0
13.280000925064087,-5.363011718749999,10.371681591796875,0.833182177734375,89.74045801526718,22.717557251908396,32.42748091603053,-11.360486877441405,-1.637633935546875,-1.2713210815429687,0.33587786259541985,33.63358778625954,23.114503816793892,0.0
13.290000438690186,-6.418854650878906,12.071564770507813,0.5530605834960938,38.0,26.793893129770993,41.29770992366412,-11.195286962890624,-0.6943184814453125,-1.22583125,-2.7480916030534353,30.106870229007633,22.458015267175572,0.0
13.3000009059906,-10.663774194335938,9.701305126953125,4.383783239746093,-26.53435114503817,25.893129770992367,45.48091603053435,-12.349292163085936,0.2059013427734375,-0.46208092041015625,-11.34351145038168,31.31297709923664,24.931297709923665,0.0
13.310000896453857,-12.952630981445312,2.9831752685546875,8.32463917236328,-68.97709923664122,24.671755725190838,49.70992366412214,-14.173673828124999,-0.1149216796875,0.011971008300781249,-17.61832061068702,28.717557251908396,26.15267175572519,0.0
13.320000410079956,-15.47611953125,-2.176329309082031,12.540828295898438,-70.29007633587786,26.99236641221374,41.847328244274806,-16.421829187011717,-0.229843359375,1.2808978881835937,-14.213740458015268,22.106870229007633,25.404580152671755,0.0
13.330000400543213,-16.1273423828125,-2.7557261108398436,9.473855969238281,-59.770992366412216,24.076335877862597,30.717557251908396,-16.352397338867185,0.6536170532226562,0.5482721801757812,-12.442748091603054,7.083969465648855,20.85496183206107,0.0
13.340000629425049,-13.508085766601562,-3.289633081054687,3.4763808105468748,-51.770992366412216,32.3206106870229,27.0381679389313,-15.121777685546874,4.853046765136718,-0.737414111328125,-24.47328244274809,-8.15267175572519,14.076335877862595,0.0
13.350000619888306,-10.01015714111328,-3.775656018066406,-0.6416460449218749,-44.51908396946565,44.19847328244275,26.53435114503817,-14.573505505371093,7.2903440551757805,-0.10295067138671875,-53.06870229007634,-10.381679389312977,15.16030534351145,0.0
13.360000610351562,-6.358999609374999,-5.485116003417969,-3.0693665283203124,-39.37404580152672,52.48854961832061,21.96946564885496,-13.929465258789062,7.541735229492187,0.13407529296874998,-78.10687022900764,-14.076335877862595,19.389312977099237,0.0
13.37000036239624,-5.506663818359375,-5.911283898925781,-1.9225439331054686,-30.900763358778626,62.10687022900763,5.450381679389313,-14.008473913574218,7.848193041992187,1.2737152832031249,-88.29007633587786,-18.137404580152673,25.66412213740458,0.0
13.380000591278076,-6.315903979492187,-2.6503812377929687,-2.032677209472656,-17.297709923664122,71.23664122137404,-7.3893129770992365,-11.827356201171874,5.011064074707031,0.5267243652343749,-102.76335877862596,-17.557251908396946,32.01526717557252,0.0
13.390000820159912,-7.75721337890625,-0.12210428466796874,-2.375048046875,-6.244274809160306,79.32824427480917,-12.885496183206106,-12.255918298339843,2.1595698974609374,-0.04548983154296875,-86.01526717557252,-21.16030534351145,35.14503816793893,0.0
13.40000057220459,-8.9255837890625,2.3319524169921872,-2.1883003173828124,-9.068702290076336,86.62595419847328,-14.16793893129771,-10.251971508789062,2.0877438476562498,-0.35194764404296874,-75.81679389312977,-27.557251908396946,32.94656488549618,0.0
13.410000801086426,-9.993397729492187,2.8036101440429686,-1.0845733520507812,-19.908396946564885,91.6030534351145,-11.938931297709924,-9.117119921875,1.915361328125,-1.85790048828125,-70.16793893129771,-27.96946564885496,32.916030534351144,0.0
13.420000553131104,-10.87206973876953,3.0214824951171875,0.40222587890625,-28.50381679389313,94.3969465648855,-10.01526717557252,-9.313444458007812,-0.7589619262695312,-0.40462008056640625,-56.97709923664122,-23.404580152671755,33.29770992366412,0.0
13.43000078201294,-10.568006127929687,2.0638018310546875,1.7645266235351562,-37.19083969465649,88.36641221374046,-7.038167938931298,-9.351751684570312,-1.697488977050781,-0.2825157958984375,-38.62595419847328,-23.755725190839694,29.099236641221374,0.0
13.440000534057617,-10.66856259765625,1.16837041015625,3.0334535034179684,-39.770992366412216,82.99236641221374,-6.488549618320611,-8.537723120117187,-1.8243816650390623,-0.19153613281249998,-16.977099236641223,-27.923664122137403,21.17557251908397,0.0
13.450000524520874,-10.433930834960936,0.8403647827148437,3.5984850952148437,-37.221374045801525,76.51908396946565,-7.145038167938932,-7.915230688476562,-1.0941501586914062,-0.6679822631835937,0.7022900763358778,-29.81679389312977,12.244274809160306,0.0
13.46000051498413,-10.328585961914062,1.2473790649414063,3.5218706420898434,-38.30534351145038,64.2442748091603,-8.82442748091603,-7.182604980468749,1.0390835205078124,-1.2880804931640624,7.114503816793893,-25.984732824427482,5.435114503816794,0.0
13.470000505447388,-10.110713610839843,0.16280571289062498,3.4907460205078125,-36.25954198473283,57.267175572519086,-9.19083969465649,-5.552153649902343,2.9568390502929685,-1.9656395629882812,0.4580152671755725,-18.015267175572518,1.3587786259541985,0.0
13.480000495910645,-8.542511523437499,-0.9624690673828125,2.9735984619140625,-26.946564885496183,48.6412213740458,-9.954198473282442,-6.004657763671875,2.8802245971679685,-3.6727053466796873,-1.1297709923664123,-8.748091603053435,3.3740458015267176,0.0
13.490000486373901,-9.900023864746093,-1.35990654296875,2.779668127441406,-11.206106870229007,46.213740458015266,-13.541984732824428,-6.842628344726562,1.4796166259765624,-3.785232824707031,2.33587786259542,7.099236641221374,3.969465648854962,0.0
13.500000953674316,-9.550470422363281,-1.4508862060546874,3.2249896362304686,4.809160305343512,42.045801526717554,-16.366412213740457,-7.709329345703124,0.18914193115234373,-4.3071687866210935,17.404580152671755,14.50381679389313,0.6259541984732825,0.0
13.510000705718994,-9.062053283691405,-0.5123591552734374,2.7174188842773437,19.450381679389313,37.51145038167939,-17.755725190839694,-7.860164050292968,0.967257470703125,-3.7421371948242186,28.732824427480917,15.282442748091603,-5.66412213740458,0.0
13.52000093460083,-9.60793126220703,1.484405029296875,3.4763808105468748,26.671755725190838,37.69465648854962,-17.81679389312977,-7.417236743164062,4.11802685546875,-4.019864587402344,27.31297709923664,12.870229007633588,-10.900763358778626,0.0
13.530000686645508,-9.402029919433593,2.3487118286132813,3.986345764160156,28.244274809160306,30.442748091603054,-11.618320610687023,-8.94473740234375,2.308010400390625,-0.7541735229492187,26.061068702290076,24.076335877862597,-3.9083969465648853,0.0
13.540000677108765,-9.662997900390625,2.379836450195312,3.7517140014648436,30.80916030534351,27.83206106870229,-6.885496183206107,-8.90643017578125,3.84987626953125,-0.9720458740234375,28.82442748091603,12.641221374045802,-7.251908396946565,0.0
13.550000667572021,-9.727641345214844,2.978386865234375,3.6104561035156246,34.12213740458015,28.946564885496183,-4.3816793893129775,-9.066841687011719,3.3303345092773435,1.1228805786132812,18.916030534351144,15.145038167938932,-6.106870229007634,0.0
13.560000658035278,-8.080430603027343,1.9225439331054686,2.935291235351562,32.045801526717554,27.61832061068702,-1.6946564885496183,-7.410054138183593,5.173869787597656,-1.905784521484375,4.076335877862595,4.106870229007634,-10.992366412213741,0.0
13.570000648498535,-8.355763793945313,2.2553379638671873,2.4205378784179685,24.778625954198475,26.625954198473284,-1.6946564885496183,-8.79150849609375,4.8698061767578125,1.7022773803710936,-21.64885496183206,13.34351145038168,-8.091603053435115,0.0
13.580000638961792,-8.750807067871094,1.7429788085937499,2.0925322509765625,17.19083969465649,28.38167938931298,-2.564885496183206,-8.379705810546875,5.9017070922851556,-2.310404602050781,-36.030534351145036,0.8549618320610687,-10.122137404580153,0.0
13.590000629425049,-9.229647399902344,1.3623007446289062,1.5275006591796874,13.541984732824428,28.793893129770993,-3.3893129770992365,-10.256759912109374,1.3814543579101561,3.1699229980468746,-46.961832061068705,6.931297709923665,-7.419847328244275,0.0
13.600000858306885,-8.619125976562499,1.01514150390625,0.6488286499023437,11.49618320610687,31.389312977099237,-3.984732824427481,-8.640673791503906,5.4779333984375,-3.3638533325195312,-47.32824427480916,-14.50381679389313,-14.900763358778626,0.0
13.610000610351562,-9.888052856445311,2.7581203125,0.8355763793945312,2.5343511450381677,31.603053435114504,-4.961832061068702,-9.478644372558593,3.938461730957031,-0.9169792358398436,-83.17557251908397,1.1297709923664123,-17.6793893129771,0.0
13.62000060081482,-9.730035546875,1.8938135131835936,1.2952630981445312,-9.709923664122137,31.328244274809162,-2.6717557251908395,-10.797849487304687,1.915361328125,1.5203180541992187,-86.6412213740458,-0.32061068702290074,-17.87786259541985,0.0
13.630000591278076,-9.782707983398437,1.350329736328125,0.7062894897460937,-12.549618320610687,31.81679389312977,-2.2595419847328246,-13.271059802246093,-1.9129671264648436,3.7301661865234372,-54.50381679389313,-11.694656488549619,-15.541984732824428,0.0
13.640000581741333,-10.486603271484375,1.5298948608398437,1.1707646118164061,-15.618320610687023,32.412213740458014,-3.7557251908396947,-9.708487731933593,0.6775590698242188,1.5610194824218748,-42.900763358778626,-27.81679389312977,-22.198473282442748,0.0
13.650000810623169,-10.307038146972655,1.1109095703125,1.2018892333984375,-22.50381679389313,32.2442748091603,-3.312977099236641,-9.402029919433593,1.5203180541992187,-0.34237083740234375,-40.97709923664122,-35.465648854961835,-26.366412213740457,0.0
13.660000562667847,-11.40837091064453,1.8411410766601561,2.35589443359375,-31.31297709923664,31.129770992366414,-4.916030534351145,-11.65736788330078,-2.2577321655273437,2.9089550170898435,-27.374045801526716,-31.114503816793892,-25.19083969465649,0.0
13.670001029968262,-10.330980163574218,1.4125789794921875,1.3407529296874998,-37.23664122137404,23.862595419847327,-4.030534351145038,-10.82179150390625,-0.02633621826171875,0.062249243164062495,-5.145038167938932,-46.33587786259542,-28.946564885496183,0.0
13.68000054359436,-11.06360587158203,1.0462661254882812,1.8435352783203125,-46.595419847328245,19.389312977099237,-2.9770992366412212,-12.603077539062499,-3.2537200561523436,3.6176387084960937,17.389312977099237,-47.282442748091604,-27.053435114503817,0.0
13.690000534057617,-9.253589416503905,-1.1563994018554686,1.7932570434570312,-32.656488549618324,22.137404580152673,-2.1374045801526718,-9.993397729492187,0.7900865478515624,-0.4644751220703125,39.16030534351145,-68.22900763358778,-35.7557251908397,0.0
13.700000762939453,-11.087547888183593,0.8667010009765624,2.3774422485351563,-36.76335877862596,21.572519083969464,-4.458015267175573,-11.307814440917968,-1.5921441040039062,2.7748797241210936,33.099236641221374,-57.49618320610687,-36.16793893129771,0.0
13.71000051498413,-9.90241806640625,-0.031124621582031248,2.0925322509765625,-30.625954198473284,18.717557251908396,-3.6030534351145036,-9.557653027343749,1.9393033447265624,-0.9361328491210937,50.10687022900763,-75.31297709923665,-40.29007633587786,0.0
13.720000505447388,-9.900023864746093,0.59376201171875,2.9472622436523435,-27.786259541984734,18.137404580152673,-3.480916030534351,-9.595960253906249,1.5298948608398437,0.4740519287109375,37.221374045801525,-61.954198473282446,-40.595419847328245,0.0
13.730000495910645,-9.770736975097655,0.2561795776367187,3.1603461914062496,-26.549618320610687,16.458015267175572,-3.4656488549618323,-9.085995300292968,3.071760729980469,-0.9959878906249999,32.61068702290076,-61.25190839694657,-41.17557251908397,0.0
13.740000486373901,-8.540117321777343,-0.9888052856445312,2.935291235351562,-17.236641221374047,13.389312977099237,-0.9923664122137404,-6.8210805297851556,3.4644098022460934,-1.2425906616210938,14.458015267175572,-47.64885496183206,-40.61068702290076,0.0
13.750000715255737,-8.192958081054687,-1.0630255371093749,2.636016027832031,-2.687022900763359,16.748091603053435,-0.8091603053435115,-9.153032946777342,0.59376201171875,-0.21787235107421873,19.587786259541986,-40.900763358778626,-34.030534351145036,0.0
13.760000467300415,-9.861716638183593,-0.7517793212890624,3.440467785644531,9.038167938931299,20.68702290076336,-3.1603053435114505,-9.423577734375,0.0047884033203125,0.5051765502929687,44.38167938931298,-43.06870229007634,-32.778625954198475,0.0
13.770000696182251,-10.216058483886718,-0.0718260498046875,3.375824340820312,15.648854961832061,18.427480916030536,-3.3740458015267176,-7.896077075195312,1.6328455322265625,-0.5410895751953124,47.69465648854962,-40.93129770992366,-33.89312977099237,0.0
13.780000925064087,-9.30147344970703,0.3495534423828125,2.8754361938476563,17.893129770992367,16.671755725190838,-2.0763358778625953,-7.398083129882812,2.6815058593749996,-1.1348515869140625,39.52671755725191,-36.50381679389313,-32.58015267175573,0.0
13.790000438690186,-9.114725720214842,0.46686932373046874,1.7573440185546874,15.801526717557252,17.236641221374047,-3.0229007633587788,-9.076418493652342,2.221819140625,0.40222587890625,30.870229007633586,-24.99236641221374,-26.9618320610687,0.0
13.8000009059906,-9.85692823486328,0.5698199951171875,2.6288334228515624,10.335877862595419,19.068702290076335,-6.9465648854961835,-7.213729602050781,3.9647979492187497,0.17477672119140625,17.480916030534353,-20.671755725190838,-25.72519083969466,0.0
13.8100004196167,-8.889670764160156,-0.36152445068359373,1.9823989746093749,6.9465648854961835,14.473282442748092,-7.7251908396946565,-9.153032946777342,2.3247698120117186,0.15322890625,14.122137404580153,-15.923664122137405,-19.31297709923664,0.0
13.820000410079956,-9.074024291992187,-0.7829039428710937,2.9448680419921875,13.251908396946565,17.31297709923664,-10.13740458015267,-9.672574707031249,0.5722141967773438,1.180341418457031,20.0,-13.786259541984732,-16.3206106870229,0.0
13.830000638961792,-8.70771143798828,-0.8092401611328125,1.8602946899414061,23.129770992366414,18.18320610687023,-11.312977099236642,-8.2360537109375,0.814028564453125,1.197100830078125,26.564885496183205,-17.81679389312977,-18.03053435114504,0.0
13.840000629425049,-9.327809667968749,0.143652099609375,2.6623522460937497,28.35114503816794,21.69465648854962,-13.038167938931299,-8.882488159179687,-0.09816226806640624,1.848323681640625,33.3587786259542,-19.862595419847327,-16.916030534351144,0.0
13.850000619888306,-9.56962403564453,1.4149731811523436,2.5737667846679684,28.48854961832061,21.572519083969464,-13.221374045801527,-9.821015209960937,-0.5913678100585937,1.9608511596679685,39.64885496183206,-19.83206106870229,-16.30534351145038,0.0
13.860000610351562,-10.27830772705078,2.3367408203125,3.21780703125,22.3206106870229,20.931297709923665,-13.312977099236642,-9.435548742675781,-0.19632453613281248,1.5849614990234373,43.908396946564885,-23.6793893129771,-18.65648854961832,0.0
13.87000060081482,-10.953472595214842,3.3542765258789062,4.201823913574218,12.229007633587786,19.0381679389313,-11.740458015267176,-8.942343200683593,1.6448165405273436,0.51714755859375,34.61068702290076,-24.091603053435115,-21.66412213740458,0.0
13.880000352859497,-9.375693701171874,3.5482068603515624,4.438849877929687,2.8396946564885495,10.717557251908397,-7.893129770992366,-7.5465236328125,2.5426421630859375,0.948103857421875,19.52671755725191,-21.34351145038168,-21.541984732824428,0.0
13.890000820159912,-10.0748005859375,3.421314172363281,5.7077767578125,-4.244274809160306,7.526717557251908,-6.290076335877862,-9.366116894531249,0.7565677246093749,2.3391350219726563,9.969465648854962,-14.274809160305344,-17.64885496183206,0.0
13.90000057220459,-10.903194360351561,2.9735984619140625,6.050147595214844,-7.572519083969466,1.6946564885496183,-5.862595419847328,-8.389282617187499,-0.24899697265624998,2.1930887207031247,9.068702290076336,-15.374045801526718,-17.893129770992367,0.0
13.910000562667847,-9.789890588378906,1.89620771484375,6.418854650878906,-9.358778625954198,-10.992366412213741,-2.8091603053435112,-8.202534887695313,-0.5051765502929687,1.8195932617187498,11.083969465648854,-14.442748091603054,-18.244274809160306,0.0
13.920000553131104,3.622427111816406,-14.018050720214843,-0.603338818359375,46.06106870229008,-33.64885496183206,14.106870229007633,-7.395688928222656,-0.24181436767578124,1.3311761230468748,12.412213740458014,-14.213740458015268,-17.251908396946565,0.0
13.93000078201294,1.455674609375,-17.362750439453123,-0.469263525390625,206.83969465648855,53.083969465648856,-0.7175572519083969,-7.204152795410156,-1.5035586425781249,1.8459294799804686,21.34351145038168,-7.877862595419847,-16.931297709923665,0.0
13.940000534057617,-10.896011755371093,-5.257666845703125,4.951209033203125,220.67175572519085,66.56488549618321,-37.23664122137404,-7.651868505859374,-1.6065093139648436,1.898601916503906,39.45038167938932,-28.015267175572518,-28.900763358778626,0.0
13.950000524520874,-14.094665173339843,4.089296435546875,9.497797985839844,223.29770992366412,56.19847328244275,-39.80152671755725,-4.924872814941406,1.70467158203125,-2.1499930908203124,42.70229007633588,4.732824427480916,-14.82442748091603,0.0
13.96000051498413,-21.047426794433594,23.23812131347656,17.700332873535157,141.00763358778627,12.946564885496183,-21.587786259541986,-7.702146740722656,3.919308117675781,2.722207287597656,38.0763358778626,-26.519083969465647,-14.50381679389313,0.0
13.970000505447388,-19.795259326171873,25.359383984374997,17.46570111083984,2.0,-62.274809160305345,11.923664122137405,-7.3837179199218745,3.73495458984375,1.3407529296874998,18.47328244274809,-20.946564885496183,-11.038167938931299,0.0
13.980000257492065,-13.567940808105467,8.949525805664061,13.867216015624999,-64.61068702290076,-120.41221374045801,43.23664122137404,-6.591237170410156,5.829881042480468,-0.9121908325195311,-5.022900763358779,-17.572519083969464,-7.908396946564886,0.0
13.990000486373901,-13.579911816406248,2.0566192260742184,14.46097802734375,-44.01526717557252,-150.42748091603053,53.770992366412216,-6.004657763671875,5.671863732910156,-3.0262708984374997,-30.85496183206107,-14.488549618320612,-8.076335877862595,0.0
14.000000953674316,-10.520122094726561,-6.217741711425781,8.916006982421875,-12.854961832061068,-175.17557251908397,60.534351145038165,-9.112331518554686,3.555389465332031,-3.35188232421875,-56.6412213740458,6.595419847328245,-13.221374045801527,0.0
14.010000705718994,-10.678139404296875,-10.704475622558594,6.471527087402343,19.557251908396946,-177.23664122137404,52.396946564885496,-16.72589279785156,-1.7477672119140624,-0.46686932373046874,-46.38167938931298,24.15267175572519,-16.27480916030534,0.0
14.02000117301941,-12.186486450195313,-11.202469567871093,4.209006518554688,40.56488549618321,-178.74809160305344,31.34351145038168,-25.653870788574217,-8.24802471923828,7.5153990112304685,18.16793893129771,10.870229007633588,-22.625954198473284,0.0
14.030000686645508,-12.938265771484375,-10.299855541992187,-1.3383587280273437,73.23664122137404,-178.53435114503816,17.572519083969464,-16.737863806152344,-1.6735469604492186,1.0606313354492187,64.44274809160305,-24.931297709923665,-17.801526717557252,0.0
14.040000677108765,-13.048399047851563,-7.362170104980469,-3.1747114013671873,97.52671755725191,-167.63358778625954,13.450381679389313,-14.247894079589843,-0.3399766357421875,1.0199299072265624,73.17557251908397,-16.229007633587788,4.9465648854961835,0.0
14.050000667572021,-12.835315100097656,-5.389347937011719,-1.7597382202148437,116.77862595419847,-154.7175572519084,10.335877862595419,-6.754042883300781,4.970362646484375,-5.082890124511718,61.31297709923664,-15.541984732824428,-3.816793893129771,0.0
14.060000658035278,-12.176909643554687,-2.118868469238281,-3.3542765258789062,121.5114503816794,-140.2290076335878,7.145038167938932,-6.469132885742187,5.097255334472656,-4.774038110351563,44.412213740458014,-0.8854961832061069,0.0916030534351145,0.0
14.070000648498535,-13.007697619628905,-0.7254431030273437,-1.5490484741210937,105.48091603053435,-126.76335877862596,1.618320610687023,-6.265625744628906,3.0071172851562498,-4.11802685546875,21.297709923664122,18.748091603053435,4.778625954198473,0.0
14.080000638961792,-13.43865391845703,-0.28969840087890625,0.5051765502929687,91.52671755725191,-116.25954198473282,-1.4045801526717556,-5.925649108886718,1.1563994018554686,-4.716577270507813,1.7251908396946565,32.82442748091603,8.961832061068701,0.0
14.090000629425049,-13.651737866210937,2.319981408691406,0.040701428222656245,71.8473282442748,-107.58778625954199,-0.2900763358778626,-7.8721350585937495,-1.9847931762695312,-5.882553479003906,-8.198473282442748,43.770992366412216,8.870229007633588,0.0
14.100000619888306,-11.379640490722656,0.5051765502929687,-1.66636435546875,59.55725190839695,-97.2824427480916,5.404580152671755,-11.468225952148437,-5.183446594238281,-3.6176387084960937,-2.4122137404580153,57.465648854961835,8.946564885496183,0.0
14.110000371932983,-11.350910070800781,1.6519991455078125,-0.4955997436523437,52.54961832061068,-78.9618320610687,3.9236641221374047,-12.521674682617187,-4.7884033203125,-3.3303345092773435,22.580152671755727,56.51908396946565,2.885496183206107,0.0
14.12000060081482,-10.000580334472655,1.9847931762695312,-0.9504980590820312,33.05343511450382,-72.33587786259542,3.0229007633587788,-15.473725329589843,-7.211335400390625,-0.7110778930664062,41.23664122137404,64.74809160305344,-1.282442748091603,0.0
14.130000352859497,-9.062053283691405,3.1268273681640624,-1.3359645263671873,7.923664122137405,-60.717557251908396,0.0916030534351145,-11.97100830078125,-3.5865140869140624,-2.9281086303710935,69.3587786259542,46.33587786259542,-7.938931297709924,0.0
14.140000581741333,-11.18571015625,7.433996154785156,-0.02154781494140625,-30.442748091603054,-52.6412213740458,-1.7557251908396947,-9.366116894531249,2.8945898071289062,-0.39743747558593745,59.83206106870229,48.900763358778626,-10.15267175572519,0.0
14.150000810623169,-8.173804467773436,6.864176159667968,-0.8906430175781249,-81.14503816793894,-58.36641221374046,5.633587786259542,-9.361328491210937,5.949591125488281,-0.12210428466796874,27.34351145038168,50.0,-6.778625954198473,0.0
14.160000562667847,-6.921636999511718,5.149927770996094,-1.7645266235351562,-120.03053435114504,-56.47328244274809,11.84732824427481,-9.648632690429688,7.3286512817382805,0.6081272216796875,-1.4351145038167938,45.17557251908397,6.091603053435114,0.0
14.170000553131104,-5.197811804199218,2.3511060302734372,-2.9640216552734375,-144.3053435114504,-55.57251908396947,16.091603053435115,-9.555258825683593,6.387730029296875,2.3678654418945313,-33.57251908396947,47.786259541984734,15.98473282442748,0.0
14.18000054359436,-2.5354595581054684,-1.5322890624999999,-4.3239281982421875,-144.06106870229007,-42.56488549618321,20.671755725190838,-7.517793212890624,7.869740856933594,-0.9265560424804687,-68.53435114503817,42.0763358778626,18.793893129770993,0.0
14.190000295639038,-1.9943699829101562,-3.303998291015625,-5.025429284667968,-128.90076335877862,-19.236641221374047,20.27480916030534,-10.378864196777343,2.27927998046875,2.0925322509765625,-98.03053435114504,57.43511450381679,34.87022900763359,0.0
14.200000762939453,2.1835119140624997,-9.382876306152344,-8.221688500976562,-96.06106870229007,2.0763358778625953,19.84732824427481,-9.897629663085937,-0.5578489868164063,0.9840168823242187,-86.36641221374046,42.961832061068705,36.030534351145036,0.0
14.21000051498413,-3.287238879394531,-3.8091748413085935,-4.939238024902344,-72.44274809160305,38.717557251908396,6.99236641221374,-8.877699755859375,-2.9041666137695312,0.09816226806640624,-79.34351145038168,39.725190839694655,33.786259541984734,0.0
14.220000505447388,-2.920926025390625,-3.1196447631835937,-3.902548706054687,-83.8473282442748,49.12977099236641,0.6870229007633588,-8.269572534179687,-3.0885201416015624,-1.5203180541992187,-68.61068702290076,34.0763358778626,28.671755725190838,0.0
14.230000495910645,-3.248931652832031,-3.758896606445312,-3.0047230834960934,-83.06870229007633,60.76335877862596,-0.5190839694656488,-7.733271362304687,-3.8187516479492185,-1.0486603271484374,-58.36641221374046,34.229007633587784,27.6793893129771,0.0
14.240000486373901,-5.0014872680664055,-2.1906945190429687,-1.0438719238281249,-70.35114503816794,80.09160305343511,-3.6946564885496183,-8.865728747558594,-3.189076611328125,-0.05746083984375,-41.57251908396947,30.061068702290076,24.82442748091603,0.0
14.250000238418579,-6.215347509765625,-1.9823989746093749,1.8770541015625,-73.86259541984732,79.25190839694656,-5.740458015267175,-8.14028564453125,-2.583343591308594,-0.603338818359375,-31.603053435114504,30.16793893129771,22.442748091603054,0.0
14.260000944137573,-5.925649108886718,-3.0142998901367184,4.46279189453125,-58.36641221374046,81.02290076335878,-4.793893129770993,-6.938396411132812,0.8164227661132812,-3.327940307617187,-26.137404580152673,24.290076335877863,15.49618320610687,0.0
14.270000696182251,-7.1035963256835934,-2.482787121582031,7.771578588867187,-39.20610687022901,79.08396946564885,-3.267175572519084,-6.41646044921875,2.3726538452148436,-1.9129671264648436,-55.20610687022901,45.725190839694655,16.595419847328245,0.0
14.280000686645508,-8.556876733398436,-2.147598889160156,8.734047656249999,-22.30534351145038,75.45038167938931,0.9312977099236641,-7.857769848632812,0.24660277099609373,-0.076614453125,-59.74045801526717,58.54961832061068,21.81679389312977,0.0
14.290000677108765,-9.598354455566406,-3.9743747558593747,8.762778076171875,-12.045801526717558,69.69465648854961,2.564885496183206,-10.24718310546875,-3.375824340820312,1.0630255371093749,-36.10687022900763,60.534351145038165,25.206106870229007,0.0
14.3000009059906,-9.0021982421875,-5.449202978515625,8.717288244628906,10.65648854961832,66.29007633587786,1.633587786259542,-9.423577734375,-2.8610709838867185,-0.5195417602539062,-8.793893129770993,53.9236641221374,18.778625954198475,0.0
14.310000658035278,-8.901641772460938,-4.61602080078125,10.347739575195313,30.916030534351144,60.916030534351144,-4.137404580152672,-8.633491186523438,-2.2361843505859373,-1.0510545288085937,-1.5572519083969465,58.0763358778626,13.709923664122137,0.0
14.320000410079956,-8.74601866455078,-4.53940634765625,11.429918725585937,49.29770992366412,51.06870229007634,-10.244274809160306,-10.726023437499999,-3.5242648437499997,0.9145850341796874,20.244274809160306,61.57251908396947,15.32824427480916,0.0
14.330000638961792,-9.258377819824219,-2.4516625,11.195286962890624,65.37404580152672,38.778625954198475,-14.900763358778626,-10.747571252441405,-2.1883003173828124,1.6807295654296874,38.18320610687023,58.30534351145038,13.053435114503817,0.0
14.340000629425049,-9.770736975097655,0.5889736083984375,11.250353601074218,79.02290076335878,27.984732824427482,-14.16793893129771,-10.376469995117187,-0.51714755859375,1.0175357055664063,39.969465648854964,54.44274809160305,10.076335877862595,0.0
14.350000619888306,-10.66856259765625,3.5386300537109374,11.511321582031249,82.12213740458016,15.129770992366412,-7.114503816793893,-10.321403356933594,2.39420166015625,1.0175357055664063,23.00763358778626,55.17557251908397,10.396946564885496,0.0
14.360000610351562,-12.057199560546874,5.257666845703125,11.908759057617187,81.31297709923665,4.824427480916031,1.9541984732824427,-11.417947717285156,1.0869675537109373,3.459621398925781,11.587786259541986,58.274809160305345,18.916030534351144,0.0
14.37000060081482,-9.138667736816405,2.185906115722656,8.75320126953125,91.89312977099236,-2.6564885496183206,11.801526717557252,-12.157756030273436,0.13407529296874998,3.1483751831054687,11.19083969465649,50.274809160305345,23.557251908396946,0.0
14.380000352859497,-9.153032946777342,3.9504327392578125,7.881711865234375,94.70229007633588,-4.732824427480916,15.374045801526718,-11.81777939453125,-0.30406361083984373,1.1611878051757811,4.351145038167939,39.908396946564885,22.076335877862597,0.0
14.390001058578491,-9.289502441406249,7.1586629638671875,6.907271789550781,84.83969465648855,-6.091603053435114,21.099236641221374,-11.391611499023437,0.016759411621093748,0.6919242797851562,-8.51908396946565,37.19083969465649,21.954198473282442,0.0
14.40000057220459,-9.947907897949218,10.046070166015625,5.011064074707031,59.603053435114504,-6.870229007633588,32.213740458015266,-11.937489477539062,-1.5634136840820312,1.8650830932617186,-13.572519083969466,37.587786259541986,28.290076335877863,0.0
14.410000801086426,-10.120290417480469,8.91840118408203,1.9393033447265624,24.793893129770993,-7.938931297709924,44.2442748091603,-13.742717529296874,-2.3582886352539063,1.3239935180664062,-4.656488549618321,29.17557251908397,30.229007633587788,0.0
14.420000553131104,-11.501744775390625,8.28633194580078,2.185906115722656,-1.1145038167938932,-0.4580152671755725,52.33587786259542,-13.426682910156249,-3.1172505615234374,0.43574470214843747,-6.870229007633588,18.106870229007633,24.412213740458014,0.0
14.43000078201294,-15.770606335449218,7.266402038574219,6.809109521484374,-37.11450381679389,0.10687022900763359,57.25190839694657,-15.102624072265623,-1.4604630126953124,0.36152445068359373,-12.427480916030534,11.877862595419847,19.740458015267176,0.0
14.440000534057617,-14.279018701171875,-0.718260498046875,7.3669585083007805,-51.9236641221374,-5.374045801526718,57.908396946564885,-15.512032556152343,0.6631938598632812,-0.201112939453125,-28.900763358778626,4.290076335877862,17.053435114503817,0.0
14.450000524520874,-17.49203732910156,-2.442085693359375,8.877699755859375,-70.53435114503817,-9.923664122137405,39.61832061068702,-14.973337182617186,1.8770541015625,-1.3766659545898436,-39.12977099236641,-6.5038167938931295,15.694656488549619,0.0
14.46000051498413,-15.021221215820312,-5.106832141113281,4.244919543457031,-76.16793893129771,-10.610687022900763,25.114503816793892,-14.968548779296874,1.2114660400390624,0.9720458740234375,-49.02290076335878,-9.450381679389313,15.450381679389313,0.0
14.470000505447388,-9.991003527832031,-4.975151049804687,-3.2704794677734372,-62.0,5.603053435114504,14.931297709923664,-14.487314245605468,2.8203695556640622,-0.6057330200195312,-52.595419847328245,-20.18320610687023,11.32824427480916,0.0
14.480000495910645,-4.8506525634765625,-6.794744311523437,-6.746860278320312,-38.13740458015267,25.480916030534353,11.16030534351145,-13.91749425048828,4.201823913574218,-0.8930372192382812,-58.82442748091603,-29.114503816793892,10.916030534351146,0.0
14.490000486373901,-2.844311572265625,-7.644685900878906,-6.442796667480469,-7.969465648854962,50.13740458015267,2.030534351145038,-12.739547033691405,6.241683728027343,-0.30885201416015623,-67.12977099236642,-30.091603053435115,12.885496183206106,0.0
14.500000476837158,-1.2473790649414063,-8.377311608886718,-6.524199523925781,21.17557251908397,72.56488549618321,-9.98473282442748,-11.741164941406248,5.181052392578125,0.44532150878906246,-66.29007633587786,-30.625954198473284,19.022900763358777,0.0
14.510000705718994,-3.749319799804687,-5.2265422241210935,-5.607220288085937,46.79389312977099,95.83206106870229,-25.66412213740458,-10.314220751953124,4.6447512207031245,0.0430956298828125,-57.14503816793893,-33.32824427480916,22.595419847328245,0.0
14.52000093460083,-4.235342736816406,-3.478775012207031,-5.0206408813476555,60.94656488549618,109.25190839694656,-33.81679389312977,-9.674968908691406,3.5601778686523438,-1.946485949707031,-51.12977099236641,-35.221374045801525,25.282442748091604,0.0
14.530000686645508,-8.774749084472656,0.507570751953125,-3.4572271972656248,67.16030534351145,128.6412213740458,-43.70992366412214,-9.617508068847656,1.0342951171875,-0.22266075439453123,-41.57251908396947,-34.0763358778626,24.106870229007633,0.0
14.540001153945923,-10.967837805175781,2.8898014038085935,-1.6065093139648436,48.29007633587786,127.7557251908397,-45.465648854961835,-8.760383874511719,1.24498486328125,-0.7134720947265625,-32.42748091603053,-38.152671755725194,18.763358778625953,0.0
14.550000667572021,-11.219228979492186,4.678270043945313,1.0917559570312498,17.572519083969464,121.57251908396947,-44.656488549618324,-8.049305981445311,1.3455413330078123,-0.5985504150390625,-34.0,-37.89312977099237,15.450381679389313,0.0
14.560000658035278,-10.991779821777342,3.3686417358398435,2.085349645996094,-14.366412213740459,108.0,-42.0,-6.976703637695312,1.5083470458984374,-2.770091320800781,-38.70229007633588,-38.0,13.419847328244275,0.0
14.570000410079956,-11.700463513183593,1.5418658691406248,2.6431986328124997,-22.259541984732824,100.91603053435115,-41.6793893129771,-6.9910688476562495,1.3766659545898436,-2.834734765625,-40.50381679389313,-31.267175572519083,11.572519083969466,0.0
14.580000400543213,-11.176133349609374,-0.6823474731445313,1.24498486328125,-27.64885496183206,85.93893129770993,-41.38931297709924,-8.67658681640625,-0.0430956298828125,-2.5857377929687497,-28.12213740458015,-25.6793893129771,12.13740458015267,0.0
14.590000867843628,-11.592724438476562,0.15083470458984374,1.189918225097656,-17.52671755725191,82.93129770992367,-44.030534351145036,-7.764395983886718,0.28012159423828126,-2.003946789550781,-22.82442748091603,-20.229007633587788,7.801526717557252,0.0
14.600000381469727,-10.929530578613281,-0.36152445068359373,0.36631285400390623,-19.69465648854962,72.7175572519084,-44.10687022900763,-6.6893994384765625,2.3343466186523436,-3.5577836669921874,-16.137404580152673,-22.778625954198475,1.5419847328244274,0.0
14.610000610351562,-10.848127722167968,-0.009576806640625,0.143652099609375,-11.312977099236642,69.72519083969466,-42.51908396946565,-7.414842541503906,1.4891934326171874,-3.574543078613281,-10.183206106870228,-11.709923664122137,2.7786259541984735,0.0
14.62000060081482,-10.158597644042969,-0.1005564697265625,-0.1005564697265625,-1.8625954198473282,66.18320610687023,-40.16793893129771,-7.098807922363281,2.7365724975585937,-4.220977526855468,1.8778625954198473,-8.412213740458014,-1.0534351145038168,0.0
14.630000591278076,-10.268730920410155,1.0319009155273438,0.28969840087890625,2.045801526717557,60.916030534351144,-37.343511450381676,-8.793902697753905,3.172317199707031,-4.556165759277343,12.778625954198473,-1.099236641221374,-1.2213740458015268,0.0
14.640000581741333,-10.572794531249999,1.4341267944335936,1.2976572998046874,13.725190839694656,62.717557251908396,-33.66412213740458,-9.090783703613281,3.1866824096679687,-3.450044592285156,9.022900763358779,4.549618320610687,-3.4198473282442747,0.0
14.650000810623169,-9.725247143554688,2.262520568847656,1.867477294921875,13.877862595419847,54.458015267175576,-29.51145038167939,-9.852139831542969,2.114080065917969,-2.2673089721679687,17.46564885496183,3.8625954198473282,-2.9770992366412212,0.0
14.660000562667847,-9.9981861328125,2.0661960327148434,2.099714855957031,16.213740458015266,51.00763358778626,-24.0,-9.3086560546875,2.8107927490234372,-2.1739351074218747,22.18320610687023,-0.5954198473282443,-5.816793893129771,0.0
14.670000791549683,-11.092336291503905,3.459621398925781,3.0310593017578125,15.48091603053435,47.89312977099237,-19.358778625954198,-9.320627062988281,2.7078420776367187,-1.2976572998046874,22.671755725190838,-1.4045801526717556,-7.801526717557252,0.0
14.68000054359436,-9.337386474609374,1.9680337646484374,1.2569558715820313,7.801526717557252,35.70992366412214,-12.51908396946565,-8.927977990722656,3.1028853515624997,-0.7876923461914062,20.27480916030534,-5.587786259541985,-9.435114503816793,0.0
14.690000295639038,-11.121066711425781,2.3965958618164063,1.9608511596679685,9.145038167938932,38.091603053435115,-10.045801526717558,-9.167398156738281,3.1172505615234374,-0.19393033447265623,15.511450381679388,-8.274809160305344,-11.557251908396946,0.0
14.700000524520874,-9.56962403564453,0.9864110839843749,0.5530605834960938,14.549618320610687,36.778625954198475,-7.8320610687022905,-9.169792358398437,2.940079638671875,0.22744915771484372,7.66412213740458,-11.770992366412214,-14.549618320610687,0.0
14.71000051498413,-10.371681591796875,1.8267758666992187,0.354341845703125,11.435114503816793,37.48091603053435,-9.679389312977099,-9.521740002441407,2.224213342285156,1.1731588134765625,3.450381679389313,-15.618320610687023,-16.458015267175572,0.0
14.720000505447388,-10.85291612548828,1.3311761230468748,0.39983167724609375,-0.366412213740458,34.3206106870229,-10.625954198473282,-9.715670336914062,1.47482822265625,0.43574470214843747,13.84732824427481,-30.366412213740457,-18.18320610687023,0.0
14.730000495910645,-10.20887587890625,1.2497732666015624,-0.32561142578124996,-7.32824427480916,35.45038167938932,-10.244274809160306,-9.459490759277344,1.879448303222656,1.1947066284179686,12.412213740458014,-36.916030534351144,-21.755725190839694,0.0
14.740000486373901,-9.37808790283203,1.199495031738281,-1.3838485595703125,-17.52671755725191,35.12977099236641,-9.282442748091603,-7.71890615234375,5.444414575195312,-2.0566192260742184,-6.229007633587786,-46.213740458015266,-28.412213740458014,0.0
14.750000715255737,-8.657433203124999,0.7829039428710937,-2.152387292480469,-25.770992366412212,34.778625954198475,-7.908396946564886,-8.322244970703125,5.444414575195312,-0.4955997436523437,-51.11450381679389,-26.99236641221374,-28.9618320610687,0.0
14.760000467300415,-8.74601866455078,1.0223241088867188,-1.3479355346679687,-30.091603053435115,38.88549618320611,-10.045801526717558,-7.060500695800781,5.786785412597656,-1.7405846069335937,-63.45038167938932,-32.44274809160305,-28.442748091603054,0.0
14.770000457763672,-10.488997473144531,0.6464344482421874,-1.1731588134765625,-39.05343511450382,37.725190839694655,-10.625954198473282,-11.865663427734374,1.2378022583007813,2.829946362304687,-53.87786259541985,-28.68702290076336,-22.83969465648855,0.0
14.780000925064087,-9.239224206542968,0.143652099609375,-1.5538368774414062,-33.969465648854964,41.63358778625954,-9.312977099236642,-7.905653881835937,2.655169641113281,0.45968671875,-66.77862595419847,-30.519083969465647,-27.954198473282442,0.0
