timestamp,Thigh_L_Acc_X,Thigh_L_Acc_Y,Thigh_L_Acc_Z,Thigh_L_Gyr_X,Thigh_L_Gyr_Y,Thigh_L_Gyr_Z,Thigh_R_Acc_X,Thigh_R_Acc_Y,Thigh_R_Acc_Z,Thigh_R_Gyr_X,Thigh_R_Gyr_Y,Thigh_R_Gyr_Z,gpio_output
10.000000476837158,-7.156268762207031,-1.5466542724609373,-1.5490484741210937,33.43511450381679,12.290076335877863,5.3893129770992365,-12.409147204589843,3.9624037475585934,0.93852705078125,-25.236641221374047,22.610687022900763,15.740458015267176,0.0
10.010000944137573,-6.694187841796874,0.679953271484375,-2.3127988037109373,34.48854961832061,18.442748091603054,2.0610687022900764,-11.121066711425781,2.6695348510742187,0.062249243164062495,-23.96946564885496,20.977099236641223,18.9618320610687,1.0
10.020000696182251,-7.378929516601562,1.7812860351562498,-1.618480322265625,26.18320610687023,22.366412213740457,1.3129770992366412,-12.804190478515624,0.9744400756835937,1.8076222534179687,-10.870229007633588,18.732824427480917,22.671755725190838,1.0
10.030000686645508,-7.874529260253905,2.176329309082031,-1.1061211669921875,18.82442748091603,28.549618320610687,1.1450381679389312,-10.996568225097656,2.7437551025390623,0.2609679809570312,-7.297709923664122,8.16793893129771,18.27480916030534,1.0
10.040000677108765,-8.942343200683593,3.4356793823242184,-0.3016694091796875,3.0839694656488548,32.61068702290076,2.213740458015267,-10.996568225097656,1.9800047729492187,0.55545478515625,-9.435114503816793,8.65648854961832,19.389312977099237,1.0
10.050000667572021,-9.792284790039062,3.385401147460937,0.5770026000976562,-13.98473282442748,33.38931297709924,3.404580152671756,-9.962273107910155,2.0925322509765625,0.20829554443359374,-6.763358778625954,2.9923664122137406,18.580152671755727,1.0
10.060000658035278,-9.406818322753905,0.814028564453125,0.689530078125,-25.46564885496183,33.725190839694655,5.923664122137405,-9.93354268798828,2.1978771240234374,-0.05027823486328125,-7.404580152671755,1.099236641221374,17.954198473282442,1.0
10.070000648498535,-8.702923034667968,-1.1180921752929687,1.149216796875,-19.786259541984734,42.778625954198475,4.320610687022901,-9.334992272949219,1.9608511596679685,0.1484405029296875,-7.374045801526718,-0.15267175572519084,17.358778625954198,1.0
10.08000111579895,-9.536105212402344,-0.5243301635742187,2.001552587890625,-18.091603053435115,46.97709923664122,-1.1450381679389312,-9.126696728515624,2.1404162841796874,-0.05985504150390625,-5.633587786259542,-1.083969465648855,16.076335877862597,1.0
10.090000629425049,-9.885658654785155,-0.009576806640625,2.4349030883789062,-20.946564885496183,45.00763358778626,-2.7480916030534353,-8.717288244628906,2.4756045166015626,0.13168109130859373,-5.435114503816794,-2.0916030534351147,15.19083969465649,1.0
10.100000381469727,-9.631873278808593,-0.062249243164062495,2.2074539306640624,-22.3206106870229,40.717557251908396,-4.2748091603053435,-8.813056311035156,3.0310593017578125,-0.1388636962890625,-5.9541984732824424,-0.916030534351145,14.977099236641221,1.0
10.110000610351562,-10.421959826660157,0.1771709228515625,2.2936451904296873,-23.221374045801525,38.82442748091603,-5.572519083969466,-8.540117321777343,3.0933085449218747,-0.10773907470703124,-9.068702290076336,-0.9312977099236641,14.83969465648855,1.0
10.120000839233398,-9.581595043945311,0.26336218261718747,1.8602946899414061,-22.198473282442748,33.343511450381676,-4.854961832061068,-8.573636145019531,2.9568390502929685,-0.16280571289062498,-12.061068702290076,0.13740458015267176,15.618320610687023,1.0
10.130000591278076,-9.93354268798828,0.4908113403320312,1.9225439331054686,-21.083969465648856,32.091603053435115,-4.595419847328245,-8.911218579101561,2.7629087158203123,-0.8379705810546875,-15.954198473282442,0.6106870229007634,15.755725190839694,1.0
10.140000820159912,-10.658985791015624,0.7493851196289062,1.7022773803710936,-27.557251908396946,25.251908396946565,-2.6717557251908395,-8.74601866455078,2.5426421630859375,-0.3232172241210937,-17.572519083969464,0.8091603053435115,16.442748091603054,1.0
10.15000057220459,-8.990227233886719,-1.2282254516601563,0.6967126831054687,-17.52671755725191,25.786259541984734,1.0687022900763359,-8.621520178222656,1.9656395629882812,-0.39743747558593745,-20.595419847328245,0.8549618320610687,15.114503816793894,1.0
10.160000562667847,-10.249577307128906,0.584185205078125,1.5538368774414062,-9.755725190839694,31.96946564885496,-2.2442748091603053,-9.121908325195312,1.1133037719726562,-0.16759411621093748,-18.748091603053435,1.3282442748091603,14.717557251908397,1.0
10.170000553131104,-9.904812268066406,0.55545478515625,1.2713210815429687,-15.297709923664122,25.16030534351145,-0.24427480916030533,-9.085995300292968,1.149216796875,-0.6655880615234374,-17.740458015267176,-1.6946564885496183,11.98473282442748,1.0
10.18000054359436,-9.943119494628906,0.34237083740234375,1.4891934326171874,-14.335877862595419,25.83206106870229,0.4580152671755725,-10.08677159423828,-0.9002198242187499,0.1292868896484375,-8.931297709923664,-0.44274809160305345,12.259541984732824,1.0
10.190000534057617,-9.358934289550781,-0.5434837768554687,1.5346832641601562,-11.312977099236642,25.16030534351145,-0.48854961832061067,-8.130708837890625,0.7158662963867187,0.05027823486328125,-0.8702290076335878,-12.045801526717558,4.351145038167939,1.0
10.200000524520874,-8.556876733398436,-1.8435352783203125,0.9026140258789062,-1.465648854961832,25.938931297709924,-0.6259541984732825,-8.705317236328124,0.9121908325195311,0.11013327636718749,0.9923664122137404,-8.80916030534351,2.6412213740458017,1.0
10.21000051498413,-8.659827404785156,-1.484405029296875,1.2401964599609374,6.9465648854961835,28.290076335877863,-4.183206106870229,-10.160991845703125,0.9864110839843749,0.411802685546875,9.664122137404581,-10.625954198473282,-0.1984732824427481,0.0
10.220000505447388,-9.351751684570312,-0.14125789794921875,2.0374656127929685,13.389312977099237,31.450381679389313,-7.541984732824427,-9.387664709472656,-0.3280056274414062,0.15083470458984374,15.374045801526718,-14.778625954198473,-2.33587786259542,0.0
10.230000257492065,-9.591171850585937,0.12689268798828124,1.6017209106445311,12.16793893129771,29.66412213740458,-8.793893129770993,-9.859322436523437,1.2808978881835937,0.105344873046875,27.068702290076335,-20.12213740458015,-6.061068702290076,0.0
10.24000072479248,-9.744400756835937,1.180341418457031,1.9991583862304687,7.557251908396947,28.885496183206108,-9.48091603053435,-8.889670764160156,2.612074011230469,-1.3862427612304686,22.061068702290076,-17.6793893129771,-7.465648854961832,0.0
10.250000715255737,-9.943119494628906,1.7477672119140624,2.499546533203125,-1.786259541984733,26.12213740458015,-9.114503816793894,-8.109161022949218,4.338293408203125,-3.1771056030273437,14.80916030534351,-14.335877862595419,-6.3816793893129775,0.0
10.260000705718994,-10.31661495361328,1.4173673828125,2.0374656127929685,-13.312977099236642,18.83969465648855,-6.67175572519084,-7.5537062377929685,6.241683728027343,-3.3207577026367185,3.480916030534351,-3.099236641221374,-2.6106870229007635,0.0
10.270000696182251,-10.864887133789061,1.8914193115234375,2.5258827514648434,-11.740458015267176,20.366412213740457,-6.244274809160306,-9.7683427734375,4.012681982421875,-1.867477294921875,2.3969465648854964,7.557251908396947,4.061068702290076,0.0
10.280000448226929,-10.694898815917968,0.612915625,1.8219874633789062,-13.511450381679388,12.595419847328245,-4.229007633587786,-10.014945544433592,3.3111808959960936,-0.7062894897460937,6.931297709923665,8.625954198473282,4.549618320610687,0.0
10.290000677108765,-9.418789331054686,-0.9193734375,1.1252747802734375,-3.6946564885496183,12.366412213740459,-2.3053435114503817,-9.583989245605467,3.047818713378906,0.24181436767578124,9.251908396946565,7.1603053435114505,3.2977099236641223,0.0
10.300000667572021,-9.969455712890625,0.5219359619140624,2.003946789550781,5.282442748091603,16.27480916030534,-4.763358778625954,-9.7683427734375,2.750937707519531,0.9959878906249999,9.908396946564885,5.32824427480916,3.572519083969466,0.0
10.310000658035278,-9.89523546142578,1.0510545288085937,1.7597382202148437,0.15267175572519084,9.297709923664122,-3.572519083969466,-9.579200842285156,3.2225954345703123,1.0726023437499999,5.770992366412214,0.9465648854961832,3.0076335877862594,0.0
10.320000648498535,-9.519345800781249,1.1037269653320312,1.4700398193359374,1.8015267175572518,9.786259541984732,-2.2748091603053435,-9.45470235595703,3.3207577026367185,1.0797849487304687,-0.183206106870229,-1.4351145038167938,2.564885496183206,0.0
10.330000638961792,-9.543287817382812,1.4341267944335936,1.7812860351562498,-0.6564885496183206,9.267175572519085,-1.7099236641221374,-9.404424121093749,3.086125939941406,0.967257470703125,-6.900763358778626,-3.954198473282443,0.9465648854961832,0.0
10.34000039100647,-9.662997900390625,1.5466542724609373,1.4149731811523436,-1.83206106870229,8.030534351145038,-0.7938931297709924,-10.000580334472655,2.157175695800781,1.2330138549804688,-12.931297709923664,-5.3893129770992365,-0.15267175572519084,0.0
10.350000619888306,-9.89523546142578,1.3287819213867187,1.20667763671875,-3.2061068702290076,7.679389312977099,0.3511450381679389,-10.378864196777343,0.277727392578125,1.8698714965820311,-12.473282442748092,-9.145038167938932,-1.7709923664122138,0.0
10.36000108718872,-9.686939916992188,0.8571241943359375,1.1276689819335937,-2.9160305343511452,7.343511450381679,1.5267175572519085,-10.951078393554686,0.4285620971679687,2.0638018310546875,-4.6106870229007635,-18.610687022900763,-6.625954198473282,0.0
10.37000060081482,-9.6151138671875,0.9983820922851562,0.7613561279296874,-3.6793893129770994,8.16793893129771,1.9541984732824427,-10.419565624999999,0.0718260498046875,1.8531120849609375,-2.900763358778626,-25.450381679389313,-11.450381679389313,0.0
10.380000829696655,-9.557653027343749,0.9648632690429687,0.9145850341796874,-6.580152671755725,9.17557251908397,1.7404580152671756,-10.845733520507812,-0.05985504150390625,1.9297265380859374,1.6641221374045803,-33.725190839694655,-15.770992366412214,0.0
10.390000820159912,-9.56962403564453,1.0989385620117187,0.9433154541015625,-10.717557251908397,10.564885496183207,1.3587786259541985,-9.023746057128905,2.118868469238281,0.3399766357421875,-1.2061068702290076,-42.51908396946565,-22.732824427480917,0.0
10.40000057220459,-9.5384994140625,1.448492004394531,0.9241618408203125,-17.14503816793893,11.267175572519085,1.450381679389313,-8.786720092773438,3.4572271972656248,0.36152445068359373,-14.687022900763358,-35.87786259541985,-22.870229007633586,0.0
10.410000562667847,-9.591171850585937,1.5514426757812498,1.608903515625,-26.870229007633586,10.412213740458014,0.9618320610687023,-10.563217724609375,1.8459294799804686,1.2210428466796874,-19.358778625954198,-33.06870229007634,-19.923664122137403,0.0
10.420000553131104,-9.4618849609375,0.5386953735351562,1.3287819213867187,-27.923664122137403,8.549618320610687,0.6870229007633588,-10.20887587890625,1.3096283081054687,1.1420341918945311,-15.938931297709924,-37.86259541984733,-22.427480916030536,0.0
10.43000054359436,-9.648632690429688,0.36391865234375,1.3934253662109375,-26.671755725190838,9.145038167938932,0.13740458015267176,-9.253589416503905,2.114080065917969,1.0175357055664063,-13.099236641221374,-41.02290076335878,-25.83206106870229,0.0
10.440000534057617,-9.145850341796875,-0.6679822631835937,1.0606313354492187,-24.061068702290076,8.625954198473282,0.3969465648854962,-8.470685473632813,3.4548329956054684,0.9528922607421875,-21.69465648854962,-38.30534351145038,-26.35114503816794,0.0
10.450000524520874,-8.971073620605468,-0.9145850341796874,1.3311761230468748,-14.748091603053435,13.801526717557252,-2.427480916030534,-9.70369932861328,1.8315642700195311,2.27927998046875,-27.206106870229007,-30.702290076335878,-21.633587786259543,0.0
10.46000051498413,-8.980650427246093,-0.1005564697265625,1.7022773803710936,-10.274809160305344,13.725190839694656,-5.66412213740458,-9.947907897949218,0.8355763793945312,2.0446482177734375,-20.641221374045802,-35.63358778625954,-21.740458015267176,0.0
10.470000505447388,-9.964667309570311,0.8451531860351562,1.47482822265625,-9.19083969465649,12.198473282442748,-6.427480916030534,-10.43871923828125,1.1875240234375,1.8124106567382812,-8.488549618320612,-40.534351145038165,-25.236641221374047,0.0
10.480000495910645,-10.04846436767578,0.2657563842773437,2.1212626708984375,-12.595419847328245,12.381679389312977,-4.854961832061068,-9.437942944335937,1.9488801513671874,1.5586252807617187,-9.038167938931299,-40.0763358778626,-25.206106870229007,0.0
10.49000072479248,-8.480262280273436,0.7589619262695312,1.7453730102539062,-9.755725190839694,12.702290076335878,-4.900763358778626,-7.331045483398437,2.9975404785156248,-0.20350714111328125,-16.290076335877863,-43.541984732824424,-26.458015267175572,0.0
10.500000476837158,-10.869675537109375,1.8363526733398436,2.664746447753906,-18.396946564885496,13.557251908396946,-7.465648854961832,-10.287884533691406,1.455674609375,1.4628572143554686,-17.221374045801525,-35.17557251908397,-20.900763358778626,0.0
10.510001182556152,-10.211270080566406,1.235408056640625,1.924938134765625,-26.15267175572519,4.595419847328245,-5.770992366412214,-10.951078393554686,0.8786720092773437,2.042254016113281,-9.114503816793894,-36.396946564885496,-20.244274809160306,0.0
10.520000696182251,-10.405200415039062,1.35990654296875,2.272097375488281,-26.625954198473284,4.473282442748092,-4.8396946564885495,-10.065223779296874,1.3120225097656248,1.8411410766601561,-1.5114503816793894,-37.587786259541986,-21.572519083969464,0.0
10.530000686645508,-9.22485899658203,-0.3687070556640625,1.6208745239257811,-22.213740458015266,3.480916030534351,-3.7251908396946565,-9.3086560546875,2.0973206542968748,1.4053963745117186,3.3740458015267176,-39.282442748091604,-21.053435114503817,0.0
10.540000677108765,-10.038887561035155,0.7829039428710937,1.7860744384765623,-22.977099236641223,1.9694656488549618,-4.687022900763359,-8.88009395751953,1.4867992309570313,1.1420341918945311,0.7175572519083969,-31.740458015267176,-18.763358778625953,0.0
10.5500009059906,-8.497021691894531,-1.5538368774414062,0.9528922607421875,-6.396946564885496,7.114503816793893,-2.381679389312977,-9.904812268066406,0.5410895751953124,1.4604630126953124,13.19083969465649,-32.79389312977099,-14.854961832061068,0.0
10.560000658035278,-10.345345373535155,-0.5985504150390625,1.3862427612304686,4.687022900763359,15.16030534351145,-5.465648854961832,-9.176974963378905,1.0366893188476562,1.0342951171875,25.61832061068702,-32.030534351145036,-16.47328244274809,0.0
10.570000648498535,-9.794678991699218,0.277727392578125,0.9935936889648437,9.603053435114504,16.931297709923665,-5.969465648854962,-7.601590270996093,1.9584569580078124,0.062249243164062495,28.793893129770993,-29.587786259541986,-15.221374045801527,0.0
10.580000638961792,-9.373299499511718,1.01514150390625,0.8738836059570312,5.282442748091603,17.83206106870229,-7.374045801526718,-8.518569506835936,2.559401574707031,0.6751648681640625,20.137404580152673,-17.893129770992367,-12.122137404580153,0.0
10.59000039100647,-8.896853369140624,0.8930372192382812,0.19632453613281248,-1.1908396946564885,17.83206106870229,-8.106870229007633,-7.254431030273437,3.208230224609375,0.689530078125,2.6717557251908395,-8.320610687022901,-10.381679389312977,0.0
10.600000858306885,-9.143456140136719,-0.20350714111328125,0.06464344482421874,-1.4809160305343512,20.30534351145038,-10.091603053435115,-9.375693701171874,1.5179238525390624,1.4413093994140624,4.33587786259542,-8.030534351145038,-7.022900763358779,0.0
10.610000371932983,-9.854534033203125,-0.2537853759765625,0.59376201171875,3.145038167938931,22.763358778625953,-13.145038167938932,-8.339004382324218,1.149216796875,2.1021090576171875,0.732824427480916,-0.916030534351145,-9.664122137404581,0.0
10.620000839233398,-9.054870678710937,-0.612915625,0.4740519287109375,6.061068702290076,25.236641221374047,-14.106870229007633,-8.621520178222656,0.5913678100585937,2.212242333984375,1.6030534351145038,-2.198473282442748,-9.938931297709924,0.0
10.630000591278076,-9.402029919433593,-0.1149216796875,0.6919242797851562,10.900763358778626,27.923664122137403,-15.603053435114504,-8.611943371582031,0.4525041137695312,2.5737667846679684,1.6946564885496183,-1.83206106870229,-11.053435114503817,0.0
10.640000820159912,-9.375693701171874,0.6847416748046875,1.0462661254882812,7.419847328244275,28.977099236641223,-17.801526717557252,-8.70771143798828,0.45968671875,2.5905261962890624,1.5877862595419847,-2.732824427480916,-12.366412213740459,0.0
10.65000033378601,-9.495403784179686,0.6512228515624999,1.5011644409179687,0.8244274809160306,28.977099236641223,-18.80916030534351,-8.434772448730468,0.5530605834960938,2.6096798095703124,0.42748091603053434,-3.6030534351145036,-13.49618320610687,0.0
10.660000324249268,-9.399635717773437,0.23223756103515625,1.6304513305664061,-1.83206106870229,26.977099236641223,-18.946564885496183,-8.418013037109375,0.44053310546874996,2.463633508300781,-0.5343511450381679,-4.656488549618321,-14.15267175572519,0.0
10.670000553131104,-9.828197814941406,0.2825157958984375,2.2577321655273437,-0.9465648854961832,27.81679389312977,-20.671755725190838,-8.054094384765625,0.33518823242187495,2.0159177978515626,-0.7786259541984732,-4.9465648854961835,-14.534351145038167,0.0
10.68000054359436,-9.519345800781249,0.13646949462890623,2.360682836914062,-0.9465648854961832,24.610687022900763,-21.480916030534353,-7.951143713378905,0.3327940307617187,1.5729904907226562,-0.22900763358778625,-5.770992366412214,-14.687022900763358,0.0
10.690000534057617,-10.151415039062499,0.5410895751953124,3.0334535034179684,-1.1603053435114503,22.702290076335878,-22.671755725190838,-7.594407666015624,0.1149216796875,1.426944189453125,2.030534351145038,-5.816793893129771,-15.16030534351145,0.0
10.700000286102295,-10.065223779296874,0.4285620971679687,3.239354846191406,-3.648854961832061,15.038167938931299,-22.0,-7.410054138183593,0.12210428466796874,1.024718310546875,4.366412213740458,-5.251908396946565,-15.083969465648854,0.0
10.710000991821289,-10.319009155273436,0.833182177734375,4.197035510253906,-2.16793893129771,9.511450381679388,-21.419847328244273,-7.053318090820312,0.19632453613281248,0.7685387329101562,6.717557251908397,-4.717557251908397,-14.992366412213741,0.0
10.720000743865967,-10.165780249023436,0.3136404174804687,4.675875842285156,-1.4961832061068703,-0.07633587786259542,-19.297709923664122,-7.1035963256835934,0.40222587890625,0.8547299926757812,9.34351145038168,-3.2977099236641223,-14.793893129770993,0.0
10.730000734329224,-9.011775048828124,-0.29448680419921874,3.88818349609375,4.030534351145038,-11.954198473282442,-15.419847328244275,-7.577648254394531,0.40940848388671874,1.0175357055664063,13.083969465648854,-2.0763358778625953,-15.038167938931299,0.0
10.740000486373901,-9.011775048828124,-0.25139117431640623,5.741295581054687,31.114503816793892,-11.725190839694656,-15.541984732824428,-8.382100012207031,-0.718260498046875,0.6751648681640625,18.702290076335878,0.3816793893129771,-16.091603053435115,0.0
10.750000476837158,-12.066776367187499,2.2481553588867187,7.141903552246093,29.19083969465649,-22.68702290076336,-15.282442748091603,-9.672574707031249,-0.430956298828125,-0.3112462158203125,27.022900763358777,1.5419847328244274,-18.580152671755727,0.0
10.760000705718994,-12.014103930664062,1.9129671264648436,7.762001782226562,35.23664122137404,-38.916030534351144,-8.412213740458014,-12.066776367187499,0.16759411621093748,-3.399766357421875,15.801526717557252,-23.954198473282442,-25.709923664122137,0.0
10.770000696182251,-14.082694165039062,3.632003918457031,8.413224633789062,36.50381679389313,-55.51145038167939,-2.946564885496183,-12.830526696777342,3.8043864379882812,0.9792284790039062,45.11450381679389,-7.862595419847328,-28.442748091603054,0.0
10.780000686645508,-13.694833496093748,1.4628572143554686,7.259219433593749,41.93893129770992,-74.09160305343511,5.175572519083969,-15.56470499267578,3.299209887695312,-0.8667010009765624,3.7709923664122136,19.099236641221374,-21.16030534351145,0.0
10.790000438690186,-13.68765089111328,-0.2705447875976562,6.2392895263671875,69.95419847328245,-76.44274809160305,10.13740458015267,-16.55590447998047,3.73495458984375,1.7693150268554687,68.61068702290076,9.053435114503817,-21.770992366412212,0.0
10.800000667572021,-16.412252380371093,3.564966271972656,6.979097839355468,71.93893129770993,-86.41221374045801,10.51908396946565,-15.088258862304686,5.408501550292969,3.366247534179687,29.267175572519083,4.595419847328245,-12.442748091603054,0.0
10.810000658035278,-17.2765591796875,4.2497079467773435,7.3478048950195305,39.969465648854964,-111.43511450381679,18.732824427480917,-12.598289135742187,2.499546533203125,6.849810949707031,97.1145038167939,21.34351145038168,-2.1068702290076335,0.0
10.820000886917114,-15.847220788574218,2.518700146484375,6.476315490722656,18.12213740458015,-132.9618320610687,30.091603053435115,-9.004592443847656,5.358223315429687,-1.0295067138671874,0.8549618320610687,3.0839694656488548,7.374045801526718,0.0
10.830000638961792,-14.923058947753905,0.8667010009765624,5.348646508789062,8.717557251908397,-149.6793893129771,39.6793893129771,-7.4770917846679685,2.9376854370117185,-0.7254431030273437,-17.068702290076335,17.770992366412212,13.007633587786259,0.0
10.840000867843628,-13.101071484375,-2.6048914062499997,3.1555577880859373,12.961832061068701,-162.5648854961832,46.74809160305343,-8.386888415527343,-1.687912170410156,-2.04943662109375,-10.916030534351146,1.0076335877862594,10.961832061068701,0.0
10.850000619888306,-12.255918298339843,-4.1946413085937495,3.0166940917968748,32.79389312977099,-163.12977099236642,50.12213740458015,-7.149086157226562,-3.0597897216796874,-2.511517541503906,3.8931297709923665,-3.6793893129770994,1.083969465648855,0.0
10.860000610351562,-12.066776367187499,-4.611232397460937,1.3623007446289062,46.44274809160305,-158.33587786259542,50.29007633587786,-8.966285217285156,-4.426878869628906,-2.2385785522460937,20.519083969465647,-1.4045801526717556,-4.854961832061068,0.0
10.87000060081482,-10.64222637939453,-4.836287353515624,-1.2593500732421874,44.67175572519084,-152.93129770992365,44.732824427480914,-9.344569079589844,-2.990357873535156,-2.3127988037109373,29.022900763358777,4.656488549618321,-13.312977099236642,0.0
10.880000829696655,-8.628702783203124,-6.438008264160156,-2.35589443359375,45.93893129770992,-143.74045801526717,38.54961832061068,-10.108319409179687,-1.2665326782226562,-1.6256629272460936,36.62595419847328,6.717557251908397,-17.572519083969464,0.0
10.890000581741333,-7.577648254394531,-7.113173132324218,-2.906560815429687,55.969465648854964,-126.53435114503817,26.885496183206108,-10.572794531249999,1.0295067138671874,-0.8092401611328125,39.80152671755725,8.442748091603054,-18.931297709923665,0.0
10.90000057220459,-5.635950708007812,-8.135497241210937,-3.902548706054687,63.847328244274806,-112.01526717557252,12.335877862595419,-11.0707884765625,2.4396914916992185,-0.45968671875,37.43511450381679,11.48091603053435,-18.0,0.0
10.910000324249268,-5.698199951171874,-6.524199523925781,-3.5529952636718747,68.9618320610687,-90.04580152671755,-3.5267175572519083,-10.199299072265624,3.418919970703125,0.16280571289062498,28.33587786259542,14.076335877862595,-15.435114503816793,0.0
10.920000314712524,-5.9591679321289055,-4.6064439941406246,-3.3303345092773435,64.6412213740458,-73.57251908396947,-14.870229007633588,-9.26316622314453,4.92247861328125,-1.1516109985351561,10.381679389312977,15.938931297709924,-12.13740458015267,0.0
10.93000078201294,-6.337451794433593,-2.085349645996094,-2.636016027832031,65.25190839694656,-53.221374045801525,-17.328244274809162,-8.595183959960938,3.2920272827148436,-1.0175357055664063,-12.83969465648855,20.290076335877863,-5.114503816793893,0.0
10.940000534057617,-7.199364392089843,-0.25139117431640623,-1.8531120849609375,54.62595419847328,-40.56488549618321,-17.236641221374047,-9.270348828125,2.437297290039062,-1.3934253662109375,-26.671755725190838,24.366412213740457,0.48854961832061067,0.0
10.950000524520874,-9.45470235595703,3.5482068603515624,0.30406361083984373,35.725190839694655,-27.61832061068702,-17.31297709923664,-9.991003527832031,1.426944189453125,-1.4341267944335936,-40.12213740458015,26.30534351145038,4.229007633587786,0.0
10.96000051498413,-9.514557397460937,4.314351391601562,1.0510545288085937,8.83969465648855,-27.053435114503817,-14.564885496183207,-10.481814868164061,-0.5722141967773438,0.016759411621093748,-42.54961832061068,30.83969465648855,8.778625954198473,0.0
10.970000505447388,-10.16338604736328,4.867411975097656,1.1540052001953125,-15.86259541984733,-29.862595419847327,-12.106870229007633,-11.669338891601562,-2.3487118286132813,0.5626373901367188,-28.870229007633586,26.778625954198475,9.725190839694656,0.0
10.980000495910645,-7.821856823730468,1.8626888916015625,-0.7278373046875,-27.068702290076335,-27.557251908396946,-6.3816793893129775,-10.836156713867187,-2.1643583007812497,-0.8403647827148437,-13.236641221374045,15.267175572519085,5.251908396946565,0.0
10.99000072479248,-7.788338000488281,2.5905261962890624,-0.4477157104492187,-53.267175572519086,-28.80916030534351,-4.2748091603053435,-11.06360587158203,-1.9608511596679685,0.6943184814453125,-0.7480916030534351,15.34351145038168,5.175572519083969,0.0
11.000000476837158,-8.015787158203125,0.8930372192382812,-0.8810662109374999,-67.29770992366412,-21.083969465648856,-2.0916030534351147,-9.26316622314453,0.2609679809570312,0.565031591796875,-1.2061068702290076,9.679389312977099,2.0916030534351147,0.0
11.010000944137573,-6.921636999511718,-0.5602431884765625,-0.70868369140625,-70.04580152671755,-13.664122137404581,-0.6564885496183206,-9.18655177001953,0.9193734375,0.5123591552734374,-2.8702290076335877,10.961832061068701,3.3282442748091605,0.0
11.020000696182251,-4.491522314453125,-2.1691467041015624,-1.668758557128906,-66.2442748091603,-7.221374045801527,0.8549618320610687,-9.320627062988281,0.7517793212890624,0.4572925170898437,-4.67175572519084,12.549618320610687,4.137404580152672,0.0
11.030000686645508,-4.733336682128906,-2.5474305664062498,-1.5011644409179687,-62.62595419847328,2.030534351145038,0.6106870229007634,-9.244012609863281,0.5482721801757812,0.8906430175781249,-2.3969465648854964,12.580152671755725,4.519083969465649,0.0
11.040000677108765,-6.086060620117187,-1.6543933471679686,-0.12210428466796874,-52.900763358778626,16.82442748091603,-0.7022900763358778,-9.710881933593749,-0.04548983154296875,0.7302315063476562,-0.6717557251908397,12.427480916030534,5.00763358778626,0.0
11.050000667572021,-7.108384729003906,-0.2154781494140625,1.6831237670898436,-57.267175572519086,21.52671755725191,-1.3587786259541985,-9.634267480468749,0.258573779296875,0.49320554199218747,-0.7786259541984732,11.206106870229007,4.091603053435114,0.0
11.060000658035278,-7.671022119140624,0.086191259765625,3.0741549316406247,-57.725190839694655,24.80916030534351,-0.16793893129770993,-9.658209497070311,0.29448680419921874,0.5410895751953124,0.6564885496183206,10.51908396946565,4.595419847328245,0.0
11.070000410079956,-7.1778165771484375,-0.6344634399414062,3.9049429077148434,-53.786259541984734,25.96946564885496,1.7404580152671756,-9.641450085449218,0.5770026000976562,0.9002198242187499,2.595419847328244,10.274809160305344,5.129770992366412,0.0
11.080000638961792,-7.939172705078125,-0.5099649536132812,4.977545251464844,-47.7557251908397,28.931297709923665,0.8396946564885496,-9.399635717773437,0.8164227661132812,0.488417138671875,2.5343511450381677,9.893129770992367,5.526717557251908,0.0
11.090000629425049,-8.334215979003906,-1.2282254516601563,5.449202978515625,-49.83206106870229,24.198473282442748,-0.2748091603053435,-9.622296472167967,0.8379705810546875,0.40940848388671874,4.8396946564885495,10.381679389312977,6.778625954198473,0.0
11.100000858306885,-8.17141026611328,-2.310404602050781,5.846640454101562,-43.7557251908397,22.38167938931298,-1.0534351145038168,-9.751583361816406,0.9744400756835937,0.39983167724609375,5.083969465648855,11.419847328244275,7.7251908396946565,0.0
11.110000371932983,-8.932766394042968,-2.224213342285156,6.038176586914062,-37.083969465648856,21.603053435114504,-3.5114503816793894,-9.612719665527344,1.2952630981445312,0.28012159423828126,4.687022900763359,12.213740458015268,9.145038167938932,0.0
11.12000060081482,-8.872911352539061,-2.6575638427734374,5.839457849121094,-28.748091603053435,18.977099236641223,-5.251908396946565,-9.770736975097655,0.8499415893554687,0.38786066894531246,4.549618320610687,13.114503816793894,10.763358778625955,0.0
11.130000591278076,-8.681375219726561,-2.389413256835937,6.277596752929687,-16.641221374045802,18.427480916030536,-5.923664122137405,-9.866505041503906,1.5131354492187499,0.047884033203124995,2.687022900763359,13.725190839694656,11.419847328244275,0.0
11.140000820159912,-9.291896643066405,-1.3479355346679687,6.672640026855468,-8.381679389312977,16.48854961832061,-5.633587786259542,-10.27830772705078,1.0319009155273438,0.9935936889648437,-3.099236641221374,20.213740458015266,15.374045801526718,0.0
11.15000057220459,-8.640673791503906,-1.2641384765625,6.816292126464844,1.83206106870229,14.412213740458014,-3.1908396946564888,-9.332598071289063,1.2785036865234374,-0.7685387329101562,-6.488549618320611,19.66412213740458,15.435114503816793,0.0
11.160000562667847,-8.535328918457031,-0.5626373901367188,6.981492041015625,12.412213740458014,10.961832061068701,-0.7022900763358778,-9.028534460449219,1.3838485595703125,-0.06703764648437499,-10.610687022900763,25.00763358778626,17.206106870229007,0.0
11.170000553131104,-9.045293872070312,0.8116343627929687,7.311891870117187,20.564885496183205,10.198473282442748,3.0381679389312977,-8.461108666992187,0.34237083740234375,0.25139117431640623,-15.679389312977099,30.916030534351144,19.251908396946565,0.0
11.180000305175781,-9.030928662109375,0.6009446166992187,6.56968935546875,27.801526717557252,6.595419847328245,8.381679389312977,-10.40041201171875,-2.114080065917969,1.2497732666015624,-6.091603053435114,32.458015267175576,20.48854961832061,0.0
11.190000534057617,-8.51617530517578,0.0047884033203125,5.549759448242187,37.20610687022901,5.66412213740458,12.16793893129771,-9.86411083984375,-2.4301146850585935,0.3711012573242187,7.938931297709924,25.114503816793892,16.30534351145038,0.0
11.200000762939453,-8.207323291015625,0.02154781494140625,4.96078583984375,43.80152671755725,7.038167938931298,13.801526717557252,-10.457872851562499,-1.1875240234375,0.24181436767578124,15.358778625954198,22.30534351145038,14.229007633587786,0.0
11.21000051498413,-8.544905725097657,1.350329736328125,4.73094248046875,42.30534351145038,9.038167938931299,14.213740458015268,-9.016563452148437,0.5339069702148437,-1.1707646118164061,13.801526717557252,16.778625954198475,12.183206106870228,0.0
11.220000505447388,-7.975085729980468,1.37906015625,4.259284753417968,38.045801526717554,9.740458015267176,16.259541984732824,-9.323021264648437,1.687912170410156,-0.076614453125,4.625954198473282,19.46564885496183,15.664122137404581,0.0
11.230000734329224,-8.099584216308592,1.8315642700195311,4.328716601562499,30.35114503816794,10.885496183206106,18.442748091603054,-8.410830432128906,1.177947216796875,-0.18914193115234373,-5.145038167938932,21.17557251908397,18.625954198473284,0.0
11.240000486373901,-8.32463917236328,2.2553379638671873,4.256890551757812,19.770992366412212,11.282442748091603,20.885496183206108,-9.861716638183593,1.01514150390625,-0.6344634399414062,-18.0,27.770992366412212,21.61832061068702,0.0
11.250000715255737,-7.524975817871093,1.1659762084960936,3.42849677734375,11.465648854961833,13.603053435114504,24.48854961832061,-10.831368310546875,0.13646949462890623,0.17477672119140625,-18.53435114503817,31.267175572519083,24.27480916030534,0.0
11.260000705718994,-7.352593298339843,0.8307879760742187,2.4899697265625,5.908396946564886,17.87786259541985,26.0,-9.56962403564453,1.6472107421875,-1.388636962890625,-24.82442748091603,27.740458015267176,21.6793893129771,0.0
11.270000696182251,-7.240065820312499,0.19632453613281248,1.2330138549804688,-1.1297709923664123,24.900763358778626,29.374045801526716,-9.342174877929686,0.8667010009765624,-0.9840168823242187,-38.70229007633588,38.80916030534351,26.47328244274809,0.0
11.280000686645508,-9.287108239746093,-0.9002198242187499,0.8307879760742187,-3.954198473282443,37.12977099236641,28.229007633587788,-11.918335864257811,-3.3327287109375,1.3096283081054687,-21.17557251908397,40.534351145038165,30.564885496183205,0.0
11.290000438690186,-10.991779821777342,-1.20667763671875,2.578555187988281,-21.435114503816795,32.01526717557252,23.16030534351145,-12.016498132324218,-2.578555187988281,0.86191259765625,-3.480916030534351,25.603053435114504,23.022900763358777,0.0
11.300000667572021,-12.349292163085936,-2.2744915771484373,5.580884069824219,-26.763358778625953,29.022900763358777,20.732824427480917,-11.0707884765625,-0.43574470214843747,0.32561142578124996,-5.4961832061068705,18.48854961832061,17.557251908396946,0.0
11.3100004196167,-13.781024755859374,-2.8036101440429686,8.166621862792969,-22.53435114503817,24.137404580152673,16.900763358778626,-11.168950744628905,0.8164227661132812,0.25139117431640623,-9.404580152671755,19.083969465648856,16.53435114503817,0.0
11.320000648498535,-14.908693737792968,-0.9648632690429687,8.614337573242187,-15.358778625954198,17.587786259541986,12.702290076335878,-11.982979309082031,2.863465185546875,-0.36152445068359373,-16.045801526717558,17.740458015267176,17.328244274809162,0.0
11.330000638961792,-13.529633581542967,-0.469263525390625,6.086060620117187,-11.435114503816793,10.870229007633588,11.511450381679388,-11.645396875,3.189076611328125,0.3902548706054687,-25.083969465648856,18.35114503816794,19.908396946564885,0.0
11.340000867843628,-12.258312499999999,-0.0143652099609375,4.321533996582031,-3.5114503816793894,14.091603053435115,7.00763358778626,-11.190498559570312,1.4437036010742186,1.5394716674804687,-21.938931297709924,14.885496183206106,20.442748091603054,0.0
11.350000858306885,-10.73799444580078,-0.3112462158203125,1.9608511596679685,-10.427480916030534,4.916030534351145,5.66412213740458,-12.00213292236328,1.2138602416992186,1.6208745239257811,-16.12213740458015,11.664122137404581,19.46564885496183,0.0
11.360000848770142,-7.381323718261719,-2.2002713256835937,-0.5865794067382812,0.7022900763358778,9.786259541984732,6.564885496183206,-11.003750830078124,1.7860744384765623,0.6536170532226562,-16.412213740458014,4.412213740458015,16.671755725190838,0.0
11.37000060081482,-6.873752966308594,-1.5586252807617187,-1.2713210815429687,7.557251908396947,18.610687022900763,3.4656488549618323,-10.812214697265624,2.5737667846679684,-0.29448680419921874,-13.694656488549619,-0.7633587786259542,15.572519083969466,0.0
11.380000829696655,-7.364564306640625,-0.01915361328125,-1.1085153686523437,5.312977099236641,24.885496183206108,1.83206106870229,-10.797849487304687,2.5953145996093747,-0.0526724365234375,-14.549618320610687,-1.083969465648855,16.564885496183205,0.0
11.390000581741333,-7.843404638671874,0.9457096557617187,-0.51714755859375,2.7022900763358777,31.52671755725191,2.122137404580153,-11.207257971191405,2.6886884643554687,-0.11013327636718749,-14.625954198473282,-1.4045801526717556,17.267175572519083,0.0
11.40000033378601,-7.560888842773437,0.12689268798828124,-0.8379705810546875,3.480916030534351,36.091603053435115,4.106870229007634,-10.582371337890624,2.6767174560546874,-0.6177040283203125,-15.389312977099237,-2.8702290076335877,17.251908396946565,0.0
11.410000801086426,-7.580042456054687,0.258573779296875,-0.488417138671875,8.580152671755725,43.908396946564885,3.3893129770992365,-10.419565624999999,2.3127988037109373,-0.718260498046875,-13.526717557251908,-2.564885496183206,18.0,0.0
11.420000314712524,-9.904812268066406,1.3718775512695311,1.2856862915039062,7.938931297709924,51.770992366412216,-0.15267175572519084,-10.005368737792969,2.1595698974609374,-0.6153098266601562,-12.793893129770993,-2.885496183206107,16.564885496183205,0.0
11.43000078201294,-9.533711010742186,0.9528922607421875,1.5203180541992187,2.0916030534351147,51.32824427480916,0.21374045801526717,-9.892841259765625,2.099714855957031,-0.5770026000976562,-12.946564885496183,-3.66412213740458,15.358778625954198,0.0
11.440000534057617,-10.59194814453125,0.9840168823242187,2.408566870117187,-0.5343511450381679,54.83969465648855,-1.5725190839694656,-9.78031378173828,2.597708801269531,-0.6919242797851562,-14.198473282442748,-4.244274809160306,13.908396946564885,0.0
11.450000524520874,-10.855310327148437,1.5705962890624998,2.636016027832031,-8.916030534351146,49.587786259541986,-2.33587786259542,-9.65342109375,2.8802245971679685,-0.6009446166992187,-14.0,-4.183206106870229,13.129770992366412,0.0
11.46000051498413,-10.900800158691405,1.24498486328125,3.2154128295898436,-17.984732824427482,46.01526717557252,-2.4427480916030535,-9.490615380859374,3.0142998901367184,-0.32082302246093747,-14.748091603053435,-4.091603053435114,12.83969465648855,0.0
11.470000505447388,-9.727641345214844,1.0319009155273438,2.501940734863281,-23.84732824427481,38.33587786259542,-2.2442748091603053,-9.399635717773437,3.1100679565429687,-0.3902548706054687,-15.954198473282442,-3.450381679389313,12.534351145038167,0.0
11.480000495910645,-9.753977563476562,0.4740519287109375,2.454056701660156,-25.206106870229007,35.587786259541986,-2.4580152671755724,-9.435548742675781,3.1268273681640624,-0.43574470214843747,-17.114503816793892,-3.3587786259541983,12.259541984732824,0.0
11.49000072479248,-9.964667309570311,0.05746083984375,2.01112939453125,-28.885496183206108,29.358778625954198,-2.6106870229007635,-9.258377819824219,3.2537200561523436,-0.39983167724609375,-18.244274809160306,-3.450381679389313,12.625954198473282,0.0
11.500000476837158,-9.05965908203125,-0.3687070556640625,1.6998831787109374,-16.137404580152673,33.31297709923664,-3.480916030534351,-8.93755479736328,2.748543505859375,-0.062249243164062495,-18.80916030534351,-2.946564885496183,13.145038167938932,0.0
11.510000944137573,-10.160991845703125,1.1731588134765625,1.8291700683593748,-21.923664122137403,28.12213740458015,-5.343511450381679,-8.91840118408203,2.7533319091796873,-0.12449848632812499,-18.33587786259542,-3.7099236641221376,12.259541984732824,0.0
11.52000093460083,-9.466673364257812,0.7110778930664062,1.35990654296875,-17.72519083969466,26.671755725190838,-2.8702290076335877,-9.009380847167968,2.2098481323242187,-0.38786066894531246,-19.603053435114504,-4.854961832061068,11.954198473282442,0.0
11.530000686645508,-9.497797985839844,0.679953271484375,1.6448165405273436,-15.923664122137405,27.450381679389313,-2.122137404580153,-8.640673791503906,2.003946789550781,-0.36631285400390623,-18.53435114503817,-4.977099236641221,10.595419847328245,0.0
11.540000677108765,-9.739612353515625,0.7852981445312499,1.8339584716796873,-14.030534351145038,27.404580152671755,-1.8778625954198473,-8.772354882812499,1.6424223388671875,-0.30406361083984373,-16.549618320610687,-5.251908396946565,9.16030534351145,0.0
11.550000667572021,-8.8489693359375,-0.7829039428710937,1.3359645263671873,-8.0,26.564885496183205,-0.4580152671755725,-8.262389929199218,1.5514426757812498,-0.16519991455078123,-14.702290076335878,-6.259541984732825,7.862595419847328,0.0
11.5600004196167,-10.024522351074218,0.3232172241210937,2.300827795410156,1.984732824427481,33.16030534351145,-4.030534351145038,-9.085995300292968,0.4477157104492187,0.411802685546875,-8.977099236641221,-5.175572519083969,7.068702290076335,0.0
11.570000648498535,-10.002974536132811,0.201112939453125,2.109291662597656,4.763358778625954,30.870229007633586,-4.870229007633588,-8.858546142578124,1.5394716674804687,-1.0558429321289062,0.04580152671755725,-14.702290076335878,1.9236641221374047,0.0
11.580000638961792,-8.999804040527343,0.3806780639648437,1.707065783691406,6.916030534351145,27.389312977099237,-4.427480916030534,-9.950302099609374,0.7996633544921875,0.062249243164062495,4.351145038167939,-9.251908396946565,2.16793893129771,0.0
11.59000039100647,-9.411606726074218,0.7038952880859375,2.5450363647460934,6.564885496183206,28.16793893129771,-5.343511450381679,-9.435548742675781,1.6735469604492186,-0.23223756103515625,8.442748091603054,-13.419847328244275,-0.8396946564885496,0.0
11.600000381469727,-10.556035119628906,1.467645617675781,2.8371289672851563,6.229007633587786,28.977099236641223,-5.175572519083969,-8.769960681152343,1.7956512451171873,-0.2442085693359375,5.129770992366412,-6.549618320610687,0.7175572519083969,0.0
11.610000371932983,-10.536881506347656,1.637633935546875,2.4564509033203126,1.5114503816793894,25.435114503816795,-3.2061068702290076,-7.893682873535155,3.536235852050781,-1.93451494140625,4.625954198473282,-10.564885496183207,-1.4809160305343512,0.0
11.620000839233398,-10.596736547851561,1.936909143066406,1.9776105712890624,-2.351145038167939,20.885496183206108,-1.9389312977099236,-9.129090930175781,2.2649147705078123,-0.8786720092773437,5.541984732824427,-0.5343511450381679,2.4427480916030535,0.0
11.630000591278076,-11.008539233398437,1.8100164550781248,2.2649147705078123,-5.175572519083969,20.458015267175572,-1.786259541984733,-10.529698901367187,1.7860744384765623,-0.9433154541015625,16.68702290076336,-2.122137404580153,1.1145038167938932,0.0
11.640000820159912,-9.064447485351561,-0.5913678100585937,1.1659762084960936,-1.6946564885496183,18.27480916030534,0.6106870229007634,-9.270348828125,1.9847931762695312,0.4477157104492187,15.206106870229007,0.5648854961832062,-0.7175572519083969,0.0
11.65000057220459,-10.256759912109374,1.2904746948242187,2.1499930908203124,-7.343511450381679,18.671755725190838,-2.0763358778625953,-9.306261853027344,2.2744915771484373,0.4644751220703125,16.946564885496183,-5.404580152671755,-3.3740458015267176,0.0
11.660000324249268,-9.411606726074218,-0.59376201171875,1.0414777221679687,-4.885496183206107,14.244274809160306,-0.8396946564885496,-10.678139404296875,1.5275006591796874,1.917755529785156,21.770992366412212,-7.312977099236641,-1.8015267175572518,0.0
11.670000791549683,-9.78031378173828,0.14604630126953125,1.8459294799804686,5.893129770992366,22.16793893129771,-4.33587786259542,-9.612719665527344,1.426944189453125,1.2042834350585936,25.557251908396946,-15.709923664122137,-5.022900763358779,0.0
11.68000054359436,-8.990227233886719,-0.45010991210937495,1.0199299072265624,2.900763358778626,15.770992366412214,-3.6030534351145036,-10.141838232421874,1.9871873779296874,2.059013427734375,22.900763358778626,-18.15267175572519,-5.755725190839694,0.0
11.690000534057617,-9.686939916992188,1.1013327636718748,1.4245499877929686,3.2061068702290076,17.87786259541985,-4.824427480916031,-9.014169250488282,3.327940307617187,1.4173673828125,16.48854961832061,-24.47328244274809,-7.694656488549619,0.0
11.700000286102295,-10.457872851562499,2.3439234252929686,1.9823989746093749,-1.1755725190839694,19.236641221374047,-5.480916030534351,-8.051700183105469,3.3973721557617185,0.8762778076171874,2.5343511450381677,-23.328244274809162,-7.083969465648855,0.0
11.710000276565552,-9.081206896972656,0.4955997436523437,1.0534487304687499,-4.213740458015267,15.648854961832061,-1.3587786259541985,-10.137049829101562,2.6479870361328124,1.1516109985351561,-1.099236641221374,-19.221374045801525,-5.175572519083969,0.0
11.720000743865967,-9.5384994140625,0.3687070556640625,0.6512228515624999,-7.32824427480916,13.86259541984733,-0.366412213740458,-10.520122094726561,1.2473790649414063,1.7357962036132812,0.5190839694656488,-19.984732824427482,-5.435114503816794,0.0
11.730000734329224,-10.594342346191405,1.39821376953125,1.149216796875,-6.0458015267175576,16.763358778625953,-2.0,-10.565611926269531,0.28490999755859375,1.5586252807617187,8.80916030534351,-28.53435114503817,-10.076335877862595,0.0
11.740000486373901,-8.985438830566405,-0.9169792358398436,0.19871873779296872,-4.687022900763359,14.198473282442748,0.2748091603053435,-9.552864624023437,1.1707646118164061,1.2713210815429687,11.893129770992367,-34.50381679389313,-13.908396946564885,0.0
11.750000715255737,-10.443507641601562,2.0877438476562498,1.5179238525390624,-13.526717557251908,16.229007633587788,-3.2519083969465647,-8.0062103515625,3.3255461059570313,-0.6153098266601562,-3.1603053435114505,-38.732824427480914,-17.31297709923664,0.0
11.760000705718994,-9.622296472167967,0.7996633544921875,1.5442600708007812,-19.297709923664122,11.98473282442748,-1.083969465648855,-9.89523546142578,1.6136919189453125,1.3958195678710936,-11.17557251908397,-30.198473282442748,-11.908396946564885,0.0
11.770000696182251,-9.603142858886718,-0.5434837768554687,1.7477672119140624,-16.137404580152673,11.557251908396946,-1.083969465648855,-9.909600671386718,1.2378022583007813,0.8834604125976562,-3.053435114503817,-36.595419847328245,-14.274809160305344,0.0
11.780000925064087,-9.0788126953125,-1.0414777221679687,1.7741034301757812,-1.2366412213740459,15.465648854961833,-2.9160305343511452,-8.872911352539061,1.6639701538085936,0.5195417602539062,-0.22900763358778625,-40.74809160305343,-18.259541984732824,0.0
11.790000438690186,-8.576030346679687,-0.6679822631835937,1.5729904907226562,1.0229007633587786,13.404580152671755,-3.9236641221374047,-7.857769848632812,3.2249896362304686,-0.2561795776367187,-11.34351145038168,-39.3587786259542,-19.740458015267176,0.0
11.8000009059906,-8.949525805664061,-0.05027823486328125,1.7262193969726563,-1.816793893129771,9.679389312977099,-3.450381679389313,-9.696516723632811,1.2856862915039062,1.0462661254882812,-16.0,-34.595419847328245,-15.587786259541986,0.0
11.810000658035278,-9.160215551757812,-0.17956512451171874,2.1116858642578125,1.0076335877862594,6.885496183206107,-3.5419847328244276,-9.610325463867188,1.0773907470703123,1.1061211669921875,-10.259541984732824,-38.54961832061068,-18.85496183206107,0.0
11.820000648498535,-9.751583361816406,0.6200982299804687,2.588131994628906,2.50381679389313,4.213740458015267,-2.9923664122137406,-8.80347950439453,2.166752502441406,0.5267243652343749,-12.427480916030534,-38.47328244274809,-22.198473282442748,0.0
11.830000638961792,-10.951078393554686,2.6384102294921874,3.909731311035156,1.9083969465648856,5.297709923664122,-2.6106870229007635,-8.78432589111328,2.6599580444335937,0.9433154541015625,-21.83206106870229,-31.282442748091604,-21.64885496183206,0.0
11.840001106262207,-9.785102185058593,1.2713210815429687,3.1555577880859373,-5.0534351145038165,-5.129770992366412,3.1297709923664123,-8.161833459472655,2.5570073730468748,0.5147533569335937,-30.3206106870229,-29.66412213740458,-20.519083969465647,0.0
11.850000619888306,-9.753977563476562,0.9888052856445312,2.7557261108398436,1.6030534351145038,-4.3816793893129775,5.251908396946565,-10.50815108642578,1.8363526733398436,1.4508862060546874,-23.00763358778626,-26.061068702290076,-19.69465648854962,0.0
11.860000848770142,-9.677363110351562,0.4381389038085937,1.9752163696289062,5.358778625954199,-4.900763358778626,5.8320610687022905,-10.479420666503906,-0.0047884033203125,1.9488801513671874,-10.549618320610687,-28.244274809160306,-20.458015267175572,0.0
11.87000036239624,-9.442731347656249,0.07422025146484375,1.2593500732421874,5.862595419847328,-4.519083969465649,4.67175572519084,-9.361328491210937,0.9193734375,2.1452046874999997,-4.885496183206107,-32.76335877862596,-22.213740458015266,0.0
11.880000829696655,-9.042899670410156,0.229843359375,0.9504980590820312,6.137404580152672,-1.8931297709923665,2.6717557251908395,-8.588001354980468,1.9895815795898437,1.1037269653320312,-6.732824427480916,-34.25954198473283,-21.984732824427482,0.0
11.890000581741333,-9.406818322753905,1.024718310546875,0.8714894042968749,0.6412213740458015,-0.9465648854961832,0.33587786259541985,-9.888052856445311,1.8004396484374998,1.2018892333984375,-9.84732824427481,-29.099236641221374,-20.091603053435115,0.0
11.90000033378601,-9.509768994140625,1.2880804931640624,1.0654197387695312,-3.969465648854962,-0.4732824427480916,-0.8854961832061069,-7.886500268554687,2.3391350219726563,0.9193734375,-13.114503816793894,-32.030534351145036,-20.870229007633586,0.0
11.910000324249268,-9.6151138671875,1.3168109130859373,1.2330138549804688,-8.366412213740459,-1.0687022900763359,-0.33587786259541985,-9.89523546142578,1.7094599853515624,0.8858546142578124,-6.183206106870229,-31.053435114503817,-19.72519083969466,0.0
11.920000553131104,-9.756371765136718,0.603338818359375,1.0558429321289062,-6.977099236641221,-0.9770992366412213,0.6106870229007634,-12.674903588867187,-2.166752502441406,4.101267443847656,7.801526717557252,-27.938931297709924,-15.908396946564885,0.0
11.93000054359436,-7.738059765625,-1.6328455322265625,-0.09816226806640624,8.748091603053435,3.435114503816794,1.3587786259541985,-7.321468676757812,2.597708801269531,1.4030021728515625,10.0,-36.916030534351144,-23.923664122137403,0.0
11.940000534057617,-8.93755479736328,0.7541735229492187,0.5602431884765625,8.198473282442748,8.16793893129771,-1.6793893129770991,-8.975862023925782,1.199495031738281,2.43250888671875,-0.5801526717557252,-25.862595419847327,-19.022900763358777,0.0
11.950000286102295,-9.366116894531249,1.0869675537109373,0.5506663818359374,0.2595419847328244,7.114503816793893,-2.351145038167939,-10.570400329589843,0.8978256225585937,1.9752163696289062,0.7938931297709924,-23.251908396946565,-17.51145038167939,0.0
11.96000051498413,-8.947131604003905,0.27293898925781246,0.9217676391601562,2.7480916030534353,12.13740458015267,-4.198473282442748,-9.919177478027343,-0.63206923828125,2.6479870361328124,8.580152671755725,-23.862595419847327,-18.702290076335878,0.0
11.970000982284546,-9.083601098632812,-0.06943184814453125,0.5123591552734374,3.404580152671756,14.320610687022901,-8.13740458015267,-10.345345373535155,0.13168109130859373,2.6192566162109374,25.786259541984734,-27.72519083969466,-21.114503816793892,0.0
11.980000495910645,-10.462661254882812,0.6488286499023437,1.1827356201171875,1.5877862595419847,16.47328244274809,-11.587786259541986,-9.866505041503906,0.6081272216796875,2.568978381347656,30.366412213740457,-25.00763358778626,-20.519083969465647,0.0
11.99000072479248,-9.435548742675781,1.1468225952148436,1.2641384765625,-3.0381679389312977,12.763358778625955,-12.595419847328245,-8.808267907714843,1.5322890624999999,1.9201497314453124,26.015267175572518,-21.236641221374047,-21.557251908396946,0.0
12.000000476837158,-10.59194814453125,1.3934253662109375,1.5394716674804687,-6.458015267175573,13.129770992366412,-13.312977099236642,-9.41639512939453,1.8363526733398436,1.1156979736328125,24.80916030534351,-17.96946564885496,-19.96946564885496,0.0
12.010000944137573,-9.112331518554686,1.0438719238281249,1.199495031738281,-2.4580152671755724,11.694656488549619,-13.236641221374045,-7.821856823730468,1.7477672119140624,1.4101847778320311,16.244274809160306,-7.450381679389313,-19.480916030534353,0.0
12.020000696182251,-10.244788903808594,0.70868369140625,1.7166425903320313,-2.6106870229007635,12.625954198473282,-14.641221374045802,-9.023746057128905,1.120486376953125,1.5705962890624998,24.549618320610687,-9.17557251908397,-17.984732824427482,0.0
12.030000448226929,-9.82580361328125,0.03591302490234375,1.3814543579101561,7.068702290076335,11.877862595419847,-14.83969465648855,-8.595183959960938,0.2561795776367187,2.1595698974609374,26.931297709923665,-4.458015267175573,-19.022900763358777,0.0
12.040000438690186,-9.042899670410156,-0.296881005859375,1.2761094848632812,13.282442748091603,11.816793893129772,-15.038167938931299,-8.767566479492187,0.2346317626953125,2.4253262817382812,31.709923664122137,-4.916030534351145,-19.480916030534353,0.0
12.0500009059906,-10.730811840820312,0.46208092041015625,1.6543933471679686,13.419847328244275,10.15267175572519,-15.801526717557252,-8.717288244628906,0.5889736083984375,2.250549560546875,34.717557251908396,-5.541984732824427,-20.549618320610687,0.0
12.060000658035278,-6.7085530517578125,-1.3024457031249999,0.9720458740234375,24.0,7.6183206106870225,-14.900763358778626,-8.427589843749999,0.9457096557617187,1.8698714965820311,35.221374045801525,-4.748091603053435,-20.931297709923665,0.0
12.070000648498535,-9.785102185058593,0.9361328491210937,2.6791116577148437,23.129770992366414,11.801526717557252,-19.480916030534353,-8.36294639892578,1.024718310546875,2.061407629394531,35.221374045801525,-3.633587786259542,-21.282442748091604,0.0
12.080000400543213,-9.545682019042967,0.3591302490234375,2.6312276245117188,17.236641221374047,7.1603053435114505,-19.541984732824428,-8.317456567382813,1.0989385620117187,1.4604630126953124,32.76335877862596,-3.618320610687023,-20.610687022900763,0.0
12.090000629425049,-9.816226806640625,0.7278373046875,2.712630480957031,21.114503816793892,7.129770992366412,-19.328244274809162,-7.587225061035156,1.3024457031249999,1.7884686401367187,29.755725190839694,-2.9770992366412212,-21.31297709923664,0.0
12.100000858306885,-8.74601866455078,-0.55545478515625,2.4779987182617185,23.480916030534353,2.763358778625954,-18.50381679389313,-7.826645227050781,0.9409212524414062,1.89620771484375,26.595419847328245,-2.030534351145038,-20.99236641221374,0.0
12.110000610351562,-10.266336718749999,0.15322890625,3.651157531738281,31.297709923664122,5.358778625954199,-20.396946564885496,-7.419630944824219,0.8714894042968749,2.1739351074218747,22.137404580152673,-1.9236641221374047,-21.297709923664122,0.0
12.120000839233398,-10.658985791015624,1.5705962890624998,4.244919543457031,26.641221374045802,-1.6641221374045803,-21.52671755725191,-7.592013464355468,0.6009446166992187,1.7166425903320313,18.137404580152673,-3.3435114503816794,-21.72519083969466,0.0
12.130000591278076,-11.587936035156249,1.5945383056640625,4.797980126953124,19.099236641221374,-10.793893129770993,-18.18320610687023,-7.134720947265625,1.0869675537109373,1.197100830078125,12.763358778625955,-4.595419847328245,-20.83969465648855,0.0
12.140000820159912,-10.089165795898436,0.8595183959960937,5.442020373535156,21.69465648854962,-18.99236641221374,-13.221374045801527,-6.9168485961914055,1.4987702392578124,-0.8690952026367187,7.206106870229007,-0.0,-19.786259541984734,0.0
12.15000057220459,-12.406753002929687,1.7501614135742187,7.0652890991210935,27.114503816793892,-22.595419847328245,-12.595419847328245,-7.544129431152343,3.0502129150390624,-1.2665326782226562,10.854961832061068,3.633587786259542,-15.84732824427481,0.0
12.160000562667847,-12.636596362304687,2.4109610717773435,7.747636572265624,28.30534351145038,-34.74809160305343,-9.053435114503817,-7.671022119140624,4.46279189453125,-0.9816226806640624,6.5038167938931295,8.13740458015267,-13.389312977099237,0.0
12.170000553131104,-13.429077111816406,2.521094348144531,8.461108666992187,23.66412213740458,-52.68702290076336,-2.564885496183206,-11.822567797851562,4.5968671875,0.70868369140625,3.816793893129771,13.022900763358779,-6.885496183206107,0.0
12.18000054359436,-12.026074938964843,-0.06943184814453125,7.560888842773437,43.86259541984733,-63.89312977099237,6.625954198473282,-12.84489190673828,3.840299462890625,1.216254443359375,3.5419847328244276,3.5877862595419847,-8.549618320610687,0.0
12.190000295639038,-13.223175769042967,1.3383587280273437,7.474697583007812,58.6412213740458,-72.6412213740458,9.908396946564885,-14.595053320312498,2.5378537597656248,2.3223756103515623,-8.229007633587786,-8.396946564885496,-5.9541984732824424,0.0
12.200000524520874,-14.025233325195313,2.8754361938476563,8.034940771484374,58.412213740458014,-84.67175572519083,13.007633587786259,-12.51928048095703,2.6982652709960937,1.4628572143554686,-7.312977099236641,17.49618320610687,-6.122137404580153,0.0
12.21000051498413,-15.363592053222655,5.054159704589844,8.008604553222655,35.786259541984734,-105.29770992366412,18.48854961832061,-13.002909216308593,0.9002198242187499,2.4875755249023435,-21.984732824427482,20.671755725190838,2.0,0.0
12.220000743865967,-13.977349291992187,2.971204260253906,6.6151791870117185,10.076335877862595,-130.0,24.931297709923665,-10.919953771972656,0.584185205078125,0.7350199096679687,-8.900763358778626,8.80916030534351,-0.8549618320610687,0.0
12.230000734329224,-12.981361401367186,0.8212111694335937,5.233724829101562,9.98473282442748,-142.61068702290078,31.00763358778626,-9.272743029785156,0.6344634399414062,-0.7900865478515624,-14.213740458015268,22.80916030534351,8.091603053435115,0.0
12.240000247955322,-12.342109558105468,-1.4341267944335936,3.897760302734375,18.564885496183205,-150.19847328244273,38.152671755725194,-8.410830432128906,1.0223241088867188,-1.7932570434570312,-30.549618320610687,20.870229007633586,5.190839694656488,0.0
12.250000476837158,-10.627861169433594,-3.9647979492187497,-0.19153613281249998,33.25190839694657,-147.09923664122138,42.25954198473283,-10.029310754394531,-1.4053963745117186,-1.1013327636718748,27.129770992366414,9.84732824427481,-4.656488549618321,0.0
12.260000705718994,-9.303867651367186,-6.042964990234375,-2.9472622436523435,32.732824427480914,-140.44274809160305,38.900763358778626,-9.248801013183593,-0.6105214233398437,-0.5913678100585937,-9.022900763358779,11.938931297709924,-3.984732824427481,0.0
12.270000696182251,-9.315838659667968,-6.368576416015625,-3.4356793823242184,34.47328244274809,-124.4885496183206,30.442748091603054,-9.696516723632811,-1.0486603271484374,-1.2808978881835937,34.900763358778626,14.15267175572519,-8.030534351145038,0.0
12.280000686645508,-7.173028173828125,-6.828263134765624,-3.806780639648437,32.534351145038165,-110.67175572519083,17.404580152671755,-9.323021264648437,0.59376201171875,-2.001552587890625,13.435114503816793,15.679389312977099,-9.725190839694656,0.0
12.290000677108765,-7.395688928222656,-5.410895751953125,-3.414131567382812,32.82442748091603,-95.3587786259542,2.9160305343511452,-9.0021982421875,2.3056161987304686,-1.0175357055664063,0.21374045801526717,25.419847328244273,-0.916030534351145,0.0
12.300000429153442,-7.517793212890624,-4.917690209960937,-3.450044592285156,33.05343511450382,-82.09160305343511,-6.030534351145038,-9.76116016845703,1.1085153686523437,-0.26815058593749996,-4.748091603053435,29.282442748091604,-2.9923664122137406,0.0
12.310000658035278,-8.396465222167969,-4.11802685546875,-3.1028853515624997,43.64885496183206,-60.61068702290076,-10.458015267175572,-11.082759484863281,0.0909796630859375,0.3902548706054687,-5.419847328244275,31.633587786259543,2.1374045801526718,0.0
12.320000648498535,-10.01015714111328,-1.9871873779296874,-1.2018892333984375,54.35114503816794,-37.61832061068702,-13.16030534351145,-10.8409451171875,-0.1197100830078125,0.3280056274414062,-0.8244274809160306,28.458015267175572,2.33587786259542,0.0
12.330000400543213,-9.133879333496093,-0.2920926025390625,-0.38307226562499996,55.32824427480916,-27.221374045801525,-13.679389312977099,-9.162609753417968,0.32082302246093747,-1.8411410766601561,-5.893129770992366,24.35114503816794,2.6106870229007635,0.0
12.34000039100647,-9.07163009033203,1.9297265380859374,0.4261678955078125,35.847328244274806,-27.14503816793893,-14.229007633587786,-9.603142858886718,0.9720458740234375,-1.9536685546875,-13.038167938931299,27.358778625954198,5.908396946564886,0.0
12.350000619888306,-11.264718811035156,5.736507177734374,1.9656395629882812,9.206106870229007,-24.549618320610687,-15.236641221374045,-9.603142858886718,0.45010991210937495,-0.5267243652343749,-19.404580152671755,33.25190839694657,10.351145038167939,0.0
12.360000610351562,-10.218452685546874,4.613626599121093,0.9145850341796874,-17.557251908396946,-28.717557251908396,-10.320610687022901,-10.556035119628906,-0.6584054565429687,-0.3902548706054687,-11.526717557251908,31.389312977099237,10.946564885496183,0.0
12.37000060081482,-8.262389929199218,2.1978771240234374,-0.6368576416015624,-41.725190839694655,-33.541984732824424,-3.9083969465648853,-10.716446630859375,-2.04943662109375,-0.7996633544921875,2.7480916030534353,25.786259541984734,9.587786259541986,0.0
12.380000829696655,-8.123526232910155,0.9026140258789062,-0.22505495605468748,-49.847328244274806,-25.84732824427481,-2.16793893129771,-11.125855114746093,-1.93451494140625,0.6512228515624999,14.488549618320612,23.954198473282442,8.610687022900763,0.0
12.390000581741333,-7.113173132324218,-0.028730419921875,-0.7110778930664062,-61.11450381679389,-21.923664122137403,-1.0076335877862594,-9.528922607421874,-0.1005564697265625,0.4070142822265625,17.49618320610687,19.87786259541985,5.709923664122138,0.0
12.40000033378601,-6.7037646484375,-0.4644751220703125,-0.4836287353515625,-69.29770992366412,-15.267175572519085,-0.7786259541984732,-9.670180505371093,0.430956298828125,0.5195417602539062,16.16793893129771,17.6793893129771,6.6106870229007635,0.0
12.410000562667847,-6.993463049316406,-1.0510545288085937,0.3016694091796875,-75.23664122137404,-10.13740458015267,-2.6106870229007635,-9.56962403564453,0.9193734375,0.6703764648437499,13.755725190839694,16.80916030534351,6.916030534351145,0.0
12.420000553131104,-7.252036828613281,-1.3479355346679687,1.0414777221679687,-74.4885496183206,-1.1450381679389312,-3.435114503816794,-9.397241516113281,0.8882488159179687,0.8044517578125,12.290076335877863,17.022900763358777,7.862595419847328,0.0
12.43000054359436,-6.883329772949218,-2.7341782958984373,1.5275006591796874,-65.20610687022901,7.297709923664122,-4.0,-9.325415466308593,0.7110778930664062,0.699106884765625,11.664122137404581,16.458015267175572,8.595419847328245,0.0
12.440000534057617,-8.161833459472655,-1.8459294799804686,3.8187516479492185,-57.06870229007634,14.16793893129771,-7.816793893129771,-9.466673364257812,0.38307226562499996,0.7805097412109374,12.427480916030534,15.938931297709924,9.587786259541986,0.0
12.450000286102295,-7.031770275878906,-2.9927520751953125,4.53940634765625,-46.229007633587784,15.541984732824428,-9.007633587786259,-9.481038574218749,0.2609679809570312,0.737414111328125,12.13740458015267,15.526717557251908,10.15267175572519,0.0
12.46000051498413,-8.037334973144532,-2.157175695800781,5.760449194335937,-47.43511450381679,10.274809160305344,-12.274809160305344,-9.512163195800781,0.4333505004882812,0.7062894897460937,12.366412213740459,14.534351145038167,10.610687022900763,0.0
12.470000267028809,-7.632714892578124,-2.7246014892578123,5.403713146972656,-41.70992366412214,4.412213740458015,-10.13740458015267,-9.725247143554688,0.411802685546875,0.6416460449218749,10.488549618320612,13.221374045801527,11.404580152671755,0.0
12.480000257492065,-8.8872765625,-1.0869675537109373,5.588066674804687,-32.213740458015266,6.6106870229007635,-9.007633587786259,-9.816226806640625,0.19871873779296872,0.6655880615234374,9.648854961832061,12.977099236641221,11.923664122137405,0.0
12.49000072479248,-7.426813549804687,-2.530671154785156,4.6639048339843745,-21.34351145038168,5.312977099236641,-5.190839694656488,-9.852139831542969,0.11731588134765625,0.603338818359375,9.541984732824428,12.290076335877863,12.67175572519084,0.0
12.500000476837158,-7.4794859863281244,-2.262520568847656,4.843469958496094,-4.412213740458015,10.82442748091603,-2.717557251908397,-9.878476049804688,-0.1388636962890625,0.5291185668945312,9.83206106870229,12.061068702290076,13.053435114503817,0.0
12.510000705718994,-6.2201359130859375,-3.670311145019531,4.647145422363281,13.32824427480916,13.297709923664122,0.24427480916030533,-9.988609326171874,-0.584185205078125,0.5770026000976562,11.297709923664122,12.396946564885496,13.053435114503817,0.0
12.520000457763672,-7.682993127441406,-1.6543933471679686,6.505045910644531,34.2442748091603,20.412213740458014,-0.4580152671755725,-9.969455712890625,-0.9074024291992187,0.5817910034179687,14.13740458015267,12.442748091603054,12.0,0.0
12.530000686645508,-8.992621435546875,0.9744400756835937,7.41244833984375,42.38167938931298,19.46564885496183,1.3435114503816794,-10.184933862304687,-0.8595183959960937,0.9193734375,19.19083969465649,12.870229007633588,12.13740458015267,0.0
12.540000677108765,-9.251195214843749,2.195482922363281,7.187393383789062,44.30534351145038,13.404580152671755,8.091603053435115,-9.495403784179686,0.8786720092773437,0.21787235107421873,18.18320610687023,10.51908396946565,9.969465648854962,0.0
12.550000667572021,-8.930372192382812,2.839523168945312,7.1778165771484375,47.725190839694655,13.450381679389313,17.129770992366414,-9.399635717773437,1.2401964599609374,0.5219359619140624,8.412213740458014,16.946564885496183,12.213740458015268,0.0
12.5600004196167,-8.252813122558594,2.0829554443359375,6.641515405273437,43.64885496183206,10.076335877862595,19.755725190839694,-9.399635717773437,1.5107412475585937,0.8834604125976562,6.290076335877862,18.671755725190838,13.48091603053435,0.0
12.570000648498535,-7.726088757324218,2.059013427734375,5.700594152832031,39.221374045801525,7.755725190839694,18.793893129770993,-8.441955053710936,2.4516625,-0.26815058593749996,-0.2595419847328244,18.9618320610687,13.282442748091603,0.0
12.580000638961792,-6.584054565429687,1.6639701538085936,3.6391865234374996,33.038167938931295,8.80916030534351,19.572519083969464,-8.154650854492187,2.868253588867187,1.7932570434570312,-19.49618320610687,29.923664122137403,17.358778625954198,0.0
12.590000629425049,-8.202534887695313,3.5984850952148437,4.429273071289062,20.549618320610687,16.412213740458014,15.740458015267176,-10.601524951171875,-1.369483349609375,1.3958195678710936,-13.511450381679388,31.267175572519083,21.236641221374047,0.0
12.600000858306885,-7.481880187988281,3.2249896362304686,2.0877438476562498,-2.900763358778626,13.374045801526718,14.67175572519084,-10.141838232421874,0.239420166015625,0.2537853759765625,-9.358778625954198,21.099236641221374,17.66412213740458,0.0
12.610000371932983,-6.287173559570312,1.3359645263671873,1.2401964599609374,-18.671755725190838,17.954198473282442,17.480916030534353,-9.294290844726563,1.197100830078125,-1.1516109985351561,-19.984732824427482,22.259541984732824,18.595419847328245,0.0
12.620000839233398,-6.426037255859375,0.46208092041015625,1.0797849487304687,-32.01526717557252,26.213740458015266,17.72519083969466,-9.368511096191405,0.9935936889648437,-0.8906430175781249,-26.061068702290076,26.83969465648855,21.938931297709924,0.0
12.630000591278076,-7.149086157226562,-0.9050082275390624,1.139639990234375,-28.519083969465647,39.847328244274806,17.908396946564885,-10.824185705566405,-1.5011644409179687,0.25139117431640623,-21.81679389312977,27.49618320610687,25.435114503816795,0.0
12.640000820159912,-8.573636145019531,-1.1156979736328125,2.4205378784179685,-22.244274809160306,50.50381679389313,16.12213740458015,-10.979808813476561,-0.5363011718749999,-1.1755530151367186,-18.396946564885496,18.83969465648855,21.64885496183206,0.0
12.65000057220459,-11.128249316406249,-1.5825672973632812,5.0206408813476555,-22.885496183206108,52.58015267175573,16.015267175572518,-11.3772462890625,-0.7278373046875,-1.0295067138671874,-15.221374045801527,15.511450381679388,21.389312977099237,0.0
12.660000324249268,-13.797784167480469,-2.042254016113281,8.66940421142578,-14.916030534351146,52.38167938931298,16.580152671755727,-11.647791076660155,-0.031124621582031248,-0.5410895751953124,-19.709923664122137,13.083969465648854,19.786259541984734,0.0
12.670000553131104,-15.701174487304687,-1.0319009155273438,10.800243688964843,-12.83969465648855,43.29770992366412,14.778625954198473,-11.10191309814453,1.2473790649414063,-1.5346832641601562,-29.69465648854962,12.122137404580153,17.69465648854962,0.0
12.68000054359436,-16.13931339111328,0.42377369384765623,9.986215124511718,-15.068702290076336,30.33587786259542,12.351145038167939,-11.3006318359375,4.010287780761718,-1.649604943847656,-41.9236641221374,14.83969465648855,15.19083969465649,0.0
12.690000534057617,-15.73708751220703,2.1356278808593747,6.809109521484374,-24.137404580152673,17.893129770992367,9.267175572519085,-12.876016528320312,1.9991583862304687,0.3495534423828125,-52.2442748091603,22.366412213740457,17.31297709923664,0.0
12.700000524520874,-13.814543579101562,2.104503259277344,4.122815258789062,-31.328244274809162,7.908396946564886,9.083969465648854,-13.620613244628906,0.9624690673828125,1.8411410766601561,-35.74045801526717,17.46564885496183,18.045801526717558,0.0
12.710000276565552,-8.93755479736328,-2.461239306640625,-0.09816226806640624,-24.35114503816794,-2.0763358778625953,13.618320610687023,-12.90235274658203,0.7924807495117187,1.3215993164062498,-21.740458015267176,4.702290076335878,14.793893129770993,0.0
12.720000505447388,-6.4667386840820305,-3.19865341796875,-1.438915197753906,4.396946564885496,10.65648854961832,10.305343511450381,-10.311826550292968,3.3207577026367185,-0.076614453125,-24.793893129770993,-1.5114503816793894,10.366412213740459,0.0
12.730000257492065,-6.452373474121093,-1.8914193115234375,-1.4628572143554686,8.488549618320612,16.519083969465647,5.679389312977099,-10.448296044921875,3.1579519897460937,0.19153613281249998,-23.267175572519083,0.061068702290076333,14.061068702290076,0.0
12.740000486373901,-7.716511950683593,0.3327940307617187,-0.9624690673828125,8.244274809160306,21.603053435114504,3.7251908396946565,-10.366893188476562,2.789244934082031,0.062249243164062495,-21.419847328244273,0.04580152671755725,16.793893129770993,0.0
12.750000953674316,-8.355763793945313,1.419761584472656,-0.27293898925781246,3.618320610687023,26.778625954198475,5.923664122137405,-10.338162768554687,2.6240450195312497,0.3447650390625,-19.099236641221374,0.04580152671755725,17.923664122137403,0.0
12.760000467300415,-9.610325463867188,2.7820623291015623,0.48123453369140623,-6.152671755725191,29.984732824427482,7.541984732824427,-9.634267480468749,2.5330653564453125,-0.201112939453125,-18.793893129770993,-2.1068702290076335,17.83206106870229,0.0
12.770000696182251,-9.885658654785155,2.3965958618164063,0.5530605834960938,-16.290076335877863,31.46564885496183,10.82442748091603,-9.892841259765625,2.166752502441406,-0.1867477294921875,-15.603053435114504,-3.4198473282442747,19.374045801526716,0.0
12.780000686645508,-10.211270080566406,1.5083470458984374,1.2808978881835937,-26.396946564885496,32.36641221374046,12.106870229007633,-9.306261853027344,2.094926452636719,-0.15562310791015624,-13.816793893129772,-4.427480916030534,19.72519083969466,0.0
12.790000677108765,-8.269572534179687,-2.1643583007812497,0.7398083129882812,-23.83206106870229,33.70992366412214,14.229007633587786,-8.93755479736328,2.511517541503906,-0.06703764648437499,-14.381679389312977,-4.687022900763359,20.137404580152673,0.0
12.800000667572021,-8.413224633789062,-2.109291662597656,1.5897499023437498,-11.083969465648854,42.33587786259542,8.900763358778626,-9.035717065429687,2.1260510742187497,-0.3495534423828125,-13.98473282442748,-3.8625954198473282,19.938931297709924,0.0
12.8100004196167,-9.373299499511718,-1.2904746948242187,2.3822306518554686,-6.656488549618321,44.717557251908396,3.3587786259541983,-8.872911352539061,2.346317626953125,0.08140285644531249,-13.083969465648854,-3.3740458015267176,19.129770992366414,0.0
12.820000648498535,-9.8449572265625,-0.5626373901367188,2.683900061035156,-5.206106870229007,43.74045801526717,-0.3053435114503817,-9.0021982421875,2.4349030883789062,-0.6368576416015624,-13.206106870229007,-3.3740458015267176,18.229007633587788,0.0
12.830000638961792,-10.019733947753906,0.5243301635742187,2.7533319091796873,-8.045801526717558,38.70229007633588,-2.6412213740458017,-8.889670764160156,2.4013842651367185,-0.316034619140625,-13.374045801526718,-2.9160305343511452,17.61832061068702,0.0
12.840000867843628,-9.90241806640625,0.49320554199218747,2.1930887207031247,-9.618320610687023,32.54961832061068,-3.3435114503816794,-8.990227233886719,2.5546131713867184,-0.05746083984375,-13.664122137404581,-2.122137404580153,17.770992366412212,0.0
12.850000619888306,-10.417171423339843,0.8499415893554687,1.93451494140625,-14.82442748091603,26.259541984732824,-3.450381679389313,-9.026140258789061,2.29843359375,-0.3758896606445312,-14.977099236641221,-2.1374045801526718,16.916030534351144,0.0
12.86000108718872,-11.1474029296875,1.9895815795898437,2.1930887207031247,-13.34351145038168,26.931297709923665,-3.984732824427481,-9.265560424804686,1.9225439331054686,-0.2657563842773437,-15.145038167938932,-1.465648854961832,16.3206106870229,0.0
12.87000060081482,-9.835380419921874,0.6177040283203125,1.149216796875,-13.648854961832061,21.801526717557252,-0.1984732824427481,-8.839392529296875,1.7166425903320313,-0.22505495605468748,-15.312977099236642,-2.122137404580153,14.183206106870228,0.0
12.880000591278076,-9.847351428222655,0.7613561279296874,0.9241618408203125,-8.870229007633588,23.251908396946565,0.6259541984732825,-9.241618408203124,1.5658078857421873,-0.07900865478515624,-13.236641221374045,-2.763358778625954,12.335877862595419,0.0
12.890000581741333,-9.797073193359374,0.7876923461914062,1.1420341918945311,-8.366412213740459,23.572519083969464,1.2061068702290076,-8.942343200683593,1.7310078002929687,0.05746083984375,-12.763358778625955,-3.9083969465648853,9.923664122137405,0.0
12.90000033378601,-10.050858569335936,0.679953271484375,1.3934253662109375,-10.076335877862595,23.72519083969466,1.4961832061068703,-9.275137231445312,1.455674609375,0.06943184814453125,-10.580152671755725,-4.3816793893129775,8.290076335877863,0.0
12.910000562667847,-9.792284790039062,0.2920926025390625,1.8363526733398436,-11.129770992366412,22.931297709923665,0.48854961832061067,-9.054870678710937,1.695094775390625,0.0,-10.82442748091603,-6.030534351145038,5.145038167938932,0.0
12.920000314712524,-9.648632690429688,-0.20829554443359374,1.9584569580078124,-10.290076335877863,21.84732824427481,-0.24427480916030533,-9.809044201660155,-0.3591302490234375,1.3144167114257812,-1.5725190839694656,-4.580152671755725,5.221374045801527,0.0
12.93000054359436,-8.978256225585938,-1.2808978881835937,1.5825672973632812,-3.969465648854962,21.862595419847327,-1.4045801526717556,-9.725247143554688,1.0702081420898437,0.8595183959960937,3.450381679389313,-12.183206106870228,-1.4351145038167938,0.0
12.940000534057617,-9.447519750976562,-0.6679822631835937,1.9297265380859374,10.931297709923664,29.801526717557252,-5.435114503816794,-10.328585961914062,2.195482922363281,-0.47644613037109373,4.519083969465649,-13.83206106870229,-3.5267175572519083,0.0
12.950000524520874,-9.521740002441407,0.25139117431640623,1.4963760375976562,14.992366412213741,30.290076335877863,-7.770992366412214,-8.75320126953125,2.5378537597656248,-0.37828386230468747,-0.4580152671755725,-17.52671755725191,-4.916030534351145,0.0
12.96000051498413,-9.023746057128905,0.8643067993164062,1.2378022583007813,15.694656488549619,29.480916030534353,-8.305343511450381,-8.66940421142578,1.4173673828125,0.16280571289062498,2.763358778625954,-17.633587786259543,-4.580152671755725,0.0
12.970000505447388,-9.402029919433593,1.695094775390625,1.3838485595703125,12.580152671755725,29.206106870229007,-8.290076335877863,-10.488997473144531,1.6041151123046875,0.63206923828125,11.236641221374045,-15.251908396946565,-5.572519083969466,0.0
12.980000495910645,-10.498574279785156,2.2385785522460937,1.4867992309570313,3.404580152671756,27.603053435114504,-6.900763358778626,-9.964667309570311,1.6639701538085936,-0.0430956298828125,20.916030534351144,-17.572519083969464,-8.13740458015267,0.0
12.99000072479248,-9.260772021484375,1.24498486328125,0.9002198242187499,-1.282442748091603,24.47328244274809,-4.061068702290076,-8.568847741699217,3.306392492675781,-1.3527239379882812,21.740458015267176,-21.72519083969466,-11.83206106870229,0.0
13.000000476837158,-8.774749084472656,0.7326257080078125,1.2497732666015624,-6.061068702290076,23.923664122137403,-1.816793893129771,-7.994239343261718,3.8666356811523435,-1.1731588134765625,13.435114503816793,-14.916030534351146,-9.893129770992367,0.0
13.010000944137573,-8.75320126953125,0.23223756103515625,1.3551181396484375,-6.076335877862595,23.709923664122137,-2.1068702290076335,-9.418789331054686,5.353434912109375,-1.6639701538085936,9.725190839694656,-10.549618320610687,-7.862595419847328,0.0
13.020000696182251,-9.162609753417968,0.2154781494140625,1.3192051147460937,-7.206106870229007,20.83969465648855,-2.198473282442748,-9.265560424804686,4.187458703613281,-0.02154781494140625,-0.9465648854961832,0.42748091603053434,-3.3893129770992365,0.0
13.030000686645508,-8.901641772460938,-0.4070142822265625,1.1947066284179686,-3.0229007633587788,20.65648854961832,-2.8244274809160306,-9.270348828125,3.4524387939453125,-0.3327940307617187,-0.8396946564885496,-0.3969465648854962,-1.4198473282442747,0.0
13.040000438690186,-9.18655177001953,-0.42377369384765623,1.189918225097656,-2.16793893129771,17.46564885496183,-4.290076335877862,-9.437942944335937,2.6671406494140624,0.229843359375,2.1068702290076335,1.1145038167938932,-0.9312977099236641,0.0
13.050000667572021,-9.624690673828125,0.20829554443359374,1.6735469604492186,0.0,17.6793893129771,-4.916030534351145,-9.473855969238281,2.1643583007812497,0.928950244140625,3.312977099236641,0.07633587786259542,-0.6412213740458015,0.0
13.0600004196167,-10.254365710449218,0.7493851196289062,2.1691467041015624,2.519083969465649,17.480916030534353,-6.305343511450381,-9.849745629882811,1.3910311645507811,1.5562310791015623,6.3816793893129775,-1.4045801526717556,0.07633587786259542,0.0
13.070000648498535,-9.9215716796875,0.2442085693359375,2.059013427734375,10.045801526717558,19.709923664122137,-6.106870229007634,-9.82580361328125,1.0223241088867188,1.1635820068359375,15.86259541984733,-12.305343511450381,-2.687022900763359,0.0
13.080000638961792,-9.746794958496093,0.5363011718749999,1.6424223388671875,11.801526717557252,18.458015267175572,-5.129770992366412,-10.587159741210938,0.6081272216796875,3.2321722412109373,23.221374045801525,-14.946564885496183,-3.877862595419847,0.0
13.090000629425049,-10.127473022460936,0.7781155395507812,1.4437036010742186,4.67175572519084,14.061068702290076,-3.2519083969465647,-10.817003100585938,0.4740519287109375,2.224213342285156,30.80916030534351,-27.419847328244273,-7.709923664122138,0.0
13.100000381469727,-9.991003527832031,1.3551181396484375,1.7669208251953124,8.442748091603054,17.72519083969466,-3.3587786259541983,-10.330980163574218,1.7980454467773437,1.5275006591796874,33.43511450381679,-34.85496183206107,-11.541984732824428,0.0
13.110000848770142,-10.01015714111328,1.7764976318359373,1.5466542724609373,-5.00763358778626,12.916030534351146,-2.122137404580153,-8.453926062011718,4.244919543457031,0.201112939453125,15.17557251908397,-37.786259541984734,-14.351145038167939,0.0
13.120000839233398,-9.440337145996093,1.1444283935546875,1.3958195678710936,-7.633587786259542,12.641221374045802,-0.24427480916030533,-10.172962854003906,2.5258827514648434,1.13006318359375,2.8244274809160306,-29.954198473282442,-10.122137404580153,0.0
13.130000591278076,-9.713276135253906,0.8403647827148437,1.5514426757812498,-9.83206106870229,11.679389312977099,-0.9007633587786259,-10.177751257324218,2.231395947265625,1.0702081420898437,2.885496183206107,-33.89312977099237,-13.358778625954198,0.0
13.140000820159912,-9.351751684570312,-0.09337386474609374,1.005564697265625,-5.1603053435114505,10.305343511450381,-0.4580152671755725,-9.689334118652344,2.1164742675781247,0.9576806640625,0.33587786259541985,-35.587786259541986,-16.38167938931298,0.0
13.15000057220459,-9.028534460449219,-0.469263525390625,0.9169792358398436,1.3282442748091603,12.106870229007633,-1.0381679389312977,-8.13310303955078,3.1100679565429687,0.565031591796875,-12.045801526717558,-34.74809160305343,-18.85496183206107,0.0
13.160000562667847,-9.797073193359374,0.8643067993164062,1.7645266235351562,8.274809160305344,17.52671755725191,-3.7099236641221376,-8.382100012207031,1.7884686401367187,0.699106884765625,-25.389312977099237,-27.84732824427481,-17.328244274809162,0.0
13.170000553131104,-9.725247143554688,0.7948749511718749,1.8938135131835936,8.51908396946565,15.129770992366412,-4.67175572519084,-9.253589416503905,0.814028564453125,0.8882488159179687,-20.061068702290076,-29.099236641221374,-17.374045801526716,0.0
13.18000054359436,-9.715670336914062,0.699106884765625,1.419761584472656,7.6183206106870225,10.580152671755725,-3.786259541984733,-10.01733974609375,0.699106884765625,1.8818425048828125,-8.412213740458014,-32.717557251908396,-19.358778625954198,0.0
13.190000534057617,-9.868899243164062,0.8307879760742187,1.180341418457031,2.6717557251908395,7.358778625954199,-1.6488549618320612,-9.430760339355468,1.70467158203125,1.5682020874023437,-6.183206106870229,-34.33587786259542,-21.358778625954198,0.0
13.200000524520874,-9.969455712890625,1.5059528442382812,1.608903515625,5.145038167938932,12.213740458015268,-2.122137404580153,-8.350975390624999,2.750937707519531,0.86191259765625,-14.610687022900763,-31.49618320610687,-21.114503816793892,0.0
13.210000991821289,-8.884882360839843,0.584185205078125,1.0534487304687499,1.0381679389312977,10.763358778625955,-1.5572519083969465,-8.621520178222656,2.8203695556640622,1.47482822265625,-18.931297709923665,-27.87786259541985,-19.541984732824428,0.0
13.220000505447388,-9.100360510253905,0.009576806640625,0.5219359619140624,-5.450381679389313,8.01526717557252,-1.7709923664122138,-10.457872851562499,1.4532804077148436,1.5682020874023437,-17.0381679389313,-26.045801526717558,-18.061068702290076,0.0
13.230000734329224,-8.997409838867187,-0.5770026000976562,0.26815058593749996,-0.12213740458015267,12.0,-2.6717557251908395,-10.395623608398436,0.5530605834960938,2.379836450195312,-7.435114503816794,-26.50381679389313,-18.549618320610687,0.0
13.240000247955322,-8.724470849609375,-0.622492431640625,0.26336218261718747,-1.251908396946565,12.305343511450381,-4.641221374045801,-8.930372192382812,1.2952630981445312,1.5083470458984374,1.9389312977099236,-34.56488549618321,-20.9618320610687,0.0
13.250000476837158,-8.406042028808594,-0.22505495605468748,0.5482721801757812,-1.1755725190839694,13.816793893129772,-6.305343511450381,-9.595960253906249,2.269703173828125,1.2904746948242187,0.3053435114503817,-35.43511450381679,-20.366412213740457,0.0
13.260000705718994,-9.564835632324218,0.6727706665039062,1.0199299072265624,-9.34351145038168,12.0,-7.572519083969466,-9.555258825683593,2.166752502441406,1.924938134765625,-5.190839694656488,-31.52671755725191,-17.923664122137403,0.0
13.270000696182251,-10.144232434082031,1.0366893188476562,1.7214309936523438,-8.473282442748092,14.900763358778626,-8.229007633587786,-9.440337145996093,2.1906945190429687,1.8052280517578123,-7.450381679389313,-31.770992366412212,-17.221374045801525,0.0
13.280000448226929,-10.735600244140624,1.024718310546875,2.224213342285156,-8.076335877862595,16.091603053435115,-9.129770992366412,-11.145008728027342,-0.23702596435546874,3.296815686035156,0.24427480916030533,-29.267175572519083,-14.748091603053435,0.0
13.290000915527344,-9.919177478027343,-0.028730419921875,1.956062756347656,-0.916030534351145,16.47328244274809,-8.80916030534351,-8.300697155761718,1.889025109863281,0.9504980590820312,11.450381679389313,-40.458015267175576,-19.541984732824428,0.0
13.3000009059906,-10.81460889892578,1.608903515625,2.408566870117187,-0.8396946564885496,17.572519083969464,-9.86259541984733,-8.712499841308594,2.085349645996094,1.465251416015625,5.251908396946565,-32.213740458015266,-16.671755725190838,0.0
13.310000658035278,-9.849745629882811,1.1827356201171875,2.212242333984375,-4.015267175572519,14.13740458015267,-7.801526717557252,-10.026916552734374,1.0486603271484374,2.1978771240234374,4.259541984732825,-28.793893129770993,-12.580152671755725,0.0
13.320000648498535,-9.41639512939453,0.181959326171875,1.5179238525390624,-4.687022900763359,10.290076335877863,-6.259541984732825,-10.819397302246093,-0.33758243408203126,3.134009973144531,14.580152671755725,-28.885496183206108,-11.938931297709924,0.0
13.330000400543213,-9.756371765136718,0.1484405029296875,1.5298948608398437,-5.526717557251908,6.580152671755725,-6.458015267175573,-9.928754284667969,0.35194764404296874,1.3000515014648437,27.984732824427482,-35.908396946564885,-16.259541984732824,0.0
13.340000867843628,-9.907206469726562,0.34237083740234375,2.0278888061523435,5.312977099236641,11.34351145038168,-8.091603053435115,-8.671798413085938,1.2473790649414063,1.5131354492187499,29.419847328244273,-32.83969465648855,-16.549618320610687,0.0
13.350000858306885,-9.497797985839844,0.814028564453125,2.269703173828125,5.740458015267175,10.15267175572519,-9.129770992366412,-7.50821640625,2.427720483398437,1.3479355346679687,24.580152671755727,-28.03053435114504,-14.992366412213741,0.0
13.360000848770142,-8.966285217285156,-0.44053310546874996,1.5370774658203123,3.648854961832061,2.717557251908397,-7.480916030534351,-8.930372192382812,0.8762778076171874,1.9201497314453124,19.51145038167939,-16.885496183206108,-10.870229007633588,0.0
13.37000060081482,-8.635885388183594,-0.7158662963867187,1.5538368774414062,14.580152671755725,4.213740458015267,-9.053435114503817,-8.643067993164061,0.6560112548828124,1.9512743530273435,25.34351145038168,-17.984732824427482,-12.320610687022901,0.0
13.380000829696655,-8.508992700195313,-0.852335791015625,1.5873557006835937,22.732824427480917,3.2977099236641223,-11.206106870229007,-9.727641345214844,0.13646949462890623,2.5067291381835934,34.732824427480914,-16.702290076335878,-12.122137404580153,0.0
13.390000581741333,-9.9981861328125,0.6296750366210937,2.061407629394531,25.14503816793893,1.450381679389313,-13.038167938931299,-9.3086560546875,-0.16519991455078123,2.3367408203125,42.0763358778626,-20.290076335877863,-13.206106870229007,0.0
13.40000057220459,-8.63109698486328,-1.4149731811523436,0.1867477294921875,35.17557251908397,-0.5343511450381679,-9.969465648854962,-8.48505068359375,0.2825157958984375,1.7429788085937499,44.595419847328245,-20.244274809160306,-13.877862595419847,0.0
13.410000562667847,-10.900800158691405,2.6384102294921874,3.0837317382812497,38.2442748091603,6.595419847328245,-14.641221374045802,-8.858546142578124,1.6543933471679686,2.1978771240234374,46.06106870229008,-15.450381679389313,-13.679389312977099,0.0
13.420000314712524,-11.276689819335937,3.2537200561523436,3.632003918457031,28.671755725190838,0.8091603053435115,-11.786259541984732,-7.572859851074218,2.5953145996093747,1.5945383056640625,35.05343511450382,-10.580152671755725,-11.84732824427481,0.0
13.43000054359436,-10.364498986816406,3.0119056884765625,3.593696691894531,26.30534351145038,-1.7251908396946565,-7.099236641221374,-7.71890615234375,2.3965958618164063,1.5634136840820312,31.61832061068702,-8.412213740458014,-10.549618320610687,0.0
13.440000534057617,-8.793902697753905,0.5458779785156249,1.9201497314453124,23.282442748091604,-10.580152671755725,-3.648854961832061,-8.240842114257813,1.5658078857421873,2.1404162841796874,29.786259541984734,-3.877862595419847,-11.526717557251908,0.0
13.450000524520874,-8.82981572265625,0.8403647827148437,1.9752163696289062,30.366412213740457,-7.877862595419847,-5.511450381679389,-8.497021691894531,1.0941501586914062,2.6312276245117188,29.129770992366414,-2.030534351145038,-12.335877862595419,0.0
13.460000276565552,-9.076418493652342,0.718260498046875,1.9488801513671874,26.38167938931298,-11.419847328244275,-7.4961832061068705,-8.422801440429687,1.5658078857421873,2.4851813232421875,26.30534351145038,-1.282442748091603,-13.86259541984733,0.0
13.470000505447388,-8.487444885253906,0.7422025146484375,1.7381904052734374,30.427480916030536,-10.65648854961832,-9.022900763358779,-10.0748005859375,-0.1292868896484375,3.4572271972656248,25.69465648854962,1.7251908396946565,-12.244274809160306,0.0
13.480000495910645,-8.180987072753906,0.6536170532226562,2.013523596191406,24.47328244274809,-14.67175572519084,-11.099236641221374,-7.771578588867187,1.5514426757812498,2.868253588867187,25.099236641221374,-4.687022900763359,-16.564885496183205,0.0
13.490000247955322,-8.805873706054687,1.1180921752929687,2.4349030883789062,20.15267175572519,-18.106870229007633,-10.946564885496183,-7.194575988769531,2.6336218261718747,6.715735656738281,11.786259541984732,-35.49618320610687,-31.64885496183206,0.0
13.500000476837158,-10.062829577636718,2.6048914062499997,3.6272155151367187,13.007633587786259,-22.916030534351144,-11.389312977099237,-7.762001782226562,6.928819604492187,5.9017070922851556,91.20610687022901,-13.007633587786259,-20.198473282442748,0.0
13.510000705718994,-8.882488159179687,0.8116343627929687,3.0837317382812497,18.366412213740457,-27.435114503816795,-7.206106870229007,-4.680664245605469,-1.9225439331054686,12.23915888671875,33.38931297709924,30.99236641221374,-9.068702290076336,0.0
13.520000696182251,-9.926360083007811,2.7820623291015623,4.589684582519531,22.595419847328245,-26.702290076335878,-8.106870229007633,-6.5218053222656245,0.4908113403320312,-7.110778930664062,-9.541984732824428,-5.404580152671755,-19.770992366412212,0.0
13.530000686645508,-9.79946739501953,2.7533319091796873,4.649539624023437,19.69465648854962,-33.61832061068702,-5.633587786259542,-7.113173132324218,2.2361843505859373,1.3072341064453123,-9.618320610687023,-1.1603053435114503,-16.595419847328245,0.0
13.540000677108765,-11.049240661621093,3.536235852050781,5.521029028320312,8.50381679389313,-44.732824427480914,-3.450381679389313,-7.8362220336914055,2.5234885498046875,-0.22266075439453123,-18.18320610687023,4.305343511450381,-16.244274809160306,0.0
13.550000667572021,-11.003750830078124,2.1883003173828124,5.7508723876953125,11.938931297709924,-52.83969465648855,2.198473282442748,-7.122749938964843,2.7557261108398436,-1.3838485595703125,-27.022900763358777,11.419847328244275,-15.84732824427481,0.0
13.560000658035278,-10.615890161132812,1.7190367919921874,6.160280871582031,19.053435114503817,-59.038167938931295,5.969465648854962,-7.6997525390625,2.427720483398437,-1.8722656982421875,-41.81679389312977,24.16793893129771,-20.977099236641223,0.0
13.570000648498535,-12.050016955566406,1.6639701538085936,6.864176159667968,22.610687022900763,-68.29007633587786,10.534351145038167,-11.987767712402343,0.9074024291992187,0.7565677246093749,-28.442748091603054,27.114503816793892,-7.267175572519084,0.0
13.580000638961792,-12.58392392578125,0.4429273071289062,7.1395093505859375,36.29007633587786,-78.35114503816794,16.03053435114504,-12.761094848632812,2.205059729003906,1.429338391113281,-15.755725190839694,20.427480916030536,-10.625954198473282,0.0
13.590000629425049,-13.570335009765625,0.7158662963867187,8.271966735839843,52.656488549618324,-85.96946564885496,22.793893129770993,-12.287042919921875,3.9264907226562498,1.8363526733398436,-15.557251908396946,15.664122137404581,-13.908396946564885,0.0
13.600000858306885,-17.041927416992188,4.010287780761718,9.962273107910155,52.458015267175576,-97.7557251908397,28.870229007633586,-15.339650036621093,1.0534487304687499,3.864241479492187,-18.015267175572518,10.427480916030534,-5.587786259541985,0.0
13.610000848770142,-17.094599853515625,4.182670300292968,9.296685046386719,37.465648854961835,-120.77862595419847,38.80916030534351,-12.457031237792968,1.7717092285156248,2.068590234375,-12.580152671755725,8.763358778625955,-6.519083969465649,0.0
13.620000839233398,-16.812084057617188,2.1499930908203124,8.475473876953124,23.0381679389313,-140.3053435114504,48.29007633587786,-10.8409451171875,3.2321722412109373,-2.9376854370117185,-4.717557251908397,23.64885496183206,0.4580152671755725,0.0
13.630000591278076,-15.610194824218748,-0.814028564453125,5.2433016357421875,7.923664122137405,-157.58778625954199,51.17557251908397,-11.075576879882812,0.9720458740234375,-0.20350714111328125,-17.114503816793892,18.33587786259542,1.3587786259541985,0.0
13.640000581741333,-15.040374829101562,-2.626439221191406,1.2497732666015624,-0.44274809160305345,-166.3053435114504,48.99236641221374,-8.525752111816406,1.2808978881835937,-1.2210428466796874,-14.16793893129771,8.458015267175572,-5.755725190839694,0.0
13.65000057220459,-13.117830895996093,-4.139574670410156,-1.7980454467773437,-5.984732824427481,-162.99236641221373,47.51145038167939,-7.864952453613281,1.0510545288085937,-2.8371289672851563,7.465648854961832,11.679389312977099,-1.8625954198473282,0.0
13.660000801086426,-11.133037719726563,-6.038176586914062,-3.3399113159179685,-4.778625954198473,-151.05343511450383,43.603053435114504,-7.721300354003906,1.3239935180664062,-3.801992236328125,4.442748091603053,13.816793893129772,0.12213740458015267,0.0
13.670000314712524,-8.846575134277343,-7.110778930664062,-1.9584569580078124,6.595419847328245,-137.57251908396947,38.091603053435115,-8.355763793945313,0.2920926025390625,-0.612915625,-4.977099236641221,23.16030534351145,15.664122137404581,0.0
13.68000078201294,-7.551312036132812,-8.049305981445311,-3.0142998901367184,28.366412213740457,-121.8473282442748,30.748091603053435,-10.232817895507813,-0.49799394531249996,-1.7788918334960937,-0.3511450381679389,27.419847328244273,1.0687022900763359,0.0
13.690000295639038,-5.899312890625,-7.228094812011718,-2.8754361938476563,39.969465648854964,-102.36641221374046,16.106870229007633,-11.156979736328124,-1.3168109130859373,0.35194764404296874,11.786259541984732,30.977099236641223,0.4732824427480916,0.0
13.700000524520874,-6.864176159667968,-4.8314989501953125,-1.6160861206054686,37.12977099236641,-88.80916030534351,1.1450381679389312,-9.698910925292969,-0.14604630126953125,-0.4213794921875,17.480916030534353,27.083969465648856,-0.33587786259541985,0.0
13.71000051498413,-7.381323718261719,-3.1172505615234374,-1.0510545288085937,41.12977099236641,-75.31297709923665,-5.679389312977099,-10.072406384277343,1.5179238525390624,-1.2689268798828124,17.17557251908397,26.35114503816794,1.9389312977099236,0.0
13.720000505447388,-8.054094384765625,-0.4070142822265625,-0.9624690673828125,39.63358778625954,-62.6412213740458,-8.534351145038167,-9.86411083984375,1.7908628417968748,-1.0845733520507812,4.183206106870229,33.29770992366412,6.687022900763359,0.0
13.730000734329224,-9.196128576660156,1.9584569580078124,-0.5267243652343749,24.30534351145038,-54.67175572519084,-9.86259541984733,-9.081206896972656,1.9823989746093749,-0.9983820922851562,-9.618320610687023,36.091603053435115,9.282442748091603,0.0
13.74000072479248,-10.565611926269531,4.431667272949219,0.6296750366210937,3.5419847328244276,-48.68702290076336,-8.16793893129771,-9.047688073730468,2.195482922363281,-1.1540052001953125,-23.282442748091604,39.80152671755725,11.770992366412214,0.0
13.750000953674316,-9.418789331054686,3.5434184570312497,0.38307226562499996,-25.419847328244273,-51.603053435114504,-5.267175572519084,-11.125855114746093,-0.8595183959960937,0.9074024291992187,-29.206106870229007,48.82442748091603,18.0,0.0
13.760000467300415,-7.843404638671874,1.0941501586914062,-1.0558429321289062,-42.412213740458014,-48.54961832061068,-1.9083969465648856,-11.197681164550781,-2.281674182128906,1.1827356201171875,-18.519083969465647,42.916030534351144,17.435114503816795,0.0
13.770000696182251,-9.102754711914063,0.5195417602539062,-0.2920926025390625,-48.458015267175576,-38.458015267175576,-2.0763358778625953,-11.690886706542969,-4.333505004882812,1.608903515625,-0.8549618320610687,36.56488549618321,15.267175572519085,0.0
13.780000686645508,-7.9846625366210935,0.8044517578125,-0.8307879760742187,-54.93129770992366,-31.51145038167939,-0.4122137404580153,-9.911994873046874,-1.93451494140625,1.9297265380859374,5.679389312977099,29.52671755725191,12.946564885496183,0.0
13.790000677108765,-6.7277066650390625,-0.08140285644531249,-0.8595183959960937,-64.35114503816794,-25.52671755725191,3.3435114503816794,-10.218452685546874,-0.8667010009765624,1.4963760375976562,14.885496183206106,19.374045801526716,9.526717557251908,0.0
13.800000667572021,-5.710170959472656,-1.6711527587890624,-2.185906115722656,-58.50381679389313,-12.961832061068701,6.106870229007634,-9.952696301269532,-0.4261678955078125,1.7549498168945312,11.236641221374045,19.770992366412212,7.893129770992366,0.0
13.810000658035278,-6.172251879882812,-1.2234370483398436,-1.1731588134765625,-54.030534351145036,4.67175572519084,4.122137404580153,-9.991003527832031,-0.11731588134765625,1.8363526733398436,12.610687022900763,18.213740458015266,7.221374045801527,0.0
13.820000648498535,-4.932055419921875,-1.4221557861328125,-0.9217676391601562,-56.51908396946565,8.213740458015268,4.0458015267175576,-10.070012182617187,-0.105344873046875,1.6735469604492186,14.51908396946565,15.374045801526718,7.221374045801527,0.0
13.830000400543213,-3.83072265625,-3.5027170288085934,-0.5363011718749999,-44.88549618320611,21.893129770992367,4.641221374045801,-9.751583361816406,-0.15562310791015624,1.2976572998046874,13.17557251908397,12.82442748091603,7.938931297709924,0.0
13.840000867843628,-8.269572534179687,1.429338391113281,3.3303345092773435,-50.97709923664122,32.47328244274809,-2.7022900763358777,-9.981426721191406,-0.37828386230468747,1.1611878051757811,13.725190839694656,12.122137404580153,9.007633587786259,0.0
13.850000619888306,-6.864176159667968,-0.15083470458984374,3.7134067749023436,-60.38167938931298,26.38167938931298,0.061068702290076333,-9.64623848876953,-0.05985504150390625,0.7493851196289062,12.992366412213741,10.106870229007633,9.450381679389313,0.0
13.860000848770142,-7.8553756469726554,0.46686932373046874,5.106832141113281,-66.04580152671755,25.587786259541986,1.8778625954198473,-9.495403784179686,0.22266075439453123,0.70868369140625,12.625954198473282,9.038167938931299,9.053435114503817,0.0
13.87000060081482,-7.8338278320312495,-0.6727706665039062,6.299144567871093,-63.587786259541986,27.31297709923664,4.0458015267175576,-9.660603698730467,-0.03591302490234375,0.6368576416015624,12.244274809160306,8.732824427480915,9.465648854961833,0.0
13.880000829696655,-8.461108666992187,-1.3479355346679687,6.782773303222656,-64.36641221374046,26.68702290076336,4.595419847328245,-9.715670336914062,0.22026655273437498,0.4860229370117187,12.641221374045802,7.969465648854962,8.961832061068701,0.0
13.890000581741333,-7.563283044433593,-3.4572271972656248,6.423643054199219,-48.94656488549618,29.770992366412212,6.748091603053435,-9.950302099609374,0.18914193115234373,0.47165772705078124,13.48091603053435,8.793893129770993,8.488549618320612,0.0
13.90000057220459,-7.963114721679687,-2.9544448486328125,5.7077767578125,-34.213740458015266,32.97709923664122,5.099236641221374,-10.038887561035155,0.4429273071289062,0.3806780639648437,13.19083969465649,9.526717557251908,8.870229007633588,0.0
13.910000562667847,-7.491456994628906,-2.4109610717773435,6.404489440917969,-29.480916030534353,32.030534351145036,2.900763358778626,-9.945513696289062,0.5602431884765625,0.3854664672851562,12.305343511450381,9.34351145038168,10.564885496183207,0.0
13.920000553131104,-5.849034655761718,-4.290409374999999,5.4013189453125,-7.435114503816794,32.534351145038165,4.290076335877862,-9.425971936035156,0.7493851196289062,0.26815058593749996,10.244274809160306,10.244274809160306,12.610687022900763,0.0
13.93000054359436,-5.49708701171875,-4.024652990722656,5.487510205078125,17.984732824427482,38.0763358778626,3.5572519083969465,-9.813832604980469,0.37828386230468747,0.38786066894531246,10.625954198473282,11.86259541984733,14.351145038167939,0.0
13.940000772476196,-6.335057592773437,-3.0406361083984375,5.758054992675781,41.66412213740458,46.93129770992366,0.4122137404580153,-9.41639512939453,0.5985504150390625,0.4381389038085937,10.854961832061068,12.900763358778626,14.67175572519084,0.0
13.950000762939453,-7.369352709960937,-0.5793968017578125,6.234501123046875,61.06870229007634,51.55725190839695,0.183206106870229,-9.366116894531249,0.3136404174804687,0.7661445312499999,7.877862595419847,15.48091603053435,15.664122137404581,0.0
13.96000051498413,-7.163451367187499,0.97683427734375,5.932831713867187,67.86259541984732,52.656488549618324,2.4427480916030535,-9.208099584960937,-0.5506663818359374,0.7422025146484375,7.770992366412214,15.34351145038168,16.076335877862597,0.0
13.970000505447388,-7.311891870117187,1.7094599853515624,5.839457849121094,70.94656488549619,53.57251908396947,5.801526717557252,-8.104372619628906,1.22583125,-0.22505495605468748,3.0839694656488548,14.977099236641221,14.13740458015267,0.0
13.980000495910645,-8.389282617187499,2.6958710693359373,6.603208178710937,62.10687022900763,50.717557251908396,8.396946564885496,-9.598354455566406,0.47884033203125,0.031124621582031248,1.4045801526717556,20.580152671755727,16.50381679389313,0.0
13.99000072479248,-8.971073620605468,4.005499377441406,7.723694555664062,50.94656488549618,46.48854961832061,10.458015267175572,-6.72291826171875,4.467580297851562,-3.995922570800781,-13.34351145038168,14.564885496183207,11.770992366412214,0.0
14.000000476837158,-9.87608184814453,4.623203405761719,7.905653881835937,29.87786259541985,37.81679389312977,14.442748091603054,-10.299855541992187,0.6057330200195312,0.7278373046875,-26.35114503816794,36.93129770992366,24.076335877862597,0.0
14.010001182556152,-8.59278975830078,1.9393033447265624,5.609614489746093,20.366412213740457,31.786259541984734,18.580152671755727,-11.056423266601563,-1.4173673828125,1.438915197753906,-8.335877862595419,32.87022900763359,24.076335877862597,0.0
14.020000696182251,-9.976638317871092,1.0223241088867188,4.259284753417968,16.16793893129771,33.81679389312977,20.137404580152673,-9.68454571533203,0.16041151123046873,-0.32082302246093747,-5.343511450381679,23.938931297709924,19.557251908396946,0.0
14.030000686645508,-11.901576452636718,-0.7805097412109374,4.932055419921875,5.0534351145038165,36.900763358778626,20.82442748091603,-10.225635290527343,0.7661445312499999,-1.0031704956054688,-13.083969465648854,26.732824427480917,21.6793893129771,0.0
14.040000915527344,-13.620613244628906,-2.0877438476562498,7.644685900878906,2.9923664122137406,35.465648854961835,16.27480916030534,-11.286266625976562,-0.16998831787109375,-0.6081272216796875,-18.793893129770993,29.083969465648856,23.893129770992367,0.0
14.050000667572021,-14.547169287109375,-1.695094775390625,8.95670841064453,4.33587786259542,26.015267175572518,10.030534351145038,-12.306196533203124,-0.9337386474609375,-0.277727392578125,-13.038167938931299,25.14503816793893,23.068702290076335,0.0
14.060000658035278,-13.61103643798828,1.4030021728515625,6.751648681640624,2.687022900763359,16.717557251908396,7.877862595419847,-13.36203946533203,-0.9888052856445312,0.6105214233398437,-3.6793893129770994,21.267175572519083,19.81679389312977,0.0
14.070000648498535,-12.210428466796873,3.7325603881835936,4.120421057128906,-18.458015267175572,7.221374045801527,8.0,-11.889605444335936,0.9624690673828125,0.852335791015625,-6.076335877862595,16.396946564885496,15.877862595419847,0.0
14.080000638961792,-6.8210805297851556,-1.2665326782226562,0.20350714111328125,-12.778625954198473,8.870229007633588,13.603053435114504,-10.450690246582031,2.1212626708984375,-0.22505495605468748,-14.67175572519084,14.992366412213741,13.572519083969466,0.0
14.090000629425049,-7.486668591308593,-0.46208092041015625,0.37828386230468747,-7.541984732824427,17.786259541984734,7.1603053435114505,-11.437101330566406,2.35589443359375,-0.277727392578125,-10.0,9.801526717557252,12.198473282442748,0.0
14.100000381469727,-7.275978845214843,0.2059013427734375,-0.21787235107421873,-7.297709923664122,22.458015267175572,3.1908396946564888,-10.43871923828125,4.6255976074218745,-0.9840168823242187,-21.328244274809162,6.99236641221374,8.961832061068701,0.0
14.110000610351562,-8.192958081054687,1.9871873779296874,-0.3232172241210937,-17.87786259541985,25.114503816793892,1.450381679389313,-10.8409451171875,4.422090466308593,-1.0510545288085937,-34.58015267175573,12.854961832061068,10.564885496183207,0.0
14.120001077651978,-9.583989245605467,3.366247534179687,-0.02633621826171875,-30.045801526717558,29.022900763358777,1.6641221374045803,-11.250353601074218,3.81156904296875,-1.369483349609375,-43.267175572519086,14.13740458015267,10.961832061068701,0.0
14.130000591278076,-9.53131680908203,1.7214309936523438,-0.6584054565429687,-36.13740458015267,31.389312977099237,7.3893129770992365,-11.180921752929686,1.8531120849609375,1.180341418457031,-42.13740458015267,18.595419847328245,15.450381679389313,0.0
14.140000581741333,-7.826645227050781,-1.9201497314453124,-1.0079588989257813,-18.48854961832061,43.541984732824424,9.801526717557252,-11.575965026855467,1.5610194824218748,0.584185205078125,-32.06106870229008,8.687022900763358,14.274809160305344,0.0
14.15000033378601,-9.145850341796875,-1.9584569580078124,0.17238251953125,-2.717557251908397,55.41984732824427,4.641221374045801,-12.095506787109374,0.5626373901367188,1.1372457885742187,-17.6793893129771,3.969465648854962,14.427480916030534,0.0
14.160000562667847,-9.753977563476562,-0.7805097412109374,1.7334020019531249,4.213740458015267,59.43511450381679,0.183206106870229,-10.50815108642578,1.9943699829101562,0.5386953735351562,-16.061068702290076,-3.0076335877862594,11.98473282442748,0.0
14.170000553131104,-10.812214697265624,0.9337386474609375,2.8467057739257813,0.2900763358778626,59.786259541984734,-2.5343511450381677,-9.911994873046874,2.4253262817382812,0.2442085693359375,-15.099236641221374,-5.022900763358779,12.977099236641221,0.0
14.180000305175781,-10.766724865722656,1.6041151123046875,3.095702746582031,-12.625954198473282,52.67175572519084,-3.435114503816794,-9.272743029785156,2.8275521606445313,0.00239420166015625,-14.061068702290076,-6.259541984732825,12.366412213740459,0.0
14.190000295639038,-10.120290417480469,0.6584054565429687,2.70065947265625,-18.9618320610687,48.12213740458015,-3.5114503816793894,-8.916006982421875,3.038241906738281,-0.19871873779296872,-12.977099236641221,-5.129770992366412,13.129770992366412,0.0
14.200000286102295,-10.66856259765625,0.48123453369140623,2.8706477905273435,-22.33587786259542,44.10687022900763,-4.793893129770993,-8.78432589111328,2.952050646972656,-0.2059013427734375,-11.206106870229007,-4.030534351145038,14.030534351145038,0.0
14.210000276565552,-9.830592016601562,0.45010991210937495,2.39420166015625,-22.900763358778626,38.01526717557252,-4.763358778625954,-8.374917407226562,2.7916391357421872,-0.40222587890625,-9.679389312977099,-2.6412213740458017,14.961832061068701,0.0
14.220000505447388,-9.545682019042967,-0.1771709228515625,2.061407629394531,-19.557251908396946,35.63358778625954,-4.67175572519084,-8.367734802246094,2.6216508178710938,-0.4477157104492187,-7.251908396946565,-1.3129770992366412,16.091603053435115,0.0
14.230000734329224,-8.865728747558594,-0.718260498046875,1.3383587280273437,-15.297709923664122,31.49618320610687,-3.648854961832061,-8.310273962402343,2.4516625,-0.5817910034179687,-5.4961832061068705,-0.42748091603053434,16.625954198473284,0.0
14.24000072479248,-10.151415039062499,0.7972691528320313,1.6831237670898436,-14.595419847328245,30.229007633587788,-4.305343511450381,-8.564059338378906,1.8698714965820311,-0.5698199951171875,-1.4045801526717556,0.6259541984732825,17.6793893129771,0.0
14.250000715255737,-9.801861596679688,0.4740519287109375,1.9871873779296874,-4.412213740458015,33.48091603053435,-2.381679389312977,-8.573636145019531,1.5179238525390624,-0.7278373046875,2.8091603053435112,1.8473282442748091,17.908396946564885,0.0
14.260000705718994,-8.844180932617187,-0.4572925170898437,1.458068811035156,0.6259541984732825,31.129770992366414,0.3511450381679389,-8.798691101074219,1.3934253662109375,-0.6943184814453125,8.473282442748092,2.4732824427480917,17.0381679389313,0.0
14.270000696182251,-8.573636145019531,-0.7110778930664062,1.3120225097656248,6.5038167938931295,30.778625954198475,1.5114503816793894,-9.083601098632812,1.458068811035156,-1.0654197387695312,13.358778625954198,2.6259541984732824,15.32824427480916,0.0
14.280000686645508,-8.01818135986328,-0.8475473876953125,1.8291700683593748,14.427480916030534,33.343511450381676,-0.16793893129770993,-9.287108239746093,1.438915197753906,-0.93852705078125,18.015267175572518,2.5801526717557253,14.122137404580153,0.0
14.290000677108765,-9.514557397460937,-0.0718260498046875,2.942473840332031,16.625954198473284,35.23664122137404,-3.282442748091603,-9.490615380859374,1.9225439331054686,-0.8020575561523438,22.198473282442748,2.045801526717557,12.122137404580153,0.0
14.300000667572021,-9.203311181640624,-0.12210428466796874,2.243366955566406,17.984732824427482,30.83969465648855,-5.114503816793893,-9.873687646484374,2.379836450195312,-1.0414777221679687,24.229007633587788,1.7251908396946565,11.206106870229007,0.0
14.310000658035278,-9.267954626464844,0.38786066894531246,2.839523168945312,19.862595419847327,30.3206106870229,-7.282442748091603,-9.588777648925781,2.7724855224609373,-0.9504980590820312,23.755725190839694,1.3435114503816794,10.229007633587786,0.0
14.320000886917114,-10.62307276611328,1.0869675537109373,2.8131869506835936,21.099236641221374,30.85496183206107,-8.580152671755725,-10.134655627441406,2.729389892578125,-0.6512228515624999,23.282442748091604,1.633587786259542,10.122137404580153,0.0
14.330000638961792,-9.72285294189453,1.3838485595703125,1.5466542724609373,18.427480916030536,24.610687022900763,-6.854961832061068,-9.466673364257812,3.421314172363281,-0.5410895751953124,17.954198473282442,0.2900763358778626,8.534351145038167,0.0
14.340000867843628,-10.405200415039062,2.2385785522460937,1.6065093139648436,13.206106870229007,22.900763358778626,-5.343511450381679,-9.600748657226562,3.1292215698242187,-0.2537853759765625,13.450381679389313,-0.2748091603053435,9.206106870229007,0.0
14.350000381469727,-10.905588562011719,3.4069489624023435,1.9105729248046874,8.549618320610687,23.129770992366414,-4.3816793893129775,-9.289502441406249,3.227383837890625,-0.09576806640624999,6.534351145038168,-1.5877862595419847,8.488549618320612,0.0
14.360000848770142,-10.01733974609375,2.29843359375,1.5466542724609373,-2.763358778625954,17.358778625954198,-0.07633587786259542,-9.49300958251953,2.6001030029296874,0.3495534423828125,2.8091603053435112,-2.122137404580153,8.687022900763358,0.0
14.37000036239624,-9.421183532714844,1.3024457031249999,1.189918225097656,-3.786259541984733,17.557251908396946,2.0,-9.085995300292968,2.7150246826171873,0.01915361328125,-2.4885496183206106,-5.129770992366412,6.824427480916031,0.0
14.380000829696655,-8.597578161621094,-0.3950432739257812,0.5315127685546874,-1.1297709923664123,19.31297709923664,2.1526717557251906,-9.74200655517578,0.7733271362304687,1.2210428466796874,-1.7404580152671756,-3.618320610687023,7.3893129770992365,0.0
14.390000343322754,-9.883264453125,0.8068459594726562,1.3263877197265623,1.3129770992366412,23.69465648854962,-2.7022900763358777,-9.672574707031249,0.6631938598632812,0.8762778076171874,6.961832061068702,-15.312977099236642,2.045801526717557,0.0
14.40000057220459,-10.144232434082031,1.2401964599609374,1.467645617675781,1.8473282442748091,25.69465648854962,-4.625954198473282,-9.440337145996093,2.612074011230469,0.7876923461914062,0.21374045801526717,-15.022900763358779,-1.450381679389313,0.0
14.410000562667847,-9.97184991455078,1.1611878051757811,1.8531120849609375,-2.9923664122137406,26.061068702290076,-5.145038167938932,-8.602366564941406,2.221819140625,-0.6919242797851562,-4.122137404580153,-19.557251908396946,-2.8091603053435112,0.0
14.420000314712524,-10.86009873046875,1.5610194824218748,2.090138049316406,-5.862595419847328,25.786259541984734,-6.916030534351145,-10.244788903808594,1.5418658691406248,1.2952630981445312,0.732824427480916,-16.396946564885496,-2.2290076335877864,0.0
14.43000078201294,-10.726023437499999,1.2401964599609374,1.4341267944335936,-8.51908396946565,22.290076335877863,-6.717557251908397,-9.497797985839844,1.2976572998046874,0.1867477294921875,6.732824427480916,-23.984732824427482,-6.0,0.0
14.440000534057617,-11.10191309814453,2.6001030029296874,1.7453730102539062,-13.404580152671755,21.557251908396946,-6.854961832061068,-9.306261853027344,2.499546533203125,-0.23702596435546874,3.6030534351145036,-26.015267175572518,-8.595419847328245,0.0
14.450000524520874,-9.773131176757811,1.3766659545898436,1.2713210815429687,-14.381679389312977,21.282442748091604,-3.801526717557252,-8.48505068359375,4.197035510253906,-1.1156979736328125,-4.366412213740458,-22.30534351145038,-8.854961832061068,0.0
14.460000276565552,-10.105925207519531,1.3359645263671873,0.9744400756835937,-23.114503816793892,16.290076335877863,-2.6106870229007635,-7.766790185546874,4.716577270507813,-1.7956512451171873,-13.954198473282442,-17.083969465648856,-7.1603053435114505,0.0
14.470000505447388,-9.72285294189453,0.5865794067382812,1.218648645019531,-14.229007633587786,21.068702290076335,-2.183206106870229,-9.210493786621093,3.778050219726562,-1.8315642700195311,-13.633587786259541,-12.244274809160306,-3.1755725190839694,0.0
14.480000495910645,-9.411606726074218,-0.34237083740234375,0.9816226806640624,-7.66412213740458,21.480916030534353,-2.885496183206107,-10.235212097167969,2.1068974609374997,0.16280571289062498,-9.206106870229007,-4.320610687022901,-2.015267175572519,0.0
14.49000072479248,-10.448296044921875,0.2059013427734375,1.2569558715820313,-2.9618320610687023,23.374045801526716,-5.068702290076335,-8.935160595703124,3.6296097167968746,-0.5363011718749999,-7.465648854961832,-11.251908396946565,-6.6106870229007635,0.0
14.500000238418579,-10.022128149414062,0.16280571289062498,0.6679822631835937,-0.3511450381679389,20.793893129770993,-5.114503816793893,-10.216058483886718,2.224213342285156,0.718260498046875,-6.33587786259542,-5.404580152671755,-3.114503816793893,0.0
14.510000944137573,-9.821015209960937,0.2059013427734375,0.9169792358398436,-0.16793893129770993,18.076335877862597,-6.33587786259542,-10.101136804199218,1.2234370483398436,1.2282254516601563,-0.5801526717557252,-7.633587786259542,-3.480916030534351,0.0
14.520000696182251,-10.694898815917968,0.6607996582031249,1.0223241088867188,-0.732824427480916,14.992366412213741,-7.32824427480916,-10.175357055664062,0.49320554199218747,1.429338391113281,10.702290076335878,-15.770992366412214,-6.625954198473282,0.0
14.530000686645508,-10.256759912109374,0.430956298828125,1.3072341064453123,7.66412213740458,17.572519083969464,-7.8320610687022905,-10.496180078124999,0.4070142822265625,1.5897499023437498,20.076335877862597,-19.16030534351145,-9.251908396946565,0.0
14.540000677108765,-10.204087475585936,0.6057330200195312,1.350329736328125,4.396946564885496,13.038167938931299,-6.854961832061068,-9.804255798339844,1.4221557861328125,1.0606313354492187,26.641221374045802,-28.916030534351144,-12.931297709923664,0.0
14.550000667572021,-8.578424548339843,-0.7805097412109374,0.3184288208007812,15.282442748091603,14.045801526717558,-5.00763358778626,-9.030928662109375,3.438073583984375,0.3854664672851562,20.061068702290076,-30.33587786259542,-15.038167938931299,0.0
14.560000658035278,-9.543287817382812,0.93852705078125,0.9217676391601562,15.374045801526718,16.564885496183205,-7.603053435114504,-9.241618408203124,3.775656018066406,1.1947066284179686,6.198473282442748,-21.206106870229007,-13.49618320610687,0.0
14.570000410079956,-10.077194787597655,1.139639990234375,1.199495031738281,17.862595419847327,18.0,-8.549618320610687,-8.623914379882812,3.294421484375,-0.1388636962890625,-2.3206106870229006,-24.076335877862597,-14.091603053435115,0.0
14.580000638961792,-9.495403784179686,0.7613561279296874,0.42377369384765623,18.702290076335878,14.290076335877863,-7.633587786259542,-10.752359655761719,1.24498486328125,1.8124106567382812,3.572519083969466,-20.48854961832061,-13.419847328244275,0.0
14.59000039100647,-9.409212524414063,0.7637503295898437,0.19632453613281248,15.664122137404581,11.374045801526718,-6.702290076335878,-10.117896215820313,0.8475473876953125,1.9129671264648436,8.610687022900763,-24.977099236641223,-17.31297709923664,0.0
14.600000858306885,-10.01015714111328,1.4987702392578124,0.8212111694335937,12.83969465648855,12.16793893129771,-6.351145038167939,-9.945513696289062,0.7589619262695312,1.6615759521484375,7.709923664122138,-29.49618320610687,-20.931297709923665,0.0
14.610000610351562,-10.544064111328124,2.492363928222656,1.3479355346679687,11.893129770992367,15.34351145038168,-7.038167938931298,-9.890447058105469,1.695094775390625,1.4772224243164063,5.3893129770992365,-31.0381679389313,-22.213740458015266,0.0
14.62000060081482,-10.022128149414062,1.7238251953125,0.7661445312499999,-3.282442748091603,7.648854961832061,-5.236641221374046,-9.172186560058593,2.703053674316406,0.5099649536132812,-1.4198473282442747,-31.801526717557252,-24.30534351145038,0.0
14.630000591278076,-9.557653027343749,0.9935936889648437,0.6679822631835937,-1.6793893129770991,9.404580152671755,-4.091603053435114,-11.259930407714844,0.6296750366210937,2.023100402832031,0.16793893129770993,-27.96946564885496,-22.061068702290076,0.0
14.640000820159912,-10.072406384277343,0.6847416748046875,0.679953271484375,-3.8473282442748094,8.931297709923664,-5.801526717557252,-8.963891015625,1.0462661254882812,1.0438719238281249,8.717557251908397,-38.412213740458014,-27.389312977099237,0.0
14.65000057220459,-9.785102185058593,0.25139117431640623,0.45489831542968745,-2.595419847328244,8.106870229007633,-5.633587786259542,-11.252747802734374,1.0630255371093749,0.8307879760742187,18.931297709923665,-42.732824427480914,-27.96946564885496,0.0
14.660000562667847,-9.239224206542968,-0.19632453613281248,0.24899697265624998,1.083969465648855,10.396946564885496,-6.595419847328245,-8.836998327636719,1.7836802368164062,1.5873557006835937,4.534351145038168,-35.969465648854964,-28.83969465648855,0.0
14.670000553131104,-8.068459594726562,-1.889025109863281,-0.17477672119140625,7.480916030534351,13.404580152671755,-7.526717557251908,-10.043675964355469,0.8307879760742187,0.9145850341796874,6.1679389312977095,-40.97709923664122,-28.717557251908396,0.0
14.68000054359436,-8.137891442871092,-1.0438719238281249,0.01915361328125,17.938931297709924,18.977099236641223,-11.954198473282442,-9.562441430664062,1.7238251953125,1.2808978881835937,8.549618320610687,-41.603053435114504,-30.625954198473284,0.0
14.690000534057617,-9.165003955078124,0.29927520751953124,0.5219359619140624,19.17557251908397,23.572519083969464,-14.961832061068701,-8.111555224609374,3.418919970703125,0.43574470214843747,-1.9389312977099236,-37.38931297709924,-31.64885496183206,0.0
14.700000524520874,-10.065223779296874,0.8978256225585937,1.0678139404296874,10.595419847328245,22.80916030534351,-16.091603053435115,-9.926360083007811,1.4125789794921875,0.6560112548828124,-5.847328244274809,-32.19847328244275,-28.396946564885496,0.0
14.71000051498413,-10.283096130371094,1.0031704956054688,1.5083470458984374,7.4961832061068705,22.366412213740457,-15.221374045801527,-10.053252770996092,0.7805097412109374,1.2330138549804688,0.7480916030534351,-34.16793893129771,-29.251908396946565,0.0
14.720000505447388,-8.834604125976561,0.3280056274414062,0.7637503295898437,5.694656488549619,16.366412213740457,-12.198473282442748,-9.536105212402344,0.9720458740234375,1.3862427612304686,8.51908396946565,-33.954198473282446,-30.50381679389313,0.0
14.730000734329224,-10.47702646484375,1.35990654296875,2.001552587890625,4.549618320610687,20.396946564885496,-13.648854961832061,-8.36294639892578,3.0334535034179684,0.3232172241210937,3.8473282442748094,-33.48091603053435,-31.893129770992367,0.0
14.740000486373901,-11.022904443359375,1.7932570434570312,2.1811177124023438,0.2748091603053435,18.610687022900763,-13.206106870229007,-9.289502441406249,2.042254016113281,1.7980454467773437,-4.977099236641221,-21.0381679389313,-26.80916030534351,0.0
14.750000715255737,-10.723629235839843,1.5203180541992187,2.109291662597656,-1.4961832061068703,16.12213740458015,-12.488549618320612,-9.634267480468749,0.5482721801757812,1.5729904907226562,1.9389312977099236,-25.19083969465649,-25.572519083969464,0.0
14.760000705718994,-9.4618849609375,-0.718260498046875,0.93852705078125,0.22900763358778625,9.83206106870229,-9.816793893129772,-9.662997900390625,-0.44053310546874996,1.8746598999023436,17.64885496183206,-26.519083969465647,-24.885496183206108,0.0
14.770000696182251,-9.847351428222655,-0.0383072265625,1.254561669921875,4.198473282442748,10.65648854961832,-11.786259541984732,-8.853757739257812,0.45968671875,1.7693150268554687,28.83969465648855,-28.48854961832061,-25.267175572519083,0.0
14.780000448226929,-10.627861169433594,1.6543933471679686,2.3918074584960936,5.3893129770992365,12.748091603053435,-14.030534351145038,-7.953537915039062,1.5418658691406248,0.7134720947265625,22.610687022900763,-23.46564885496183,-23.61832061068702,0.0
