timestamp,Thigh_L_Acc_X,Thigh_L_Acc_Y,Thigh_L_Acc_Z,Thigh_L_Gyr_X,Thigh_L_Gyr_Y,Thigh_L_Gyr_Z,Thigh_R_Acc_X,Thigh_R_Acc_Y,Thigh_R_Acc_Z,Thigh_R_Gyr_X,Thigh_R_Gyr_Y,Thigh_R_Gyr_Z,gpio_output
10.000000476837158,-11.066000073242186,1.1468225952148436,2.7916391357421872,-4.519083969465649,55.847328244274806,7.175572519083969,-10.012551342773437,0.37828386230468747,0.7781155395507812,-27.557251908396946,-3.5572519083969465,11.450381679389313,0.0
10.010000705718994,-11.489773767089844,1.426944189453125,2.999934680175781,-8.351145038167939,52.67175572519084,8.992366412213741,-10.002974536132811,0.3447650390625,1.0869675537109373,-24.091603053435115,-5.801526717557252,11.465648854961833,1.0
10.020000457763672,-11.621454858398437,1.9321207397460936,3.1675287963867187,-13.938931297709924,51.37404580152672,10.51908396946565,-10.371681591796875,0.603338818359375,0.3711012573242187,-24.900763358778626,-8.564885496183207,10.992366412213741,1.0
10.030000686645508,-11.204863769531249,1.5179238525390624,2.920926025390625,-23.954198473282442,44.35114503816794,12.595419847328245,-10.218452685546874,0.7493851196289062,0.7685387329101562,-22.50381679389313,-10.198473282442748,10.030534351145038,1.0
10.040000677108765,-10.314220751953124,0.46686932373046874,2.9927520751953125,-27.328244274809162,40.87022900763359,13.099236641221374,-10.287884533691406,0.9050082275390624,0.22505495605468748,-23.404580152671755,-10.992366412213741,7.541984732824427,1.0
10.0500009059906,-9.730035546875,0.023942016601562498,3.361459130859375,-31.709923664122137,35.83206106870229,10.442748091603054,-10.632649572753905,1.2689268798828124,0.3184288208007812,-20.946564885496183,-11.34351145038168,4.442748091603053,1.0
10.060000658035278,-10.204087475585936,-0.2442085693359375,3.0693665283203124,-33.93893129770992,31.328244274809162,7.312977099236641,-10.383652600097655,1.8555062866210936,-0.8547299926757812,-23.862595419847327,-11.419847328244275,-0.6412213740458015,1.0
10.070001125335693,-9.672574707031249,-0.44532150878906246,2.5330653564453125,-33.404580152671755,27.297709923664122,4.2748091603053435,-10.721235034179687,2.142810485839844,-0.201112939453125,-23.770992366412212,-10.992366412213741,-4.351145038167939,1.0
10.080035209655762,-9.725247143554688,-0.40940848388671874,2.4660277099609376,-24.412213740458014,31.251908396946565,-0.8244274809160306,-10.613495959472656,2.6192566162109374,-0.5913678100585937,-26.50381679389313,-9.938931297709924,-8.961832061068701,1.0
10.090000867843628,-9.847351428222655,-0.06703764648437499,2.142810485839844,-21.633587786259543,29.46564885496183,-4.5038167938931295,-10.654197387695312,3.0621839233398433,0.6560112548828124,-25.938931297709924,-8.549618320610687,-11.312977099236642,1.0
10.100000619888306,-8.875305554199219,-0.2059013427734375,1.4604630126953124,-13.16030534351145,30.290076335877863,-6.33587786259542,-10.481814868164061,3.5482068603515624,0.9744400756835937,-29.557251908396946,-9.541984732824428,-11.877862595419847,1.0
10.110117435455322,-10.232817895507813,0.5147533569335937,2.6479870361328124,-11.84732824427481,31.938931297709924,-8.870229007633588,-10.924742175292968,3.4859576171874997,1.4317325927734375,-31.297709923664122,-9.969465648854962,-11.267175572519085,1.0
10.12000036239624,-8.643067993164061,0.3687070556640625,1.5586252807617187,-6.549618320610687,29.17557251908397,-7.099236641221374,-10.656591589355468,2.9496564453125,1.3766659545898436,-31.84732824427481,-12.625954198473282,-9.587786259541986,1.0
10.130000829696655,-9.141061938476563,0.7206546997070312,1.3024457031249999,0.6412213740458015,32.152671755725194,-7.099236641221374,-11.7603185546875,1.0726023437499999,2.6671406494140624,-27.0381679389313,-14.717557251908397,-6.931297709923665,1.0
10.140098333358765,-10.134655627441406,1.2904746948242187,2.2960393920898436,2.7022900763358777,34.48854961832061,-7.877862595419847,-11.111489904785156,1.2042834350585936,2.913743420410156,-17.954198473282442,-26.076335877862597,-8.335877862595419,1.0
10.15000057220459,-10.752359655761719,2.4349030883789062,2.4301146850585935,-4.534351145038168,31.81679389312977,-6.030534351145038,-10.91037696533203,2.2936451904296873,2.8562825805664063,-17.17557251908397,-32.13740458015267,-6.900763358778626,1.0
10.160000562667847,-9.17458076171875,2.310404602050781,1.9752163696289062,-10.80916030534351,26.778625954198475,-1.6946564885496183,-9.8449572265625,2.291250988769531,0.507570751953125,-18.18320610687023,-41.81679389312977,-7.114503816793893,1.0
10.170000553131104,-11.518504187011718,3.2561142578125,3.1483751831054687,-18.99236641221374,27.206106870229007,-0.732824427480916,-10.237606298828124,0.8667010009765624,1.7621324218749999,-14.732824427480915,-39.847328244274806,-6.015267175572519,1.0
10.180203199386597,-11.066000073242186,2.482787121582031,2.7940333374023436,-22.931297709923665,23.709923664122137,0.7175572519083969,-10.326191760253906,-0.5746083984375,2.6719290527343746,-8.076335877862595,-46.961832061068705,-6.3816793893129775,1.0
10.190000534057617,-9.708487731933593,-0.30885201416015623,1.5610194824218748,-25.541984732824428,15.450381679389313,3.633587786259542,-11.207257971191405,-0.9026140258789062,3.7397429931640622,15.068702290076336,-60.396946564885496,-10.687022900763358,1.0
10.200000524520874,-10.579977136230468,1.0342951171875,2.291250988769531,-15.17557251908397,21.17557251908397,1.618320610687023,-9.141061938476563,1.7238251953125,0.737414111328125,13.022900763358779,-66.27480916030534,-16.045801526717558,1.0
10.21000075340271,-9.49300958251953,0.2537853759765625,1.905784521484375,-21.068702290076335,14.854961832061068,2.2290076335877864,-9.521740002441407,1.0390835205078124,1.0199299072265624,7.00763358778626,-63.05343511450382,-14.030534351145038,0.0
10.220000743865967,-9.797073193359374,0.40462008056640625,1.886630908203125,-18.9618320610687,14.427480916030534,0.9618320610687023,-10.342951171874999,0.6823474731445313,0.0526724365234375,18.198473282442748,-70.04580152671755,-16.213740458015266,0.0
10.230000495910645,-9.76116016845703,0.6512228515624999,2.205059729003906,-15.435114503816793,14.030534351145038,-0.7175572519083969,-7.738059765625,3.7205893798828122,-1.5586252807617187,4.519083969465649,-64.1526717557252,-21.14503816793893,0.0
10.240000486373901,-9.866505041503906,0.967257470703125,2.4947581298828125,-17.557251908396946,12.82442748091603,-0.7786259541984732,-10.556035119628906,0.30406361083984373,0.143652099609375,5.908396946564886,-54.19847328244275,-15.572519083969466,0.0
10.250000476837158,-9.629479077148437,0.3687070556640625,2.212242333984375,-14.83969465648855,11.526717557251908,-2.0,-9.363722692871093,2.987963671875,-2.0661960327148434,11.083969465648854,-56.030534351145036,-22.33587786259542,0.0
10.260000705718994,-9.524134204101562,0.6344634399414062,2.1930887207031247,-10.610687022900763,12.183206106870228,-1.9236641221374047,-8.353369592285155,4.328716601562499,-1.7645266235351562,-0.6564885496183206,-42.54961832061068,-20.83969465648855,0.0
10.27000093460083,-8.710105639648438,-0.7326257080078125,1.4987702392578124,-9.83206106870229,11.267175572519085,-2.2442748091603053,-10.59194814453125,2.308010400390625,-0.7278373046875,-3.3435114503816794,-34.778625954198475,-16.229007633587788,0.0
10.280067205429077,-10.199299072265624,0.38786066894531246,2.2768857788085937,1.251908396946565,17.938931297709924,-6.198473282442748,-10.941501586914061,1.5035586425781249,0.02154781494140625,10.213740458015268,-35.64885496183206,-16.12213740458015,0.0
10.290000677108765,-10.644620581054687,1.20667763671875,2.4588451049804685,1.8473282442748091,15.954198473282442,-9.251908396946565,-9.009380847167968,3.744531396484375,-1.158793603515625,9.16030534351145,-35.05343511450382,-18.671755725190838,0.0
10.300000667572021,-8.75320126953125,-0.13168109130859373,1.2497732666015624,4.2748091603053435,12.748091603053435,-6.137404580152672,-8.947131604003905,3.746925598144531,0.565031591796875,0.15267175572519084,-22.900763358778626,-12.961832061068701,0.0
10.310000896453857,-10.024522351074218,2.370259643554687,2.109291662597656,-3.7557251908396947,12.045801526717558,-6.625954198473282,-8.805873706054687,4.498704919433593,-1.5322890624999999,-2.4122137404580153,-22.671755725190838,-10.748091603053435,0.0
10.320000648498535,-9.89523546142578,1.9680337646484374,1.455674609375,-5.129770992366412,7.770992366412214,-3.480916030534351,-10.522516296386717,2.0661960327148434,1.6208745239257811,-3.49618320610687,-9.099236641221374,-4.137404580152672,0.0
10.330000638961792,-9.591171850585937,0.9337386474609375,0.8882488159179687,-3.0229007633587788,9.679389312977099,0.33587786259541985,-9.715670336914062,1.6711527587890624,1.6065093139648436,6.244274809160306,-10.381679389312977,-3.7099236641221376,0.0
10.340000629425049,-9.337386474609374,0.1149216796875,0.37828386230468747,1.3129770992366412,10.488549618320612,1.8625954198473282,-8.736441857910156,0.8547299926757812,0.8978256225585937,14.473282442748092,-15.877862595419847,-3.0076335877862594,0.0
10.350000619888306,-8.786720092773438,-1.3551181396484375,-0.07422025146484375,10.01526717557252,14.83969465648855,1.2366412213740459,-9.524134204101562,1.0031704956054688,1.197100830078125,27.236641221374047,-22.53435114503817,-1.7404580152671756,0.0
10.360000610351562,-10.062829577636718,0.7589619262695312,0.9361328491210937,6.3816793893129775,16.53435114503817,-2.7480916030534353,-9.251195214843749,2.04943662109375,1.20667763671875,26.99236641221374,-21.755725190839694,-1.0534351145038168,0.0
10.370000839233398,-9.418789331054686,0.3711012573242187,1.1468225952148436,0.7633587786259542,16.18320610687023,-3.5114503816793894,-7.596801867675781,4.1754876953124995,0.612915625,10.687022900763358,-18.198473282442748,0.6412213740458015,0.0
10.380030393600464,-9.447519750976562,1.0295067138671874,1.6328455322265625,-4.366412213740458,17.541984732824428,-4.0,-8.149862451171874,4.050989208984375,1.0941501586914062,-6.67175572519084,-6.106870229007634,4.9465648854961835,0.0
10.390000343322754,-9.813832604980469,1.0031704956054688,1.9608511596679685,-10.534351145038167,14.80916030534351,-5.114503816793893,-8.688557824707031,3.6918589599609373,0.3687070556640625,-7.358778625954199,-11.34351145038168,7.282442748091603,0.0
10.400024890899658,-9.967061511230469,0.9792284790039062,1.5538368774414062,-9.389312977099237,13.98473282442748,-4.351145038167939,-8.719682446289061,2.7724855224609373,1.917755529785156,-19.64885496183206,1.450381679389313,9.908396946564885,0.0
10.410000562667847,-9.255983618164063,-0.062249243164062495,1.465251416015625,-10.610687022900763,13.816793893129772,-3.8473282442748094,-8.834604125976561,1.924938134765625,1.6831237670898436,-20.99236641221374,-2.50381679389313,11.572519083969466,0.0
10.420000553131104,-9.277531433105468,-0.3711012573242187,0.9074024291992187,-5.267175572519084,14.229007633587786,-5.1603053435114505,-9.447519750976562,0.8762778076171874,2.741360900878906,-21.068702290076335,-1.0381679389312977,12.213740458015268,0.0
10.43000054359436,-8.090007409667969,-2.0350714111328125,0.13407529296874998,9.84732824427481,21.358778625954198,-6.977099236641221,-11.48498536376953,-1.5155296508789062,4.271255761718749,-10.290076335877863,-4.854961832061068,13.465648854961833,0.0
10.440000772476196,-8.595183959960938,-2.4157494750976563,-0.16519991455078123,18.045801526717558,28.015267175572518,-12.259541984732824,-10.797849487304687,-1.924938134765625,3.6080619018554687,5.923664122137405,-17.022900763358777,8.290076335877863,0.0
10.450000762939453,-9.157821350097656,-1.3910311645507811,0.086191259765625,26.625954198473284,35.3587786259542,-17.633587786259543,-10.977414611816405,-2.1404162841796874,3.210624426269531,20.091603053435115,-28.061068702290076,4.6106870229007635,0.0
10.460089921951294,-8.755595471191405,-0.488417138671875,-0.22266075439453123,24.885496183206108,36.44274809160305,-21.557251908396946,-9.014169250488282,0.7972691528320313,2.042254016113281,21.72519083969466,-35.587786259541986,-1.6641221374045803,0.0
10.470000505447388,-9.165003955078124,1.1180921752929687,0.622492431640625,18.931297709923665,41.3587786259542,-23.114503816793892,-10.096348400878906,2.0063409912109376,2.300827795410156,12.427480916030534,-30.68702290076336,-1.0687022900763359,0.0
10.480000734329224,-10.026916552734374,2.645592834472656,1.4125789794921875,3.801526717557252,39.41984732824427,-24.412213740458014,-9.641450085449218,0.9888052856445312,2.674323254394531,-1.7557251908396947,-22.519083969465647,0.7480916030534351,0.0
10.490000486373901,-9.95987890625,2.1739351074218747,1.3862427612304686,-5.297709923664122,39.099236641221374,-22.48854961832061,-8.396465222167969,1.458068811035156,1.7932570434570312,-2.2748091603053435,-27.84732824427481,-3.633587786259542,0.0
10.500000715255737,-10.512939489746094,2.1883003173828124,1.1707646118164061,-12.977099236641221,37.3587786259542,-19.96946564885496,-11.099518896484375,0.23702596435546874,3.380612744140625,0.12213740458015267,-23.221374045801525,-2.6717557251908395,0.0
10.510000467300415,-10.39322940673828,2.722207287597656,1.7262193969726563,-22.671755725190838,35.98473282442748,-19.17557251908397,-6.528987927246093,2.43250888671875,0.6153098266601562,-19.770992366412212,-18.03053435114504,-8.213740458015268,0.0
10.520000457763672,-10.259154113769531,1.7836802368164062,1.254561669921875,-38.458015267175576,30.885496183206108,-15.083969465648854,-8.719682446289061,0.8259995727539062,1.4125789794921875,-29.068702290076335,-10.488549618320612,-3.7099236641221376,0.0
10.530000686645508,-10.465055456542968,1.1252747802734375,2.0302830078125,-40.16793893129771,33.083969465648856,-15.206106870229007,-8.573636145019531,-1.1755530151367186,2.2960393920898436,-27.52671755725191,-9.648854961832061,-4.442748091603053,0.0
10.540000677108765,-9.811438403320311,0.13168109130859373,1.4006079711914061,-38.25954198473283,31.84732824427481,-13.893129770992367,-8.990227233886719,-1.9895815795898437,3.0980969482421874,-17.66412213740458,-11.007633587786259,-7.877862595419847,0.0
10.550000667572021,-10.398017810058594,0.17956512451171874,2.602497204589844,-40.85496183206107,33.31297709923664,-16.763358778625953,-7.702146740722656,-0.3016694091796875,1.8626888916015625,-10.030534351145038,-12.351145038167939,-12.213740458015268,0.0
10.5600004196167,-10.122684619140625,0.05027823486328125,2.7844565307617186,-46.79389312977099,27.893129770992367,-17.404580152671755,-8.01818135986328,0.6081272216796875,2.128445275878906,-13.129770992366412,-3.2213740458015265,-10.51908396946565,0.0
10.570000648498535,-7.920019091796875,-0.9121908325195311,2.3678654418945313,-41.45038167938932,26.47328244274809,-17.740458015267176,-7.44357296142578,0.03591302490234375,2.272097375488281,-16.229007633587788,3.7251908396946565,-7.801526717557252,0.0
10.580000638961792,-8.659827404785156,-1.2832920898437499,3.1411925781249996,-32.61068702290076,29.87786259541985,-20.65648854961832,-6.76122548828125,0.32561142578124996,1.8219874633789062,-11.206106870229007,4.8396946564885495,-8.641221374045802,0.0
10.590000867843628,-9.442731347656249,-0.29448680419921874,3.7995980346679685,-24.198473282442748,27.587786259541986,-22.061068702290076,-8.185775476074218,-1.2306196533203124,2.612074011230469,-2.6717557251908395,10.16793893129771,-7.00763358778626,0.0
10.600000619888306,-9.588777648925781,-0.9816226806640624,4.376600634765625,-14.396946564885496,25.450381679389313,-23.0381679389313,-7.955932116699218,-1.448492004394531,3.220201232910156,8.045801526717558,11.358778625954198,-7.572519083969466,0.0
10.61000108718872,-9.289502441406249,-0.28969840087890625,4.6255976074218745,-0.6412213740458015,22.564885496183205,-22.091603053435115,-7.943961108398437,-1.455674609375,3.23696064453125,16.198473282442748,11.404580152671755,-8.564885496183207,0.0
10.62000060081482,-9.847351428222655,0.584185205078125,5.310339282226562,1.3893129770992367,16.85496183206107,-21.908396946564885,-7.876923461914062,-0.7565677246093749,3.0909143432617188,22.061068702290076,10.549618320610687,-8.51908396946565,0.0
10.630000829696655,-9.9981861328125,1.369483349609375,5.403713146972656,2.946564885496183,8.030534351145038,-19.862595419847327,-6.924031201171875,0.603338818359375,2.5163059448242184,19.862595419847327,11.755725190839694,-9.34351145038168,0.0
10.640000581741333,-11.415553515625,2.2936451904296873,5.983109948730468,2.8091603053435112,-0.6870229007633588,-16.12213740458015,-8.999804040527343,-0.9624690673828125,3.284844677734375,21.572519083969464,15.19083969465649,-6.778625954198473,0.0
10.65000057220459,-11.705251916503906,2.89219560546875,6.210559106445312,4.488549618320611,-11.98473282442748,-10.870229007633588,-7.979874133300781,-0.47644613037109373,3.679887951660156,16.061068702290076,20.717557251908396,-8.564885496183207,0.0
10.660000324249268,-11.054029064941405,1.7549498168945312,5.834669445800781,12.854961832061068,-17.022900763358777,-4.290076335877862,-9.564835632324218,-2.427720483398437,4.165910888671875,20.38167938931298,18.85496183206107,-8.82442748091603,0.0
10.670000314712524,-10.955866796875,1.8626888916015625,5.791573815917968,15.709923664122137,-27.16030534351145,-0.5648854961832062,-7.0102224609374995,-0.4213794921875,1.695094775390625,22.671755725190838,12.16793893129771,-13.557251908396946,0.0
10.68000054359436,-11.044452258300781,1.70467158203125,5.516240625,15.34351145038168,-36.70229007633588,2.9770992366412212,-9.165003955078124,-0.59376201171875,1.7429788085937499,31.435114503816795,15.725190839694656,-11.541984732824428,0.0
10.690000534057617,-10.345345373535155,0.5363011718749999,4.1946413085937495,23.297709923664122,-45.86259541984733,5.267175572519084,-10.527304699707031,1.8028338500976562,0.9193734375,41.05343511450382,16.53435114503817,-12.091603053435115,0.0
10.700000524520874,-9.91438907470703,0.40462008056640625,3.842693664550781,42.97709923664122,-43.282442748091604,7.32824427480916,-11.410765112304686,4.010287780761718,0.7852981445312499,41.83206106870229,23.801526717557252,-11.038167938931299,0.0
10.71000051498413,-10.50815108642578,1.1444283935546875,4.223371728515625,44.16793893129771,-51.43511450381679,8.51908396946565,-11.994950317382811,6.296750366210937,0.8547299926757812,29.480916030534353,36.13740458015267,-4.809160305343512,0.0
10.720000267028809,-11.190498559570312,0.5003881469726562,4.218583325195312,54.12213740458015,-56.6412213740458,12.748091603053435,-16.101006164550782,4.000710974121094,3.1100679565429687,34.10687022900763,37.32824427480916,5.755725190839694,0.0
10.730000734329224,-11.051634863281249,-0.5698199951171875,3.071760729980469,72.68702290076335,-61.11450381679389,17.984732824427482,-12.275071911621094,5.990292553710937,1.4437036010742186,27.633587786259543,31.267175572519083,4.106870229007634,0.0
10.740000486373901,-12.550405102539061,1.0031704956054688,3.385401147460937,77.80152671755725,-61.89312977099237,22.885496183206108,-12.899958544921875,2.597708801269531,3.842693664550781,17.297709923664122,41.587786259541986,14.259541984732824,0.0
10.750000476837158,-14.62617794189453,-0.70868369140625,5.181052392578125,63.3587786259542,-71.77099236641222,22.641221374045802,-10.43871923828125,2.1739351074218747,1.5682020874023437,19.419847328244273,24.748091603053435,16.85496183206107,0.0
10.760000467300415,-13.78341895751953,-3.404554760742187,5.760449194335937,65.87786259541984,-86.03053435114504,23.862595419847327,-7.151480358886718,1.9823989746093749,0.5027823486328125,4.595419847328245,24.076335877862597,15.435114503816793,0.0
10.770000696182251,-15.67962667236328,-4.201823913574218,7.752424975585937,64.33587786259542,-93.86259541984732,21.52671755725191,-9.591171850585937,-2.4205378784179685,0.9026140258789062,8.427480916030534,26.106870229007633,19.404580152671755,0.0
10.780000686645508,-15.5144267578125,-4.927267016601562,8.856151940917968,64.94656488549619,-110.0,15.725190839694656,-8.693346228027343,-1.9009961181640624,-0.38307226562499996,17.099236641221374,15.679389312977099,7.435114503816794,0.0
10.790000677108765,-16.134524987792968,-3.3303345092773435,8.896853369140624,61.16030534351145,-128.83969465648855,12.274809160305344,-9.030928662109375,-0.622492431640625,2.1356278808593747,3.7709923664122136,13.267175572519085,-4.0458015267175576,0.0
10.800000429153442,-14.942212561035156,-2.980781066894531,6.124367846679687,60.12213740458015,-145.6946564885496,14.931297709923664,-8.95670841064453,-1.1755530151367186,-0.6488286499023437,-13.541984732824428,9.145038167938932,-8.290076335877863,0.0
10.8100004196167,-14.45379542236328,-0.9528922607421875,4.472368701171875,67.26717557251908,-152.94656488549617,18.564885496183205,-10.448296044921875,-2.461239306640625,0.7685387329101562,9.694656488549619,13.679389312977099,-7.236641221374046,0.0
10.820000648498535,-13.469778540039062,-0.9888052856445312,0.7613561279296874,66.6412213740458,-159.75572519083968,20.900763358778626,-10.177751257324218,-1.4532804077148436,0.4070142822265625,17.587786259541986,14.427480916030534,-12.030534351145038,0.0
10.830000638961792,-12.378022583007812,-1.7717092285156248,-1.4245499877929686,62.79389312977099,-157.96946564885496,24.061068702290076,-10.244788903808594,0.19153613281249998,-0.2537853759765625,27.51145038167939,8.274809160305344,-15.022900763358779,0.0
10.840022563934326,-9.572018237304688,-3.0454245117187497,-2.8993782104492185,55.06870229007634,-155.34351145038167,28.396946564885496,-11.281478222656249,-4.244919543457031,-1.4867992309570313,110.45801526717557,21.51145038167939,-4.1679389312977095,0.0
10.850000858306885,-8.75320126953125,-3.1651345947265623,-2.1404162841796874,51.57251908396947,-139.46564885496184,25.46564885496183,-11.499350573730467,4.910507604980468,1.1444283935546875,0.9923664122137404,53.3587786259542,-12.13740458015267,0.0
10.860000610351562,-6.8785413696289055,-4.264073156738281,-4.438849877929687,43.69465648854962,-132.27480916030535,20.99236641221374,-10.036493359375,1.1420341918945311,0.18435352783203124,28.732824427480917,-5.740458015267175,-5.190839694656488,0.0
10.87000060081482,-6.763619689941406,-3.4548329956054684,-2.7940333374023436,35.49618320610687,-114.27480916030534,11.358778625954198,-10.539275708007812,0.4381389038085937,0.41898529052734373,19.251908396946565,5.511450381679389,-1.4045801526717556,0.0
10.880000352859497,-6.866570361328125,-3.2345664428710936,-1.6232687255859375,29.908396946564885,-100.85496183206106,6.824427480916031,-10.66856259765625,0.4261678955078125,-0.373495458984375,14.946564885496183,5.66412213740458,-0.549618320610687,0.0
10.890000343322754,-6.4834980957031245,-3.2728736694335936,-2.482787121582031,33.954198473282446,-86.68702290076335,7.847328244274809,-9.83777462158203,-0.411802685546875,0.6919242797851562,6.305343511450381,14.061068702290076,-0.8854961832061069,0.0
10.90000057220459,-7.723694555664062,-1.6041151123046875,-1.4772224243164063,40.091603053435115,-64.29007633587786,8.091603053435115,-10.129867224121092,-0.7445967163085937,-0.33039982910156246,9.145038167938932,6.732824427480916,-0.9618320610687023,0.0
10.910000562667847,-8.420407238769531,-1.1731588134765625,-0.10773907470703124,36.045801526717554,-53.038167938931295,5.755725190839694,-10.182539660644531,-0.49799394531249996,-0.7709329345703124,5.633587786259542,7.847328244274809,-1.5419847328244274,0.0
10.920000553131104,-9.215282189941405,0.8116343627929687,1.2306196533203124,25.480916030534353,-44.68702290076336,3.312977099236641,-9.124302526855468,1.0366893188476562,-1.3479355346679687,-3.450381679389313,7.526717557251908,-3.8625954198473282,0.0
10.930000305175781,-9.514557397460937,2.1404162841796874,1.5634136840820312,5.175572519083969,-42.656488549618324,3.66412213740458,-9.811438403320311,0.25139117431640623,-1.465251416015625,-12.091603053435115,13.908396946564885,-1.1297709923664123,0.0
10.940164566040039,-9.78031378173828,1.5849614990234373,0.5219359619140624,-7.679389312977099,-37.25190839694657,4.473282442748092,-8.911218579101561,0.4477157104492187,-0.5746083984375,-19.801526717557252,13.267175572519085,-1.6946564885496183,0.0
10.950000524520874,-7.0844427124023435,0.9145850341796874,-1.01514150390625,-14.992366412213741,-32.152671755725194,6.809160305343512,-9.10993731689453,0.74699091796875,-1.2952630981445312,-25.00763358778626,15.694656488549619,-1.1145038167938932,0.0
10.960000276565552,-7.8362220336914055,1.3862427612304686,-0.7038952880859375,-30.412213740458014,-23.801526717557252,5.221374045801527,-9.619902270507811,0.18914193115234373,-0.10295067138671875,-30.671755725190838,21.954198473282442,0.9007633587786259,0.0
10.970000267028809,-6.6510922119140625,-0.22505495605468748,-1.6065093139648436,-35.9236641221374,-11.98473282442748,5.00763358778626,-10.378864196777343,-1.8459294799804686,0.6847416748046875,-20.900763358778626,19.419847328244273,2.6106870229007635,0.0
10.980000734329224,-5.102043737792968,-1.618480322265625,-3.2417490478515623,-43.86259541984733,-9.099236641221374,4.885496183206107,-10.026916552734374,-0.8786720092773437,1.1731588134765625,-8.793893129770993,12.076335877862595,-0.6259541984732825,0.0
10.99000072479248,-5.434837768554687,-1.177947216796875,-2.085349645996094,-38.51908396946565,11.32824427480916,4.396946564885496,-9.792284790039062,0.02633621826171875,0.2442085693359375,-1.0381679389312977,5.786259541984733,-1.8015267175572518,0.0
11.00006628036499,-5.6958057495117185,0.023942016601562498,-1.1851298217773436,-47.86259541984733,18.396946564885496,1.5725190839694656,-9.591171850585937,0.7493851196289062,0.8930372192382812,-2.8396946564885495,6.351145038167939,-0.5038167938931297,0.0
11.010000705718994,-5.9783215454101555,0.3327940307617187,-0.32082302246093747,-55.87786259541985,27.19083969465649,1.5419847328244274,-9.313444458007812,1.2952630981445312,0.33518823242187495,-7.251908396946565,5.374045801526718,1.0229007633587786,0.0
11.020000696182251,-6.040570788574218,0.7110778930664062,0.01915361328125,-61.43511450381679,32.25954198473283,2.7938931297709924,-9.516951599121093,1.5514426757812498,0.46686932373046874,-8.916030534351146,5.190839694656488,3.0229007633587788,0.0
11.030000448226929,-6.059724401855468,0.679953271484375,1.1827356201171875,-63.57251908396947,37.23664122137404,5.633587786259542,-9.727641345214844,1.2952630981445312,0.7972691528320313,-9.877862595419847,6.717557251908397,4.748091603053435,0.0
11.040000677108765,-4.8314989501953125,-1.8076222534179687,0.7613561279296874,-51.587786259541986,46.51908396946565,9.053435114503817,-9.141061938476563,1.2210428466796874,0.6607996582031249,-11.755725190839694,6.33587786259542,5.435114503816794,0.0
11.050000667572021,-5.501875415039062,-2.1499930908203124,3.265691064453125,-40.82442748091603,55.38931297709924,7.175572519083969,-9.662997900390625,0.6967126831054687,0.852335791015625,-6.931297709923665,7.893129770992366,6.793893129770993,0.0
11.0600004196167,-6.900089184570312,-2.6288334228515624,5.430049365234375,-25.923664122137403,62.19847328244275,2.6106870229007635,-9.622296472167967,0.4285620971679687,1.3144167114257812,-3.8625954198473282,9.618320610687023,8.198473282442748,0.0
11.070000648498535,-8.578424548339843,-1.0175357055664063,7.022193469238281,-23.740458015267176,63.282442748091604,-3.572519083969466,-9.49300958251953,0.5386953735351562,1.0366893188476562,0.015267175572519083,10.549618320610687,8.641221374045802,0.0
11.080000638961792,-8.058882788085937,-1.5251064575195312,6.847416748046874,-27.83206106870229,52.534351145038165,-5.770992366412214,-9.394847314453125,0.6560112548828124,0.8738836059570312,3.114503816793893,10.870229007633588,9.114503816793894,0.0
11.090000867843628,-8.283937744140625,-1.5418658691406248,6.694187841796874,-21.954198473282442,51.86259541984733,-5.9541984732824424,-9.478644372558593,0.6464344482421874,0.8882488159179687,6.396946564885496,13.053435114503817,10.702290076335878,0.0
11.100000619888306,-10.386046801757812,0.8978256225585937,7.127538342285156,-28.290076335877863,48.3206106870229,-9.16030534351145,-9.064447485351561,0.93852705078125,0.4429273071289062,8.213740458015268,14.900763358778626,10.687022900763358,0.0
11.110000848770142,-9.83777462158203,0.8547299926757812,6.074089611816406,-40.30534351145038,38.3206106870229,-7.1603053435114505,-9.485826977539062,0.6488286499023437,0.36631285400390623,10.687022900763358,17.572519083969464,13.19083969465649,0.0
11.120000839233398,-10.206481677246094,0.9792284790039062,6.536170532226562,-34.47328244274809,42.38167938931298,-4.458015267175573,-9.265560424804686,0.7661445312499999,0.19153613281249998,10.50381679389313,19.908396946564885,14.320610687022901,0.0
11.130000591278076,-8.281543542480469,-1.6615759521484375,5.2265422241210935,-30.977099236641223,35.587786259541986,0.21374045801526717,-9.382876306152344,0.8930372192382812,-0.033518823242187495,10.229007633587786,22.641221374045802,16.015267175572518,0.0
11.140000581741333,-8.667010009765624,-1.458068811035156,6.402095239257812,-14.305343511450381,37.93893129770992,2.2900763358778624,-9.576806640625,0.26815058593749996,-0.2059013427734375,9.145038167938932,25.14503816793893,17.72519083969466,0.0
11.15000033378601,-9.354145886230468,-0.2346317626953125,7.3837179199218745,6.229007633587786,38.916030534351144,4.717557251908397,-8.731653454589843,1.2952630981445312,-1.0079588989257813,1.6946564885496183,26.641221374045802,17.19083969465649,0.0
11.160000562667847,-8.650250598144531,0.086191259765625,6.9144543945312495,28.30534351145038,39.83206106870229,10.885496183206106,-8.559270935058594,0.0909796630859375,-0.74699091796875,-3.435114503816794,34.16793893129771,21.022900763358777,0.0
11.170000314712524,-9.066841687011719,2.2577321655273437,7.189787585449218,42.229007633587784,39.587786259541986,14.992366412213741,-9.557653027343749,-0.9145850341796874,-0.9002198242187499,-2.2748091603053435,36.68702290076336,21.541984732824428,0.0
11.18000054359436,-10.548852514648438,3.8474820678710935,7.505822204589843,58.534351145038165,42.0,21.16030534351145,-10.328585961914062,-0.19393033447265623,-0.32561142578124996,-5.938931297709924,40.19847328244275,20.65648854961832,0.0
11.190000534057617,-11.305420239257812,5.798756420898437,7.874529260253905,51.25190839694657,33.43511450381679,27.633587786259543,-9.564835632324218,-0.143652099609375,0.3112462158203125,-13.709923664122137,47.6793893129771,20.778625954198475,0.0
11.200000524520874,-11.192892761230468,3.7325603881835936,6.478709692382812,28.671755725190838,22.412213740458014,33.05343511450382,-10.371681591796875,-3.0430303100585934,1.16837041015625,-5.694656488549619,47.05343511450382,22.244274809160306,0.0
11.210000276565552,-9.351751684570312,0.3112462158203125,4.61602080078125,13.969465648854962,17.541984732824428,33.14503816793893,-10.967837805175781,-1.9847931762695312,1.2114660400390624,6.763358778625954,36.29007633587786,14.641221374045802,0.0
11.220000743865967,-11.092336291503905,-1.4987702392578124,4.970362646484375,-5.251908396946565,17.17557251908397,26.061068702290076,-9.162609753417968,0.6200982299804687,0.4836287353515625,-1.2366412213740459,32.18320610687023,10.442748091603054,0.0
11.230000495910645,-11.01332763671875,-4.3454760131835934,6.9719152343749995,-23.96946564885496,8.80916030534351,15.816793893129772,-10.20887587890625,-0.9624690673828125,0.031124621582031248,-7.312977099236641,30.870229007633586,12.65648854961832,0.0
11.24005389213562,-11.068394274902342,-6.174646081542968,7.098807922363281,-20.15267175572519,4.229007633587786,5.572519083969466,-11.027692846679686,-1.448492004394531,2.061407629394531,-1.7557251908396947,28.641221374045802,12.442748091603054,0.0
11.250000238418579,-10.778695874023438,-4.522646936035156,5.604826086425781,-5.419847328244275,3.0229007633587788,-1.1908396946564885,-10.122684619140625,-0.7158662963867187,1.7812860351562498,-5.0534351145038165,18.03053435114504,8.610687022900763,0.0
11.260000467300415,-9.694122521972655,-2.5713725830078125,2.9089550170898435,4.748091603053435,4.183206106870229,-5.038167938931298,-10.24718310546875,1.2042834350585936,0.5386953735351562,-0.44274809160305345,4.778625954198473,3.1297709923664123,0.0
11.270000696182251,-9.169792358398437,0.3687070556640625,0.7038952880859375,2.6564885496183206,6.106870229007634,-7.9541984732824424,-10.481814868164061,1.7286135986328124,1.3239935180664062,-13.786259541984732,3.7404580152671754,4.259541984732825,0.0
11.280000686645508,-8.468291271972657,1.618480322265625,-0.18914193115234373,-6.1679389312977095,8.580152671755725,-8.183206106870228,-9.892841259765625,1.9009961181640624,1.3215993164062498,-24.717557251908396,2.1068702290076335,5.694656488549619,0.0
11.290000438690186,-7.819462622070312,2.0542250244140625,-0.6488286499023437,-13.404580152671755,12.854961832061068,-5.145038167938932,-9.995791931152343,2.7365724975585937,0.5339069702148437,-28.641221374045802,-3.786259541984733,7.755725190839694,0.0
11.300000667572021,-7.867346655273437,2.2744915771484373,-0.44053310546874996,-21.633587786259543,18.870229007633586,-0.8549618320610687,-9.964667309570311,2.7964275390625,0.4333505004882812,-35.603053435114504,-4.244274809160306,9.84732824427481,0.0
11.310000658035278,-6.306327172851562,0.43574470214843747,-1.8746598999023436,-15.648854961832061,28.229007633587788,4.244274809160306,-9.610325463867188,2.1404162841796874,-0.011971008300781249,-40.30534351145038,-3.7709923664122136,11.816793893129772,0.0
11.320000648498535,-8.372523205566406,1.5370774658203123,-1.0893617553710937,-13.770992366412214,40.48854961832061,4.656488549618321,-10.453084448242187,1.0941501586914062,0.3016694091796875,-34.87022900763359,-3.969465648854962,12.793893129770993,0.0
11.330000638961792,-9.519345800781249,1.7214309936523438,-0.354341845703125,-14.778625954198473,45.083969465648856,5.465648854961832,-10.421959826660157,0.814028564453125,0.5386953735351562,-32.76335877862596,-5.068702290076335,11.908396946564885,0.0
11.340000629425049,-10.335768566894531,1.697488977050781,0.6823474731445313,-16.748091603053435,51.786259541984734,8.244274809160306,-10.175357055664062,0.814028564453125,0.14125789794921875,-30.80916030534351,-7.374045801526718,9.694656488549619,0.0
11.350000858306885,-10.54645831298828,0.8188169677734375,1.7549498168945312,-20.671755725190838,52.94656488549618,9.465648854961833,-10.12507882080078,1.0989385620117187,-0.41898529052734373,-29.206106870229007,-8.717557251908397,7.358778625954199,0.0
11.360000610351562,-11.322179650878905,0.7038952880859375,2.6144682128906247,-25.96946564885496,51.48091603053435,8.961832061068701,-10.572794531249999,1.1755530151367186,-0.37828386230468747,-27.66412213740458,-10.16793893129771,5.541984732824427,0.0
11.37000060081482,-10.486603271484375,-0.4261678955078125,2.7916391357421872,-28.82442748091603,48.6412213740458,8.076335877862595,-11.2240173828125,1.47482822265625,-0.28730419921875,-25.46564885496183,-10.534351145038167,3.0076335877862594,0.0
11.380000591278076,-11.18571015625,-0.5913678100585937,3.4069489624023435,-33.41984732824427,44.93129770992366,4.213740458015267,-10.73799444580078,2.2601263671875,-0.469263525390625,-28.625954198473284,-12.213740458015268,-1.3740458015267176,0.0
11.390000343322754,-10.290278735351562,-1.5346832641601562,2.4061726684570313,-32.70229007633588,38.83969465648855,1.3129770992366412,-11.595118640136718,2.250549560546875,-0.24899697265624998,-26.30534351145038,-11.923664122137405,-2.4580152671755724,0.0
11.40000033378601,-10.896011755371093,-0.7062894897460937,2.5163059448242184,-27.450381679389313,38.79389312977099,-3.1908396946564888,-10.644620581054687,3.162740393066406,-0.3280056274414062,-28.549618320610687,-13.282442748091603,-5.190839694656488,0.0
11.410000562667847,-9.014169250488282,-0.22744915771484372,1.0199299072265624,-25.6793893129771,30.549618320610687,-4.152671755725191,-11.099518896484375,3.4165257690429685,0.27293898925781246,-25.83206106870229,-13.206106870229007,-3.49618320610687,0.0
11.420000553131104,-9.660603698730467,-0.12449848632812499,1.254561669921875,-20.53435114503817,33.66412213740458,-4.977099236641221,-10.443507641601562,3.447650390625,1.2737152832031249,-25.755725190839694,-13.557251908396946,-1.6488549618320612,0.0
11.430000305175781,-10.141838232421874,0.2609679809570312,1.0702081420898437,-15.007633587786259,34.51908396946565,-4.33587786259542,-10.295067138671874,3.651157531738281,0.74699091796875,-25.69465648854962,-14.381679389312977,0.061068702290076333,0.0
11.440000534057617,-8.544905725097657,0.4165910888671875,1.0079588989257813,-10.351145038167939,32.47328244274809,-4.1679389312977095,-10.026916552734374,3.0047230834960934,1.120486376953125,-24.85496183206107,-15.114503816793894,2.9160305343511452,0.0
11.450000286102295,-10.333374365234375,0.82360537109375,1.8291700683593748,-10.061068702290076,34.274809160305345,-4.748091603053435,-9.555258825683593,2.6216508178710938,1.8243816650390623,-22.671755725190838,-16.763358778625953,3.633587786259542,0.0
11.46000051498413,-9.583989245605467,0.3232172241210937,0.9864110839843749,-6.427480916030534,30.50381679389313,-1.816793893129771,-9.452308154296874,1.944091748046875,1.8052280517578123,-20.732824427480917,-18.33587786259542,4.580152671755725,0.0
11.470000267028809,-9.272743029785156,0.8164227661132812,1.6831237670898436,-2.595419847328244,31.282442748091604,-1.5114503816793894,-9.363722692871093,0.41419688720703124,1.9704279663085937,-15.557251908396946,-20.977099236641223,5.0534351145038165,0.0
11.480000257492065,-9.770736975097655,0.24899697265624998,2.1356278808593747,-3.068702290076336,29.053435114503817,-1.251908396946565,-8.145074047851562,1.438915197753906,0.20829554443359374,-11.908396946564885,-31.267175572519083,1.0229007633587786,0.0
11.490000486373901,-10.007762939453125,0.36152445068359373,2.5234885498046875,0.015267175572519083,28.35114503816794,-1.0381679389312977,-8.662221606445312,1.3551181396484375,0.34237083740234375,-8.335877862595419,-31.755725190839694,1.2366412213740459,0.0
11.500000715255737,-10.826579907226561,0.6584054565429687,3.248931652832031,0.33587786259541985,26.244274809160306,-3.282442748091603,-9.68454571533203,0.7206546997070312,1.0103531005859374,-1.9083969465648856,-34.87022900763359,0.7786259541984732,0.0
11.510000705718994,-9.380482104492186,-0.105344873046875,2.231395947265625,1.8015267175572518,20.38167938931298,-3.068702290076336,-7.6614453125,1.924938134765625,-0.8643067993164062,-5.603053435114504,-36.19847328244275,-2.2442748091603053,0.0
11.520000696182251,-10.390835205078124,1.1707646118164061,2.4013842651367185,-4.076335877862595,13.786259541984732,-2.4885496183206106,-8.633491186523438,1.4987702392578124,-0.47165772705078124,-2.122137404580153,-36.412213740458014,-1.1145038167938932,0.0
11.530000686645508,-10.127473022460936,0.8092401611328125,2.645592834472656,8.366412213740459,17.954198473282442,-2.3053435114503817,-9.069235888671875,1.5298948608398437,-0.16998831787109375,-3.1755725190839694,-35.404580152671755,-1.8625954198473282,0.0
11.540000677108765,-9.986215124511718,0.5195417602539062,2.24097275390625,3.312977099236641,10.641221374045802,-0.9923664122137404,-8.820238916015624,0.8116343627929687,0.24899697265624998,2.198473282442748,-34.70229007633588,-1.1450381679389312,0.0
11.550000667572021,-10.89122335205078,1.8507178833007811,3.086125939941406,9.34351145038168,13.98473282442748,-2.50381679389313,-9.8449572265625,0.21787235107421873,1.197100830078125,7.66412213740458,-34.50381679389313,-2.8702290076335877,0.0
11.5600004196167,-10.522516296386717,1.149216796875,2.6048914062499997,0.33587786259541985,5.435114503816794,-0.7480916030534351,-10.455478649902343,-0.7805097412109374,2.272097375488281,26.229007633587788,-38.534351145038165,-3.618320610687023,0.0
11.570000648498535,-9.502586389160156,-0.08379705810546874,1.9632453613281249,10.732824427480915,6.229007633587786,1.6641221374045803,-10.184933862304687,0.22744915771484372,-0.33518823242187495,35.267175572519086,-49.55725190839695,-10.335877862595419,0.0
11.580000638961792,-9.227253198242186,0.4955997436523437,2.051830822753906,14.274809160305344,8.274809160305344,0.5343511450381679,-6.572083557128906,3.5434184570312497,-1.6304513305664061,18.702290076335878,-46.82442748091603,-16.16793893129771,0.0
11.590000867843628,-9.619902270507811,1.659181750488281,2.8945898071289062,8.427480916030534,8.488549618320612,-0.9923664122137404,-9.696516723632811,1.7573440185546874,-0.7685387329101562,6.519083969465649,-31.17557251908397,-9.664122137404581,0.0
11.600000619888306,-9.842563024902343,1.5011644409179687,2.817975354003906,5.419847328244275,5.145038167938932,-1.2061068702290076,-9.318232861328125,1.0845733520507812,-1.2880804931640624,11.19083969465649,-32.18320610687023,-11.16030534351145,0.0
11.610000848770142,-9.72285294189453,1.1228805786132812,2.4444798950195312,7.8320610687022905,3.5419847328244276,0.183206106870229,-9.212887988281249,2.2744915771484373,-0.948103857421875,20.946564885496183,-29.19083969465649,-13.603053435114504,0.0
11.62000036239624,-9.651026892089844,1.1947066284179686,2.4444798950195312,9.32824427480916,4.488549618320611,1.251908396946565,-9.519345800781249,2.2673089721679687,-1.8698714965820311,19.236641221374047,-22.045801526717558,-13.694656488549619,0.0
11.630000829696655,-9.332598071289063,1.3048399047851562,1.9680337646484374,9.34351145038168,4.809160305343512,2.1068702290076335,-9.222464794921875,3.5003228271484375,-1.3239935180664062,15.648854961832061,-17.740458015267176,-13.099236641221374,0.0
11.640000581741333,-9.440337145996093,2.0733786376953125,1.7405846069335937,4.854961832061068,5.587786259541985,3.4656488549618323,-8.513781103515624,2.932897033691406,-0.4477157104492187,5.419847328244275,-8.381679389312977,-9.236641221374045,0.0
11.65000057220459,-9.469067565917967,2.020706201171875,1.7118541870117185,-2.549618320610687,5.419847328244275,4.061068702290076,-9.351751684570312,3.1555577880859373,-0.9241618408203125,4.458015267175573,-6.931297709923665,-8.01526717557252,0.0
11.660000562667847,-9.658209497070311,1.8267758666992187,1.2665326782226562,-7.374045801526718,5.267175572519084,5.8320610687022905,-9.358934289550781,2.868253588867187,0.22505495605468748,4.152671755725191,-2.519083969465649,-7.083969465648855,0.0
11.670000553131104,-9.380482104492186,1.1611878051757811,1.1947066284179686,-11.251908396946565,6.67175572519084,7.190839694656488,-9.289502441406249,3.1794998046874996,-0.29448680419921874,0.7938931297709924,-1.5725190839694656,-6.916030534351145,0.0
11.68000054359436,-9.507374792480467,0.8068459594726562,1.2210428466796874,-15.755725190839694,7.694656488549619,6.99236641221374,-9.708487731933593,2.93050283203125,0.6751648681640625,0.10687022900763359,-0.5343511450381679,-4.3816793893129775,0.0
11.690000534057617,-9.469067565917967,0.6272808349609375,1.2282254516601563,-19.251908396946565,8.82442748091603,5.816793893129771,-9.188945971679686,3.2800562744140622,0.8978256225585937,-4.656488549618321,-1.7099236641221374,-3.404580152671756,0.0
11.700000524520874,-9.560047229003906,0.40940848388671874,1.3838485595703125,-22.580152671755727,9.572519083969466,4.366412213740458,-11.10191309814453,0.9720458740234375,2.932897033691406,-1.8625954198473282,1.3129770992366412,0.732824427480916,0.0
11.71000051498413,-9.375693701171874,-0.2705447875976562,1.2856862915039062,-22.702290076335878,10.549618320610687,2.4580152671755724,-10.029310754394531,3.0430303100585934,1.2808978881835937,2.045801526717557,-12.595419847328245,-3.648854961832061,0.0
11.720000743865967,-9.519345800781249,-0.29448680419921874,1.0726023437499999,-22.198473282442748,12.122137404580153,0.48854961832061067,-11.652579479980469,0.7781155395507812,2.8203695556640622,8.717557251908397,-15.587786259541986,-0.8091603053435115,0.0
11.730000257492065,-9.414000927734374,-0.35673604736328124,1.01514150390625,-21.282442748091604,13.419847328244275,-2.3053435114503817,-10.412383020019531,1.8818425048828125,2.3367408203125,14.610687022900763,-28.27480916030534,-4.9465648854961835,0.0
11.740000486373901,-9.30147344970703,0.47165772705078124,0.9217676391601562,-20.85496183206107,16.045801526717558,-4.259541984732825,-8.671798413085938,4.357447021484375,1.3383587280273437,-1.297709923664122,-29.587786259541986,-6.977099236641221,0.0
11.750000476837158,-9.488221179199218,1.8411410766601561,1.1444283935546875,-30.564885496183205,17.541984732824428,-5.709923664122138,-9.775525378417969,3.679887951660156,2.2074539306640624,-21.862595419847327,-20.3206106870229,-1.8625954198473282,0.0
11.760000705718994,-9.957484704589843,2.5522189697265625,1.0678139404296874,-39.541984732824424,16.137404580152673,-5.755725190839694,-10.59194814453125,2.080561242675781,2.5737667846679684,-25.46564885496183,-21.72519083969466,0.1984732824427481,0.0
11.770000696182251,-10.098742602539062,2.221819140625,0.39743747558593745,-43.954198473282446,15.633587786259541,-3.2061068702290076,-10.084377392578125,1.5945383056640625,2.365471240234375,-25.328244274809162,-26.717557251908396,-2.50381679389313,0.0
11.780000686645508,-9.76116016845703,1.5753846923828123,0.1771709228515625,-46.35114503816794,16.48854961832061,-0.9465648854961832,-8.844180932617187,3.1220389648437497,1.197100830078125,-35.20610687022901,-26.610687022900763,-5.282442748091603,0.0
11.790000677108765,-9.789890588378906,1.5586252807617187,0.4525041137695312,-51.725190839694655,18.3206106870229,0.21374045801526717,-8.659827404785156,2.1787235107421874,1.4437036010742186,-50.656488549618324,-17.984732824427482,-2.6412213740458017,0.0
11.800000667572021,-9.794678991699218,1.2808978881835937,0.699106884765625,-56.33587786259542,18.30534351145038,-0.1984732824427481,-11.465831750488281,0.46208092041015625,3.2321722412109373,-48.97709923664122,-13.053435114503817,0.1984732824427481,0.0
11.810000658035278,-9.967061511230469,0.9696516723632812,0.7110778930664062,-56.961832061068705,17.572519083969464,-0.15267175572519084,-10.309432348632813,-0.565031591796875,2.8993782104492185,-45.847328244274806,-16.732824427480917,-2.7786259541984735,0.0
11.820000410079956,-9.277531433105468,-0.4525041137695312,0.2657563842773437,-51.69465648854962,16.916030534351144,1.282442748091603,-10.460267053222656,-0.6871358764648438,2.9448680419921875,-33.23664122137404,-22.442748091603054,-6.183206106870229,0.0
11.830000400543213,-8.085219006347655,-2.4301146850585935,-0.6464344482421874,-37.14503816793893,20.641221374045802,1.2213740458015268,-8.913612780761719,0.4908113403320312,1.8842367065429686,-31.84732824427481,-24.732824427480917,-10.977099236641221,0.0
11.84000039100647,-7.4411787597656245,-1.8842367065429686,-0.507570751953125,-29.221374045801525,25.49618320610687,-2.900763358778626,-10.314220751953124,0.93852705078125,2.5522189697265625,-32.412213740458014,-20.641221374045802,-10.732824427480915,0.0
11.850000858306885,-9.95987890625,-0.16759411621093748,1.6448165405273436,-28.35114503816794,32.97709923664122,-9.633587786259541,-8.853757739257812,0.6727706665039062,2.602497204589844,-48.10687022900763,-4.534351145038168,-9.938931297709924,0.0
11.860052108764648,-8.061276989746093,-1.3623007446289062,1.1755530151367186,-27.267175572519083,30.16793893129771,-9.908396946564885,-8.755595471191405,0.6344634399414062,1.1611878051757811,-39.89312977099237,-13.374045801526718,-11.099236641221374,0.0
11.870000839233398,-9.179369165039063,-0.6081272216796875,1.1348515869140625,-14.381679389312977,33.48091603053435,-11.618320610687023,-10.838550915527343,-1.1947066284179686,2.9975404785156248,-27.801526717557252,-7.587786259541985,-12.061068702290076,0.0
11.880000591278076,-9.64623848876953,-0.9792284790039062,1.2952630981445312,-10.916030534351146,32.732824427480914,-13.877862595419847,-9.85692823486328,-2.233790148925781,3.4261025756835934,-12.931297709923664,-12.0,-15.557251908396946,0.0
11.890000581741333,-9.82580361328125,-0.565031591796875,1.5179238525390624,-3.404580152671756,33.3587786259542,-14.366412213740459,-10.175357055664062,-1.4796166259765624,3.1866824096679687,-3.6793893129770994,-16.442748091603054,-17.572519083969464,0.0
11.90000057220459,-10.441113439941406,-0.03591302490234375,2.1356278808593747,-7.679389312977099,30.015267175572518,-15.145038167938932,-7.539341027832031,0.46686932373046874,0.74699091796875,4.030534351145038,-29.17557251908397,-22.53435114503817,0.0
11.910000324249268,-11.085153686523437,0.86191259765625,2.250549560546875,-8.198473282442748,28.458015267175572,-13.19083969465649,-6.813897924804687,1.8411410766601561,1.2521674682617188,-10.13740458015267,-19.786259541984734,-21.862595419847327,0.0
11.920000553131104,-8.71489404296875,0.6248866333007812,1.6424223388671875,-13.877862595419847,22.076335877862597,-9.694656488549619,-8.36294639892578,1.139639990234375,1.8339584716796873,-16.259541984732824,-10.458015267175572,-17.633587786259543,0.0
11.930000305175781,-10.211270080566406,0.9241618408203125,2.7246014892578123,-12.82442748091603,24.091603053435115,-9.98473282442748,-5.774814404296874,2.39420166015625,-0.086191259765625,-24.9618320610687,-6.534351145038168,-19.31297709923664,0.0
11.940000295639038,-10.58476553955078,0.34715924072265625,2.3032219970703123,-13.114503816793894,20.99236641221374,-7.847328244274809,-7.503428002929687,0.9241618408203125,1.8507178833007811,-21.72519083969466,-3.9236641221374047,-15.83206106870229,0.0
11.950000286102295,-9.861716638183593,-0.7158662963867187,1.465251416015625,-7.969465648854962,16.885496183206108,-7.068702290076335,-8.473079675292968,-0.49320554199218747,2.6240450195312497,-18.763358778625953,2.5801526717557253,-14.564885496183207,0.0
11.96000051498413,-8.037334973144532,-1.6112977172851561,0.9217676391601562,0.366412213740458,17.46564885496183,-7.816793893129771,-8.532934716796875,-1.0702081420898437,2.7820623291015623,-11.84732824427481,2.564885496183206,-13.267175572519085,0.0
11.970117807388306,-9.813832604980469,-1.005564697265625,2.0829554443359375,6.564885496183206,21.69465648854962,-11.755725190839694,-8.91840118408203,-1.6400281372070311,3.208230224609375,-1.9083969465648856,2.3053435114503817,-12.13740458015267,0.0
11.98003363609314,-9.751583361816406,-0.34237083740234375,2.5905261962890624,5.374045801526718,19.87786259541985,-14.396946564885496,-8.75320126953125,-1.0366893188476562,2.0446482177734375,12.564885496183207,-7.206106870229007,-13.221374045801527,0.0
11.99000072479248,-10.443507641601562,0.373495458984375,2.7629087158203123,4.870229007633588,15.022900763358779,-14.427480916030534,-8.13310303955078,-0.7062894897460937,2.6623522460937497,21.206106870229007,-6.6106870229007635,-12.183206106870228,0.0
12.000000715255737,-8.734047656249999,-0.18435352783203124,2.2290017456054687,5.374045801526718,10.946564885496183,-13.908396946564885,-14.123395593261717,-3.8091748413085935,8.231265307617187,41.099236641221374,-2.0,-10.580152671755725,0.0
12.010110139846802,-8.911218579101561,-0.5913678100585937,3.095702746582031,13.603053435114504,12.442748091603054,-16.748091603053435,-6.993463049316406,1.6424223388671875,2.5737667846679684,49.66412213740458,-16.641221374045802,-12.717557251908397,0.0
12.020000457763672,-10.398017810058594,1.656787548828125,4.283226770019531,9.526717557251908,11.022900763358779,-17.374045801526716,-6.6343328002929685,1.649604943847656,2.5354595581054684,38.67175572519084,-6.458015267175573,-11.145038167938932,0.0
12.030000686645508,-9.37808790283203,1.62805712890625,4.199429711914062,1.4809160305343512,3.969465648854962,-15.740458015267176,-6.064512805175781,2.5378537597656248,1.6256629272460936,25.267175572519083,-0.8854961832061069,-6.366412213740458,0.0
12.040000677108765,-10.381258398437499,2.5665841796874997,4.697423657226563,-8.244274809160306,-7.786259541984733,-11.725190839694656,-8.786720092773438,0.8164227661132812,2.5474305664062498,26.702290076335878,1.1297709923664123,-2.1068702290076335,0.0
12.050000667572021,-9.926360083007811,1.0845733520507812,3.852270471191406,3.404580152671756,-11.694656488549619,-6.748091603053435,-8.087613208007811,0.30406361083984373,3.23696064453125,23.297709923664122,6.824427480916031,-3.145038167938931,0.0
12.060000658035278,-9.452308154296874,1.0941501586914062,4.000710974121094,14.106870229007633,-9.725190839694656,-3.435114503816794,-8.43956085205078,-0.3327940307617187,3.883395092773437,25.954198473282442,6.229007633587786,-2.9618320610687023,0.0
12.070000648498535,-10.242394702148436,1.8219874633789062,4.0988732421875,4.8396946564885495,-20.412213740458014,-2.564885496183206,-8.427589843749999,-0.21068974609375,4.019864587402344,27.389312977099237,2.7480916030534353,-2.8244274809160306,0.0
12.080054759979248,-9.897629663085937,1.1827356201171875,3.3973721557617185,11.755725190839694,-21.923664122137403,0.5648854961832062,-5.846640454101562,2.521094348144531,11.372457885742186,7.9541984732824424,-21.69465648854962,-15.114503816793894,0.0
12.090000867843628,-10.046070166015625,1.8004396484374998,3.5601778686523438,10.83969465648855,-24.580152671755727,1.7251908396946565,-14.41548819580078,-2.5546131713867184,4.659116430664063,8.030534351145038,50.36641221374046,30.366412213740457,0.0
12.100000619888306,-10.134655627441406,1.5514426757812498,3.5984850952148437,8.0,-29.69465648854962,3.1908396946564888,-8.10197841796875,1.218648645019531,-0.2059013427734375,22.137404580152673,0.7175572519083969,-2.4122137404580153,0.0
12.110000848770142,-10.402806213378906,1.388636962890625,2.935291235351562,12.381679389312977,-33.038167938931295,4.213740458015267,-8.827421520996094,0.7398083129882812,-0.5386953735351562,21.72519083969466,13.801526717557252,-2.3053435114503817,0.0
12.12000060081482,-10.414777221679687,1.2378022583007813,2.9376854370117185,12.259541984732824,-36.045801526717554,4.870229007633588,-9.991003527832031,2.7724855224609373,-0.8571241943359375,22.48854961832061,21.786259541984734,-3.969465648854962,0.0
12.130000591278076,-10.71884083251953,1.1276689819335937,2.8945898071289062,14.122137404580153,-40.74809160305343,5.587786259541985,-10.63025537109375,4.932055419921875,-1.0414777221679687,11.358778625954198,33.83206106870229,-2.213740458015267,0.0
12.140000581741333,-11.250353601074218,0.93852705078125,3.399766357421875,13.312977099236642,-45.51145038167939,6.412213740458015,-13.350068457031249,3.2632968627929686,1.7094599853515624,4.366412213740458,48.58015267175573,7.450381679389313,0.0
12.15000057220459,-11.3389390625,-0.7900865478515624,3.5051112304687497,17.87786259541985,-51.541984732824424,7.251908396946565,-12.093112585449218,4.058171813964844,0.679953271484375,4.076335877862595,40.80916030534351,4.3816793893129775,0.0
12.160000562667847,-12.133814013671874,-1.407790576171875,3.840299462890625,32.85496183206107,-54.916030534351144,8.412213740458014,-12.112266198730469,1.9033903198242186,2.920926025390625,-5.740458015267175,55.908396946564885,9.419847328244275,0.0
12.170000314712524,-13.80975517578125,-2.2673089721679687,5.370194323730469,29.81679389312977,-65.41984732824427,8.106870229007633,-11.415553515625,1.1468225952148436,2.0446482177734375,1.2213740458015268,41.603053435114504,10.625954198473282,0.0
12.180113792419434,-12.638990563964843,-5.66946953125,4.465186096191406,63.45038167938932,-61.74045801526717,8.229007633587786,-8.377311608886718,0.9744400756835937,1.0319009155273438,-9.801526717557252,43.343511450381676,10.763358778625955,0.0
12.190000534057617,-15.265429785156249,-2.3247698120117186,7.153874560546875,58.94656488549618,-71.6793893129771,4.015267175572519,-11.360486877441405,-2.2960393920898436,1.5394716674804687,4.106870229007634,39.45038167938932,14.473282442748092,0.0
12.200000524520874,-15.105018273925781,-2.91134921875,8.336610180664062,54.58015267175573,-92.82442748091603,-0.12213740458015267,-8.118737829589843,-0.7685387329101562,-0.19871873779296872,8.122137404580153,25.480916030534353,6.122137404580153,0.0
12.210129499435425,-15.444994909667967,-1.0031704956054688,9.270348828125,55.9236641221374,-105.43511450381679,0.5343511450381679,-8.671798413085938,-0.6105214233398437,-0.4213794921875,3.2977099236641223,31.435114503816795,1.5877862595419847,0.0
12.220000743865967,-15.133748693847656,0.12449848632812499,7.783549597167968,39.908396946564885,-128.8091603053435,0.7480916030534351,-11.125855114746093,-2.4516625,1.0510545288085937,17.61832061068702,28.16793893129771,1.099236641221374,0.0
12.230000257492065,-13.824120385742187,-0.3447650390625,4.7572786987304685,38.99236641221374,-144.38167938931298,2.4732824427480917,-12.054805358886718,-2.001552587890625,0.8667010009765624,33.31297709923664,18.793893129770993,-5.694656488549619,0.0
12.240072250366211,-12.919112158203124,-0.19153613281249998,2.5857377929687497,39.66412213740458,-152.93129770992365,6.3816793893129775,-11.88721124267578,-2.1404162841796874,0.6464344482421874,40.94656488549618,14.183206106870228,-11.16030534351145,0.0
12.250000476837158,-12.739547033691405,-0.45489831542968745,1.5035586425781249,41.17557251908397,-154.74809160305344,10.030534351145038,-10.065223779296874,-0.229843359375,-0.258573779296875,40.85496183206107,5.709923664122138,-16.091603053435115,0.0
12.260000705718994,-8.870517150878905,-3.5960908935546874,-0.469263525390625,43.63358778625954,-159.206106870229,16.48854961832061,-10.213664282226562,0.6560112548828124,-0.11013327636718749,40.534351145038165,5.557251908396947,-14.244274809160306,0.0
12.270000457763672,-9.490615380859374,-3.373430139160156,-1.13006318359375,55.81679389312977,-145.0229007633588,16.580152671755727,-10.141838232421874,0.9026140258789062,0.04548983154296875,37.66412213740458,5.3893129770992365,-12.51908396946565,0.0
12.280000448226929,-8.614337573242187,-2.7246014892578123,-1.8195932617187498,51.221374045801525,-136.50381679389312,13.877862595419847,-10.235212097167969,1.1635820068359375,-0.09576806640624999,37.16030534351145,5.755725190839694,-11.877862595419847,0.0
12.290000677108765,-6.327874987792969,-6.323086584472656,-3.921702319335937,49.12977099236641,-129.1145038167939,8.366412213740459,-10.299855541992187,1.43652099609375,-0.2825157958984375,34.47328244274809,6.305343511450381,-10.870229007633588,0.0
12.300000667572021,-4.809951135253906,-7.575254052734374,-3.9695863525390624,67.49618320610686,-106.12213740458016,1.5267175572519085,-9.191340173339842,2.157175695800781,-1.2617442749023438,24.885496183206108,8.0,-11.709923664122137,0.0
12.310000658035278,-6.5026517089843745,-5.284003063964843,-1.177947216796875,79.37404580152672,-83.52671755725191,-6.8396946564885495,-8.207323291015625,2.6001030029296874,-0.5817910034179687,9.541984732824428,14.870229007633588,-9.465648854961833,0.0
12.320000648498535,-6.459556079101562,-5.104437939453125,-1.4987702392578124,85.81679389312977,-69.74045801526718,-11.648854961832061,-7.204152795410156,3.4524387939453125,-1.3646949462890625,-11.465648854961833,22.549618320610687,-7.099236641221374,0.0
12.330000638961792,-9.41639512939453,-1.0007762939453124,0.6105214233398437,83.32824427480917,-52.656488549618324,-15.770992366412214,-9.260772021484375,0.3016694091796875,0.055066638183593745,-19.938931297709924,35.70992366412214,0.1984732824427481,0.0
12.340000629425049,-11.123460913085937,0.8930372192382812,1.0630255371093749,64.61068702290076,-51.43511450381679,-16.16793893129771,-10.98699141845703,-0.699106884765625,-0.584185205078125,-12.320610687022901,31.862595419847327,-1.450381679389313,0.0
12.350000619888306,-10.498574279785156,0.48123453369140623,0.08858546142578125,59.7557251908397,-47.98473282442748,-10.473282442748092,-9.56962403564453,1.0486603271484374,-0.565031591796875,-15.419847328244275,27.587786259541986,-4.351145038167939,0.0
12.360000610351562,-10.831368310546875,2.1212626708984375,0.9026140258789062,47.93893129770992,-39.11450381679389,-7.801526717557252,-9.038111267089842,1.695094775390625,-1.2737152832031249,-31.297709923664122,32.030534351145036,-2.6412213740458017,0.0
12.370000839233398,-11.906364855957031,4.378994836425781,2.1499930908203124,3.0229007633587788,-51.86259541984733,-8.366412213740459,-11.633425866699218,-1.254561669921875,1.254561669921875,-27.572519083969464,36.33587786259542,6.961832061068702,0.0
12.380000591278076,-11.738770739746093,3.35188232421875,1.4724340209960938,-16.931297709923665,-53.87786259541985,-5.8320610687022905,-11.643002673339844,-1.599326708984375,1.1468225952148436,-17.19083969465649,24.412213740458014,6.458015267175573,0.0
12.390000581741333,-9.758765966796874,1.848323681640625,0.04548983154296875,-32.82442748091603,-54.83969465648855,-0.549618320610687,-11.386823095703125,-1.199495031738281,0.9433154541015625,-13.419847328244275,18.99236641221374,5.740458015267175,0.0
12.400009393692017,-7.225700610351562,0.143652099609375,-1.946485949707031,-39.25190839694657,-48.94656488549618,4.564885496183206,-10.259154113769531,-0.42377369384765623,0.507570751953125,-9.038167938931299,11.587786259541986,4.2748091603053435,0.0
12.410000562667847,-8.113949426269532,1.5322890624999999,-0.6105214233398437,-42.6412213740458,-39.14503816793893,4.412213740458015,-9.849745629882811,0.3016694091796875,0.016759411621093748,-13.786259541984732,9.450381679389313,4.900763358778626,0.0
12.420000791549683,-7.668627917480468,1.1516109985351561,-1.0438719238281249,-51.61832061068702,-31.435114503816795,7.343511450381679,-9.732429748535155,-0.07900865478515624,0.19393033447265623,-12.83969465648855,9.49618320610687,7.00763358778626,0.0
12.43000054359436,-5.7843912109375,-0.36152445068359373,-2.3439234252929686,-50.900763358778626,-22.763358778625953,11.083969465648854,-9.95987890625,-0.6057330200195312,0.5147533569335937,-8.183206106870228,9.145038167938932,7.221374045801527,0.0
12.440000534057617,-8.726865051269531,2.3056161987304686,0.4644751220703125,-56.94656488549618,-6.015267175572519,10.717557251908397,-9.258377819824219,-0.6679822631835937,0.23223756103515625,-3.7099236641221376,7.511450381679389,5.709923664122138,0.0
12.450000286102295,-6.488286499023437,0.6703764648437499,-1.7094599853515624,-65.0381679389313,-5.984732824427481,16.076335877862597,-9.526528405761718,-0.6153098266601562,0.20829554443359374,4.229007633587786,6.916030534351145,5.908396946564886,0.0
12.46000051498413,-4.867411975097656,-1.3383587280273437,-2.4947581298828125,-52.19847328244275,10.65648854961832,22.641221374045802,-9.636661682128906,-0.7326257080078125,0.5458779785156249,9.786259541984732,7.66412213740458,6.213740458015267,0.0
12.470000267028809,-5.865794067382812,-1.3192051147460937,-1.659181750488281,-39.083969465648856,31.740458015267176,21.87786259541985,-9.65342109375,-0.8068459594726562,0.8116343627929687,19.099236641221374,8.793893129770993,5.938931297709924,0.0
12.480000257492065,-6.275202551269531,-0.6631938598632812,-0.5913678100585937,-29.374045801526716,51.16030534351145,19.14503816793893,-9.284714038085937,-0.086191259765625,-0.4908113403320312,26.931297709923665,2.717557251908397,3.2213740458015265,0.0
12.490015506744385,-7.283161450195312,-0.33039982910156246,1.9967641845703124,-31.46564885496183,63.48091603053435,14.931297709923664,-9.5001921875,0.928950244140625,-0.3950432739257812,30.12213740458015,3.267175572519084,3.0076335877862594,0.0
12.500000715255737,-5.571307263183593,-2.3535002319335936,0.8475473876953125,-40.13740458015267,62.10687022900763,15.84732824427481,-10.443507641601562,1.0989385620117187,-0.2154781494140625,32.44274809160305,6.763358778625954,6.030534351145038,0.0
12.510000705718994,-5.643133312988281,-2.8203695556640622,2.798821740722656,-24.412213740458014,75.64885496183206,13.83206106870229,-8.681375219726561,2.5139117431640625,-0.6464344482421874,22.106870229007633,9.053435114503817,6.259541984732825,0.0
12.520000696182251,-6.347028601074219,-2.1715409057617188,4.613626599121093,-17.72519083969466,79.86259541984732,7.312977099236641,-9.354145886230468,1.9225439331054686,0.12449848632812499,20.091603053435115,15.450381679389313,9.893129770992367,0.0
12.530000686645508,-7.42441934814453,-1.4030021728515625,5.837063647460937,-16.27480916030534,79.37404580152672,-0.0,-11.056423266601563,1.13006318359375,1.3623007446289062,21.51145038167939,20.198473282442748,12.702290076335878,0.0
12.540014505386353,-7.558494641113281,-1.678335363769531,5.793968017578124,-12.290076335877863,81.40458015267176,-4.427480916030534,-9.835380419921874,0.6919242797851562,0.948103857421875,17.862595419847327,19.633587786259543,10.65648854961832,0.0
12.550000667572021,-7.750030773925781,-2.2481553588867187,5.748478186035156,-14.992366412213741,79.64885496183206,-8.854961832061068,-9.756371765136718,0.7398083129882812,0.7852981445312499,17.52671755725191,18.717557251908396,9.664122137404581,0.0
12.560000658035278,-8.815450512695312,-2.061407629394531,6.854599353027344,-13.923664122137405,79.89312977099236,-12.335877862595419,-9.6151138671875,0.9026140258789062,0.7829039428710937,15.603053435114504,17.954198473282442,10.183206106870228,0.0
12.570000648498535,-8.566453540039062,-2.47081611328125,7.180210778808593,-7.740458015267175,76.91603053435115,-13.938931297709924,-9.572018237304688,1.0558429321289062,0.7948749511718749,12.65648854961832,17.633587786259543,10.870229007633588,0.0
12.580000638961792,-8.63827958984375,-2.003946789550781,7.666233715820312,5.4961832061068705,76.41221374045801,-15.282442748091603,-9.689334118652344,0.8834604125976562,0.852335791015625,8.473282442748092,18.137404580152673,11.49618320610687,0.0
12.590000867843628,-8.858546142578124,-1.9776105712890624,8.382100012207031,16.931297709923665,71.83206106870229,-17.954198473282442,-9.763554370117188,0.5602431884765625,0.9504980590820312,5.00763358778626,18.30534351145038,11.877862595419847,0.0
12.600000619888306,-9.088389501953124,-0.2609679809570312,8.451531860351562,32.80916030534351,69.43511450381679,-20.061068702290076,-9.916783276367187,0.3136404174804687,1.0414777221679687,2.0916030534351147,17.893129770992367,12.412213740458014,0.0
12.610000848770142,-9.804255798339844,1.7405846069335937,8.719682446289061,44.35114503816794,65.09923664122137,-19.0381679389313,-10.103531005859374,-0.009576806640625,0.9888052856445312,0.6412213740458015,17.603053435114504,13.053435114503817,0.0
12.62000060081482,-10.445901843261717,3.7708676147460936,8.980650427246093,50.595419847328245,57.786259541984734,-14.259541984732824,-9.65342109375,0.7350199096679687,0.4836287353515625,-3.282442748091603,15.954198473282442,12.916030534351146,0.0
12.630000829696655,-10.66856259765625,5.415684155273437,8.609549169921875,47.98473282442748,49.57251908396947,-7.8320610687022905,-9.701305126953125,0.7829039428710937,0.3016694091796875,-12.305343511450381,18.793893129770993,15.86259541984733,0.0
12.640000343322754,-10.613495959472656,6.356605407714843,6.526593725585937,31.938931297709924,38.3206106870229,1.3740458015267176,-9.404424121093749,0.009576806640625,1.2378022583007813,-13.114503816793894,19.6793893129771,17.0381679389313,0.0
12.65000057220459,-11.544840405273437,5.923254907226562,5.494692810058593,13.083969465648854,32.732824427480914,9.083969465648854,-9.449913952636718,-0.229843359375,-0.08140285644531249,-18.213740458015266,19.862595419847327,17.0381679389313,0.0
12.660000324249268,-11.058817468261719,3.5051112304687497,4.740519287109374,-3.984732824427481,25.603053435114504,18.763358778625953,-10.089165795898436,0.22026655273437498,-0.08379705810546874,-23.282442748091604,24.85496183206107,16.85496183206107,0.0
12.670000314712524,-11.020510241699219,0.55545478515625,6.291961962890625,-12.946564885496183,23.633587786259543,22.931297709923665,-9.45470235595703,-1.5394716674804687,0.0047884033203125,-22.82442748091603,25.587786259541986,17.251908396946565,0.0
12.680000305175781,-12.66053837890625,-1.6328455322265625,7.936778503417968,-15.938931297709924,16.549618320610687,20.625954198473284,-10.565611926269531,-2.1978771240234374,0.047884033203124995,-16.53435114503817,22.595419847328245,14.931297709923664,0.0
12.690000295639038,-13.029245434570312,-3.1747114013671873,8.188169677734374,-9.84732824427481,10.366412213740459,18.3206106870229,-9.967061511230469,-0.7158662963867187,-0.39264907226562495,-13.17557251908397,18.27480916030534,11.374045801526718,0.0
12.700000524520874,-11.434707128906249,-4.7022120605468745,6.490680700683593,-5.221374045801527,0.8549618320610687,14.977099236641221,-8.832209924316405,1.4772224243164063,-1.438915197753906,-24.732824427480917,17.31297709923664,8.122137404580153,0.0
12.710000276565552,-12.777854260253905,-0.39983167724609375,6.636727001953124,-4.9465648854961835,-0.183206106870229,9.038167938931299,-10.05564697265625,-1.1851298217773436,0.062249243164062495,-25.740458015267176,24.35114503816794,14.16793893129771,0.0
12.720000267028809,-9.734823950195311,-1.6998831787109374,2.152387292480469,-3.1603053435114505,-5.236641221374046,9.786259541984732,-10.692504614257812,-2.6144682128906247,0.47644613037109373,-12.748091603053435,15.297709923664122,12.687022900763358,0.0
12.730000257492065,-8.84178673095703,0.086191259765625,-0.16041151123046873,3.7251908396946565,-0.5343511450381679,7.648854961832061,-11.79144317626953,-1.4628572143554686,0.20829554443359374,4.824427480916031,1.297709923664122,7.694656488549619,0.0
12.74000072479248,-7.704540942382812,0.6871358764648438,-0.5339069702148437,1.3587786259541985,3.312977099236641,5.755725190839694,-9.708487731933593,1.7094599853515624,-0.36391865234375,-5.984732824427481,-3.1297709923664123,3.6793893129770994,0.0
12.750000476837158,-7.1778165771484375,1.0199299072265624,0.0909796630859375,-11.16030534351145,5.709923664122138,4.229007633587786,-9.591171850585937,2.3295582153320313,-0.7924807495117187,-10.229007633587786,-2.6717557251908395,5.114503816793893,0.0
12.760000705718994,-7.295132458496093,1.4006079711914061,0.5674257934570313,-18.82442748091603,9.816793893129772,3.5267175572519083,-10.333374365234375,2.6336218261718747,-0.5219359619140624,-15.969465648854962,-2.0763358778625953,7.694656488549619,0.0
12.770000457763672,-8.008604553222655,1.68551796875,0.9265560424804687,-26.47328244274809,13.618320610687023,5.740458015267175,-9.926360083007811,2.7916391357421872,-0.45489831542968745,-22.229007633587788,-3.9083969465648853,7.709923664122138,0.0
12.780000686645508,-8.777143286132812,1.7022773803710936,0.7206546997070312,-34.213740458015266,17.221374045801525,8.702290076335878,-9.763554370117188,2.8658593872070313,-0.6919242797851562,-26.106870229007633,-5.908396946564886,7.587786259541985,0.0
12.790000677108765,-9.478644372558593,1.3766659545898436,0.49799394531249996,-42.045801526717554,20.290076335877863,11.374045801526718,-9.82580361328125,2.729389892578125,-0.4740519287109375,-29.267175572519083,-4.9465648854961835,7.129770992366412,0.0
12.800000667572021,-8.015787158203125,-1.4891934326171874,-0.5530605834960938,-38.87022900763359,24.595419847328245,13.389312977099237,-9.677363110351562,2.5258827514648434,-0.8690952026367187,-36.045801526717554,-3.801526717557252,6.320610687022901,0.0
12.810000658035278,-8.372523205566406,-2.104503259277344,0.5339069702148437,-33.37404580152672,32.82442748091603,9.618320610687023,-9.85692823486328,2.042254016113281,-0.3327940307617187,-38.29007633587786,-3.7251908396946565,5.465648854961832,0.0
12.820000648498535,-9.5001921875,-0.9002198242187499,1.3910311645507811,-30.595419847328245,35.908396946564885,4.977099236641221,-9.981426721191406,2.099714855957031,-0.32082302246093747,-42.12213740458015,-3.2977099236641223,4.458015267175573,0.0
12.830000400543213,-9.009380847167968,-1.70467158203125,1.1420341918945311,-28.33587786259542,37.32824427480916,2.5801526717557253,-10.168174450683592,2.2074539306640624,0.08858546142578125,-42.35114503816794,-5.572519083969466,3.786259541984733,0.0
12.84000039100647,-9.97184991455078,-0.4213794921875,1.867477294921875,-22.15267175572519,40.29007633587786,-0.16793893129770993,-10.551246716308594,2.128445275878906,0.354341845703125,-44.396946564885496,-5.9541984732824424,3.3587786259541983,0.0
12.850000619888306,-10.694898815917968,0.4477157104492187,2.521094348144531,-25.236641221374047,37.70992366412214,-2.0610687022900764,-10.568006127929687,2.454056701660156,0.9313444458007812,-45.908396946564885,-6.870229007633588,3.2213740458015265,0.0
12.860000371932983,-10.802637890625,1.4030021728515625,2.741360900878906,-28.50381679389313,33.404580152671755,-2.2290076335877864,-10.342951171874999,2.6862942626953124,0.5746083984375,-49.70992366412214,-8.717557251908397,3.5877862595419847,0.0
12.870000839233398,-10.275913525390624,1.3910311645507811,1.5131354492187499,-28.9618320610687,27.801526717557252,-0.366412213740458,-10.59194814453125,2.674323254394531,0.9337386474609375,-50.0,-10.122137404580153,5.0534351145038165,0.0
12.880000591278076,-10.295067138671874,1.7429788085937499,1.446097802734375,-35.11450381679389,21.786259541984734,1.1145038167938932,-10.728417639160156,2.7174188842773437,0.7637503295898437,-49.908396946564885,-13.129770992366412,5.847328244274809,0.0
12.890000581741333,-11.525686791992188,2.748543505859375,2.252943762207031,-41.603053435114504,17.61832061068702,3.5267175572519083,-10.32379755859375,1.9608511596679685,1.5705962890624998,-49.16030534351145,-14.427480916030534,7.450381679389313,0.0
12.90000057220459,-10.053252770996092,-0.15322890625,1.199495031738281,-38.62595419847328,14.458015267175572,7.877862595419847,-11.092336291503905,0.1197100830078125,2.1811177124023438,-37.64885496183206,-17.282442748091604,8.977099236641221,0.0
12.910000562667847,-9.572018237304688,-0.9504980590820312,1.3263877197265623,-29.31297709923664,15.86259541984733,8.50381679389313,-11.195286962890624,0.93852705078125,2.5139117431640625,-29.923664122137403,-23.19083969465649,5.740458015267175,0.0
12.920000314712524,-9.442731347656249,-1.1635820068359375,1.5753846923828123,-21.587786259541986,14.290076335877863,7.282442748091603,-8.999804040527343,1.2210428466796874,0.8858546142578124,-31.923664122137403,-31.908396946564885,2.122137404580153,0.0
12.93000054359436,-9.483432775878907,-0.9696516723632812,1.5849614990234373,-15.236641221374045,14.106870229007633,5.770992366412214,-11.085153686523437,1.68551796875,0.74699091796875,-25.328244274809162,-32.12213740458015,2.0916030534351147,0.0
12.940000295639038,-9.572018237304688,-0.33758243408203126,1.6807295654296874,-11.86259541984733,12.229007633587786,4.763358778625954,-9.447519750976562,0.2561795776367187,1.4628572143554686,-26.213740458015266,-32.80916030534351,1.3129770992366412,0.0
12.950000524520874,-9.832986218261718,-0.44053310546874996,2.0087351928710935,-8.580152671755725,10.305343511450381,4.183206106870229,-10.635043774414061,-0.0383072265625,1.47482822265625,-10.67175572519084,-39.3587786259542,-0.9007633587786259,0.0
12.96000051498413,-9.847351428222655,-1.0127473022460938,1.7166425903320313,-1.2366412213740459,8.335877862595419,4.030534351145038,-12.50012686767578,-2.6216508178710938,3.2800562744140622,15.755725190839694,-45.49618320610687,-2.366412213740458,0.0
12.970000505447388,-9.349357482910156,-1.1180921752929687,1.5203180541992187,9.297709923664122,8.641221374045802,2.885496183206107,-8.55448253173828,1.2761094848632812,-0.354341845703125,19.84732824427481,-61.23664122137404,-13.19083969465649,0.0
12.980000734329224,-9.928754284667969,0.4644751220703125,1.6304513305664061,12.900763358778626,9.48091603053435,2.33587786259542,-9.296685046386719,1.1659762084960936,0.948103857421875,8.900763358778626,-51.25190839694657,-10.213740458015268,0.0
12.990000486373901,-10.141838232421874,0.8379705810546875,1.9871873779296874,9.435114503816793,7.862595419847328,1.4351145038167938,-10.66856259765625,-0.15322890625,1.5322890624999999,17.587786259541986,-56.29007633587786,-9.358778625954198,0.0
13.000000715255737,-9.868899243164062,0.8044517578125,1.5682020874023437,11.053435114503817,5.435114503816794,1.984732824427481,-9.366116894531249,1.5897499023437498,0.33518823242187495,19.17557251908397,-58.54961832061068,-13.389312977099237,0.0
13.010000705718994,-9.871293444824218,0.8978256225585937,1.7693150268554687,10.717557251908397,6.33587786259542,3.1908396946564888,-8.492233288574218,1.85790048828125,0.3447650390625,10.305343511450381,-52.76335877862596,-12.290076335877863,0.0
13.020000457763672,-9.854534033203125,0.6296750366210937,1.8363526733398436,8.0,4.33587786259542,3.450381679389313,-10.608707556152343,-0.1771709228515625,0.9864110839843749,21.893129770992367,-50.62595419847328,-10.13740458015267,0.0
13.030000448226929,-9.744400756835937,0.4070142822265625,1.2832920898437499,11.297709923664122,4.122137404580153,3.0839694656488548,-8.705317236328124,1.8770541015625,-1.0558429321289062,22.549618320610687,-53.70992366412214,-17.0381679389313,0.0
13.040000438690186,-9.974244116210937,1.0917559570312498,1.37906015625,10.076335877862595,5.114503816793893,3.068702290076336,-8.157045056152343,2.858676782226562,-0.6512228515624999,11.908396946564885,-39.786259541984734,-14.13740458015267,0.0
13.050000667572021,-9.885658654785155,1.0175357055664063,1.7573440185546874,5.267175572519084,4.732824427480916,2.9770992366412212,-9.062053283691405,1.905784521484375,-0.7015010864257812,7.1603053435114505,-30.717557251908396,-11.389312977099237,0.0
13.0600004196167,-9.629479077148437,0.45489831542968745,1.5418658691406248,4.2748091603053435,2.9618320610687023,2.931297709923664,-9.26316622314453,0.36391865234375,-0.8690952026367187,17.541984732824428,-27.46564885496183,-11.17557251908397,0.0
13.070000648498535,-9.753977563476562,-0.28490999755859375,0.97683427734375,7.877862595419847,4.427480916030534,2.4122137404580153,-9.390058911132812,1.448492004394531,-1.369483349609375,32.396946564885496,-31.923664122137403,-14.290076335877863,0.0
13.080000638961792,-9.3086560546875,-0.13646949462890623,0.9792284790039062,12.106870229007633,7.435114503816794,1.3129770992366412,-8.418013037109375,3.4715924072265625,-1.7190367919921874,26.229007633587788,-25.862595419847327,-14.366412213740459,0.0
13.090000867843628,-9.196128576660156,0.584185205078125,1.1156979736328125,8.183206106870228,9.557251908396946,-0.15267175572519084,-8.245630517578125,4.125209460449218,-1.5825672973632812,10.076335877862595,-15.374045801526718,-11.32824427480916,0.0
13.100000619888306,-9.234435803222656,1.3359645263671873,1.5346832641601562,1.5877862595419847,11.145038167938932,-1.0229007633587786,-8.588001354980468,3.897760302734375,-0.8954314208984374,-0.32061068702290074,-6.9465648854961835,-7.358778625954199,0.0
13.11000108718872,-9.516951599121093,1.3431471313476562,1.149216796875,-4.870229007633588,11.511450381679388,-0.183206106870229,-9.239224206542968,3.5098996337890624,-0.8930372192382812,-0.7022900763358778,-3.954198473282443,-4.473282442748092,0.0
13.12000060081482,-9.694122521972655,1.0726023437499999,0.9050082275390624,-7.419847328244275,13.358778625954198,0.549618320610687,-9.114725720214842,3.0741549316406247,0.08858546142578125,-1.297709923664122,0.6259541984732825,-2.6412213740458017,0.0
13.130000829696655,-9.696516723632811,0.6081272216796875,0.9241618408203125,-11.068702290076336,15.404580152671755,1.0076335877862594,-9.349357482910156,2.568978381347656,0.622492431640625,-1.8625954198473282,2.0,-0.5343511450381679,0.0
13.140000581741333,-9.686939916992188,0.4261678955078125,0.9528922607421875,-13.755725190839694,16.885496183206108,0.6259541984732825,-9.402029919433593,2.528276953125,0.8379705810546875,-3.618320610687023,1.5877862595419847,1.7099236641221374,0.0
13.15000057220459,-9.560047229003906,0.3495534423828125,1.0941501586914062,-16.9618320610687,18.65648854961832,-0.2748091603053435,-9.402029919433593,2.4588451049804685,1.2042834350585936,-6.793893129770993,1.7404580152671756,3.969465648854962,0.0
13.160000324249268,-9.272743029785156,0.3399766357421875,0.9911994873046874,-19.633587786259543,20.27480916030534,-1.6488549618320612,-9.430760339355468,2.492363928222656,1.2904746948242187,-10.50381679389313,2.687022900763359,4.305343511450381,0.0
13.170000553131104,-8.8489693359375,-0.8643067993164062,0.13407529296874998,-18.53435114503817,21.87786259541985,-1.5267175572519085,-9.56962403564453,1.8435352783203125,1.8148048583984373,-12.091603053435115,1.5267175572519085,6.259541984732825,0.0
13.18000054359436,-8.544905725097657,-1.4532804077148436,-0.08140285644531249,-7.00763358778626,29.236641221374047,-4.244274809160306,-12.052411157226562,0.2154781494140625,3.134009973144531,-0.7938931297709924,-1.984732824427481,8.122137404580153,0.0
13.190000534057617,-8.767566479492187,-0.833182177734375,0.9241618408203125,-1.6793893129770991,34.274809160305345,-10.366412213740459,-10.187328063964843,1.3359645263671873,2.722207287597656,-2.213740458015267,-7.1603053435114505,4.488549618320611,0.0
13.200000524520874,-8.614337573242187,-0.13168109130859373,0.622492431640625,-1.816793893129771,34.51908396946565,-12.67175572519084,-10.563217724609375,0.2561795776367187,2.887407202148437,2.3053435114503817,-14.320610687022901,5.267175572519084,0.0
13.21000051498413,-9.53131680908203,1.0606313354492187,1.3479355346679687,-3.3893129770992365,35.17557251908397,-14.580152671755725,-11.461043347167967,-0.13646949462890623,3.660734338378906,10.259541984732824,-18.946564885496183,3.6030534351145036,0.0
13.220000743865967,-10.041281762695311,1.5083470458984374,1.2880804931640624,-6.961832061068702,33.038167938931295,-14.076335877862595,-9.792284790039062,1.2138602416992186,2.4564509033203126,9.007633587786259,-25.603053435114504,-1.3893129770992367,0.0
13.230000734329224,-10.182539660644531,2.3056161987304686,2.262520568847656,-14.778625954198473,31.480916030534353,-12.977099236641221,-8.786720092773438,2.152387292480469,1.4724340209960938,-0.22900763358778625,-27.46564885496183,-3.0839694656488548,0.0
13.24000072479248,-10.062829577636718,1.7597382202148437,2.2457611572265623,-19.96946564885496,28.702290076335878,-9.770992366412214,-9.459490759277344,1.4604630126953124,1.4891934326171874,-7.450381679389313,-24.65648854961832,-2.595419847328244,0.0
13.250000238418579,-9.323021264648437,1.2330138549804688,1.4413093994140624,-20.717557251908396,24.83969465648855,-6.687022900763359,-10.524910498046875,-0.05985504150390625,2.9448680419921875,-15.664122137404581,-16.702290076335878,-0.9312977099236641,0.0
13.260000944137573,-8.98304462890625,-0.0430956298828125,1.3407529296874998,-20.213740458015266,21.083969465648856,-5.0534351145038165,-9.572018237304688,0.5410895751953124,1.8555062866210936,-9.572519083969466,-22.885496183206108,-5.312977099236641,0.0
13.270000696182251,-8.932766394042968,-0.7829039428710937,0.6703764648437499,-12.549618320610687,20.47328244274809,-4.259541984732825,-13.850456604003906,-3.2728736694335936,7.055712292480468,6.793893129770993,-21.740458015267176,-5.526717557251908,0.0
13.280000448226929,-7.829039428710937,-0.8930372192382812,0.16519991455078123,-3.7251908396946565,21.206106870229007,-5.4961832061068705,-7.6087728759765625,1.5825672973632812,1.4173673828125,-8.076335877862595,-23.96946564885496,-14.885496183206106,0.0
13.290000677108765,-7.979874133300781,0.016759411621093748,0.6105214233398437,-7.587786259541985,24.68702290076336,-5.419847328244275,-9.342174877929686,1.0414777221679687,1.697488977050781,-16.519083969465647,-17.572519083969464,-11.572519083969466,0.0
13.3000009059906,-10.122684619140625,0.6631938598632812,1.7310078002929687,-10.15267175572519,25.709923664122137,-8.412213740458014,-9.375693701171874,-0.1771709228515625,2.0446482177734375,-15.251908396946565,-18.9618320610687,-12.320610687022901,0.0
13.310000658035278,-8.820238916015624,0.3591302490234375,0.6296750366210937,-2.6259541984732824,24.48854961832061,-8.229007633587786,-10.244788903808594,-1.3551181396484375,3.0645781249999997,-4.809160305343512,-21.893129770992367,-14.412213740458014,0.0
13.320000648498535,-9.153032946777342,0.1197100830078125,0.5985504150390625,1.4045801526717556,26.061068702290076,-9.374045801526718,-9.737218151855469,-0.5674257934570313,2.6695348510742187,3.572519083969466,-27.557251908396946,-19.557251908396946,0.0
13.330000400543213,-9.205705383300781,1.1276689819335937,0.7996633544921875,1.3435114503816794,26.68702290076336,-10.13740458015267,-8.418013037109375,0.9720458740234375,2.1499930908203124,-2.030534351145038,-27.236641221374047,-21.740458015267176,0.0
13.340000629425049,-10.836156713867187,1.7645266235351562,1.915361328125,-10.244274809160306,25.19083969465649,-10.091603053435115,-7.517793212890624,2.2601263671875,0.9409212524414062,-13.374045801526718,-24.30534351145038,-21.740458015267176,0.0
13.350000619888306,-8.662221606445312,0.8259995727539062,0.8259995727539062,-12.580152671755725,19.14503816793893,-7.343511450381679,-9.9215716796875,0.5482721801757812,2.6240450195312497,-19.083969465648856,-12.641221374045802,-18.30534351145038,0.0
13.360000371932983,-9.406818322753905,-0.30406361083984373,1.4101847778320311,-6.809160305343512,22.27480916030534,-7.450381679389313,-8.259995727539062,0.9696516723632812,2.6791116577148437,-24.213740458015266,-8.549618320610687,-19.954198473282442,0.0
13.370001077651978,-9.787496386718749,-0.5482721801757812,1.458068811035156,-1.8931297709923665,24.931297709923665,-7.862595419847328,-8.774749084472656,0.24660277099609373,2.2098481323242187,-21.81679389312977,-8.335877862595419,-19.46564885496183,0.0
13.380000829696655,-9.835380419921874,-0.9888052856445312,1.0199299072265624,2.16793893129771,24.702290076335878,-7.175572519083969,-8.643067993164061,-0.5051765502929687,2.5546131713867184,-16.900763358778626,-5.557251908396947,-18.885496183206108,0.0
13.390000343322754,-9.433154541015625,-0.948103857421875,0.35673604736328124,9.053435114503817,27.709923664122137,-5.770992366412214,-7.831433630371094,-2.2481553588867187,1.7956512451171873,-11.404580152671755,-8.106870229007633,-19.603053435114504,0.0
13.40000057220459,-9.670180505371093,-0.7924807495117187,0.6248866333007812,9.16030534351145,29.96946564885496,-7.343511450381679,-9.284714038085937,-1.5705962890624998,3.0645781249999997,13.083969465648854,-17.51145038167939,-20.137404580152673,0.0
13.410000562667847,-9.847351428222655,-0.5339069702148437,0.4477157104492187,5.66412213740458,30.229007633587788,-8.65648854961832,-9.68454571533203,-1.9871873779296874,2.4157494750976563,27.00763358778626,-19.709923664122137,-19.893129770992367,0.0
13.420000553131104,-9.279925634765624,-1.1516109985351561,0.5243301635742187,3.8473282442748094,32.62595419847328,-10.458015267175572,-7.548917834472656,-0.3950432739257812,1.4987702392578124,32.01526717557252,-21.374045801526716,-21.541984732824428,0.0
13.43000054359436,-9.406818322753905,0.28730419921875,1.0821791503906248,-0.8396946564885496,34.0763358778626,-12.885496183206106,-5.681440539550781,2.3367408203125,0.39264907226562495,24.244274809160306,-15.282442748091603,-20.137404580152673,0.0
13.440000772476196,-9.375693701171874,0.3591302490234375,1.4915876342773438,-8.091603053435115,31.083969465648856,-14.198473282442748,-7.8721350585937495,1.4221557861328125,0.9241618408203125,23.83206106870229,-7.068702290076335,-12.564885496183207,0.0
13.450000524520874,-9.574412438964844,-0.28012159423828126,2.310404602050781,-3.1755725190839694,32.412213740458014,-15.633587786259541,-7.857769848632812,0.44053310546874996,1.5346832641601562,24.30534351145038,4.290076335877862,-10.274809160305344,0.0
13.460000276565552,-9.325415466308593,-0.6871358764648438,2.7724855224609373,4.763358778625954,29.908396946564885,-15.84732824427481,-7.587225061035156,-0.258573779296875,1.5610194824218748,35.083969465648856,5.221374045801527,-9.236641221374045,0.0
13.470000505447388,-9.859322436523437,-0.13407529296874998,2.9376854370117185,13.603053435114504,28.427480916030536,-16.16793893129771,-8.207323291015625,-1.3000515014648437,2.243366955566406,47.52671755725191,7.114503816793893,-7.465648854961832,0.0
13.480000734329224,-10.342951171874999,0.44532150878906246,2.9496564453125,17.00763358778626,25.022900763358777,-15.16030534351145,-8.825027319335938,-1.5682020874023437,2.645592834472656,60.458015267175576,7.190839694656488,-6.427480916030534,0.0
13.490000247955322,-10.716446630859375,1.429338391113281,3.4165257690429685,15.877862595419847,20.885496183206108,-13.938931297709924,-8.63827958984375,-0.6631938598632812,2.35589443359375,70.67175572519083,5.358778625954199,-5.66412213740458,0.0
13.500000715255737,-11.310208642578125,2.2170307373046874,4.096479040527344,10.16793893129771,14.473282442748092,-12.244274809160306,-6.746860278320312,2.118868469238281,1.0390835205078124,65.98473282442748,6.290076335877862,-6.351145038167939,0.0
13.510000705718994,-10.35492218017578,1.697488977050781,3.1172505615234374,6.458015267175573,3.3587786259541983,-6.290076335877862,-8.520963708496094,0.9840168823242187,2.291250988769531,65.22137404580153,10.83969465648855,-1.8473282442748091,0.0
13.520000457763672,-11.008539233398437,1.2497732666015624,3.878606689453125,9.664122137404581,1.465648854961832,-4.793893129770993,-9.718064538574218,0.70868369140625,2.712630480957031,73.02290076335878,6.916030534351145,-2.33587786259542,0.0
13.530000925064087,-10.101136804199218,-0.34715924072265625,3.1459809814453124,12.16793893129771,-7.236641221374046,-1.9236641221374047,-9.112331518554686,1.6998831787109374,3.181894006347656,66.56488549618321,9.725190839694656,-4.183206106870229,0.0
13.540000677108765,-10.206481677246094,1.1109095703125,3.9240965209960934,11.98473282442748,-10.625954198473282,-1.8473282442748091,-9.375693701171874,1.9800047729492187,3.0047230834960934,57.57251908396947,8.01526717557252,-4.259541984732825,0.0
13.550000667572021,-9.516951599121093,-0.36152445068359373,3.208230224609375,13.541984732824428,-18.625954198473284,-1.7709923664122138,-8.872911352539061,2.6503812377929687,3.6296097167968746,36.50381679389313,15.251908396946565,-3.404580152671756,0.0
13.560000896453857,-9.83777462158203,0.612915625,3.718195178222656,20.076335877862597,-20.396946564885496,-2.183206106870229,-10.817003100585938,1.2569558715820313,3.768473413085937,29.64885496183206,15.587786259541986,-1.5877862595419847,0.0
13.570000648498535,-9.816226806640625,1.2282254516601563,3.778050219726562,23.587786259541986,-25.862595419847327,-3.7404580152671754,-9.241618408203124,0.9792284790039062,2.7174188842773437,17.16030534351145,14.198473282442748,-4.488549618320611,0.0
13.580000638961792,-9.504980590820312,1.0199299072265624,3.39018955078125,24.717557251908396,-31.31297709923664,-2.4732824427480917,-9.03332286376953,2.583343591308594,1.5370774658203123,6.656488549618321,18.3206106870229,-6.809160305343512,0.0
13.59000039100647,-8.84178673095703,1.0630255371093749,3.4620156005859375,29.755725190839694,-35.9236641221374,-1.083969465648855,-8.877699755859375,3.3207577026367185,1.4030021728515625,-8.473282442748092,31.389312977099237,-6.091603053435114,0.0
13.600000619888306,-9.423577734375,0.7685387329101562,3.440467785644531,33.86259541984733,-42.25954198473283,0.42748091603053434,-11.475408557128906,1.6831237670898436,1.39821376953125,-6.33587786259542,31.938931297709924,-4.885496183206107,0.0
13.610000848770142,-9.160215551757812,0.24660277099609373,2.81558115234375,50.87022900763359,-45.70992366412214,1.8015267175572518,-9.749189160156249,1.9704279663085937,2.528276953125,1.618320610687023,28.3206106870229,-7.312977099236641,0.0
13.62000036239624,-8.750807067871094,0.4644751220703125,2.559401574707031,63.38931297709924,-46.56488549618321,3.5114503816793894,-9.435548742675781,3.095702746582031,1.8626888916015625,-1.0076335877862594,28.595419847328245,-6.809160305343512,0.0
13.630000829696655,-9.483432775878907,1.9680337646484374,3.2632968627929686,62.0763358778626,-49.69465648854962,4.656488549618321,-9.380482104492186,2.109291662597656,2.8036101440429686,-8.870229007633588,34.35114503816794,0.48854961832061067,0.0
13.640000343322754,-10.149020837402343,2.384624853515625,4.6639048339843745,56.213740458015266,-57.43511450381679,6.427480916030534,-11.054029064941405,-0.40462008056640625,3.763685009765625,5.267175572519084,22.65648854961832,4.183206106870229,0.0
13.650148630142212,-11.461043347167967,3.1004911499023438,6.8210805297851556,59.32824427480916,-72.36641221374046,12.473282442748092,-9.26316622314453,0.373495458984375,2.114080065917969,17.282442748091604,11.435114503816793,0.5343511450381679,0.0
13.660007953643799,-13.88636962890625,3.42849677734375,9.995791931152343,74.65648854961832,-85.70992366412214,23.435114503816795,-8.468291271972657,1.4891934326171874,1.448492004394531,17.862595419847327,9.893129770992367,0.8244274809160306,0.0
13.670000553131104,-14.240711474609375,5.76523759765625,6.449979272460937,69.7557251908397,-99.3587786259542,35.80152671755725,-10.675745202636719,0.3136404174804687,1.5490484741210937,16.366412213740457,14.091603053435115,4.1679389312977095,0.0
13.680000305175781,-13.168109130859374,3.2345664428710936,2.6719290527343746,32.85496183206107,-117.66412213740458,35.69465648854962,-11.398794104003905,-0.06464344482421874,1.2928688964843749,26.793893129770993,7.450381679389313,0.6259541984732825,0.0
13.690000295639038,-13.24711778564453,0.143652099609375,3.1292215698242187,9.511450381679388,-130.24427480916032,32.48854961832061,-10.857704528808593,0.6153098266601562,0.0383072265625,28.412213740458014,2.900763358778626,-6.183206106870229,0.0
13.700000286102295,-14.250288281249999,-2.2361843505859373,5.592855078125,1.7099236641221374,-142.36641221374046,32.18320610687023,-9.038111267089842,1.6519991455078125,-1.4125789794921875,20.931297709923665,1.9083969465648856,-9.923664122137405,0.0
13.710000276565552,-15.44978331298828,-2.50912333984375,8.09479581298828,16.198473282442748,-153.06870229007635,35.06870229007634,-8.01818135986328,2.887407202148437,-2.31758720703125,6.564885496183206,7.8320610687022905,-8.931297709923664,0.0
13.720000743865967,-16.191985827636717,-3.201047619628906,8.403647827148436,31.786259541984734,-165.4351145038168,40.36641221374046,-10.014945544433592,1.1611878051757811,-1.3072341064453123,-1.465648854961832,18.702290076335878,-4.061068702290076,0.0
13.730000734329224,-16.08185255126953,-3.727771984863281,5.418078356933593,43.31297709923664,-172.4732824427481,40.732824427480914,-10.884040747070312,-0.4381389038085937,-1.2114660400390624,6.9465648854961835,14.030534351145038,-5.038167938931298,0.0
13.74000072479248,-13.287819213867186,-4.915296008300781,-0.0526724365234375,43.43511450381679,-174.25954198473283,40.62595419847328,-11.089942089843749,-0.6105214233398437,0.7589619262695312,16.16793893129771,12.80916030534351,-8.0,0.0
13.750000476837158,-12.131419812011718,-4.364629626464843,-2.6671406494140624,35.099236641221374,-161.3587786259542,36.16793893129771,-11.291055029296874,-0.5291185668945312,0.040701428222656245,20.33587786259542,11.648854961832061,-9.099236641221374,0.0
13.760000467300415,-11.360486877441405,-6.880935571289062,-4.604049792480469,32.916030534351144,-150.9770992366412,33.267175572519086,-10.13226142578125,1.6927005737304686,-0.507570751953125,10.244274809160306,15.038167938931299,-8.793893129770993,0.0
13.770000457763672,-8.894459167480468,-6.957550024414062,-2.952050646972656,54.51908396946565,-128.6259541984733,29.068702290076335,-8.650250598144531,2.540247961425781,-1.0510545288085937,-4.2748091603053435,15.755725190839694,-7.114503816793893,0.0
13.780000686645508,-5.829881042480468,-7.168239770507812,-4.13718046875,67.77099236641222,-114.44274809160305,22.213740458015266,-9.617508068847656,2.0278888061523435,-0.9576806640625,-15.16030534351145,25.69465648854962,-1.5572519083969465,0.0
13.790000438690186,-6.330269189453125,-5.219359619140625,-2.9376854370117185,72.04580152671755,-89.31297709923665,9.709923664122137,-11.434707128906249,-0.36631285400390623,-0.354341845703125,-10.01526717557252,29.282442748091604,1.4198473282442747,0.0
13.800000429153442,-7.4028715332031245,-2.7844565307617186,-2.300827795410156,61.49618320610687,-76.1526717557252,-3.0076335877862594,-12.014103930664062,-2.0278888061523435,-1.1731588134765625,-0.2748091603053435,24.610687022900763,0.8549618320610687,0.0
13.8100004196167,-8.71489404296875,-0.45968671875,-1.158793603515625,50.6412213740458,-62.656488549618324,-6.961832061068702,-10.807426293945312,-1.2737152832031249,-0.8188169677734375,-3.6946564885496183,24.229007633587788,0.5801526717557252,0.0
13.820000410079956,-10.541669909667968,3.289633081054687,0.17956512451171874,39.954198473282446,-48.030534351145036,-3.099236641221374,-9.284714038085937,0.0143652099609375,-0.9888052856445312,-10.244274809160306,21.31297709923664,0.2748091603053435,0.0
13.830000638961792,-10.955866796875,5.858611462402344,0.6272808349609375,16.977099236641223,-44.47328244274809,4.137404580152672,-9.627084875488281,0.8068459594726562,-2.4013842651367185,-18.061068702290076,20.595419847328245,1.0534351145038168,0.0
13.84000039100647,-10.625466967773438,4.917690209960937,1.8219874633789062,-10.946564885496183,-44.38167938931298,9.816793893129772,-9.349357482910156,1.3862427612304686,-1.8770541015625,-22.916030534351144,19.572519083969464,2.183206106870229,0.0
13.850000858306885,-9.904812268066406,4.086902233886718,2.157175695800781,-42.74809160305343,-48.0,10.854961832061068,-8.825027319335938,1.7717092285156248,-1.4532804077148436,-33.725190839694655,23.282442748091604,4.625954198473282,0.0
13.860000610351562,-9.160215551757812,3.2345664428710936,1.0271125122070313,-74.13740458015268,-50.29007633587786,10.473282442748092,-9.179369165039063,1.139639990234375,0.1292868896484375,-43.3587786259542,27.52671755725191,7.938931297709924,0.0
13.870000839233398,-7.943961108398437,2.2194249389648437,-0.4955997436523437,-97.20610687022901,-53.038167938931295,11.725190839694656,-9.212887988281249,1.2665326782226562,-0.411802685546875,-53.603053435114504,30.076335877862597,9.908396946564885,0.0
13.880000352859497,-6.196193896484375,-0.63206923828125,-2.6815058593749996,-96.76335877862596,-43.603053435114504,16.290076335877863,-10.342951171874999,-0.2537853759765625,1.7166425903320313,-52.396946564885496,33.603053435114504,13.679389312977099,0.0
13.890050888061523,-6.169857678222656,-0.612915625,-3.303998291015625,-87.3587786259542,-26.106870229007633,17.786259541984734,-10.594342346191405,-1.177947216796875,1.209071838378906,-33.63358778625954,22.641221374045802,13.32824427480916,0.0
13.900075912475586,-6.121973645019531,-0.086191259765625,-3.0454245117187497,-82.4885496183206,-12.488549618320612,19.709923664122137,-10.184933862304687,-0.9313444458007812,1.5873557006835937,-29.51145038167939,19.389312977099237,12.290076335877863,0.0
13.910000562667847,-4.436455676269531,-2.2457611572265623,-4.094084838867187,-79.05343511450381,-1.7251908396946565,24.977099236641223,-9.830592016601562,-0.2920926025390625,0.8499415893554687,-22.641221374045802,14.274809160305344,11.755725190839694,0.0
13.920000553131104,-6.433219860839843,0.1484405029296875,-1.2808978881835937,-70.85496183206106,20.259541984732824,23.00763358778626,-9.354145886230468,0.011971008300781249,0.7565677246093749,-22.83969465648855,13.786259541984732,12.366412213740459,0.0
13.93000054359436,-4.826710546875,-0.258573779296875,-2.1404162841796874,-77.16030534351145,20.53435114503817,24.99236641221374,-9.665392102050781,0.18435352783203124,0.8355763793945312,-18.076335877862597,13.389312977099237,13.603053435114504,0.0
13.940000534057617,-5.140350964355468,-0.7062894897460937,-0.51714755859375,-72.50381679389314,33.55725190839695,25.893129770992367,-9.143456140136719,0.2154781494140625,0.5339069702148437,-16.977099236641223,12.641221374045802,13.251908396946565,0.0
13.950000524520874,-6.809109521484374,0.36631285400390623,2.308010400390625,-80.77862595419847,35.267175572519086,22.213740458015266,-9.720458740234374,-0.43574470214843747,0.9888052856445312,-10.183206106870228,14.13740458015267,13.618320610687023,0.0
13.96000051498413,-5.908889697265625,-1.7884686401367187,2.779668127441406,-71.34351145038168,41.587786259541986,21.435114503816795,-9.576806640625,-0.6296750366210937,1.1635820068359375,-5.8320610687022905,15.312977099236642,13.725190839694656,0.0
13.970000505447388,-5.738901379394531,-3.0597897216796874,3.2609026611328122,-59.221374045801525,45.87786259541985,19.96946564885496,-9.373299499511718,-0.41898529052734373,0.9552864624023437,1.1908396946564885,15.633587786259541,12.580152671755725,0.0
13.980000734329224,-4.774038110351563,-3.1196447631835937,4.6447512207031245,-55.38931297709924,47.17557251908397,16.9618320610687,-9.198522778320312,-0.1149216796875,1.0845733520507812,5.679389312977099,16.213740458015266,12.717557251908397,0.0
13.990000486373901,-7.8362220336914055,-2.4899697265625,6.007051965332031,-64.04580152671755,43.61832061068702,14.488549618320612,-9.567229833984374,0.040701428222656245,1.5562310791015623,7.7251908396946565,17.709923664122137,12.992366412213741,0.0
14.000000715255737,-5.944802722167968,-5.051765502929687,5.097255334472656,-40.88549618320611,55.221374045801525,15.068702290076336,-9.777919580078125,-0.373495458984375,1.649604943847656,10.793893129770993,18.015267175572518,13.19083969465649,0.0
14.010000944137573,-5.351040710449219,-5.157110375976562,4.185064501953125,-27.129770992366414,62.36641221374046,6.9465648854961835,-9.476250170898437,-0.01915361328125,1.5658078857421873,13.801526717557252,17.81679389312977,11.557251908396946,0.0
14.020000696182251,-5.724536169433593,-4.42448466796875,4.927267016601562,-15.648854961832061,70.6412213740458,-2.2595419847328246,-9.732429748535155,-0.6153098266601562,1.9009961181640624,17.374045801526716,18.549618320610687,11.84732824427481,0.0
14.030000686645508,-5.985504150390625,-3.883395092773437,6.186617089843749,-0.7480916030534351,75.49618320610686,-9.404580152671755,-9.581595043945311,-0.1580173095703125,1.6160861206054686,17.435114503816795,17.099236641221374,10.16793893129771,0.0
14.040000677108765,-7.206546997070312,-1.8698714965820311,8.149862451171874,20.83969465648855,79.43511450381679,-13.312977099236642,-9.251195214843749,1.0893617553710937,0.8786720092773437,11.404580152671755,16.427480916030536,8.549618320610687,0.0
14.0500009059906,-9.244012609863281,1.2641384765625,10.398017810058594,37.20610687022901,77.41984732824427,-14.80916030534351,-10.352527978515624,0.36152445068359373,1.5777788940429687,3.572519083969466,22.610687022900763,12.15267175572519,0.0
14.060000658035278,-10.66137999267578,2.4684219116210935,11.889605444335936,46.916030534351144,65.92366412213741,-12.412213740458014,-10.160991845703125,1.1133037719726562,1.3407529296874998,-5.00763358778626,23.114503816793892,11.786259541984732,0.0
14.070000648498535,-12.105083593749999,2.952050646972656,12.344503759765624,56.778625954198475,51.404580152671755,-5.526717557251908,-8.884882360839843,0.833182177734375,0.6440402465820312,-16.366412213740457,20.259541984732824,12.931297709923664,0.0
14.080000638961792,-12.04044014892578,2.588131994628906,10.144232434082031,64.73282442748092,37.847328244274806,4.076335877862595,-10.070012182617187,1.22583125,0.5913678100585937,-23.49618320610687,23.557251908396946,15.34351145038168,0.0
14.09000039100647,-11.298237634277344,2.7533319091796873,3.268085266113281,52.091603053435115,35.465648854961835,10.076335877862595,-9.574412438964844,1.3239935180664062,-0.0143652099609375,-37.038167938931295,24.99236641221374,16.564885496183205,0.0
14.100000619888306,-11.884817041015625,3.399766357421875,0.5458779785156249,5.709923664122138,25.64885496183206,8.870229007633588,-10.69968721923828,-0.33758243408203126,0.6967126831054687,-44.33587786259542,30.290076335877863,20.33587786259542,0.0
14.110000610351562,-13.103465686035156,0.679953271484375,2.360682836914062,-16.53435114503817,26.83969465648855,6.305343511450381,-11.877634436035155,-3.1196447631835937,1.0295067138671874,-33.37404580152672,28.091603053435115,20.946564885496183,0.0
14.12000060081482,-13.543998791503906,-2.6599580444335937,4.742913488769531,-11.84732824427481,27.34351145038168,2.1526717557251906,-11.757924353027343,-3.1938650146484373,1.1180921752929687,-18.717557251908396,14.82442748091603,13.877862595419847,0.0
14.130000829696655,-12.509703674316405,-3.153163586425781,5.626373901367187,-2.1374045801526718,27.557251908396946,-1.297709923664122,-10.984597216796875,-1.5849614990234373,-0.82360537109375,-16.580152671755727,8.82442748091603,8.396946564885496,0.0
14.140000343322754,-11.75313594970703,0.3902548706054687,5.844246252441406,5.32824427480916,28.229007633587788,-3.0229007633587788,-10.307038146972655,-1.3766659545898436,0.00239420166015625,-19.404580152671755,8.213740458015268,5.984732824427481,0.0
14.15000057220459,-10.98699141845703,4.8506525634765625,3.323151904296875,-4.824427480916031,18.99236641221374,-0.24427480916030533,-7.505822204589843,2.3726538452148436,-3.3590649291992185,-37.63358778625954,7.801526717557252,1.618320610687023,0.0
14.160000562667847,-11.087547888183593,6.552929943847656,2.674323254394531,-23.34351145038168,17.801526717557252,6.213740458015267,-10.886434948730468,-0.8164227661132812,0.3854664672851562,-26.519083969465647,11.603053435114504,8.793893129770993,0.0
14.170000314712524,-8.80347950439453,3.2609026611328122,-0.411802685546875,-40.25954198473283,10.473282442748092,12.396946564885496,-11.135431921386719,-0.39983167724609375,0.86191259765625,-16.442748091603054,6.641221374045801,5.251908396946565,0.0
14.180000305175781,-8.135497241210937,1.2401964599609374,-0.718260498046875,-44.2442748091603,18.015267175572518,15.145038167938932,-10.134655627441406,1.608903515625,-1.3168109130859373,-13.022900763358779,-4.534351145038168,1.1450381679389312,0.0
14.190000534057617,-8.013392956542969,0.6847416748046875,-1.0821791503906248,-50.76335877862596,21.374045801526716,15.19083969465649,-11.03248125,1.637633935546875,-0.46686932373046874,-9.603053435114504,-3.0381679389312977,3.435114503816794,0.0
14.200000286102295,-6.543353137207031,-2.3439234252929686,-2.0446482177734375,-46.99236641221374,28.68702290076336,17.770992366412212,-10.9941740234375,2.0446482177734375,0.055066638183593745,-12.320610687022901,-3.3740458015267176,3.49618320610687,0.0
14.21000051498413,-7.551312036132812,-2.9759926635742184,-0.1149216796875,-31.389312977099237,46.56488549618321,13.969465648854962,-11.14022032470703,2.133233679199219,0.229843359375,-13.053435114503817,-5.480916030534351,3.2519083969465647,0.0
14.220000267028809,-8.473079675292968,-2.70065947265625,1.4101847778320311,-20.641221374045802,51.74045801526717,7.984732824427481,-10.742782849121093,2.5163059448242184,0.2346317626953125,-15.603053435114504,-8.51908396946565,1.8625954198473282,0.0
14.230000495910645,-8.602366564941406,-2.693476867675781,2.1499930908203124,-9.297709923664122,55.847328244274806,3.1908396946564888,-10.771513269042968,2.6288334228515624,0.565031591796875,-17.81679389312977,-10.977099236641221,0.32061068702290074,0.0
14.24000072479248,-9.746794958496093,-1.6400281372070311,2.4851813232421875,-3.49618320610687,54.152671755725194,-3.2977099236641223,-10.503362683105468,2.9568390502929685,0.8714894042968749,-19.72519083969466,-13.267175572519085,-0.8854961832061069,0.0
14.250000715255737,-10.886434948730468,-0.8930372192382812,3.2561142578125,-2.183206106870229,52.88549618320611,-7.145038167938932,-9.682151513671874,3.883395092773437,0.4740519287109375,-26.061068702290076,-16.48854961832061,-1.7709923664122138,0.0
14.260000705718994,-11.398794104003905,0.14604630126953125,2.8730419921875,-8.229007633587786,45.48091603053435,-9.419847328244275,-9.423577734375,4.2137949218749995,0.699106884765625,-30.702290076335878,-18.671755725190838,-0.3969465648854962,0.0
14.270000696182251,-10.817003100585938,-0.1197100830078125,2.023100402832031,-9.969465648854962,40.58015267175573,-10.122137404580153,-9.564835632324218,4.204218115234375,1.3527239379882812,-38.2442748091603,-18.259541984732824,1.4961832061068703,0.0
14.280000448226929,-11.286266625976562,0.9792284790039062,1.5873557006835937,-12.320610687022901,34.68702290076336,-10.931297709923664,-9.105148913574219,3.9935283691406247,0.584185205078125,-46.99236641221374,-18.99236641221374,2.2900763358778624,0.0
14.290000438690186,-9.447519750976562,0.181959326171875,0.5434837768554687,-13.206106870229007,28.946564885496183,-8.946564885496183,-9.323021264648437,3.1675287963867187,1.2785036865234374,-50.44274809160305,-18.47328244274809,5.312977099236641,0.0
14.300000429153442,-9.394847314453125,0.5506663818359374,0.6488286499023437,-9.419847328244275,29.083969465648856,-7.755725190839694,-9.758765966796874,1.8459294799804686,1.6017209106445311,-47.267175572519086,-20.916030534351144,6.931297709923665,0.0
14.310000658035278,-8.743624462890624,0.22505495605468748,0.19632453613281248,-4.122137404580153,28.85496183206107,-5.755725190839694,-10.979808813476561,0.4070142822265625,2.5330653564453125,-29.435114503816795,-27.572519083969464,9.587786259541986,0.0
14.320000648498535,-10.144232434082031,1.5705962890624998,1.2689268798828124,2.2900763358778624,34.01526717557252,-5.541984732824427,-10.24000050048828,1.209071838378906,1.68551796875,-27.358778625954198,-35.38931297709924,5.114503816793893,0.0
14.33009958267212,-10.144232434082031,1.6424223388671875,1.608903515625,1.2671755725190839,32.54961832061068,-4.0458015267175576,-9.457096557617186,0.7230489013671875,0.2346317626953125,-30.03053435114504,-34.29007633587786,3.3893129770992365,0.0
14.340003252029419,-8.815450512695312,1.0390835205078124,0.9840168823242187,-0.8702290076335878,26.68702290076336,-2.8702290076335877,-10.168174450683592,-0.8906430175781249,0.9983820922851562,-17.52671755725191,-39.12977099236641,1.618320610687023,0.0
14.350000858306885,-9.054870678710937,0.4860229370117187,1.7286135986328124,0.4580152671755725,27.358778625954198,-3.5572519083969465,-11.068394274902342,-2.0470424194335934,2.4851813232421875,2.8702290076335877,-40.13740458015267,-0.732824427480916,0.0
14.360000371932983,-10.479420666503906,0.031124621582031248,2.518700146484375,6.106870229007634,28.50381679389313,-4.33587786259542,-10.8409451171875,-1.3527239379882812,1.7334020019531249,23.114503816793892,-53.43511450381679,-6.809160305343512,0.0
14.370000839233398,-11.130643518066405,1.13006318359375,3.0933085449218747,10.51908396946565,27.908396946564885,-5.938931297709924,-9.0021982421875,2.0973206542968748,-1.0127473022460938,13.938931297709924,-54.48854961832061,-15.16030534351145,0.0
14.380000591278076,-11.482591162109374,2.3439234252929686,3.754108203125,5.923664122137405,25.786259541984734,-6.870229007633588,-9.351751684570312,1.3072341064453123,-1.216254443359375,4.9465648854961835,-45.61832061068702,-12.67175572519084,0.0
14.390000581741333,-9.753977563476562,0.6823474731445313,2.2936451904296873,0.6564885496183206,17.14503816793893,-5.480916030534351,-10.036493359375,0.5770026000976562,-1.3000515014648437,17.801526717557252,-45.48091603053435,-10.854961832061068,0.0
14.40000057220459,-10.867281335449219,2.0374656127929685,2.3918074584960936,0.7938931297709924,15.007633587786259,-6.015267175572519,-10.146626635742187,1.3431471313476562,-1.9512743530273435,31.053435114503817,-45.969465648854964,-14.931297709923664,0.0
14.410000562667847,-9.198522778320312,0.49320554199218747,1.8243816650390623,11.465648854961833,17.587786259541986,-3.8931297709923665,-9.433154541015625,3.1004911499023438,-2.521094348144531,23.022900763358777,-34.0,-16.198473282442748,0.0
14.420000553131104,-10.050858569335936,1.7214309936523438,2.214636535644531,3.9389312977099236,14.65648854961832,-3.1908396946564888,-9.481038574218749,3.7900212280273435,-2.530671154785156,19.374045801526716,-24.18320610687023,-14.82442748091603,0.0
14.43000054359436,-10.041281762695311,2.118868469238281,2.3127988037109373,8.061068702290076,16.290076335877863,-3.0229007633587788,-9.60793126220703,2.7940333374023436,-2.224213342285156,15.86259541984733,-17.221374045801525,-12.564885496183207,0.0
14.440000534057617,-10.436325036621094,2.1308394775390624,2.2002713256835937,-3.236641221374046,9.282442748091603,-0.9923664122137404,-10.244788903808594,1.388636962890625,-0.3136404174804687,27.66412213740458,-14.778625954198473,-11.022900763358779,0.0
14.450000524520874,-9.354145886230468,0.1484405029296875,1.3814543579101561,3.984732824427481,9.786259541984732,0.9312977099236641,-10.134655627441406,1.7022773803710936,-0.9911994873046874,39.43511450381679,-20.931297709923665,-13.34351145038168,0.0
14.46000051498413,-8.951920007324219,-0.062249243164062495,1.0031704956054688,9.541984732824428,13.145038167938932,1.1755725190839694,-9.014169250488282,3.2704794677734372,-0.39743747558593745,34.54961832061068,-18.366412213740457,-15.358778625954198,0.0
14.470000267028809,-9.34696328125,0.7398083129882812,1.4173673828125,6.030534351145038,15.053435114503817,-1.0229007633587786,-9.770736975097655,2.8012159423828122,1.6543933471679686,24.53435114503817,-11.19083969465649,-12.198473282442748,0.0
14.480000734329224,-9.392453112792968,1.1659762084960936,1.5634136840820312,0.16793893129770993,15.450381679389313,-2.3053435114503817,-9.37808790283203,4.2497079467773435,0.1388636962890625,14.625954198473282,-12.50381679389313,-10.381679389312977,0.0
14.490000486373901,-9.718064538574218,1.5418658691406248,1.7741034301757812,-6.442748091603053,14.458015267175572,-2.732824427480916,-10.081983190917969,3.0334535034179684,1.8315642700195311,8.687022900763358,-5.908396946564886,-4.259541984732825,0.0
14.500000715255737,-9.488221179199218,1.1635820068359375,1.7262193969726563,-10.65648854961832,13.48091603053435,-1.8931297709923665,-7.802703210449218,4.69263525390625,0.2920926025390625,-1.3129770992366412,-8.793893129770993,-4.778625954198473,0.0
14.510000705718994,-9.907206469726562,1.1013327636718748,1.6065093139648436,-14.259541984732824,12.534351145038167,-0.7480916030534351,-10.77630167236328,2.518700146484375,1.7310078002929687,5.7251908396946565,-7.66412213740458,1.6641221374045803,0.0
14.520000457763672,-9.945513696289062,0.7398083129882812,1.3814543579101561,-12.610687022900763,12.16793893129771,-0.7938931297709924,-10.982203015136719,0.7829039428710937,2.85388837890625,11.389312977099237,-10.870229007633588,2.2748091603053435,0.0
14.530000686645508,-9.68454571533203,-0.16519991455078123,1.149216796875,-9.221374045801527,12.732824427480915,-1.0534351145038168,-11.731588134765625,0.3758896606445312,3.404554760742187,23.221374045801525,-23.69465648854962,1.2061068702290076,0.0
14.540000677108765,-9.564835632324218,-0.39264907226562495,1.0486603271484374,-4.687022900763359,12.625954198473282,-2.519083969465649,-9.885658654785155,2.152387292480469,2.0063409912109376,21.72519083969466,-32.916030534351144,-1.7404580152671756,0.0
14.550000667572021,-9.476250170898437,0.5291185668945312,1.22583125,-4.015267175572519,13.969465648854962,-3.6793893129770994,-8.437166650390624,4.151545678710937,1.2737152832031249,6.320610687022901,-31.236641221374047,-1.4198473282442747,0.0
14.560000896453857,-9.749189160156249,1.5610194824218748,1.7597382202148437,-11.389312977099237,12.793893129770993,-5.022900763358779,-10.04846436767578,2.844311572265625,1.7836802368164062,-9.49618320610687,-24.732824427480917,3.5114503816793894,0.0
14.570000648498535,-9.976638317871092,1.7956512451171873,1.8722656982421875,-15.068702290076336,10.977099236641221,-4.5038167938931295,-11.226411584472656,1.3144167114257812,2.887407202148437,-7.938931297709924,-25.46564885496183,4.0458015267175576,0.0
14.580000638961792,-9.900023864746093,1.4173673828125,1.5035586425781249,-13.923664122137405,9.557251908396946,-2.0610687022900764,-9.466673364257812,1.7190367919921874,1.4963760375976562,-6.305343511450381,-32.99236641221374,-0.6870229007633588,0.0
14.590001106262207,-9.751583361816406,1.1324573852539062,1.1659762084960936,-12.244274809160306,9.83206106870229,-0.6259541984732825,-9.054870678710937,1.5705962890624998,1.4030021728515625,-14.580152671755725,-28.916030534351144,-1.5572519083969465,0.0
14.600000381469727,-9.619902270507811,1.3096283081054687,1.3120225097656248,-13.404580152671755,10.427480916030534,0.061068702290076333,-7.867346655273437,3.0310593017578125,2.085349645996094,-27.69465648854962,-22.793893129770993,-3.068702290076336,0.0
14.610000848770142,-9.696516723632811,1.8555062866210936,1.3287819213867187,-19.893129770992367,9.587786259541986,0.2595419847328244,-8.437166650390624,2.0925322509765625,1.1061211669921875,-44.656488549618324,-11.938931297709924,-1.0229007633587786,0.0
14.62000060081482,-9.94072529296875,1.5538368774414062,1.1659762084960936,-24.82442748091603,7.679389312977099,0.6564885496183206,-9.227253198242186,1.1109095703125,1.388636962890625,-43.32824427480916,-11.755725190839694,-1.282442748091603,0.0
14.630000591278076,-9.861716638183593,0.7015010864257812,0.9433154541015625,-24.213740458015266,6.33587786259542,0.8244274809160306,-10.364498986816406,-1.0271125122070313,3.0119056884765625,-37.17557251908397,-8.366412213740459,-2.3969465648854964,0.0
14.640000581741333,-9.555258825683593,-0.46686932373046874,0.8307879760742187,-19.297709923664122,6.580152671755725,0.3511450381679389,-10.785878479003905,-2.365471240234375,3.622427111816406,-16.412213740458014,-17.908396946564885,-5.3893129770992365,0.0
14.65000057220459,-9.543287817382812,-0.7757213378906249,0.6081272216796875,-12.534351145038167,7.938931297709924,-1.1908396946564885,-11.080365283203124,-2.935291235351562,4.060566015625,0.16793893129770993,-26.870229007633586,-9.34351145038168,0.0
14.660000562667847,-9.437942944335937,-0.6200982299804687,0.584185205078125,-7.358778625954199,10.381679389312977,-3.2061068702290076,-10.287884533691406,-1.944091748046875,2.779668127441406,10.748091603053435,-38.33587786259542,-14.580152671755725,0.0
14.670000553131104,-9.430760339355468,0.076614453125,0.7517793212890624,-6.8396946564885495,12.65648854961832,-5.129770992366412,-8.571241943359375,1.0342951171875,1.3192051147460937,6.198473282442748,-38.961832061068705,-18.12213740458015,0.0
14.68000054359436,-9.617508068847656,0.928950244140625,1.0223241088867188,-12.198473282442748,13.17557251908397,-5.709923664122138,-9.337386474609374,0.6057330200195312,2.365471240234375,-2.50381679389313,-27.87786259541985,-15.603053435114504,0.0
14.690000295639038,-9.6151138671875,0.6871358764648438,1.209071838378906,-18.27480916030534,12.793893129770993,-5.8320610687022905,-10.031704956054687,0.08140285644531249,2.3247698120117186,3.6946564885496183,-33.221374045801525,-17.51145038167939,0.0
14.700000524520874,-8.798691101074219,-1.2569558715820313,0.181959326171875,-11.786259541984732,13.709923664122137,-4.885496183206107,-10.01015714111328,0.7589619262695312,2.7533319091796873,3.2519083969465647,-29.099236641221374,-19.96946564885496,0.0
14.71000051498413,-9.227253198242186,-1.4221557861328125,0.6967126831054687,-1.7709923664122138,20.137404580152673,-7.557251908396947,-7.9655089233398435,1.5658078857421873,1.3766659545898436,-2.2748091603053435,-31.053435114503817,-22.106870229007633,0.0
14.720000267028809,-8.56166513671875,-1.3838485595703125,0.229843359375,3.6946564885496183,20.549618320610687,-10.870229007633588,-9.09796630859375,1.0558429321289062,2.9927520751953125,-10.13740458015267,-18.48854961832061,-19.64885496183206,0.0
14.730000734329224,-9.6151138671875,-1.1707646118164061,1.350329736328125,8.82442748091603,25.938931297709924,-14.702290076335878,-9.265560424804686,-0.34237083740234375,2.9640216552734375,-9.694656488549619,-20.259541984732824,-18.458015267175572,0.0
14.74000072479248,-8.985438830566405,-2.0302830078125,0.6631938598632812,16.18320610687023,26.091603053435115,-16.33587786259542,-10.251971508789062,-0.8307879760742187,3.878606689453125,1.3129770992366412,-21.34351145038168,-19.633587786259543,0.0
14.750000476837158,-9.433154541015625,-0.33758243408203126,1.2976572998046874,25.572519083969464,29.87786259541985,-19.328244274809162,-7.611167077636718,1.0773907470703123,1.6519991455078125,4.030534351145038,-26.30534351145038,-22.732824427480917,0.0
14.760000705718994,-9.241618408203124,-0.3495534423828125,1.216254443359375,21.221374045801525,28.137404580152673,-19.862595419847327,-7.8338278320312495,1.7693150268554687,1.5849614990234373,-1.984732824427481,-17.389312977099237,-20.015267175572518,0.0
14.770000696182251,-9.545682019042967,0.8044517578125,1.6519991455078125,21.206106870229007,29.480916030534353,-19.96946564885496,-8.192958081054687,0.8212111694335937,1.5777788940429687,-7.679389312977099,-13.19083969465649,-16.82442748091603,0.0
