timestamp,Thigh_L_Acc_X,Thigh_L_Acc_Y,Thigh_L_Acc_Z,Thigh_L_Gyr_X,Thigh_L_Gyr_Y,Thigh_L_Gyr_Z,Thigh_R_Acc_X,Thigh_R_Acc_Y,Thigh_R_Acc_Z,Thigh_R_Gyr_X,Thigh_R_Gyr_Y,Thigh_R_Gyr_Z,gpio_output
10.000000238418579,10.041281762695311,-13.213598962402344,1.85790048828125,121.5114503816794,71.58778625954199,21.480916030534353,-10.13226142578125,0.5674257934570313,1.6041151123046875,40.56488549618321,11.648854961832061,7.7251908396946565,0.0
10.010000944137573,1.9536685546875,-3.071760729980469,5.702988354492187,194.33587786259542,133.17557251908397,10.946564885496183,-9.634267480468749,0.3495534423828125,0.04548983154296875,39.14503816793893,9.770992366412214,2.885496183206107,1.0
10.020000696182251,13.615824841308592,-14.420276599121093,3.4739866088867184,255.87786259541986,135.93893129770993,9.98473282442748,-5.626373901367187,1.407790576171875,1.70467158203125,20.68702290076336,24.793893129770993,-1.5572519083969465,1.0
10.030000925064087,-1.3144167114257812,0.1771709228515625,4.074931225585937,333.3893129770992,212.61068702290078,-11.114503816793894,-9.356540087890625,-2.3343466186523436,1.5634136840820312,15.267175572519085,29.61832061068702,5.374045801526718,1.0
10.040000677108765,-4.2497079467773435,2.901772412109375,2.518700146484375,285.7709923664122,185.32824427480915,-27.114503816793892,-6.035782385253906,4.620809204101562,-1.5729904907226562,-7.32824427480916,27.053435114503817,-6.290076335877862,1.0
10.0500009059906,-11.604695446777344,14.166491223144531,4.4196962646484375,256.4580152671756,211.61832061068702,-28.091603053435115,-5.370194323730469,6.325480786132812,1.6639701538085936,-105.54198473282443,58.19847328244275,4.809160305343512,1.0
10.0600004196167,-15.600618017578125,25.28995213623047,5.023035083007812,89.2824427480916,177.25190839694656,-34.458015267175576,-5.736507177734374,8.588001354980468,-4.651933825683593,-162.61068702290078,62.33587786259542,5.877862595419847,1.0
10.070000648498535,-9.220070593261719,15.327679028320311,3.881000891113281,-49.786259541984734,130.1679389312977,-30.442748091603054,-12.631807958984375,4.915296008300781,1.0199299072265624,-204.5801526717557,90.47328244274809,28.549618320610687,1.0
10.080000638961792,-8.463502868652343,16.270994482421873,9.643844287109374,-118.82442748091603,94.62595419847328,-34.396946564885496,-15.69878028564453,-0.5530605834960938,1.7453730102539062,-200.45801526717557,90.06106870229007,45.70992366412214,1.0
10.09000039100647,-8.504204296874999,4.627991809082031,9.449913952636718,-200.12213740458014,10.977099236641221,-24.076335877862597,-19.029114794921874,-5.008669873046875,5.533000036621093,-112.82442748091603,67.8473282442748,54.13740458015267,1.0
10.100000619888306,-12.559981909179687,-3.909731311035156,15.29655440673828,-67.5114503816794,23.572519083969464,16.47328244274809,-16.08903515625,-4.841075756835937,0.565031591796875,-102.10687022900764,44.19847328244275,44.38167938931298,1.0
10.110000610351562,-15.746664318847655,2.6408044311523438,18.09298194580078,-6.809160305343512,12.564885496183207,49.55725190839695,-17.255011364746093,-5.353434912109375,2.2577321655273437,-68.93129770992367,35.55725190839695,31.87786259541985,1.0
10.12000060081482,-17.432182287597655,7.388506323242187,13.74511173095703,-25.16030534351145,13.86259541984733,53.038167938931295,-17.049110021972655,-2.2074539306640624,0.8355763793945312,-42.656488549618324,17.251908396946565,19.19083969465649,1.0
10.130000591278076,-14.03241593017578,2.7557261108398436,7.0652890991210935,-72.94656488549619,-8.977099236641221,36.36641221374046,-15.83285557861328,-0.43574470214843747,2.549824768066406,-30.717557251908396,8.396946564885496,15.17557251908397,1.0
10.140000343322754,-15.014038610839842,4.359841223144531,1.24498486328125,-90.19847328244275,-1.465648854961832,24.702290076335878,-14.31972012939453,0.35194764404296874,1.7238251953125,-11.34351145038168,-1.6030534351145038,19.480916030534353,1.0
10.15000057220459,-7.498639599609374,-6.505045910644531,-0.430956298828125,-108.4885496183206,5.00763358778626,19.282442748091604,-13.290213415527344,0.32082302246093747,2.4684219116210935,-0.48854961832061067,-9.17557251908397,22.137404580152673,1.0
10.160001039505005,-15.571887597656248,7.584830859375,4.285620971679688,-105.86259541984732,36.42748091603053,-9.129770992366412,-13.941436267089843,0.05985504150390625,3.066972326660156,4.244274809160306,-11.694656488549619,20.99236641221374,1.0
10.170000553131104,-10.805032092285156,5.966350537109375,3.1962592163085937,-182.59541984732823,-9.389312977099237,-17.954198473282442,-13.989320300292968,1.3575123413085937,1.9536685546875,1.7251908396946565,-23.068702290076335,18.732824427480917,1.0
10.18000078201294,-17.554286572265624,8.027758166503906,4.853046765136718,-177.7709923664122,5.038167938931298,-6.076335877862595,-14.006079711914062,1.9871873779296874,0.6607996582031249,-8.50381679389313,-23.480916030534353,19.358778625954198,1.0
10.190000534057617,-11.79862578125,-1.7549498168945312,2.817975354003906,-195.70992366412213,-22.33587786259542,6.931297709923665,-15.181632727050781,2.2864625854492187,1.4101847778320311,-12.076335877862595,-15.923664122137405,18.396946564885496,1.0
10.200000524520874,-13.795389965820311,-1.6232687255859375,1.8100164550781248,-167.4351145038168,-5.541984732824427,6.931297709923665,-11.219228979492186,4.759672900390624,-3.6152445068359373,-20.580152671755727,-28.85496183206107,12.748091603053435,1.0
10.21000051498413,-10.467449658203124,-5.386953735351562,-0.8786720092773437,-150.93129770992365,-4.061068702290076,8.305343511450381,-13.316549633789062,3.8857892944335934,1.5155296508789062,-41.404580152671755,-2.763358778625954,15.557251908396946,0.0
10.220000505447388,-10.55364091796875,-7.371746911621093,4.201823913574218,-81.90839694656489,47.038167938931295,1.9236641221374047,-7.920019091796875,7.738059765625,-6.983886242675781,-55.17557251908397,-14.01526717557252,13.236641221374045,0.0
10.230000495910645,-8.10197841796875,-9.617508068847656,1.3455413330078123,-42.595419847328245,49.63358778625954,-4.534351145038168,-9.883264453125,6.136338854980468,-0.4333505004882812,-94.4885496183206,19.34351145038168,15.282442748091603,0.0
10.240000486373901,-6.497863305664062,-8.238447912597655,-0.38307226562499996,24.763358778625953,85.14503816793894,-15.358778625954198,-9.528922607421874,1.39821376953125,-0.8259995727539062,-70.54961832061069,11.618320610687023,23.129770992366414,0.0
10.250000476837158,-8.75320126953125,-4.106055847167968,-1.8315642700195311,63.12977099236641,101.05343511450381,-29.84732824427481,-11.247959399414063,-1.3311761230468748,2.839523168945312,-50.534351145038165,19.801526717557252,23.16030534351145,0.0
10.260000705718994,-8.916006982421875,-0.7781155395507812,-1.5107412475585937,94.76335877862596,120.30534351145039,-38.42748091603053,-6.438008264160156,0.9911994873046874,-1.6041151123046875,-55.541984732824424,9.572519083969466,13.725190839694656,0.0
10.270000457763672,-10.421959826660157,2.8730419921875,-0.7685387329101562,99.20610687022901,126.8854961832061,-42.18320610687023,-10.89122335205078,-4.225765930175781,2.6862942626953124,-42.50381679389313,18.595419847328245,13.374045801526718,0.0
10.280000686645508,-10.254365710449218,4.656722229003906,0.35673604736328124,92.0,129.72519083969465,-42.97709923664122,-2.8562825805664063,6.294356164550781,-8.29351455078125,-51.98473282442748,-6.0458015267175576,-3.5877862595419847,0.0
10.290000915527344,-12.014103930664062,7.886500268554687,1.6615759521484375,62.412213740458014,120.38167938931298,-38.68702290076336,-11.286266625976562,-1.8411410766601561,0.354341845703125,-97.5114503816794,41.969465648854964,-3.145038167938931,0.0
10.300000667572021,-11.279084020996093,6.110002636718749,2.0925322509765625,43.908396946564885,114.27480916030534,-31.480916030534353,-5.293579870605469,4.170699291992188,-4.771643908691406,-74.6412213740458,20.244274809160306,-9.923664122137405,0.0
10.310000658035278,-11.403582507324218,5.0182466796875,2.6001030029296874,21.206106870229007,106.42748091603053,-25.96946564885496,-7.7763669921875,0.32082302246093747,-0.3806780639648437,-81.32824427480917,45.41984732824427,-7.3893129770992365,0.0
10.320000648498535,-10.192116467285155,-0.21787235107421873,3.1962592163085937,16.244274809160306,98.6412213740458,-21.923664122137403,-9.897629663085937,0.3064578125,-6.311115576171875,1.4198473282442747,19.19083969465649,-1.8015267175572518,0.0
10.330000638961792,-10.249577307128906,-1.7812860351562498,3.737348791503906,24.229007633587788,95.09923664122137,-25.450381679389313,-8.70771143798828,1.867477294921875,-3.0430303100585934,20.259541984732824,33.7557251908397,-4.061068702290076,0.0
10.34000039100647,-8.872911352539061,-3.265691064453125,3.6942531616210936,33.282442748091604,89.2824427480916,-30.85496183206107,-4.917690209960937,9.344569079589844,-7.359775903320312,41.00763358778626,12.458015267175572,-7.511450381679389,0.0
10.350000381469727,-8.856151940917968,-1.5753846923828123,4.2305543334960936,44.16793893129771,85.74045801526718,-40.35114503816794,-8.398859423828124,7.333439685058593,-4.627991809082031,18.259541984732824,40.0,1.3587786259541985,0.0
10.360000371932983,-8.13310303955078,-0.7398083129882812,4.211400720214844,48.33587786259542,81.41984732824427,-47.52671755725191,-7.630320690917968,5.250484240722656,-1.4915876342773438,11.648854961832061,51.80152671755725,10.51908396946565,0.0
10.37000036239624,-9.548076220703125,0.24181436767578124,4.458003491210937,50.961832061068705,78.76335877862596,-54.2442748091603,-7.48906279296875,1.9321207397460936,-1.120486376953125,45.83206106870229,41.57251908396947,21.541984732824428,0.0
10.380000591278076,-9.41639512939453,0.9409212524414062,3.8857892944335934,53.465648854961835,72.29007633587786,-56.778625954198475,-6.461950280761719,1.5538368774414062,0.16280571289062498,60.68702290076336,33.87786259541985,22.061068702290076,0.0
10.390000343322754,-7.5153990112304685,0.5602431884765625,2.3535002319335936,60.76335877862596,69.74045801526718,-54.0,-4.082113830566406,6.236895324707031,-2.3965958618164063,43.7557251908397,25.267175572519083,14.687022900763358,0.0
10.400000810623169,-9.145850341796875,4.04141240234375,3.77326181640625,59.17557251908397,73.72519083969466,-56.01526717557252,-6.9144543945312495,-1.6472107421875,3.9743747558593747,38.152671755725194,40.0,21.64885496183206,0.0
10.410000324249268,-8.614337573242187,3.7301661865234372,3.4668040039062498,47.343511450381676,63.37404580152672,-50.88549618320611,-5.7508723876953125,3.124433166503906,0.9361328491210937,56.01526717557252,16.244274809160306,12.870229007633588,0.0
10.420000791549683,-9.167398156738281,5.106832141113281,4.278438366699218,36.900763358778626,58.29007633587786,-44.79389312977099,-6.275202551269531,3.421314172363281,-0.04548983154296875,37.465648854961835,14.80916030534351,8.977099236641221,0.0
10.43000054359436,-8.884882360839843,4.797980126953124,4.089296435546875,37.038167938931295,58.93129770992366,-36.88549618320611,-8.700528833007812,2.492363928222656,0.7422025146484375,26.82442748091603,13.83206106870229,6.0458015267175576,0.0
10.440000772476196,-9.763554370117188,5.863399865722656,3.821145849609375,15.938931297709924,50.42748091603053,-31.603053435114504,-9.3852705078125,0.6751648681640625,2.4660277099609376,20.458015267175572,10.80916030534351,2.7786259541984735,0.0
10.450000524520874,-9.198522778320312,4.091690637207031,3.1651345947265623,7.114503816793893,45.770992366412216,-23.328244274809162,-10.639832177734375,-2.0159177978515626,1.8650830932617186,26.0,-1.6946564885496183,-0.3511450381679389,0.0
10.46000051498413,-9.852139831542969,2.73896669921875,2.942473840332031,-1.4198473282442747,44.50381679389313,-21.450381679389313,-15.176844323730467,-9.452308154296874,10.244788903808594,66.3969465648855,-21.450381679389313,-9.83206106870229,0.0
10.470000505447388,-8.80347950439453,0.8307879760742187,2.1499930908203124,0.13740458015267176,43.86259541984733,-22.061068702290076,-9.686939916992188,-2.061407629394531,0.5506663818359374,96.61068702290076,-55.221374045801525,-16.0,0.0
10.480000495910645,-9.957484704589843,2.5474305664062498,2.4301146850585935,-11.251908396946565,45.725190839694655,-23.893129770992367,-11.066000073242186,-3.7421371948242186,3.3877953491210935,74.82442748091603,-56.717557251908396,-24.015267175572518,0.0
10.490000486373901,-9.028534460449219,2.6767174560546874,2.6431986328124997,-23.83206106870229,45.37404580152672,-24.85496183206107,-8.0828248046875,0.6392518432617187,2.1164742675781247,62.50381679389313,-75.87786259541984,-37.80152671755725,0.0
10.500000476837158,-10.491391674804687,4.6639048339843745,3.4811692138671875,-47.16030534351145,45.14503816793893,-25.053435114503817,-11.384428894042967,1.0103531005859374,-1.1875240234375,41.37404580152672,-73.8473282442748,-42.396946564885496,0.0
10.510000944137573,-10.869675537109375,4.335899206542969,3.584119885253906,-67.96946564885496,38.70229007633588,-21.297709923664122,-11.269507214355468,0.9600748657226562,1.1276689819335937,41.404580152671755,-88.07633587786259,-49.11450381679389,0.0
10.520000457763672,-11.257536206054686,3.689464758300781,3.5697546752929687,-89.78625954198473,30.946564885496183,-15.450381679389313,-15.818490368652343,-5.238513232421875,5.80354482421875,37.49618320610687,-74.16793893129771,-51.98473282442748,0.0
10.530000925064087,-10.302249743652343,0.2825157958984375,3.1962592163085937,-90.80916030534351,29.0381679389313,-11.099236641221374,-13.388375683593749,-2.540247961425781,3.7612908081054686,75.64885496183206,-110.18320610687023,-61.221374045801525,0.0
10.540000677108765,-10.570400329589843,0.8188169677734375,3.2920272827148436,-82.53435114503817,31.282442748091604,-12.82442748091603,-13.225569970703123,-2.051830822753906,3.1842882080078123,72.35114503816794,-107.72519083969466,-64.73282442748092,0.0
10.5500009059906,-10.283096130371094,0.13168109130859373,3.574543078613281,-84.91603053435115,26.885496183206108,-13.770992366412214,-11.240776794433593,2.7341782958984373,0.011971008300781249,62.44274809160305,-109.81679389312977,-66.82442748091603,0.0
10.560000658035278,-11.286266625976562,1.3862427612304686,4.185064501953125,-84.82442748091603,23.908396946564885,-13.84732824427481,-11.405976708984374,1.2593500732421874,2.1619640991210938,47.70992366412214,-91.96946564885496,-59.099236641221374,0.0
10.570000410079956,-10.66856259765625,0.19393033447265623,4.031835595703125,-84.53435114503817,16.061068702290076,-11.526717557251908,-7.920019091796875,3.2632968627929686,-2.4157494750976563,44.12213740458015,-96.25954198473282,-58.732824427480914,0.0
10.580000400543213,-9.452308154296874,-0.507570751953125,2.91134921875,-72.58015267175573,10.15267175572519,-7.450381679389313,-8.166621862792969,2.6791116577148437,-3.019088293457031,37.52671755725191,-81.02290076335878,-47.83206106870229,0.0
10.59000039100647,-9.53131680908203,-0.967257470703125,3.383006945800781,-60.42748091603053,10.65648854961832,-8.244274809160306,-8.525752111816406,2.2577321655273437,-2.4133552734375,43.41984732824427,-75.5114503816794,-41.908396946564885,0.0
10.600000619888306,-9.70369932861328,-0.28969840087890625,4.010287780761718,-37.23664122137404,17.022900763358777,-8.946564885496183,-7.299920861816406,1.2952630981445312,-0.5530605834960938,32.152671755725194,-50.900763358778626,-35.45038167938932,0.0
10.610000610351562,-10.079588989257813,-0.17956512451171874,4.13718046875,-34.19847328244275,14.687022900763358,-9.893129770992367,-7.256825231933593,1.446097802734375,0.49320554199218747,47.282442748091604,-57.66412213740458,-30.671755725190838,0.0
10.62000036239624,-10.295067138671874,0.033518823242187495,3.7995980346679685,-23.19083969465649,11.648854961832061,-8.15267175572519,-7.304709265136719,1.9680337646484374,-0.023942016601562498,42.76335877862596,-40.458015267175576,-26.9618320610687,0.0
10.630000591278076,-10.043675964355469,-0.10773907470703124,4.589684582519531,-22.564885496183205,9.969465648854962,-7.129770992366412,-7.151480358886718,1.5610194824218748,0.047884033203124995,40.2442748091603,-36.13740458015267,-22.717557251908396,0.0
10.640000343322754,-10.64222637939453,0.10773907470703124,5.5090580200195305,-18.549618320610687,5.297709923664122,-6.900763358778626,-9.478644372558593,-0.30885201416015623,2.176329309082031,47.51145038167939,-31.83206106870229,-19.374045801526716,0.0
10.65000057220459,-10.524910498046875,0.016759411621093748,6.593631372070312,-10.51908396946565,-0.0,-5.786259541984733,-5.315127685546875,2.616862414550781,0.1005564697265625,42.62595419847328,-34.29007633587786,-23.938931297709924,0.0
10.660000801086426,-11.197681164550781,0.45968671875,8.152256652832031,-4.854961832061068,-4.534351145038168,-3.1755725190839694,-8.303091357421874,0.40940848388671874,2.612074011230469,28.702290076335878,-19.908396946564885,-15.114503816793894,0.0
10.670000553131104,-11.77947216796875,-0.00239420166015625,10.177751257324218,1.3893129770992367,-13.511450381679388,-1.0534351145038168,-6.5601125488281244,-0.143652099609375,1.8459294799804686,32.42748091603053,-31.221374045801525,-15.572519083969466,0.0
10.68000078201294,-11.911153259277343,-0.9074024291992187,11.82975040283203,20.885496183206108,-25.358778625954198,1.6793893129770991,-5.702988354492187,1.1444283935546875,1.9680337646484374,29.96946564885496,-32.44274809160305,-17.81679389312977,0.0
10.690000295639038,-12.457031237792968,-0.37828386230468747,14.068328955078124,39.66412213740458,-38.13740458015267,3.6793893129770994,-5.999869360351562,1.3718775512695311,1.388636962890625,9.389312977099237,-27.6793893129771,-14.488549618320612,0.0
10.700000524520874,-13.113042492675781,0.8212111694335937,15.90228742675781,57.14503816793893,-57.63358778625954,5.6183206106870225,-1.9488801513671874,2.9089550170898435,-2.3391350219726563,-12.961832061068701,-24.83969465648855,-13.404580152671755,0.0
10.71000051498413,-13.306972827148437,1.9895815795898437,17.42260548095703,63.32824427480916,-90.87022900763358,10.931297709923664,-4.927267016601562,1.2282254516601563,-6.701370446777343,-15.893129770992367,-5.908396946564886,-3.7709923664122136,0.0
10.720000267028809,-16.3571857421875,3.5194764404296874,19.687520251464843,84.01526717557252,-118.50381679389314,17.022900763358777,-4.417302062988281,3.797203833007812,-10.541669909667968,3.3435114503816794,5.3893129770992365,-3.1603053435114505,0.0
10.730000495910645,-17.25022296142578,5.662286926269531,16.50562624511719,88.62595419847328,-158.54961832061068,25.954198473282442,-11.001356628417968,3.9049429077148434,-7.050923889160156,22.15267175572519,27.31297709923664,2.030534351145038,0.0
10.740000247955322,-13.350068457031249,1.4963760375976562,10.594342346191405,61.221374045801525,-200.4732824427481,29.236641221374047,-9.995791931152343,5.987898352050781,-2.214636535644531,18.702290076335878,42.961832061068705,2.763358778625954,0.0
10.750000476837158,-14.051569543457031,-1.2856862915039062,10.357316381835936,44.68702290076336,-212.83969465648855,25.81679389312977,-14.144943408203124,2.138022082519531,2.7246014892578123,18.061068702290076,34.25954198473283,10.625954198473282,0.0
10.760000705718994,-14.149731811523436,-3.816357446289062,11.511321582031249,69.26717557251908,-230.06106870229007,33.63358778625954,-12.966996191406249,0.689530078125,3.4093431640625,24.213740458015266,26.946564885496183,10.870229007633588,0.0
10.77000093460083,-12.152967626953124,-3.1651345947265623,5.054159704589844,99.54198473282443,-219.9236641221374,50.961832061068705,-12.526463085937499,3.438073583984375,1.3862427612304686,31.129770992366414,23.328244274809162,10.320610687022901,0.0
10.780000448226929,-10.031704956054687,-4.2329485351562495,-2.7581203125,65.00763358778626,-210.27480916030535,51.9236641221374,-11.552023010253906,5.717353564453124,-0.6200982299804687,23.52671755725191,27.84732824427481,16.610687022900763,0.0
10.790000915527344,-10.884040747070312,-4.5585599609375,-5.145139367675781,48.229007633587784,-194.76335877862596,43.80152671755725,-12.248735693359373,4.766855505371093,-1.8267758666992187,16.748091603053435,26.106870229007633,23.786259541984734,0.0
10.800000667572021,-8.93755479736328,-5.72693037109375,-6.983886242675781,40.656488549618324,-181.6793893129771,34.06106870229008,-10.05564697265625,4.508281726074219,-3.2513258544921873,0.33587786259541985,31.114503816793892,22.748091603053435,0.0
10.8100004196167,-10.522516296386717,-5.72693037109375,-4.6639048339843745,28.03053435114504,-158.3969465648855,17.49618320610687,-8.695740429687499,3.0238766967773434,-4.6639048339843745,-34.961832061068705,38.85496183206107,23.862595419847327,0.0
10.820000648498535,-11.322179650878905,-1.7453730102539062,-0.97683427734375,0.5954198473282443,-145.5114503816794,-6.244274809160306,-9.095572106933593,0.239420166015625,-4.309562988281249,-66.10687022900764,51.7557251908397,29.572519083969464,0.0
10.830000638961792,-12.164938635253906,0.6344634399414062,1.6328455322265625,-1.7251908396946565,-138.9618320610687,-11.312977099236642,-11.750741748046874,-2.7269956909179687,-2.760514514160156,-65.14503816793894,51.38931297709924,33.20610687022901,0.0
10.840000629425049,-11.58075343017578,1.3287819213867187,3.394977954101562,16.916030534351144,-126.87022900763358,-3.9236641221374047,-10.972626208496093,-2.2385785522460937,-1.7118541870117185,-48.213740458015266,46.06106870229008,29.328244274809162,0.0
10.850000381469727,-13.347674255371093,3.289633081054687,5.087678527832031,21.114503816793892,-118.12213740458016,3.816793893129771,-10.0748005859375,-1.39821376953125,-0.6943184814453125,-39.57251908396947,48.33587786259542,26.748091603053435,0.0
10.860000610351562,-12.351686364746094,2.798821740722656,4.070142822265625,13.877862595419847,-121.81679389312977,13.32824427480916,-10.486603271484375,-1.7956512451171873,1.189918225097656,-38.36641221374046,51.52671755725191,28.82442748091603,0.0
10.87000060081482,-12.80658468017578,2.568978381347656,3.0023288818359375,-3.66412213740458,-123.23664122137404,19.19083969465649,-11.997344519042969,-3.7014357666015623,2.980781066894531,-21.282442748091604,45.98473282442748,27.770992366412212,0.0
10.880000591278076,-11.257536206054686,1.5370774658203123,0.6607996582031249,-18.061068702290076,-127.41984732824427,26.229007633587788,-10.63025537109375,-3.4715924072265625,2.6312276245117188,-0.8549618320610687,35.969465648854964,20.045801526717558,0.0
10.890000581741333,-9.397241516113281,0.488417138671875,-0.40940848388671874,-29.572519083969464,-123.46564885496183,31.862595419847327,-10.747571252441405,-1.9967641845703124,1.1731588134765625,15.053435114503817,28.38167938931298,15.557251908396946,0.0
10.900000810623169,-7.584830859375,-0.5195417602539062,-0.9720458740234375,-33.20610687022901,-117.12977099236642,32.732824427480914,-10.326191760253906,-1.16837041015625,0.8667010009765624,16.15267175572519,31.297709923664122,14.381679389312977,0.0
10.910000562667847,-5.537788439941406,-1.4772224243164063,-1.4413093994140624,-32.48854961832061,-108.93129770992367,31.404580152671755,-9.70369932861328,-0.02633621826171875,-0.143652099609375,15.267175572519085,27.46564885496183,12.320610687022901,0.0
10.920000791549683,-3.0142998901367184,-3.0813375366210938,-2.398990063476562,-18.65648854961832,-96.50381679389314,30.15267175572519,-10.350133776855468,-0.15562310791015624,-0.28012159423828126,18.03053435114504,29.17557251908397,12.15267175572519,0.0
10.93000054359436,-1.8315642700195311,-2.205059729003906,-1.68551796875,4.885496183206107,-72.30534351145039,28.99236641221374,-9.809044201660155,-0.033518823242187495,-0.48123453369140623,22.290076335877863,29.603053435114504,11.236641221374045,0.0
10.940000772476196,-2.492363928222656,0.016759411621093748,-0.5865794067382812,16.38167938931298,-58.6412213740458,26.12213740458015,-9.880870251464843,0.19632453613281248,-0.062249243164062495,28.564885496183205,28.259541984732824,12.030534351145038,0.0
10.950000524520874,-3.134009973144531,1.6112977172851561,0.8858546142578124,19.603053435114504,-44.3206106870229,28.65648854961832,-10.249577307128906,-0.25139117431640623,0.39983167724609375,31.954198473282442,25.49618320610687,12.748091603053435,0.0
10.96000051498413,-5.5832782714843745,4.96078583984375,2.9496564453125,4.488549618320611,-35.87786259541985,29.87786259541985,-9.993397729492187,0.3399766357421875,0.28969840087890625,34.229007633587784,23.862595419847327,12.641221374045802,0.0
10.970000505447388,-1.66636435546875,2.0638018310546875,1.9297265380859374,-2.7938931297709924,-34.595419847328245,41.64885496183206,-9.066841687011719,0.9074024291992187,0.6368576416015624,29.17557251908397,20.916030534351144,11.816793893129772,0.0
10.980000257492065,-5.135562561035156,4.199429711914062,3.7301661865234372,-22.244274809160306,-26.885496183206108,40.152671755725194,-10.946289990234375,0.00718260498046875,0.928950244140625,30.549618320610687,19.66412213740458,12.061068702290076,0.0
10.990000486373901,-4.024652990722656,3.375824340820312,4.132392065429687,-38.83969465648855,-27.480916030534353,42.97709923664122,-9.763554370117188,0.5985504150390625,1.0797849487304687,23.19083969465649,13.770992366412214,9.755725190839694,0.0
11.000000476837158,-3.1938650146484373,1.8842367065429686,5.161898779296875,-45.81679389312977,-24.30534351145038,46.19847328244275,-8.793902697753905,2.4349030883789062,-0.1867477294921875,12.67175572519084,10.0,7.00763358778626,0.0
11.010000467300415,-2.3487118286132813,1.13006318359375,6.902483386230468,-38.030534351145036,-18.80916030534351,47.14503816793893,-9.751583361816406,2.4157494750976563,-0.5458779785156249,1.3282442748091603,8.198473282442748,7.770992366412214,0.0
11.020000457763672,-2.080561242675781,1.0941501586914062,8.480262280273436,-26.366412213740457,-13.541984732824428,45.725190839694655,-9.366116894531249,2.379836450195312,0.33039982910156246,-17.221374045801525,16.85496183206107,9.557251908396946,0.0
11.030000686645508,-0.9935936889648437,0.6655880615234374,8.25520732421875,-19.52671755725191,-9.679389312977099,45.80152671755725,-10.429142431640624,0.6153098266601562,2.2577321655273437,-22.33587786259542,19.297709923664122,11.938931297709924,0.0
11.040000677108765,-0.35673604736328124,0.30885201416015623,8.166621862792969,-15.755725190839694,-2.7938931297709924,43.954198473282446,-11.322179650878905,-0.6775590698242188,1.3215993164062498,-18.9618320610687,8.366412213740459,6.473282442748092,0.0
11.050000667572021,-4.005499377441406,4.5322237426757805,9.957484704589843,-28.641221374045802,5.435114503816794,36.25954198473283,-10.845733520507812,0.023942016601562498,2.3439234252929686,-26.85496183206107,9.541984732824428,1.984732824427481,0.0
11.0600004196167,11.358092675781249,-16.151284399414063,-2.7581203125,-1.3435114503816794,-7.374045801526718,54.94656488549618,-12.485761657714843,-1.2425906616210938,4.3071687866210935,-25.61832061068702,7.022900763358779,4.809160305343512,0.0
11.070000648498535,6.406883642578125,-11.710040319824218,3.5865140869140624,140.5801526717557,111.40458015267176,51.12977099236641,-12.253524096679687,-4.376600634765625,3.1364041748046874,-12.381679389312977,-7.236641221374046,-0.061068702290076333,0.0
11.080000400543213,11.2240173828125,-15.4378123046875,-1.946485949707031,175.74045801526717,119.41984732824427,28.717557251908396,-8.219294299316406,0.11731588134765625,1.0630255371093749,-10.83969465648855,-9.450381679389313,-4.2748091603053435,0.0
11.090000629425049,1.1276689819335937,-5.418078356933593,-5.140350964355468,229.12977099236642,196.18320610687022,8.229007633587786,-10.47702646484375,-0.5746083984375,3.2561142578125,-44.19847328244275,2.381679389312977,2.213740458015267,0.0
11.100000619888306,1.9704279663085937,-10.637437976074217,-9.988609326171874,199.17557251908397,190.18320610687022,-9.358778625954198,-7.9272016967773435,6.191405493164062,-1.8650830932617186,-71.38931297709924,-13.877862595419847,-4.213740458015267,0.0
11.110000371932983,-3.3255461059570313,-4.211400720214844,-12.279860314941406,247.05343511450383,267.618320610687,-30.99236641221374,-8.259995727539062,6.517016918945312,-1.0199299072265624,-140.03053435114504,13.923664122137405,9.053435114503817,0.0
11.120001077651978,-12.627019555664061,6.663063220214843,-3.976768957519531,163.3587786259542,256.7022900763359,-78.7175572519084,-15.39232247314453,1.7525556152343749,2.3965958618164063,-160.3053435114504,32.534351145038165,23.251908396946565,0.0
11.130000591278076,-20.84631385498047,4.709394665527343,17.719486486816404,130.9770992366412,205.5267175572519,-77.77099236641222,-15.066711047363281,0.6655880615234374,1.6615759521484375,-180.53435114503816,19.954198473282442,29.587786259541986,0.0
11.140000820159912,-36.44214346923828,39.22540289916992,39.22540289916992,193.6946564885496,159.17557251908397,-18.580152671755727,-17.504008337402343,-0.9648632690429687,0.373495458984375,-180.793893129771,8.610687022900763,35.63358778625954,0.0
11.150000810623169,-28.438327319335936,37.22265321044922,13.115436694335937,-35.93893129770992,95.63358778625954,47.41984732824427,-22.143971154785156,-4.6351744140625,1.5658078857421873,-140.50381679389312,-6.67175572519084,35.89312977099237,0.0
11.160000801086426,-17.779341528320312,7.283161450195312,4.604049792480469,-153.2824427480916,31.64885496183206,19.572519083969464,-21.01630217285156,-7.0844427124023435,2.231395947265625,-91.20610687022901,-22.885496183206108,22.717557251908396,0.0
11.170000314712524,-18.389862951660156,2.2002713256835937,0.6751648681640625,-222.5648854961832,-15.694656488549619,-10.793893129770993,-11.243170996093749,5.214571215820312,-6.2584431396484375,-119.2824427480916,-53.80152671755725,25.938931297709924,0.0
11.18000054359436,-16.864756494140625,2.463633508300781,-0.8379705810546875,-226.8091603053435,-2.045801526717557,1.6793893129770991,-7.510610607910156,6.60799658203125,-6.924031201171875,-128.21374045801528,18.198473282442748,8.320610687022901,0.0
11.190000534057617,-4.627991809082031,-11.015721838378905,-3.5625720703124997,-181.00763358778627,12.977099236641221,25.541984732824428,-14.456189624023436,0.7422025146484375,2.5258827514648434,-93.6793893129771,39.37404580152672,19.0381679389313,0.0
11.200000524520874,-5.137956762695312,-15.351621044921874,1.3239935180664062,-77.32824427480917,59.29770992366412,12.15267175572519,-14.49928525390625,-1.407790576171875,1.714248388671875,-62.458015267175576,30.717557251908396,19.251908396946565,0.0
11.21000051498413,-4.489128112792969,-16.488866833496093,-0.38307226562499996,-9.389312977099237,77.20610687022901,-14.106870229007633,-13.797784167480469,-0.5770026000976562,1.2330138549804688,-51.05343511450382,28.9618320610687,17.053435114503817,0.0
11.220000267028809,-11.547234606933593,-0.6200982299804687,0.9744400756835937,41.587786259541986,101.46564885496183,-43.282442748091604,-9.452308154296874,4.728548278808593,-7.8912886718749995,-47.3587786259542,1.465648854961832,10.183206106870228,0.0
11.230000495910645,-10.946289990234375,3.450044592285156,2.6910826660156246,4.778625954198473,80.04580152671755,-48.42748091603053,-11.549628808593749,2.987963671875,-1.0031704956054688,-111.63358778625954,49.770992366412216,9.541984732824428,0.0
11.240000486373901,-18.99320177001953,14.915876342773437,5.815515832519531,-22.9618320610687,86.21374045801527,-55.267175572519086,-4.180276098632812,9.076418493652342,-9.600748657226562,-89.57251908396947,-1.2671755725190839,10.50381679389313,0.0
11.250000476837158,-14.209586853027343,7.266402038574219,2.8227637573242186,-98.04580152671755,48.33587786259542,-39.51145038167939,-13.144167114257812,1.2904746948242187,1.5466542724609373,-115.08396946564885,39.57251908396947,18.15267175572519,0.0
11.260000705718994,-18.875885888671874,9.241618408203124,4.987122058105468,-100.27480916030534,55.05343511450382,-30.610687022900763,-10.371681591796875,-2.887407202148437,1.5753846923828123,-34.50381679389313,17.740458015267176,23.893129770992367,0.0
11.27000093460083,-14.413093994140624,4.917690209960937,1.707065783691406,-140.04580152671755,18.076335877862597,-13.435114503816793,-6.924031201171875,-0.181959326171875,-0.24899697265624998,-10.305343511450381,9.557251908396946,15.770992366412214,0.0
11.280000686645508,-13.338097448730467,0.9265560424804687,2.5067291381835934,-114.18320610687023,28.458015267175572,-2.3053435114503817,-6.438008264160156,-1.8746598999023436,-0.5291185668945312,17.297709923664122,0.7175572519083969,8.0,0.0
11.290000915527344,-5.334281298828125,-7.879317663574218,-1.3024457031249999,-81.06870229007633,22.931297709923665,1.7099236641221374,-4.6830584472656245,-1.484405029296875,-0.22744915771484372,32.229007633587784,1.8625954198473282,-3.053435114503817,0.0
11.300000429153442,-4.4819455078125,-8.71489404296875,-0.3950432739257812,-44.25954198473283,35.69465648854962,-10.67175572519084,-4.187458703613281,1.5801730957031248,-2.04943662109375,49.3587786259542,-8.80916030534351,-9.541984732824428,0.0
11.3100004196167,-3.3159692993164063,-8.099584216308592,-0.6344634399414062,17.954198473282442,65.58778625954199,-19.6793893129771,-5.442020373535156,3.366247534179687,-0.8834604125976562,27.129770992366414,4.106870229007634,-10.916030534351146,0.0
11.320000648498535,-5.147533569335937,-3.842693664550781,-0.6943184814453125,56.19847328244275,87.16030534351145,-30.946564885496183,-6.1626750732421876,4.84586416015625,-3.1507693847656246,15.145038167938932,8.183206106870228,-9.877862595419847,0.0
11.330000638961792,-6.342240197753906,-0.5530605834960938,0.5291185668945312,79.34351145038168,103.32824427480917,-36.88549618320611,-7.6279264892578125,4.630386010742187,-4.537012145996093,8.16793893129771,15.34351145038168,-3.4656488549618323,0.0
11.340000629425049,-6.100425830078125,0.7398083129882812,1.0295067138671874,89.19083969465649,113.87786259541984,-40.0,-7.371746911621093,8.750807067871094,-6.909665991210937,-3.5877862595419847,18.50381679389313,-1.4351145038167938,0.0
11.350000619888306,-7.843404638671874,2.5330653564453125,2.729389892578125,80.36641221374046,114.8854961832061,-45.43511450381679,-11.231199987792968,2.7533319091796873,-2.001552587890625,-1.4961832061068703,29.801526717557252,5.984732824427481,0.0
11.360000371932983,-9.919177478027343,4.165910888671875,3.536235852050781,68.30534351145039,113.23664122137404,-50.58015267175573,-9.797073193359374,1.9584569580078124,-1.5227122558593749,23.52671755725191,17.984732824427482,5.572519083969466,0.0
11.37000060081482,-10.012551342773437,4.122815258789062,3.5122938354492184,45.48091603053435,100.8854961832061,-50.88549618320611,-6.818686328125,4.50109912109375,-3.7612908081054686,27.587786259541986,5.480916030534351,0.5190839694656488,0.0
11.380000591278076,-11.291055029296874,6.186617089843749,4.546588952636719,20.15267175572519,93.87786259541984,-50.229007633587784,-7.8170684204101555,4.141968872070312,-2.626439221191406,24.0,2.8091603053435112,-1.0229007633587786,0.0
11.390000343322754,-10.89840595703125,5.9950809570312495,3.67749375,-15.511450381679388,76.35114503816794,-43.69465648854962,-7.5537062377929685,5.025429284667968,-2.1068974609374997,15.679389312977099,2.854961832061069,-1.633587786259542,0.0
11.400000810623169,-11.051634863281249,5.767631799316406,3.0741549316406247,-31.389312977099237,72.82442748091603,-36.29007633587786,-8.647856396484375,2.398990063476562,0.6919242797851562,2.2290076335877864,15.633587786259541,1.3129770992366412,0.0
11.410000562667847,-9.153032946777342,2.85388837890625,1.3910311645507811,-45.64885496183206,63.66412213740458,-28.641221374045802,-6.5218053222656245,4.149151477050781,-0.7493851196289062,2.3206106870229006,6.519083969465649,-1.9236641221374047,0.0
11.420000791549683,-9.952696301269532,2.6503812377929687,1.5682020874023437,-48.152671755725194,63.83206106870229,-25.541984732824428,-8.243236315917969,3.3446997192382812,-1.369483349609375,9.206106870229007,4.778625954198473,-0.6106870229007634,0.0
11.430000305175781,-10.474632263183594,2.4947581298828125,1.1348515869140625,-55.404580152671755,56.79389312977099,-21.14503816793893,-8.281543542480469,3.1747114013671873,-0.5530605834960938,4.030534351145038,5.755725190839694,-1.816793893129771,0.0
11.440000772476196,-10.000580334472655,0.928950244140625,1.0726023437499999,-47.17557251908397,57.6793893129771,-15.083969465648854,-9.6917283203125,3.766079211425781,-1.608903515625,3.114503816793893,4.702290076335878,0.2595419847328244,0.0
11.450000286102295,-9.41639512939453,0.11013327636718749,1.4796166259765624,-36.3206106870229,57.52671755725191,-14.106870229007633,-8.882488159179687,3.3590649291992185,-0.35194764404296874,-4.076335877862595,5.282442748091603,-0.4732824427480916,0.0
11.46000051498413,-11.204863769531249,0.48123453369140623,2.2194249389648437,-33.38931297709924,55.55725190839695,-16.916030534351144,-11.288660827636718,-3.9312791259765625,4.996698864746094,15.86259541984733,7.755725190839694,7.099236641221374,0.0
11.470000505447388,-9.751583361816406,-1.8602946899414061,1.5586252807617187,-22.82442748091603,49.57251908396947,-18.03053435114504,-10.611101757812499,-2.104503259277344,3.0430303100585934,62.19847328244275,-23.31297709923664,0.4580152671755725,0.0
11.480000495910645,-9.873687646484374,-0.7398083129882812,1.6400281372070311,-12.900763358778626,50.213740458015266,-22.35114503816794,-10.43871923828125,-0.6009446166992187,3.268085266113281,59.7557251908397,-25.541984732824428,-8.885496183206106,0.0
11.490000486373901,-8.702923034667968,-0.4525041137695312,1.455674609375,-6.427480916030534,48.396946564885496,-25.19083969465649,-7.350199096679687,3.2441432495117186,-0.4525041137695312,37.725190839694655,-33.57251908396947,-18.68702290076336,0.0
11.500000476837158,-10.611101757812499,1.6831237670898436,2.300827795410156,-12.82442748091603,45.541984732824424,-28.778625954198475,-15.205574743652344,-6.766013891601562,6.260837341308593,62.030534351145036,-36.06106870229008,-18.427480916030536,0.0
11.510000944137573,-9.854534033203125,0.9241618408203125,2.4564509033203126,-7.083969465648855,42.396946564885496,-30.076335877862597,-10.589553942871094,-2.4564509033203126,2.825157958984375,82.7175572519084,-64.44274809160305,-24.671755725190838,0.0
11.520000457763672,-10.072406384277343,2.3223756103515623,2.3032219970703123,-9.038167938931299,42.045801526717554,-27.068702290076335,-9.409212524414063,-0.5626373901367188,2.2290017456054687,63.908396946564885,-64.4885496183206,-42.656488549618324,0.0
11.530000686645508,-9.854534033203125,2.2481553588867187,1.7094599853515624,-11.801526717557252,40.50381679389313,-23.709923664122137,-12.176909643554687,0.8164227661132812,-1.4700398193359374,60.51908396946565,-74.77862595419847,-49.86259541984733,0.0
11.540000677108765,-10.527304699707031,3.758896606445312,2.403778466796875,-19.770992366412212,41.38931297709924,-20.778625954198475,-13.694833496093748,-1.9967641845703124,2.094926452636719,43.70992366412214,-60.213740458015266,-50.18320610687023,0.0
11.5500009059906,-9.988609326171874,2.7629087158203123,2.5522189697265625,-31.358778625954198,37.7557251908397,-14.870229007633588,-10.730811840820312,2.0302830078125,-1.7166425903320313,46.16793893129771,-75.87786259541984,-59.9236641221374,0.0
11.560000658035278,-11.061211669921875,2.549824768066406,2.039859814453125,-38.48854961832061,36.36641221374046,-9.114503816793894,-11.736376538085937,-0.6919242797851562,1.6519991455078125,46.54961832061068,-69.69465648854961,-56.50381679389313,0.0
11.570000648498535,-10.716446630859375,1.7621324218749999,1.8028338500976562,-42.717557251908396,36.19847328244275,-3.2213740458015265,-10.74517705078125,-0.2825157958984375,0.296881005859375,53.465648854961835,-74.42748091603053,-58.0,0.0
11.580000400543213,-10.86009873046875,1.1444283935546875,1.678335363769531,-46.29007633587786,36.44274809160305,1.5877862595419847,-8.214505895996094,0.05985504150390625,0.5434837768554687,49.23664122137404,-69.66412213740458,-57.38931297709924,0.0
11.590000629425049,-11.207257971191405,-0.06464344482421874,1.8148048583984373,-50.61068702290076,34.58015267175573,3.267175572519084,-9.09796630859375,0.8786720092773437,-0.4285620971679687,61.69465648854962,-80.06106870229007,-56.717557251908396,0.0
11.600000619888306,-11.628637463378906,-0.40940848388671874,2.482787121582031,-49.541984732824424,32.961832061068705,1.6946564885496183,-10.963049401855468,-1.3838485595703125,2.1595698974609374,55.00763358778626,-61.45038167938932,-47.86259541984733,0.0
11.610000610351562,-10.730811840820312,-2.094926452636719,2.887407202148437,-49.969465648854964,29.114503816793892,-0.6259541984732825,-6.584054565429687,3.153163586425781,-0.8978256225585937,60.68702290076336,-76.1526717557252,-52.396946564885496,0.0
11.62000036239624,-11.444283935546874,-2.2553379638671873,3.7804444213867185,-41.83206106870229,24.885496183206108,-3.053435114503817,-12.140996618652343,-0.8547299926757812,1.9823989746093749,60.3206106870229,-62.79389312977099,-39.20610687022901,0.0
11.630000591278076,-10.728417639160156,-2.365471240234375,4.589684582519531,-30.48854961832061,21.099236641221374,-6.809160305343512,-6.37815322265625,2.2601263671875,0.4333505004882812,60.19847328244275,-62.458015267175576,-41.66412213740458,0.0
11.640000820159912,-10.587159741210938,-1.7788918334960937,5.315127685546875,-15.908396946564885,14.778625954198473,-7.572519083969466,-9.995791931152343,0.13646949462890623,1.5251064575195312,64.50381679389314,-57.12977099236641,-32.93129770992366,0.0
11.65000057220459,-10.589553942871094,-0.8954314208984374,6.263231542968749,-0.6870229007633588,8.030534351145038,-9.068702290076336,-7.343016491699219,1.3359645263671873,-0.679953271484375,63.63358778625954,-50.61068702290076,-31.17557251908397,0.0
11.660000801086426,-10.589553942871094,-0.3327940307617187,6.351817004394531,11.49618320610687,1.3740458015267176,-7.923664122137405,-9.710881933593749,-0.33758243408203126,0.8259995727539062,70.74809160305344,-48.79389312977099,-26.015267175572518,0.0
11.670000553131104,-9.892841259765625,-0.19393033447265623,6.770802294921874,24.610687022900763,-5.770992366412214,-7.969465648854962,-6.268019946289062,1.209071838378906,-0.35673604736328124,67.48091603053435,-44.595419847328245,-26.53435114503817,0.0
11.68000078201294,-10.450690246582031,-0.009576806640625,6.794744311523437,33.83206106870229,-11.648854961832061,-8.274809160305344,-10.005368737792969,-1.1348515869140625,1.209071838378906,73.46564885496183,-38.48854961832061,-18.702290076335878,0.0
11.690000534057617,-9.907206469726562,0.3687070556640625,7.314286071777343,41.87786259541985,-18.427480916030536,-8.854961832061068,-5.8610056640625,2.5474305664062498,-1.1875240234375,72.41221374045801,-39.49618320610687,-23.206106870229007,0.0
11.700000286102295,-10.635043774414061,2.384624853515625,8.0062103515625,43.43511450381679,-25.52671755725191,-7.801526717557252,-8.291120349121094,1.7166425903320313,-0.40462008056640625,56.80916030534351,-24.793893129770993,-16.061068702290076,0.0
11.71000051498413,-10.594342346191405,3.071760729980469,8.264784130859374,31.954198473282442,-40.93129770992366,-5.1603053435114505,-6.873752966308594,2.2649147705078123,0.00239420166015625,55.00763358778626,-27.404580152671755,-14.106870229007633,0.0
11.720000505447388,-11.2240173828125,2.5067291381835934,9.009380847167968,33.48091603053435,-53.267175572519086,-0.183206106870229,-7.438784558105469,1.9919757812499999,0.8571241943359375,46.88549618320611,-20.091603053435115,-13.404580152671755,0.0
11.730000495910645,-12.301408129882812,3.900154504394531,10.726023437499999,29.435114503816795,-66.3206106870229,0.9923664122137404,-5.985504150390625,3.423708374023437,-0.3232172241210937,32.045801526717554,-16.03053435114504,-13.022900763358779,0.0
11.740000486373901,-11.839327209472655,2.916137622070312,12.105083593749999,28.946564885496183,-89.06870229007633,6.534351145038168,-4.766855505371093,4.8650177734375,-0.6368576416015624,9.893129770992367,-8.687022900763358,-8.793893129770993,0.0
11.750000476837158,-13.263877197265625,3.0789433349609374,14.264653491210936,37.00763358778626,-106.74809160305344,10.427480916030534,-8.48505068359375,1.6448165405273436,2.2744915771484373,-3.2977099236641223,0.8702290076335878,1.2061068702290076,0.0
11.760000705718994,-11.975796704101562,1.5682020874023437,13.374010473632811,48.10687022900763,-132.24427480916032,16.870229007633586,-5.415684155273437,1.5586252807617187,2.403778466796875,-10.961832061068701,-4.351145038167939,1.6030534351145038,0.0
11.770000457763672,-12.892775939941405,1.8076222534179687,13.721169714355469,51.16030534351145,-150.59541984732823,18.12213740458015,-6.028599780273437,-0.15083470458984374,0.7206546997070312,-16.16793893129771,-5.969465648854962,5.0534351145038165,0.0
11.780000686645508,-12.780248461914061,0.8451531860351562,12.658144177246093,30.549618320610687,-179.2824427480916,14.854961832061068,-4.168305090332031,1.7501614135742187,-3.787627026367187,-11.206106870229007,-6.091603053435114,7.694656488549619,0.0
11.790000915527344,-14.008473913574218,-0.3902548706054687,12.571952917480468,14.580152671755725,-199.61832061068702,16.35114503816794,-7.848193041992187,2.0566192260742184,-4.491522314453125,1.1297709923664123,4.458015267175573,14.641221374045802,0.0
11.800000667572021,-14.693215588378905,-2.327164013671875,12.401964599609375,20.229007633587788,-223.5114503816794,21.633587786259543,-5.228936425781249,5.214571215820312,-4.944026428222656,3.8625954198473282,15.221374045801527,8.916030534351146,0.0
11.810000658035278,-14.999673400878905,-2.499546533203125,13.946224670410155,52.2442748091603,-237.14503816793894,27.984732824427482,-9.86411083984375,2.789244934082031,-1.3766659545898436,2.763358778625954,22.35114503816794,9.969465648854962,0.0
11.820000648498535,-13.220781567382812,-1.2713210815429687,6.785167504882812,74.93129770992367,-245.4351145038168,35.98473282442748,-12.952630981445312,1.8267758666992187,2.7629087158203123,-8.076335877862595,21.69465648854962,7.068702290076335,0.0
11.830000638961792,-12.86404552001953,0.00718260498046875,-0.7972691528320313,57.86259541984733,-239.09923664122138,37.52671755725191,-13.68765089111328,1.9967641845703124,3.4572271972656248,-26.38167938931298,22.33587786259542,4.0458015267175576,0.0
11.840000629425049,-12.20085166015625,-1.2737152832031249,-4.955997436523437,59.69465648854962,-233.40458015267177,40.58015267175573,-17.717092285156248,0.258573779296875,3.42849677734375,-28.412213740458014,24.900763358778626,11.099236641221374,0.0
11.850000381469727,-11.79144317626953,-2.96881005859375,-7.788338000488281,68.82442748091603,-209.09923664122138,47.954198473282446,-14.638148950195312,3.9456443359374997,0.25139117431640623,-19.14503816793893,12.610687022900763,10.610687022900763,0.0
11.860000610351562,-11.812990991210937,-4.139574670410156,-8.623914379882812,61.404580152671755,-187.1908396946565,44.25954198473283,-13.680468286132811,3.5051112304687497,-1.0031704956054688,-27.49618320610687,14.702290076335878,19.206106870229007,0.0
11.87000060081482,-12.588712329101561,-1.9584569580078124,-5.53539423828125,31.34351145038168,-160.74809160305344,25.541984732824428,-10.089165795898436,1.8435352783203125,-3.7038299682617186,-39.41984732824427,13.908396946564885,25.64885496183206,0.0
11.880000591278076,-13.77144794921875,-2.3511060302734372,0.37828386230468747,24.03053435114504,-150.44274809160305,13.709923664122137,-10.599130749511717,-2.896984008789062,-5.396530541992187,-31.633587786259543,9.694656488549619,28.83969465648855,0.0
11.890000343322754,-14.76025323486328,-0.033518823242187495,5.817910034179687,51.404580152671755,-132.15267175572518,17.557251908396946,-7.110778930664062,-1.9847931762695312,-4.163516687011718,-36.74809160305343,21.786259541984734,25.358778625954198,0.0
11.90000033378601,-13.431471313476562,1.5658078857421873,6.785167504882812,68.09160305343511,-128.25954198473283,29.129770992366414,-7.682993127441406,-2.212242333984375,-4.036623999023437,-37.099236641221374,28.38167938931298,26.30534351145038,0.0
11.910000562667847,-14.65251416015625,5.046977099609375,5.916072302246094,64.29007633587786,-123.49618320610686,38.50381679389313,-9.349357482910156,-3.3207577026367185,-1.8626888916015625,-31.938931297709924,39.74045801526717,23.603053435114504,0.0
11.920000791549683,-13.453019128417967,6.6343328002929685,3.21780703125,34.717557251908396,-132.25954198473283,45.770992366412216,-10.16338604736328,-4.465186096191406,0.1771709228515625,-9.725190839694656,40.36641221374046,14.778625954198473,0.0
11.93000054359436,-13.366827868652344,5.810727429199218,1.3958195678710936,-4.3816793893129775,-136.93129770992365,51.23664122137404,-9.801861596679688,-2.2601263671875,1.20667763671875,12.595419847328245,33.81679389312977,7.1603053435114505,0.0
11.940000772476196,-9.710881933593749,1.668758557128906,-0.5674257934570313,-26.671755725190838,-134.83969465648855,55.80152671755725,-10.694898815917968,-1.5682020874023437,2.8730419921875,17.64885496183206,35.29770992366412,8.183206106870228,0.0
11.950000286102295,-7.493851196289062,0.22744915771484372,-1.7908628417968748,-43.38931297709924,-127.55725190839695,50.36641221374046,-9.188945971679686,1.9871873779296874,1.879448303222656,12.83969465648855,24.50381679389313,5.603053435114504,0.0
11.960000276565552,-4.048595007324218,-1.5921441040039062,-2.940079638671875,-56.76335877862596,-120.44274809160305,43.63358778625954,-9.483432775878907,2.825157958984375,1.4915876342773438,-0.24427480916030533,23.14503816793893,9.755725190839694,0.0
11.970000267028809,-1.407790576171875,-2.375048046875,-2.901772412109375,-57.19083969465649,-105.19083969465649,37.43511450381679,-10.014945544433592,2.4109610717773435,1.0965443603515623,-11.435114503816793,18.946564885496183,14.748091603053435,0.0
11.980000495910645,-2.001552587890625,-0.6847416748046875,-2.5067291381835934,-57.89312977099237,-90.85496183206106,29.81679389312977,-9.847351428222655,2.3582886352539063,0.7517793212890624,-19.267175572519083,15.709923664122137,16.35114503816794,0.0
11.990000486373901,-0.0047884033203125,-1.5370774658203123,-2.408566870117187,-42.656488549618324,-70.99236641221374,30.396946564885496,-9.4618849609375,0.6177040283203125,0.6775590698242188,-28.85496183206107,17.557251908396946,19.923664122137403,0.0
12.000000238418579,-0.5458779785156249,-0.49320554199218747,-1.5729904907226562,-31.206106870229007,-51.49618320610687,29.69465648854962,-9.753977563476562,-0.6272808349609375,0.02154781494140625,-19.740458015267176,16.946564885496183,20.3206106870229,0.0
12.010000944137573,-2.003946789550781,0.8643067993164062,0.055066638183593745,-28.778625954198475,-36.778625954198475,27.66412213740458,-9.404424121093749,-0.6296750366210937,0.25139117431640623,-9.511450381679388,16.83969465648855,20.213740458015266,0.0
12.02000093460083,-2.9185318237304685,1.7429788085937499,1.8722656982421875,-41.41984732824427,-30.48854961832061,22.85496183206107,-9.643844287109374,-0.5865794067382812,0.7326257080078125,3.2213740458015265,18.16793893129771,21.34351145038168,0.0
12.030000925064087,-2.463633508300781,0.44532150878906246,2.501940734863281,-39.69465648854962,-18.48854961832061,21.31297709923664,-9.1554271484375,0.14125789794921875,-0.22505495605468748,12.305343511450381,18.50381679389313,20.85496183206107,0.0
12.040000677108765,0.26815058593749996,-2.31758720703125,1.1923124267578125,-40.18320610687023,-18.671755725190838,20.671755725190838,-9.406818322753905,0.34237083740234375,0.4525041137695312,22.900763358778626,22.47328244274809,21.557251908396946,0.0
12.0500009059906,-2.269703173828125,0.9457096557617187,4.771643908691406,-28.85496183206107,7.740458015267175,14.687022900763358,-8.710105639648438,1.4915876342773438,-0.11013327636718749,21.908396946564885,22.931297709923665,20.27480916030534,0.0
12.0600004196167,6.718129858398437,-8.671798413085938,3.2249896362304686,-9.770992366412214,-0.9465648854961832,18.931297709923665,-9.588777648925781,0.59376201171875,1.5251064575195312,24.061068702290076,28.778625954198475,22.702290076335878,0.0
12.070000648498535,2.8012159423828122,-6.1818286865234375,6.349422802734375,68.90076335877863,50.94656488549618,17.435114503816795,-8.927977990722656,0.29927520751953124,1.0869675537109373,19.61832061068702,26.763358778625953,20.65648854961832,0.0
12.080000638961792,5.580884069824219,-8.207323291015625,5.236119030761718,122.97709923664122,66.19847328244275,13.312977099236642,-12.251129895019531,-4.455609289550781,2.360682836914062,35.6793893129771,32.18320610687023,18.48854961832061,0.0
12.09000039100647,-0.6009446166992187,-0.4525041137695312,7.091625317382812,161.61832061068702,103.66412213740458,2.8396946564885495,-10.43153663330078,-3.4931402221679684,1.4724340209960938,43.57251908396947,13.312977099236642,14.458015267175572,0.0
12.100000619888306,13.541604589843748,-11.877634436035155,0.8259995727539062,203.4198473282443,102.27480916030534,9.267175572519085,-5.717353564453124,2.863465185546875,-1.0941501586914062,7.465648854961832,22.0,0.5038167938931297,0.0
12.110000610351562,2.6815058593749996,-1.89620771484375,4.062960217285156,268.90076335877865,175.25190839694656,-0.24427480916030533,-8.137891442871092,-0.4333505004882812,0.7015010864257812,-25.16030534351145,50.396946564885496,13.114503816793894,0.0
12.12000060081482,1.4006079711914061,-0.7158662963867187,5.348646508789062,246.793893129771,164.25954198473283,-21.297709923664122,-3.0119056884765625,6.562506750488281,-3.873818286132812,-64.04580152671755,46.97709923664122,4.549618320610687,0.0
12.130000591278076,-12.143390820312499,10.685322009277343,4.062960217285156,238.12213740458014,194.36641221374046,-32.68702290076336,-6.5960255737304685,4.242525341796875,-3.938461730957031,-135.1908396946565,80.93129770992367,20.045801526717558,0.0
12.140000820159912,-17.666814050292967,17.19276212158203,3.892971899414062,108.8854961832061,161.54198473282443,-44.44274809160305,-9.758765966796874,0.5626373901367188,-0.7326257080078125,-135.96946564885496,96.58015267175573,27.129770992366414,0.0
12.15000057220459,-12.46900224609375,12.952630981445312,7.692569934082031,3.49618320610687,121.87786259541984,-41.32824427480916,-10.433930834960936,2.2840683837890623,-4.517858532714843,-141.09923664122138,74.16793893129771,33.05343511450382,0.0
12.160000801086426,-17.350779431152343,19.141642272949216,12.543222497558594,-68.18320610687023,83.7557251908397,-39.32824427480916,-15.116989282226562,-4.070142822265625,2.8993782104492185,-138.04580152671755,68.19847328244275,46.19847328244275,0.0
12.170000314712524,-14.044386938476562,-1.0941501586914062,17.176002709960937,-106.2442748091603,1.9389312977099236,-10.870229007633588,-17.757793713378906,-7.7596075805664055,1.898601916503906,-53.786259541984734,39.6793893129771,51.87786259541985,0.0
12.18000078201294,-20.554221252441405,14.314931726074217,17.72427489013672,0.5954198473282443,27.603053435114504,26.68702290076336,-16.900669519042967,-4.273649963378906,2.042254016113281,-42.51908396946565,22.900763358778626,36.10687022900763,0.0
12.190000534057617,-12.564770312499999,3.9240965209960934,5.085284326171875,-94.33587786259542,-0.5954198473282443,31.206106870229007,-17.7362458984375,-1.8100164550781248,3.1292215698242187,-34.717557251908396,16.564885496183205,7.465648854961832,0.0
12.200000286102295,-13.563152404785155,2.370259643554687,-1.5849614990234373,-112.4885496183206,-1.9389312977099236,10.412213740458014,-15.121777685546874,0.4836287353515625,-0.45010991210937495,-22.83969465648855,-3.877862595419847,-0.12213740458015267,0.0
12.21000051498413,-10.036493359375,-8.487444885253906,0.3327940307617187,-112.27480916030534,0.0916030534351145,5.465648854961832,-14.520833068847656,2.3367408203125,1.5658078857421873,-31.84732824427481,-2.0,6.595419847328245,0.0
12.220000505447388,-11.391611499023437,-2.3582886352539063,3.5529952636718747,-52.97709923664122,37.221374045801525,-3.114503816793893,-12.895170141601561,3.0047230834960934,-1.697488977050781,-32.85496183206107,-12.122137404580153,5.419847328244275,0.0
12.230000495910645,-8.580818749999999,-2.932897033691406,4.841075756835937,-32.916030534351144,48.6412213740458,-11.587786259541986,-15.246276171875,2.588131994628906,2.4253262817382812,-34.778625954198475,0.4122137404580153,13.603053435114504,0.0
12.240000486373901,-14.899116931152342,8.611943371582031,8.039729174804688,-67.74045801526718,32.54961832061068,-29.389312977099237,-12.703634008789061,6.1626750732421876,0.35673604736328124,-46.54961832061068,-4.595419847328245,13.114503816793894,0.0
12.250000476837158,-11.456254943847656,3.2609026611328122,0.679953271484375,-106.27480916030534,14.122137404580153,-21.00763358778626,-16.95094775390625,-0.27293898925781246,5.334281298828125,-51.48091603053435,5.541984732824427,21.83206106870229,0.0
12.260000467300415,-14.84883869628906,-0.46686932373046874,4.106055847167968,-97.32824427480917,40.01526717557252,-22.198473282442748,-14.336479541015624,2.080561242675781,2.0638018310546875,-17.541984732824428,-21.69465648854962,24.68702290076336,0.0
12.270000457763672,-11.635820068359374,-2.849099975585937,1.4006079711914061,-104.16793893129771,29.00763358778626,-23.236641221374047,-13.670891479492187,3.438073583984375,1.1851298217773436,-38.0763358778626,-13.679389312977099,17.938931297709924,0.0
12.280000686645508,-15.1313544921875,0.39743747558593745,2.212242333984375,-86.82442748091603,47.038167938931295,-28.442748091603054,-14.348450549316405,1.8626888916015625,2.2170307373046874,-29.31297709923664,-16.717557251908396,21.282442748091604,0.0
12.290000677108765,-10.575188732910156,-3.6487633300781246,-0.15083470458984374,-71.0381679389313,45.64885496183206,-21.480916030534353,-13.80975517578125,0.948103857421875,2.059013427734375,6.0458015267175576,-34.091603053435115,21.709923664122137,0.0
12.300000667572021,-11.59990704345703,-1.218648645019531,1.599326708984375,-39.6793893129771,69.77099236641222,-25.282442748091604,-6.236895324707031,11.355698474121093,-10.32379755859375,-36.19847328244275,-43.32824427480916,6.3816793893129775,0.0
12.310000658035278,-11.006145031738281,0.8451531860351562,0.3687070556640625,-30.229007633587788,69.80152671755725,-25.129770992366414,-11.348515869140625,1.668758557128906,0.5817910034179687,-75.3587786259542,3.969465648854962,14.091603053435115,0.0
12.320000648498535,-11.018116040039061,1.6472107421875,0.02633621826171875,-16.15267175572519,76.38167938931298,-25.282442748091604,-6.928819604492187,2.157175695800781,-2.8203695556640622,-31.14503816793893,-23.297709923664122,16.610687022900763,0.0
12.330000638961792,-14.860809704589842,4.75009609375,1.1827356201171875,-10.396946564885496,87.3587786259542,-30.977099236641223,-9.698910925292969,-0.5865794067382812,-1.1755530151367186,-27.770992366412212,-10.748091603053435,15.16030534351145,0.0
12.340000629425049,-6.730100866699218,-1.3551181396484375,-0.4740519287109375,8.51908396946565,86.93129770992367,-20.9618320610687,-0.9050082275390624,6.562506750488281,-8.954314208984375,-59.20610687022901,-14.610687022900763,-0.21374045801526717,0.0
12.350000381469727,-6.119579443359375,-3.3446997192382812,0.07422025146484375,37.64885496183206,99.0381679389313,-24.931297709923665,-10.613495959472656,-4.242525341796875,2.1116858642578125,-61.06870229007634,20.564885496183205,4.076335877862595,0.0
12.360000371932983,-7.187393383789062,-2.9448680419921875,0.7206546997070312,66.03053435114504,109.22137404580153,-35.69465648854962,-8.729259252929687,-2.6288334228515624,1.458068811035156,-11.450381679389313,12.50381679389313,-4.305343511450381,0.0
12.37000060081482,-8.927977990722656,-2.1619640991210938,1.7860744384765623,88.47328244274809,114.76335877862596,-45.23664122137404,-7.649474304199218,-1.0414777221679687,-3.0238766967773434,39.00763358778626,-6.412213740458015,-9.221374045801527,0.0
12.380000591278076,-8.939948999023438,-0.13646949462890623,2.9281086303710935,98.50381679389314,115.78625954198473,-51.3587786259542,-6.110002636718749,3.19865341796875,-4.805162731933594,43.61832061068702,2.7480916030534353,-16.03053435114504,0.0
12.390000581741333,-10.187328063964843,2.5546131713867184,4.271255761718749,89.92366412213741,111.29770992366412,-55.81679389312977,-7.350199096679687,5.049371301269531,-4.510675927734375,51.57251908396947,9.709923664122137,-12.061068702290076,0.0
12.40000033378601,-9.600748657226562,3.3327287109375,4.747701892089843,77.09923664122137,105.38931297709924,-57.19083969465649,-8.226476904296874,7.326257080078125,-3.9552211425781247,50.50381679389313,12.274809160305344,-5.709923664122138,0.0
12.410000324249268,-10.204087475585936,4.786009118652344,4.860229370117187,58.595419847328245,95.63358778625954,-59.6793893129771,-5.870582470703124,7.920019091796875,-4.6447512207031245,45.6793893129771,10.748091603053435,-2.015267175572519,0.0
12.420000791549683,-10.68053360595703,6.41646044921875,4.486733911132812,40.16793893129771,88.67175572519083,-58.458015267175576,-8.09479581298828,6.433219860839843,-2.5330653564453125,37.70992366412214,26.870229007633586,6.9465648854961835,0.0
12.43000054359436,-9.830592016601562,4.809951135253906,3.172317199707031,18.458015267175572,76.67175572519083,-52.229007633587784,-8.130708837890625,4.735730883789063,-1.0175357055664063,48.58015267175573,22.99236641221374,13.664122137404581,0.0
12.440000772476196,-10.139444030761718,4.058171813964844,3.6655227416992187,14.625954198473282,79.19083969465649,-49.038167938931295,-6.256048937988281,6.45476767578125,-0.7302315063476562,40.80916030534351,23.099236641221374,15.83206106870229,0.0
12.450000286102295,-8.667010009765624,2.5043349365234375,2.636016027832031,8.687022900763358,70.03053435114504,-44.16793893129771,-6.026205578613281,3.797203833007812,-0.011971008300781249,31.87786259541985,27.541984732824428,19.6793893129771,0.0
12.46000051498413,-6.679822631835937,0.5770026000976562,1.8459294799804686,20.778625954198475,72.76335877862596,-40.47328244274809,-7.465120776367187,3.423708374023437,0.23223756103515625,42.29007633587786,21.572519083969464,21.282442748091604,0.0
12.470000505447388,-9.1554271484375,3.153163586425781,2.2840683837890623,29.51145038167939,79.08396946564885,-43.61832061068702,-10.13226142578125,3.27526787109375,-0.10773907470703124,53.908396946564885,16.946564885496183,21.740458015267176,0.0
12.480000495910645,-10.175357055664062,5.403713146972656,3.0119056884765625,18.53435114503817,75.89312977099236,-42.44274809160305,-7.034164477539062,4.951209033203125,-0.5530605834960938,37.66412213740458,9.404580152671755,18.48854961832061,0.0
12.490000486373901,-10.369287390136718,5.238513232421875,3.9049429077148434,-0.8396946564885496,69.34351145038168,-36.48854961832061,-7.6087728759765625,5.145139367675781,-0.6009446166992187,24.931297709923665,6.0,18.229007633587788,0.0
12.500000476837158,-10.963049401855468,5.781997009277344,4.9416322265625,-14.702290076335878,65.77099236641222,-32.778625954198475,-10.812214697265624,0.19153613281249998,5.595249279785156,24.015267175572518,9.053435114503817,21.419847328244273,0.0
12.510000467300415,-9.916783276367187,4.350264416503906,4.012681982421875,-25.6793893129771,55.57251908396947,-28.3206106870229,-8.805873706054687,3.900154504394531,1.697488977050781,30.27480916030534,-10.82442748091603,12.320610687022901,0.0
12.520000457763672,-8.817844714355468,3.4452561889648434,2.971204260253906,-30.9618320610687,50.42748091603053,-21.358778625954198,-4.57771357421875,7.017405065917968,-0.8834604125976562,-1.4198473282442747,-17.541984732824428,5.633587786259542,0.0
12.530000686645508,-10.05564697265625,3.337517114257812,3.0693665283203124,-40.2442748091603,47.343511450381676,-19.770992366412212,-10.419565624999999,-0.6967126831054687,4.103661645507812,-4.67175572519084,-11.038167938931299,12.244274809160306,0.0
12.540000677108765,-10.328585961914062,2.4349030883789062,2.0925322509765625,-44.091603053435115,42.82442748091603,-19.206106870229007,-10.213664282226562,-1.8626888916015625,3.191470812988281,22.625954198473284,-32.79389312977099,2.9923664122137406,0.0
12.550000667572021,-9.624690673828125,2.2361843505859373,1.9584569580078124,-45.465648854961835,42.458015267175576,-16.763358778625953,-7.141903552246093,3.0550013183593747,0.24181436767578124,5.801526717557252,-41.343511450381676,-11.374045801526718,0.0
12.560000658035278,-9.265560424804686,3.172317199707031,1.956062756347656,-55.770992366412216,43.16030534351145,-14.15267175572519,-7.843404638671874,4.034229797363281,-1.3383587280273437,-39.725190839694655,-30.931297709923665,-19.00763358778626,0.0
12.570000648498535,-10.941501586914061,2.7341782958984373,2.35589443359375,-70.25954198473282,38.732824427480914,-11.770992366412214,-16.515203051757812,-9.334992272949219,7.6231380859375,-9.068702290076336,-34.152671755725194,-22.549618320610687,0.0
12.580000638961792,-9.804255798339844,-0.08140285644531249,1.2617442749023438,-64.59541984732824,36.33587786259542,-9.038167938931299,-11.449072338867186,-6.232106921386718,5.293579870605469,41.23664122137404,-65.66412213740458,-32.900763358778626,0.0
12.590000629425049,-9.047688073730468,-0.45010991210937495,0.49799394531249996,-56.13740458015267,40.12213740458015,-7.603053435114504,-11.133037719726563,-0.4860229370117187,-1.7884686401367187,40.16793893129771,-86.12213740458016,-36.595419847328245,0.0
12.600000619888306,-10.864887133789061,1.8363526733398436,1.5490484741210937,-64.04580152671755,43.954198473282446,-9.98473282442748,-12.713210815429687,-1.5873557006835937,1.407790576171875,28.50381679389313,-82.03053435114504,-53.847328244274806,0.0
12.610000610351562,-10.034099157714843,1.0773907470703123,1.7166425903320313,-70.36641221374046,41.52671755725191,-9.709923664122137,-11.319785449218749,0.3495534423828125,0.7852981445312499,25.129770992366414,-92.19847328244275,-62.36641221374046,0.0
12.62000060081482,-10.785878479003905,1.7956512451171873,2.1164742675781247,-79.45038167938931,40.458015267175576,-7.770992366412214,-13.029245434570312,-0.8451531860351562,3.375824340820312,12.702290076335878,-82.18320610687023,-63.38931297709924,0.0
12.630000591278076,-10.077194787597655,0.7278373046875,2.166752502441406,-84.12213740458016,37.603053435114504,-4.854961832061068,-11.195286962890624,1.8435352783203125,1.1468225952148436,15.389312977099237,-93.77099236641222,-68.76335877862596,0.0
12.640000343322754,-9.969455712890625,0.7350199096679687,1.8459294799804686,-83.52671755725191,35.282442748091604,-2.122137404580153,-7.278373046874999,4.8650177734375,-1.1851298217773436,-4.793893129770993,-85.87786259541984,-70.33587786259542,0.0
12.65000057220459,-10.280701928710936,0.7781155395507812,1.956062756347656,-87.52671755725191,33.41984732824427,0.183206106870229,-10.455478649902343,2.0973206542968748,0.35673604736328124,-11.49618320610687,-73.69465648854961,-63.16030534351145,0.0
12.660000801086426,-10.862492932128905,-0.41419688720703124,1.8531120849609375,-83.29770992366412,29.6793893129771,0.183206106870229,-13.53442198486328,-2.2936451904296873,3.3446997192382812,12.16793893129771,-71.06870229007633,-57.14503816793893,0.0
12.670000553131104,-10.182539660644531,-2.1978771240234374,1.5298948608398437,-66.77862595419847,27.480916030534353,0.6106870229007634,-8.750807067871094,0.7733271362304687,0.7637503295898437,26.717557251908396,-73.95419847328245,-62.961832061068705,0.0
12.680818557739258,-9.871293444824218,-2.683900061035156,1.158793603515625,-53.02290076335878,27.221374045801525,-1.4351145038167938,-8.291120349121094,0.7900865478515624,0.5027823486328125,34.87022900763359,-73.23664122137404,-54.87022900763359,0.0
12.690000534057617,-9.947907897949218,-2.50912333984375,1.7573440185546874,-42.94656488549618,26.580152671755727,-5.145038167938932,-8.360552197265624,1.9033903198242186,-0.12689268798828124,50.94656488549618,-73.98473282442748,-50.01526717557252,0.0
12.700000524520874,-10.065223779296874,-1.4221557861328125,2.499546533203125,-33.19083969465649,25.541984732824428,-7.893129770992366,-6.861781958007812,2.013523596191406,-0.7589619262695312,42.30534351145038,-54.50381679389313,-42.2442748091603,0.0
12.71000051498413,-10.050858569335936,-0.8259995727539062,3.3494881225585935,-31.801526717557252,22.427480916030536,-9.770992366412214,-7.754819177246094,1.9201497314453124,-0.6248866333007812,47.343511450381676,-46.656488549618324,-34.18320610687023,0.0
12.720000505447388,-10.374075793457031,-0.39983167724609375,3.687070556640625,-23.00763358778626,17.46564885496183,-10.702290076335878,-8.573636145019531,-0.316034619140625,1.5322890624999999,57.69465648854962,-33.89312977099237,-25.14503816793893,0.0
12.730000495910645,-10.421959826660157,-1.0414777221679687,3.928884924316406,-11.49618320610687,12.366412213740459,-11.282442748091603,-7.697358337402343,-2.437297290039062,0.009576806640625,81.63358778625954,-50.2442748091603,-27.31297709923664,0.0
12.740000247955322,-10.412383020019531,-0.9265560424804687,3.854664672851562,9.465648854961833,9.83206106870229,-10.076335877862595,-8.698134631347656,-4.75009609375,-2.1883003173828124,-26.9618320610687,-63.3587786259542,-15.877862595419847,0.0
12.750000476837158,-10.192116467285155,-1.0199299072265624,4.855440966796874,14.778625954198473,6.33587786259542,-12.625954198473282,-9.258377819824219,0.5386953735351562,0.7158662963867187,96.29007633587786,-55.00763358778626,-21.450381679389313,0.0
12.760000705718994,-10.244788903808594,-0.19393033447265623,5.092466931152344,29.587786259541986,1.618320610687023,-15.022900763358779,-5.228936425781249,2.118868469238281,-2.042254016113281,121.19083969465649,-7.633587786259542,-23.34351145038168,0.0
12.77000093460083,-10.632649572753905,1.0797849487304687,6.299144567871093,26.748091603053435,-2.33587786259542,-16.778625954198475,-11.391611499023437,1.0271125122070313,-4.5585599609375,36.47328244274809,-1.0381679389312977,-10.83969465648855,0.0
12.780000686645508,-10.230423693847655,1.1444283935546875,6.981492041015625,30.045801526717558,-10.488549618320612,-16.793893129770993,-4.551377355957031,5.351040710449219,0.7398083129882812,44.36641221374046,-13.404580152671755,-18.27480916030534,0.0
12.790000915527344,-10.575188732910156,2.020706201171875,8.001421948242188,28.35114503816794,-20.33587786259542,-14.549618320610687,-4.220977526855468,5.128379956054687,-0.6751648681640625,21.053435114503817,-4.717557251908397,-16.427480916030536,0.0
12.800000667572021,-11.164162341308593,1.7597382202148437,9.488221179199218,31.557251908396946,-32.030534351145036,-11.923664122137405,-8.777143286132812,1.120486376953125,1.1037269653320312,11.557251908396946,3.66412213740458,-9.450381679389313,0.0
12.810000658035278,-11.259930407714844,0.9074024291992187,10.424354028320312,45.11450381679389,-45.3587786259542,-10.244274809160306,-6.655880615234374,1.3359645263671873,1.5897499023437498,2.4122137404580153,17.633587786259543,-19.34351145038168,0.0
12.820000410079956,-11.245565197753905,0.41419688720703124,11.935095275878906,59.32824427480916,-58.6412213740458,-9.633587786259541,-7.168239770507812,0.4572925170898437,1.3072341064453123,12.51908396946565,2.8702290076335877,-20.244274809160306,0.0
12.830000638961792,-12.447454431152343,1.8602946899414061,14.355633154296875,72.01526717557252,-74.9618320610687,-10.641221374045802,-6.6510922119140625,0.19632453613281248,0.6703764648437499,8.045801526717558,8.458015267175572,0.061068702290076333,0.0
12.840000629425049,-13.651737866210937,3.3351229125976563,14.599841723632812,76.13740458015268,-102.9618320610687,-5.038167938931298,-5.820304235839844,2.5139117431640625,-0.18914193115234373,6.396946564885496,5.4961832061068705,-9.099236641221374,0.0
12.850000381469727,-15.145719702148437,5.968744738769531,15.251064575195311,60.030534351145036,-130.03053435114504,1.8015267175572518,-7.848193041992187,1.0630255371093749,0.3064578125,8.412213740458014,5.9541984732824424,-2.0916030534351147,0.0
12.860000610351562,-13.371616271972655,3.0142998901367184,12.981361401367186,34.961832061068705,-168.2290076335878,10.290076335877863,-5.568913061523437,3.651157531738281,-1.199495031738281,7.450381679389313,4.961832061068702,-2.16793893129771,0.0
12.87000060081482,-13.80975517578125,1.0702081420898437,12.502521069335936,16.35114503816794,-191.0229007633588,13.435114503816793,-6.1267620483398435,4.742913488769531,-1.4437036010742186,5.236641221374046,7.877862595419847,2.687022900763359,0.0
12.880000591278076,-13.350068457031249,-0.181959326171875,12.457031237792968,11.816793893129772,-216.76335877862596,19.66412213740458,-4.328716601562499,6.311115576171875,-1.8818425048828125,-7.435114503816794,14.198473282442748,5.557251908396947,0.0
12.890000343322754,-14.851232897949219,0.2920926025390625,13.302184423828125,27.19083969465649,-231.78625954198472,27.96946564885496,-9.672574707031249,3.385401147460937,0.19871873779296872,-18.83969465648855,13.923664122137405,11.893129770992367,0.0
12.900000810623169,-13.211204760742186,-0.4285620971679687,8.997409838867187,49.38931297709924,-245.61832061068702,38.80916030534351,-11.137826123046874,3.2249896362304686,1.3048399047851562,-31.572519083969464,15.49618320610687,10.793893129770993,0.0
12.910000562667847,-13.45780753173828,0.6344634399414062,3.0741549316406247,55.603053435114504,-240.9618320610687,47.93893129770992,-15.327679028320311,0.9840168823242187,3.0885201416015624,-49.93893129770992,30.03053435114504,11.404580152671755,0.0
12.920000791549683,-12.770671655273437,-2.3367408203125,-2.118868469238281,54.10687022900763,-234.24427480916032,54.48854961832061,-18.181567407226563,-0.3902548706054687,3.057395520019531,-46.33587786259542,24.427480916030536,8.427480916030534,0.0
12.93000054359436,-12.646173168945312,-4.7764323120117185,-5.4707507934570305,75.31297709923665,-208.44274809160305,58.82442748091603,-14.580688110351561,0.7996633544921875,1.1444283935546875,-45.099236641221374,26.03053435114504,5.816793893129771,0.0
12.940000772476196,-12.713210815429687,-4.766855505371093,-8.2360537109375,71.86259541984732,-183.74045801526717,56.67175572519084,-16.117765576171873,-2.0278888061523435,-0.2442085693359375,-39.06870229007634,18.9618320610687,14.885496183206106,0.0
12.950000524520874,-13.74511173095703,-4.740519287109374,-6.375759020996093,50.06106870229008,-161.84732824427482,43.14503816793893,-9.734823950195311,0.5770026000976562,-2.9089550170898435,-38.3206106870229,9.877862595419847,13.068702290076336,0.0
12.960000276565552,-12.966996191406249,-3.1651345947265623,-4.027047192382812,25.17557251908397,-150.90076335877862,25.46564885496183,-8.05648858642578,-0.8475473876953125,-3.6535517333984373,-46.656488549618324,19.908396946564885,17.72519083969466,0.0
12.970000267028809,-13.788207360839843,-0.4070142822265625,2.6719290527343746,14.595419847328245,-137.1908396946565,15.389312977099237,-8.801085302734375,-2.3582886352539063,-3.1747114013671873,-40.06106870229008,21.87786259541985,19.328244274809162,0.0
12.980000495910645,-14.719551806640624,1.4173673828125,7.144297753906249,32.54961832061068,-130.8091603053435,22.50381679389313,-9.828197814941406,-3.380612744140625,-2.722207287597656,-26.106870229007633,27.801526717557252,20.48854961832061,0.0
12.99000072479248,-13.314155432128905,1.6328455322265625,6.552929943847656,52.458015267175576,-128.85496183206106,38.36641221374046,-8.595183959960938,-1.1252747802734375,-2.051830822753906,-13.435114503816793,32.16793893129771,17.099236641221374,0.0
13.000000238418579,-12.490550061035156,3.6104561035156246,4.144363073730468,39.83206106870229,-131.0229007633588,49.32824427480916,-12.026074938964843,-2.6408044311523438,-0.24899697265624998,4.67175572519084,35.48091603053435,17.72519083969466,0.0
13.010000944137573,-12.820949890136719,4.04141240234375,2.7940333374023436,23.297709923664122,-124.54961832061069,51.41984732824427,-10.398017810058594,-1.9584569580078124,0.5626373901367188,18.778625954198475,39.69465648854962,13.083969465648854,0.0
13.020000696182251,-11.425130322265625,3.1387983764648437,0.8738836059570312,-14.274809160305344,-137.57251908396947,51.31297709923664,-10.582371337890624,-0.12449848632812499,1.2521674682617188,32.79389312977099,39.98473282442748,13.740458015267176,0.0
13.030000925064087,-9.323021264648437,0.37828386230468747,0.316034619140625,-33.86259541984733,-131.6793893129771,52.48854961832061,-9.387664709472656,1.8267758666992187,0.6703764648437499,33.404580152671755,38.56488549618321,13.633587786259541,0.0
13.040000677108765,-6.394912634277343,-0.6919242797851562,-0.7350199096679687,-50.48854961832061,-131.45038167938932,48.47328244274809,-10.455478649902343,2.0973206542968748,0.6679822631835937,33.86259541984733,39.41984732824427,16.076335877862597,0.0
13.0500009059906,-3.0693665283203124,-2.3319524169921872,-1.8459294799804686,-54.19847328244275,-122.13740458015268,43.969465648854964,-9.6917283203125,2.4157494750976563,0.7278373046875,23.267175572519083,37.038167938931295,18.83969465648855,0.0
13.060000658035278,-2.8036101440429686,-2.7269956909179687,-1.9608511596679685,-55.05343511450382,-110.41221374045801,35.29770992366412,-11.3006318359375,0.7709329345703124,2.300827795410156,20.732824427480917,36.70229007633588,23.221374045801525,0.0
13.070000410079956,-1.3239935180664062,-2.9544448486328125,-1.2330138549804688,-42.656488549618324,-93.08396946564885,29.129770992366414,-9.528922607421874,1.4221557861328125,0.7876923461914062,10.50381679389313,31.14503816793893,21.053435114503817,0.0
13.080000638961792,-2.214636535644531,-1.5107412475585937,-0.7637503295898437,-36.458015267175576,-81.90839694656489,25.603053435114504,-11.729193933105469,-2.3630770385742186,3.208230224609375,16.458015267175572,30.18320610687023,25.96946564885496,0.0
13.090000629425049,-1.4125789794921875,-1.4101847778320311,-0.6751648681640625,-20.061068702290076,-62.213740458015266,26.442748091603054,-10.172962854003906,0.9097966308593749,1.8195932617187498,20.80916030534351,12.0,17.49618320610687,0.0
13.100000381469727,-2.1212626708984375,0.076614453125,0.277727392578125,-13.664122137404581,-47.55725190839695,25.099236641221374,-9.349357482910156,-1.1731588134765625,1.7262193969726563,18.259541984732824,16.83969465648855,15.86259541984733,0.0
13.110000610351562,-0.055066638183593745,-2.2553379638671873,-0.21068974609375,7.969465648854962,-17.00763358778626,27.541984732824428,-10.08677159423828,0.13407529296874998,1.8459294799804686,21.801526717557252,13.557251908396946,14.381679389312977,0.0
13.12000060081482,-2.710236279296875,1.0989385620117187,0.9433154541015625,-10.687022900763358,-13.572519083969466,15.251908396946565,-8.382100012207031,-0.3591302490234375,0.9816226806640624,18.900763358778626,20.610687022900763,11.572519083969466,0.0
13.130000591278076,6.172251879882812,-8.568847741699217,-0.7948749511718749,8.778625954198473,-6.412213740458015,22.519083969465647,-9.80665,-1.3431471313476562,0.258573779296875,17.52671755725191,22.519083969465647,14.961832061068701,0.0
13.140000820159912,4.5968671875,-7.532158422851562,1.838746875,50.67175572519084,34.74809160305343,18.076335877862597,-8.731653454589843,-0.9097966308593749,-0.13168109130859373,24.106870229007633,20.290076335877863,9.679389312977099,0.0
13.15000033378601,-1.8411410766601561,-1.005564697265625,6.756437084960937,65.86259541984732,55.465648854961835,1.1297709923664123,-9.181763366699219,-1.388636962890625,0.7565677246093749,27.87786259541985,26.702290076335878,7.282442748091603,0.0
13.160000801086426,-7.510610607910156,6.028599780273437,9.82580361328125,46.38167938931298,51.64885496183206,-12.748091603053435,-9.974244116210937,-0.2920926025390625,0.6560112548828124,21.801526717557252,26.244274809160306,5.190839694656488,0.0
13.170000314712524,13.230358374023437,-14.164097021484373,1.37906015625,88.90076335877863,34.56488549618321,17.297709923664122,-8.738836059570312,3.0142998901367184,-0.18914193115234373,0.8396946564885496,19.954198473282442,-0.2595419847328244,0.0
13.18000078201294,12.926294763183593,-16.845602880859374,3.038241906738281,245.38931297709922,136.18320610687022,32.80916030534351,-6.710947253417968,2.2098481323242187,-1.6543933471679686,-29.404580152671755,38.152671755725194,-0.8702290076335878,0.0
13.190000295639038,-2.748543505859375,4.283226770019531,6.148309863281249,265.31297709923666,162.65648854961833,-15.236641221374045,-10.71884083251953,-0.7422025146484375,2.47081611328125,-30.610687022900763,59.31297709923664,5.32824427480916,0.0
13.200000524520874,1.2904746948242187,3.4572271972656248,1.2425906616210938,207.9083969465649,131.54198473282443,-22.83969465648855,-6.442796667480469,6.356605407714843,-3.5410242553710933,-83.0381679389313,39.69465648854962,-3.8473282442748094,0.0
13.21000051498413,-7.48906279296875,9.200916979980468,2.4971523315429685,202.74809160305344,167.5114503816794,-20.946564885496183,-8.240842114257813,3.258508459472656,-2.243366955566406,-121.5114503816794,73.43511450381679,11.389312977099237,0.0
13.220000267028809,-11.674127294921874,15.394716674804686,3.6296097167968746,98.82442748091603,142.3969465648855,-32.916030534351144,-11.171344946289063,1.9512743530273435,-1.936909143066406,-121.41984732824427,78.6412213740458,13.34351145038168,0.0
13.230000495910645,-8.82263311767578,11.274295617675781,6.418854650878906,16.396946564885496,119.29770992366412,-30.610687022900763,-12.988544006347656,-1.446097802734375,0.7015010864257812,-133.1145038167939,66.35114503816794,21.52671755725191,0.0
13.240000486373901,-12.58392392578125,14.121001391601562,13.043610644531249,-42.732824427480914,86.77862595419847,-33.23664122137404,-17.463306909179686,-6.1626750732421876,1.9201497314453124,-106.07633587786259,51.81679389312977,20.916030534351144,0.0
13.250000476837158,-12.318167541503906,9.375693701171874,16.354791540527344,-91.83206106870229,27.053435114503817,-17.770992366412212,-15.035586425781249,-3.229778039550781,6.241683728027343,-87.43511450381679,32.29007633587786,29.083969465648856,0.0
13.260000705718994,-13.347674255371093,-2.403778466796875,14.556746093749998,-25.6793893129771,15.770992366412214,17.358778625954198,-17.17360850830078,-6.050147595214844,4.503493322753906,-40.961832061068705,10.351145038167939,20.38167938931298,0.0
13.270000457763672,-13.20881055908203,1.687912170410156,10.134655627441406,37.603053435114504,30.213740458015266,41.87786259541985,-15.782577343749999,-2.825157958984375,3.1100679565429687,-40.091603053435115,-4.0458015267175576,19.755725190839694,0.0
13.280000686645508,-12.820949890136719,7.077260107421875,5.396530541992187,-4.931297709923665,37.267175572519086,29.374045801526716,-16.086640954589843,0.34715924072265625,0.20829554443359374,-26.12213740458015,-18.106870229007633,0.6106870229007634,0.0
13.290000915527344,-13.838485595703125,4.766855505371093,-0.9097966308593749,-74.87022900763358,17.267175572519083,6.916030534351145,-15.447389111328125,-0.18435352783203124,0.507570751953125,-10.65648854961832,-22.580152671755727,8.427480916030534,0.0
13.300000667572021,-12.995726611328124,-2.6216508178710938,2.2768857788085937,-69.12977099236642,32.51908396946565,1.9389312977099236,-14.26944189453125,-0.7062894897460937,1.7190367919921874,1.4961832061068703,-25.587786259541986,13.16030534351145,0.0
13.310000658035278,-11.307814440917968,-2.3223756103515623,7.517793212890624,-46.458015267175576,49.786259541984734,-9.450381679389313,-13.658920471191406,0.10773907470703124,3.181894006347656,5.038167938931298,-25.0381679389313,15.374045801526718,0.0
13.320000648498535,-8.743624462890624,0.4860229370117187,3.071760729980469,-63.63358778625954,37.66412213740458,-20.610687022900763,-15.330073229980467,0.181959326171875,1.9608511596679685,13.526717557251908,-25.52671755725191,10.549618320610687,0.0
13.330000638961792,-8.090007409667969,0.4836287353515625,3.1411925781249996,-63.48091603053435,38.091603053435115,-26.229007633587788,-14.302960717773436,1.024718310546875,2.2170307373046874,6.091603053435114,-21.374045801526716,6.9465648854961835,0.0
13.34000039100647,-12.928688964843749,1.4532804077148436,3.5027170288085934,-80.36641221374046,34.595419847328245,-34.16793893129771,-14.669273571777342,0.8283937744140625,1.7118541870117185,2.4885496183206106,-23.801526717557252,0.6564885496183206,0.0
13.350000619888306,-11.118672509765624,-1.0989385620117187,2.5737667846679684,-77.00763358778626,39.64885496183206,-34.56488549618321,-14.130578198242187,1.3934253662109375,1.5634136840820312,0.061068702290076333,-27.709923664122137,-2.885496183206107,0.0
13.360000371932983,-14.903905334472656,3.8570588745117185,1.6328455322265625,-92.9618320610687,41.48091603053435,-43.786259541984734,-11.326968054199218,4.924872814941406,-0.3495534423828125,-10.854961832061068,-36.94656488549618,-8.427480916030534,0.0
13.37000060081482,-11.757924353027343,0.239420166015625,-0.047884033203124995,-105.8473282442748,35.87786259541985,-34.74809160305343,-12.969390393066405,3.3159692993164063,2.4109610717773435,-16.290076335877863,-26.076335877862597,-0.48854961832061067,0.0
13.380000591278076,-13.915100048828124,1.6615759521484375,1.4628572143554686,-94.01526717557252,51.38931297709924,-28.68702290076336,-9.658209497070311,6.584054565429687,-2.2481553588867187,-28.641221374045802,-36.38167938931298,-2.5801526717557253,0.0
13.390000343322754,-11.71482872314453,0.033518823242187495,0.15562310791015624,-91.96946564885496,49.587786259541986,-21.954198473282442,-10.340556970214843,4.951209033203125,0.5458779785156249,-29.114503816793892,-31.022900763358777,4.854961832061068,0.0
13.400000810623169,-10.060435375976562,-0.9959878906249999,1.0223241088867188,-55.02290076335878,73.52671755725191,-14.061068702290076,-5.444414575195312,9.442731347656249,-7.886500268554687,-60.83969465648855,-35.87786259541985,0.10687022900763359,0.0
13.410000562667847,-11.14022032470703,3.066972326660156,1.3048399047851562,-46.58015267175573,71.8473282442748,-16.82442748091603,-9.868899243164062,2.195482922363281,0.8978256225585937,-70.61068702290076,-1.1145038167938932,13.038167938931299,0.0
13.420000553131104,-11.67652149658203,4.304774584960938,2.0781670410156248,-42.48854961832061,74.68702290076335,-14.366412213740459,-7.52737001953125,3.1124621582031247,-4.587290380859375,-57.541984732824424,-16.16793893129771,9.511450381679388,0.0
13.43000054359436,-10.149020837402343,3.1268273681640624,1.5753846923828123,-47.63358778625954,66.50381679389314,-7.679389312977099,-8.305485559082031,0.9313444458007812,-0.8643067993164062,-54.656488549618324,-1.2061068702290076,9.282442748091603,0.0
13.440000772476196,-6.248866333007812,-1.8626888916015625,1.7788918334960937,-19.022900763358777,80.45801526717557,-1.251908396946565,-6.002263562011718,3.42849677734375,-3.9169139160156248,-58.961832061068705,0.061068702290076333,0.44274809160305345,0.0
13.450000524520874,-8.611943371582031,-0.6296750366210937,1.9943699829101562,-22.946564885496183,75.12977099236642,-10.13740458015267,-9.97903251953125,-1.4413093994140624,1.886630908203125,-36.396946564885496,10.641221374045802,3.4656488549618323,0.0
13.46000051498413,-5.200206005859375,-5.046977099609375,1.2138602416992186,10.793893129770993,84.82442748091603,-8.992366412213741,-3.5601778686523438,6.53138212890625,-8.403647827148436,-38.01526717557252,-16.076335877862597,-11.923664122137405,0.0
13.470000743865967,-6.974309436035155,-1.9847931762695312,2.50912333984375,28.702290076335878,93.89312977099236,-21.954198473282442,-7.7979148071289055,4.295197778320312,-4.4005426513671875,-61.61832061068702,39.083969465648856,0.7938931297709924,0.0
13.480000495910645,-5.6574985229492185,-4.062960217285156,2.0374656127929685,43.404580152671755,96.13740458015268,-30.106870229007633,-5.702988354492187,9.79946739501953,-11.487379565429686,-33.83206106870229,16.564885496183205,-0.8549618320610687,0.0
13.490000247955322,-8.458714465332031,-1.43652099609375,2.437297290039062,62.6412213740458,101.98473282442748,-42.030534351145036,-7.955932116699218,3.5290532470703124,-2.3223756103515623,-51.20610687022901,62.87022900763359,13.465648854961833,0.0
13.500000476837158,-7.359775903320312,-1.68551796875,1.89620771484375,79.32824427480917,104.85496183206106,-47.465648854961835,-0.5985504150390625,12.820949890136719,-12.301408129882812,-47.74045801526717,43.86259541984733,8.488549618320612,0.0
13.510000467300415,-8.207323291015625,1.4221557861328125,2.1619640991210938,84.01526717557252,103.61832061068702,-50.83969465648855,-7.541735229492187,5.092466931152344,-5.430049365234375,-79.70992366412214,80.62595419847328,21.87786259541985,0.0
13.520000696182251,-10.263942517089843,2.7078420776367187,3.114856359863281,83.57251908396947,98.93129770992367,-53.541984732824424,-7.649474304199218,3.1938650146484373,-3.785232824707031,-31.00763358778626,64.0,27.129770992366414,0.0
13.530000925064087,-11.042058056640624,4.13718046875,2.9855694702148434,78.04580152671755,91.90839694656489,-51.23664122137404,-11.051634863281249,-2.9975404785156248,-0.2537853759765625,4.1679389312977095,65.12977099236642,33.49618320610687,0.0
13.540000677108765,-11.949460485839843,6.677428430175781,3.6487633300781246,62.045801526717554,84.04580152671755,-49.31297709923664,-7.299920861816406,-3.785232824707031,2.1021090576171875,28.519083969465647,53.48091603053435,26.793893129770993,0.0
13.5500009059906,-11.1474029296875,5.025429284667968,3.794809631347656,38.54961832061068,72.36641221374046,-41.267175572519086,-6.016628771972656,-2.3295582153320313,0.5363011718749999,64.10687022900764,32.54961832061068,21.099236641221374,0.0
13.560000658035278,-12.878410729980468,7.501033801269531,5.130774157714844,13.740458015267176,65.09923664122137,-38.33587786259542,-8.449137658691406,1.484405029296875,0.023942016601562498,93.22137404580153,16.38167938931298,16.35114503816794,0.0
13.570000648498535,-8.698134631347656,2.834734765625,2.4971523315429685,-5.3893129770992365,52.595419847328245,-27.603053435114504,-7.149086157226562,6.610390783691406,-0.5530605834960938,66.73282442748092,20.30534351145038,10.763358778625955,0.0
13.580000638961792,-10.232817895507813,3.536235852050781,3.6535517333984373,-9.16030534351145,59.908396946564885,-29.251908396946565,-10.620678564453124,4.067748620605468,0.9193734375,52.38167938931298,19.267175572519083,15.49618320610687,0.0
13.590000629425049,-8.212111694335936,0.14125789794921875,1.7717092285156248,-10.961832061068701,54.12213740458015,-27.603053435114504,-9.390058911132812,3.1196447631835937,3.1483751831054687,44.80916030534351,12.717557251908397,13.633587786259541,0.0
13.600000619888306,-11.030087048339842,1.917755529785156,2.6599580444335937,-12.396946564885496,58.152671755725194,-31.16030534351145,-14.219163659667968,-1.7764976318359373,8.820238916015624,61.587786259541986,-2.900763358778626,16.519083969465647,0.0
13.610000848770142,-8.999804040527343,0.24899697265624998,1.3383587280273437,-8.641221374045802,55.6793893129771,-30.30534351145038,-8.863334545898438,4.340687609863281,2.2098481323242187,64.54961832061069,-33.099236641221374,3.984732824427481,0.0
13.62000060081482,-9.78031378173828,1.6472107421875,1.618480322265625,-12.061068702290076,57.02290076335878,-30.519083969465647,-11.942277880859374,-1.5466542724609373,6.768408093261718,47.786259541984734,-30.625954198473284,7.816793893129771,0.0
13.630000591278076,-8.815450512695312,2.0733786376953125,1.4891934326171874,-16.12213740458015,55.52671755725191,-31.251908396946565,-10.000580334472655,3.1316157714843746,1.3575123413085937,52.3206106870229,-58.76335877862596,-6.793893129770993,0.0
13.640000343322754,-10.71884083251953,4.8650177734375,2.528276953125,-33.282442748091604,54.12213740458015,-30.519083969465647,-12.334926953124999,-3.5721488769531247,5.305550878906249,28.595419847328245,-47.267175572519086,-7.679389312977099,0.0
13.65000033378601,-9.440337145996093,3.6655227416992187,2.176329309082031,-43.80152671755725,50.01526717557252,-26.702290076335878,-9.196128576660156,1.93451494140625,-1.0103531005859374,31.14503816793893,-74.45801526717557,-25.572519083969464,0.0
13.660000801086426,-12.330138549804687,6.648698010253906,3.23696064453125,-70.06106870229007,46.83969465648855,-23.66412213740458,-12.208034265136718,-3.6727053466796873,2.3965958618164063,17.419847328244273,-63.05343511450382,-29.96946564885496,0.0
13.670000553131104,-11.815385192871092,5.05655390625,3.4715924072265625,-84.25954198473282,40.6412213740458,-17.46564885496183,-10.670956799316405,-1.7094599853515624,2.0183119995117185,16.595419847328245,-72.59541984732824,-40.97709923664122,0.0
13.68000078201294,-12.380416784667968,4.819527941894531,4.082113830566406,-98.4885496183206,39.02290076335878,-12.183206106870228,-9.363722692871093,-1.199495031738281,0.7326257080078125,11.007633587786259,-73.66412213740458,-48.62595419847328,0.0
13.690000295639038,-9.9981861328125,2.6288334228515624,3.421314172363281,-108.1526717557252,24.80916030534351,-4.625954198473282,-9.674968908691406,-0.3495534423828125,1.0630255371093749,22.458015267175572,-86.21374045801527,-53.83206106870229,0.0
13.700000286102295,-12.208034265136718,1.5729904907226562,3.7134067749023436,-104.74809160305344,28.106870229007633,-1.0381679389312977,-12.186486450195313,-2.578555187988281,2.4971523315429685,17.96946564885496,-73.31297709923665,-52.87022900763359,0.0
13.71000051498413,-8.949525805664061,-1.3575123413085937,2.8275521606445313,-98.4885496183206,21.00763358778626,3.145038167938931,-8.877699755859375,0.7422025146484375,2.418143676757812,28.549618320610687,-86.8854961832061,-60.045801526717554,0.0
13.720000267028809,-10.773907470703124,0.3902548706054687,2.8754361938476563,-86.77862595419847,24.885496183206108,2.9923664122137406,-11.034875451660156,1.3168109130859373,-0.16041151123046873,28.595419847328245,-83.20610687022901,-57.43511450381679,0.0
13.730000495910645,-9.629479077148437,-1.1851298217773436,1.915361328125,-70.8854961832061,24.35114503816794,5.251908396946565,-10.1131078125,1.16837041015625,0.4070142822265625,37.02290076335878,-88.74809160305344,-56.74809160305343,0.0
13.740000486373901,-9.94072529296875,-0.5410895751953124,2.6312276245117188,-66.27480916030534,24.778625954198475,6.1679389312977095,-10.924742175292968,-0.622492431640625,2.858676782226562,30.946564885496183,-70.18320610687023,-48.534351145038165,0.0
13.750000476837158,-9.9215716796875,-0.93852705078125,2.398990063476562,-60.47328244274809,22.53435114503817,6.961832061068702,-7.467514978027343,4.525041137695312,-2.212242333984375,36.79389312977099,-83.6793893129771,-51.86259541984733,0.0
13.760000705718994,-10.575188732910156,-0.7900865478515624,1.898601916503906,-55.48091603053435,23.557251908396946,11.740458015267176,-12.258312499999999,-0.16041151123046873,1.5514426757812498,35.83206106870229,-65.92366412213741,-36.38167938931298,0.0
13.770000457763672,-10.244788903808594,-2.1452046874999997,2.3965958618164063,-49.404580152671755,24.717557251908396,9.053435114503817,-5.635950708007812,3.88818349609375,-1.419761584472656,35.86259541984733,-66.4885496183206,-40.458015267175576,0.0
13.780000686645508,-10.647014782714843,-2.2074539306640624,3.1747114013671873,-45.16030534351145,25.31297709923664,6.824427480916031,-10.242394702148436,0.0526724365234375,1.7429788085937499,42.56488549618321,-56.12213740458015,-28.091603053435115,0.0
13.790000915527344,-10.556035119628906,-2.858676782226562,3.450044592285156,-34.900763358778626,23.297709923664122,1.6030534351145038,-5.032611889648437,3.6056677001953124,-1.1324573852539062,44.13740458015267,-56.274809160305345,-32.01526717557252,0.0
13.800000429153442,-10.819397302246093,-2.8419173706054686,3.986345764160156,-24.65648854961832,20.82442748091603,-2.687022900763359,-10.670956799316405,-0.296881005859375,1.7310078002929687,49.23664122137404,-44.412213740458014,-20.33587786259542,0.0
13.8100004196167,-10.855310327148437,-2.6982652709960937,5.118803149414062,-8.931297709923664,16.091603053435115,-8.580152671755725,-6.363788012695312,3.782838623046875,-1.0749965454101562,53.69465648854962,-49.343511450381676,-26.045801526717558,0.0
13.820000410079956,-11.336544860839844,-1.5442600708007812,5.930437512207031,6.641221374045801,8.061068702290076,-12.305343511450381,-11.688492504882811,-0.9840168823242187,2.2457611572265623,48.68702290076336,-29.450381679389313,-15.312977099236642,0.0
13.830000638961792,-12.114660400390624,-1.3215993164062498,6.792350109863281,15.633587786259541,-2.687022900763359,-17.221374045801525,-7.975085729980468,1.6328455322265625,0.3711012573242187,65.64885496183206,-46.732824427480914,-21.6793893129771,0.0
13.840000629425049,-11.3006318359375,-0.814028564453125,7.314286071777343,38.13740458015267,-11.465648854961833,-16.045801526717558,-8.82981572265625,1.419761584472656,0.8547299926757812,54.274809160305345,-31.0381679389313,-19.114503816793892,0.0
13.850000619888306,-10.764330664062498,0.03591302490234375,7.886500268554687,47.3587786259542,-18.80916030534351,-17.46564885496183,-8.501810095214843,2.3511060302734372,0.7589619262695312,46.79389312977099,-31.81679389312977,-17.251908396946565,0.0
13.860000610351562,-10.75714805908203,1.3168109130859373,7.517793212890624,55.05343511450382,-28.931297709923665,-18.778625954198475,-7.6231380859375,3.191470812988281,-0.6655880615234374,37.37404580152672,-29.221374045801525,-16.198473282442748,0.0
13.87000060081482,-10.603919152832031,3.0550013183593747,7.697358337402343,57.541984732824424,-39.404580152671755,-18.53435114503817,-8.379705810546875,2.7653029174804686,0.028730419921875,18.625954198473284,-9.557251908396946,-12.641221374045802,0.0
13.880000352859497,-10.35492218017578,3.6080619018554687,8.537723120117187,60.68702290076336,-49.05343511450382,-15.954198473282442,-8.030152368164062,2.1930887207031247,1.2521674682617188,9.98473282442748,0.3511450381679389,-9.83206106870229,0.0
13.890000581741333,-10.924742175292968,4.395754248046875,9.191340173339842,64.33587786259542,-61.29770992366412,-12.366412213740459,-7.584830859375,0.42377369384765623,1.2880804931640624,9.725190839694656,0.549618320610687,-10.061068702290076,0.0
13.900000810623169,-11.257536206054686,5.951985327148437,9.344569079589844,69.64885496183206,-74.56488549618321,-6.534351145038168,-7.053318090820312,0.12449848632812499,1.0319009155273438,19.404580152671755,-4.106870229007634,-12.885496183206106,0.0
13.910000562667847,-14.43464180908203,8.769960681152343,10.117896215820313,49.11450381679389,-95.49618320610686,1.786259541984733,-8.073247998046874,-0.8643067993164062,1.7812860351562498,24.427480916030536,-2.3206106870229006,-11.84732824427481,0.0
13.920000553131104,-11.774683764648437,5.736507177734374,10.228029492187499,34.045801526717554,-122.0,17.267175572519083,-6.998251452636718,0.6823474731445313,1.8028338500976562,26.717557251908396,-6.213740458015267,-11.893129770992367,0.0
13.93000054359436,-12.610260144042968,3.6942531616210936,12.919112158203124,28.763358778625953,-138.21374045801528,26.18320610687023,-4.9823336547851556,1.8267758666992187,1.3742717529296875,19.435114503816795,-5.969465648854962,-12.076335877862595,0.0
13.940000534057617,-12.658144177246093,-0.08858546142578125,14.535198278808593,29.251908396946565,-162.15267175572518,35.587786259541986,-3.5697546752929687,2.7174188842773437,0.33518823242187495,13.633587786259541,-4.977099236641221,-9.068702290076336,0.0
13.950000524520874,-12.373234179687499,-0.7589619262695312,12.734758630371093,34.0,-179.46564885496184,42.38167938931298,-0.9816226806640624,4.278438366699218,-1.0199299072265624,6.824427480916031,-2.931297709923664,-3.969465648854962,0.0
13.96000051498413,-11.777077966308592,-1.3479355346679687,10.160991845703125,22.229007633587788,-199.46564885496184,42.83969465648855,-0.9241618408203125,3.976768957519531,-1.2737152832031249,-4.412213740458015,8.488549618320612,6.961832061068702,0.0
13.970000267028809,-11.456254943847656,-0.6679822631835937,7.955932116699218,14.687022900763358,-216.24427480916032,39.038167938931295,-1.714248388671875,4.953603234863281,-2.482787121582031,-0.9770992366412213,12.885496183206106,15.297709923664122,0.0
13.980000495910645,-9.785102185058593,-0.5339069702148437,4.623203405761719,23.64885496183206,-229.23664122137404,43.69465648854962,-4.565742565917969,6.102820031738281,-2.4492682983398435,0.8549618320610687,12.65648854961832,19.31297709923664,0.0
13.990000486373901,-9.665392102050781,1.120486376953125,1.649604943847656,39.099236641221374,-224.01526717557252,50.900763358778626,-9.710881933593749,3.9336733276367184,0.39743747558593745,-18.396946564885496,18.671755725190838,15.419847328244275,0.0
14.000000476837158,-8.760383874511719,0.8810662109374999,-0.7565677246093749,32.50381679389313,-222.70229007633588,55.70992366412214,-16.40746397705078,1.5705962890624998,3.3111808959960936,-63.16030534351145,33.61832061068702,-0.9465648854961832,0.0
14.010000944137573,-10.51533369140625,-2.3918074584960936,-2.6982652709960937,15.022900763358779,-211.3587786259542,50.38167938931298,-22.92687509765625,-2.6192566162109374,4.872200378417968,-95.8473282442748,50.61068702290076,-8.732824427480915,0.0
14.020000696182251,-10.429142431640624,-5.9591679321289055,-4.290409374999999,21.709923664122137,-200.2290076335878,43.17557251908397,-27.6961248046875,-6.438008264160156,5.164292980957031,-69.61832061068702,37.29770992366412,-9.725190839694656,0.0
14.030000925064087,-11.54244620361328,-7.0461354858398435,-3.469198205566406,46.76335877862596,-173.63358778625954,38.35114503816794,-18.914193115234372,-1.0366893188476562,1.678335363769531,-39.52671755725191,19.358778625954198,8.992366412213741,0.0
14.040000915527344,-12.701239807128905,-6.766013891601562,-1.656787548828125,49.083969465648856,-150.61068702290078,25.19083969465649,-11.204863769531249,3.356670727539062,-1.4053963745117186,-18.68702290076336,5.175572519083969,19.450381679389313,0.0
14.05000114440918,-15.528791967773437,-5.537788439941406,4.276044165039062,72.59541984732824,-127.38931297709924,16.625954198473284,-5.588066674804687,3.5529952636718747,-3.1268273681640624,-19.557251908396946,13.312977099236642,23.374045801526716,0.0
14.060000658035278,-18.26057606201172,-0.13407529296874998,6.794744311523437,83.20610687022901,-116.61068702290076,15.053435114503817,-7.706935144042968,-4.8314989501953125,-2.913743420410156,-11.465648854961833,20.83969465648855,29.480916030534353,0.0
14.070000648498535,-15.914258435058592,1.7621324218749999,3.4668040039062498,82.76335877862596,-117.58778625954199,27.862595419847327,-7.862558251953125,-6.050147595214844,-3.651157531738281,10.732824427480915,21.541984732824428,21.34351145038168,0.0
14.080000400543213,-17.834408166503906,7.017405065917968,4.556165759277343,59.465648854961835,-111.29770992366412,34.10687022900763,-10.194510668945313,-6.210559106445312,-2.1116858642578125,18.38167938931298,34.0,8.13740458015267,0.0
14.09000039100647,-16.63251893310547,7.714117749023437,4.924872814941406,18.793893129770993,-118.91603053435115,41.725190839694655,-10.500968481445312,-4.005499377441406,-3.414131567382812,43.6793893129771,41.43511450381679,5.404580152671755,0.0
14.100000619888306,-13.156138122558593,4.903325,2.748543505859375,-19.34351145038168,-128.06106870229007,50.412213740458014,-11.468225952148437,-0.5602431884765625,-2.2290017456054687,36.2442748091603,49.06870229007634,8.122137404580153,0.0
14.110000610351562,-8.75320126953125,0.718260498046875,1.0079588989257813,-44.87022900763359,-132.06106870229007,48.82442748091603,-8.769960681152343,2.1212626708984375,-0.4740519287109375,32.6412213740458,48.62595419847328,-8.946564885496183,0.0
14.12000060081482,-5.7149593627929685,-1.867477294921875,-0.229843359375,-53.83206106870229,-124.07633587786259,42.19847328244275,-10.352527978515624,1.9991583862304687,1.7477672119140624,23.389312977099237,50.93129770992366,-4.564885496183206,0.0
14.130000591278076,-3.342305517578125,-3.342305517578125,-2.0661960327148434,-59.00763358778626,-116.58015267175573,32.229007633587784,-10.556035119628906,2.7174188842773437,1.908178723144531,18.0,39.00763358778626,-0.8396946564885496,0.0
14.140000820159912,-1.209071838378906,-3.076549133300781,-2.4851813232421875,-54.229007633587784,-100.65648854961832,25.404580152671755,-10.184933862304687,2.9544448486328125,2.221819140625,1.2366412213740459,34.18320610687023,4.580152671755725,0.0
14.150000810623169,-0.17956512451171874,-2.4660277099609376,-1.7717092285156248,-53.31297709923664,-83.48091603053435,18.03053435114504,-10.78348427734375,0.74699091796875,3.1675287963867187,-8.396946564885496,28.916030534351144,10.687022900763358,0.0
14.160000801086426,-0.2705447875976562,-1.3287819213867187,-1.3048399047851562,-54.961832061068705,-66.6412213740458,12.687022900763358,-12.102689392089843,-1.1947066284179686,4.084508032226562,-2.549618320610687,16.702290076335878,14.305343511450381,0.0
14.170000553131104,0.5626373901367188,-2.480392919921875,-0.9720458740234375,-41.74045801526717,-46.6412213740458,14.366412213740459,-10.955866796875,-0.7924807495117187,2.001552587890625,6.625954198473282,-1.0229007633587786,10.427480916030534,0.0
14.18000078201294,1.8626888916015625,-3.749319799804687,0.040701428222656245,-29.053435114503817,-29.633587786259543,13.893129770992367,-10.587159741210938,-0.12689268798828124,2.482787121582031,16.213740458015266,-2.900763358778626,10.748091603053435,0.0
14.190000534057617,1.889025109863281,-3.4524387939453125,2.2170307373046874,5.938931297709924,6.656488549618321,14.351145038167939,-8.05648858642578,0.5099649536132812,0.6009446166992187,13.86259541984733,-4.244274809160306,9.877862595419847,0.0
14.200000524520874,8.717288244628906,-11.827356201171874,-3.6655227416992187,42.48854961832061,14.458015267175572,15.48091603053435,-8.95670841064453,-1.7812860351562498,1.85790048828125,28.900763358778626,4.351145038167939,14.763358778625955,0.0
14.21000051498413,1.944091748046875,-6.6893994384765625,0.8164227661132812,100.38167938931298,71.22137404580153,5.648854961832061,-9.018957653808593,-1.6639701538085936,0.5363011718749999,49.74045801526717,-9.923664122137405,7.9541984732824424,0.0
14.220000505447388,5.078101721191406,-8.88009395751953,-0.24181436767578124,122.04580152671755,70.85496183206106,-8.091603053435115,-7.410054138183593,0.06943184814453125,1.2785036865234374,57.17557251908397,8.564885496183207,6.809160305343512,0.0
14.230000257492065,-2.5570073730468748,0.04548983154296875,3.8091748413085935,141.1908396946565,108.80916030534351,-25.419847328244273,-5.899312890625,1.8411410766601561,-0.9217676391601562,38.18320610687023,8.274809160305344,5.358778625954199,0.0
14.24000072479248,5.097255334472656,-7.079654309082031,1.0462661254882812,144.83969465648855,96.59541984732824,-19.00763358778626,-9.030928662109375,1.7788918334960937,-0.7972691528320313,30.946564885496183,19.51145038167939,8.931297709923664,0.0
14.250000476837158,-0.32082302246093747,-2.5761609863281247,2.454056701660156,197.3740458015267,138.94656488549617,-20.091603053435115,-8.353369592285155,1.8698714965820311,0.062249243164062495,18.595419847328245,29.6793893129771,10.030534351145038,0.0
14.260000705718994,-0.3687070556640625,-2.7964275390625,2.7437551025390623,209.1145038167939,134.42748091603053,-24.977099236641223,-5.935225915527344,6.481103894042969,-4.529829541015625,-9.938931297709924,26.702290076335878,-0.9618320610687023,0.0
14.270000457763672,-5.073313317871094,8.013392956542969,4.474762902832031,216.24427480916032,157.12977099236642,-25.251908396946565,-5.396530541992187,6.701370446777343,-1.1156979736328125,-82.65648854961832,64.82442748091603,10.748091603053435,0.0
14.280000686645508,-5.609614489746093,12.741941235351561,4.328716601562499,151.54198473282443,128.8091603053435,-27.923664122137403,-5.911283898925781,5.238513232421875,-4.055777612304687,-111.02290076335878,71.19083969465649,14.50381679389313,0.0
14.290000915527344,-7.733271362304687,14.841656091308593,5.518634826660156,100.27480916030534,115.3587786259542,-21.0381679389313,-7.8170684204101555,0.8212111694335937,-2.89219560546875,-129.49618320610688,82.68702290076335,25.786259541984734,0.0
14.300000667572021,-7.805097412109374,15.478513732910155,7.711723547363281,27.984732824427482,83.09923664122137,-19.49618320610687,-10.886434948730468,-2.8850130004882812,-4.347870214843749,-128.4885496183206,80.77862595419847,28.717557251908396,0.0
14.3100004196167,-10.539275708007812,13.905523242187499,9.710881933593749,-35.80152671755725,51.603053435114504,-16.85496183206107,-13.345280053710937,-8.276755139160155,1.350329736328125,-61.51145038167939,72.59541984732824,26.198473282442748,0.0
14.320000648498535,-13.350068457031249,10.374075793457031,15.119383483886718,-39.43511450381679,25.16030534351145,-1.5114503816793894,-13.970166687011718,-6.361393811035156,3.1555577880859373,-26.732824427480917,64.79389312977099,28.442748091603054,0.0
14.330000638961792,-12.445060229492187,3.5027170288085934,15.648502050781248,-17.358778625954198,7.1603053435114505,20.80916030534351,-12.253524096679687,-3.699041564941406,2.607285607910156,-0.7175572519083969,51.29770992366412,21.419847328244273,0.0
14.340000629425049,-13.244723583984374,3.2154128295898436,14.638148950195312,6.595419847328245,6.732824427480916,33.61832061068702,-11.554417211914062,3.076549133300781,-0.1484405029296875,-3.0381679389312977,47.00763358778626,23.862595419847327,0.0
14.350000619888306,-14.528015673828124,2.4253262817382812,11.805808386230469,13.664122137404581,6.137404580152672,40.396946564885496,-11.307814440917968,2.6096798095703124,0.6631938598632812,-8.931297709923664,40.67175572519084,17.419847328244273,0.0
14.360000610351562,-14.156914416503906,6.215347509765625,8.259995727539062,7.465648854961832,9.236641221374045,41.7557251908397,-12.679691992187498,2.588131994628906,-0.00718260498046875,-21.206106870229007,31.69465648854962,23.587786259541986,0.0
14.37000060081482,-14.056357946777343,10.929530578613281,5.9208607055664055,-41.343511450381676,-0.366412213740458,35.9236641221374,-15.253458776855467,-0.29927520751953124,0.45968671875,-17.083969465648856,23.114503816793892,31.557251908396946,0.0
14.380000591278076,-10.587159741210938,10.098742602539062,4.637568615722656,-96.61068702290076,-4.564885496183206,25.00763358778626,-14.381969372558594,1.3048399047851562,0.17477672119140625,-29.755725190839694,5.343511450381679,30.0,0.0
14.390000581741333,-4.778826513671874,-1.197100830078125,3.4644098022460934,-129.81679389312978,-15.801526717557252,19.34351145038168,-14.554351892089842,0.1292868896484375,-0.143652099609375,-26.015267175572518,0.6870229007633588,32.458015267175576,0.0
14.400000810623169,-8.525752111816406,9.093177905273437,4.235342736816406,-129.16030534351145,1.1603053435114503,3.66412213740458,-10.896011755371093,3.4332851806640625,-3.23696064453125,-36.56488549618321,-5.770992366412214,24.625954198473284,0.0
14.410000562667847,-4.771643908691406,1.3192051147460937,1.2401964599609374,-174.25954198473283,-24.106870229007633,2.2900763358778624,-12.859257116699219,2.70065947265625,-1.7238251953125,-30.610687022900763,2.045801526717557,28.061068702290076,0.0
14.420000553131104,-9.0788126953125,6.756437084960937,8.250418920898436,-158.87022900763358,-8.442748091603054,-0.6564885496183206,-14.628572143554686,2.5258827514648434,-1.3646949462890625,-27.862595419847327,3.7557251908396947,25.572519083969464,0.0
14.43000054359436,-9.581595043945311,-2.839523168945312,7.6470801025390625,-184.10687022900763,-34.19847328244275,1.1145038167938932,-13.378798876953125,4.73094248046875,-1.0079588989257813,-45.02290076335878,9.16030534351145,22.732824427480917,0.0
14.440000772476196,-13.876792822265624,-1.7429788085937499,7.005434057617187,-147.40458015267177,-12.198473282442748,2.381679389312977,-12.58392392578125,4.630386010742187,-1.8555062866210936,-54.36641221374046,7.862595419847328,27.053435114503817,0.0
14.450000524520874,-10.16338604736328,-6.512228515625,1.1444283935546875,-136.06106870229007,-15.389312977099237,0.5648854961832062,-14.348450549316405,2.7054478759765623,0.833182177734375,-47.06870229007634,10.458015267175572,32.76335877862596,0.0
14.46000051498413,-9.287108239746093,-4.726154077148437,1.0989385620117187,-78.09160305343511,15.267175572519085,-4.580152671755725,-6.059724401855468,10.172962854003906,-5.815515832519531,-84.33587786259542,1.1297709923664123,27.022900763358777,0.0
14.470000505447388,-8.55448253173828,-4.800374328613281,2.3487118286132813,-38.152671755725194,39.74045801526717,-5.786259541984733,-13.223175769042967,3.450044592285156,-0.23223756103515625,-112.6412213740458,35.11450381679389,40.534351145038165,0.0
14.480000495910645,-13.814543579101562,4.637568615722656,5.293579870605469,-17.480916030534353,59.6793893129771,-18.16793893129771,-10.12507882080078,3.976768957519531,-3.2249896362304686,-114.4885496183206,36.656488549618324,41.541984732824424,0.0
14.490000247955322,-12.516886279296875,3.641580725097656,2.0183119995117185,-28.778625954198475,53.20610687022901,-12.564885496183207,-17.01559119873047,-4.283226770019531,4.07971962890625,-103.48091603053435,47.786259541984734,45.969465648854964,0.0
14.500000476837158,-13.555969799804688,4.575319372558593,2.602497204589844,-26.671755725190838,66.3206106870229,-13.526717557251908,-11.085153686523437,1.0295067138671874,-2.7365724975585937,-86.7175572519084,25.893129770992367,34.67175572519084,0.0
14.510000467300415,-11.145008728027342,0.4285620971679687,-0.2561795776367187,-34.54961832061068,58.778625954198475,-7.358778625954199,-15.868768603515624,-4.857835168457031,4.73094248046875,-68.21374045801527,24.885496183206108,30.68702290076336,0.0
14.520000696182251,-9.5384994140625,-1.678335363769531,-0.7517793212890624,-17.129770992366414,70.18320610687023,-8.259541984732824,-9.184157568359375,1.0510545288085937,-2.157175695800781,-63.29770992366412,3.6793893129770994,15.83206106870229,0.0
14.530000925064087,-14.769830041503905,2.6527754394531247,2.1595698974609374,-4.305343511450381,90.90076335877863,-19.72519083969466,-14.314931726074217,-7.031770275878906,6.2201359130859375,-49.11450381679389,8.732824427480915,12.106870229007633,0.0
14.540000438690186,-9.885658654785155,0.10773907470703124,0.21308394775390624,11.251908396946565,91.2824427480916,-14.320610687022901,-4.7884033203125,2.3726538452148436,-5.391742138671875,-41.16030534351145,-21.801526717557252,4.183206106870229,0.0
14.550000667572021,-9.821015209960937,2.059013427734375,0.6943184814453125,14.13740458015267,99.77099236641222,-15.725190839694656,-8.291120349121094,0.3854664672851562,-1.5514426757812498,-77.69465648854961,1.4809160305343512,-10.961832061068701,0.0
14.560000658035278,-8.8872765625,0.143652099609375,0.9935936889648437,17.34351145038168,107.3587786259542,-18.091603053435115,-5.410895751953125,1.898601916503906,-3.9887399658203124,-67.77099236641222,-3.8625954198473282,-17.16030534351145,0.0
14.570000648498535,-10.946289990234375,0.373495458984375,1.5466542724609373,18.748091603053435,112.10687022900764,-23.480916030534353,-11.398794104003905,-3.0621839233398433,2.0829554443359375,-40.74809160305343,9.419847328244275,-13.84732824427481,0.0
14.580000638961792,-9.471461767578125,-1.1611878051757811,2.4013842651367185,26.35114503816794,116.21374045801527,-26.259541984732824,-7.438784558105469,2.693476867675781,-0.9337386474609375,-37.06870229007634,-2.8091603053435112,-26.732824427480917,0.0
14.590000629425049,-9.622296472167967,-2.3415292236328122,2.767697119140625,26.12213740458015,112.70229007633588,-30.793893129770993,-9.184157568359375,-2.059013427734375,1.7453730102539062,-14.320610687022901,7.694656488549619,-24.458015267175572,0.0
14.600000381469727,-10.120290417480469,-2.8419173706054686,3.4332851806640625,36.47328244274809,112.16793893129771,-38.76335877862596,-9.17458076171875,1.9129671264648436,-1.3287819213867187,33.98473282442748,-9.435114503816793,-29.755725190839694,0.0
14.610000610351562,-10.096348400878906,-0.1149216796875,3.77326181640625,38.916030534351144,107.61832061068702,-45.98473282442748,-6.885723974609375,5.846640454101562,-4.189852905273438,24.48854961832061,-5.358778625954199,-30.213740458015266,0.0
14.62000060081482,-9.591171850585937,1.1755530151367186,3.67749375,30.106870229007633,102.01526717557252,-47.725190839694655,-7.594407666015624,7.4411787597656245,-3.7205893798828122,19.31297709923664,1.8015267175572518,-22.732824427480917,0.0
14.630000591278076,-8.781931689453124,1.8267758666992187,3.380612744140625,23.61832061068702,98.0,-48.3206106870229,-7.975085729980468,6.402095239257812,-3.2441432495117186,16.396946564885496,7.0534351145038165,-14.992366412213741,0.0
14.640000343322754,-10.103531005859374,3.5913024902343746,3.3255461059570313,14.641221374045802,94.85496183206106,-49.45038167938932,-8.298302954101562,5.305550878906249,-2.729389892578125,23.786259541984734,9.679389312977099,-7.7251908396946565,0.0
14.65000033378601,-9.085995300292968,2.7054478759765623,2.916137622070312,3.312977099236641,90.09160305343511,-45.80152671755725,-8.264784130859374,4.086902233886718,-2.4899697265625,25.251908396946565,11.068702290076336,-3.66412213740458,0.0
14.660000562667847,-8.05648858642578,1.3527239379882812,2.741360900878906,11.022900763358779,93.61832061068702,-43.25190839694657,-7.912836486816405,3.4739866088867184,-2.3032219970703123,27.328244274809162,9.587786259541986,-1.6641221374045803,0.0
14.670000553131104,-8.054094384765625,1.1947066284179686,3.3159692993164063,16.229007633587788,94.18320610687023,-44.42748091603053,-7.0461354858398435,2.626439221191406,-1.3934253662109375,24.564885496183205,8.961832061068701,-1.2366412213740459,0.0
14.68000078201294,-8.990227233886719,3.6583401367187496,3.782838623046875,15.068702290076336,93.40458015267176,-45.12977099236641,-7.6279264892578125,0.19871873779296872,-0.4213794921875,32.44274809160305,9.648854961832061,0.8091603053435115,0.0
14.690000295639038,-8.238447912597655,3.2728736694335936,3.3327287109375,6.885496183206107,85.3587786259542,-40.68702290076336,-7.745242370605468,0.679953271484375,-1.2737152832031249,42.045801526717554,0.32061068702290074,-3.7251908396946565,0.0
14.700000286102295,-8.307879760742187,3.957615344238281,3.9815573608398434,4.061068702290076,85.17557251908397,-36.732824427480914,-7.754819177246094,-1.3575123413085937,1.9800047729492187,43.770992366412216,-0.4122137404580153,-8.030534351145038,0.0
14.71000075340271,-8.832209924316405,3.306392492675781,4.108450048828125,-3.786259541984733,80.3206106870229,-34.091603053435115,-8.489839086914062,0.16280571289062498,0.1771709228515625,59.12977099236641,-13.511450381679388,-13.938931297709924,0.0
14.720000505447388,-8.106766821289062,2.2601263671875,4.0988732421875,-3.2519083969465647,76.3206106870229,-31.61832061068702,-9.655815295410155,0.6679822631835937,1.7166425903320313,60.778625954198475,-11.786259541984732,-15.618320610687023,0.0
14.730000495910645,-9.64623848876953,1.93451494140625,4.144363073730468,-7.908396946564886,73.87786259541984,-31.557251908396946,-8.14028564453125,1.6136919189453125,1.4532804077148436,60.2442748091603,-22.564885496183205,-18.580152671755727,0.0
14.740000247955322,-10.335768566894531,1.7788918334960937,3.660734338378906,-9.389312977099237,68.21374045801527,-30.549618320610687,-15.069105249023437,-6.265625744628906,8.224082702636718,93.06870229007633,-30.213740458015266,-19.251908396946565,0.0
14.750000238418579,-10.654197387695312,1.9680337646484374,3.3638533325195312,-16.091603053435115,59.908396946564885,-30.229007633587788,-10.259154113769531,0.9241618408203125,2.346317626953125,110.42748091603053,-64.99236641221374,-18.366412213740457,0.0
14.760000705718994,-9.390058911132812,2.1787235107421874,2.887407202148437,-17.389312977099237,57.725190839694655,-24.427480916030536,-8.243236315917969,7.194575988769531,-0.9552864624023437,76.73282442748092,-71.17557251908397,-33.00763358778626,0.0
14.770000457763672,-10.421959826660157,3.373430139160156,3.5529952636718747,-29.083969465648856,56.778625954198475,-23.893129770992367,-11.935095275878906,0.8475473876953125,4.060566015625,46.36641221374046,-53.23664122137404,-25.52671755725191,0.0
14.780000686645508,-10.357316381835936,2.693476867675781,3.6080619018554687,-40.99236641221374,51.05343511450382,-22.18320610687023,-7.977479931640625,5.027823486328125,0.928950244140625,33.3587786259542,-69.81679389312977,-35.89312977099237,0.0
14.790000677108765,-9.83777462158203,2.7748797241210936,3.708618371582031,-50.412213740458014,45.37404580152672,-18.366412213740457,-8.951920007324219,4.613626599121093,0.17477672119140625,8.534351145038167,-69.02290076335878,-36.778625954198475,0.0
