timestamp,Thigh_L_Acc_X,Thigh_L_Acc_Y,Thigh_L_Acc_Z,Thigh_L_Gyr_X,Thigh_L_Gyr_Y,Thigh_L_Gyr_Z,Thigh_R_Acc_X,Thigh_R_Acc_Y,Thigh_R_Acc_Z,Thigh_R_Gyr_X,Thigh_R_Gyr_Y,Thigh_R_Gyr_Z,gpio_output
10.000000476837158,-11.528080993652344,-2.8754361938476563,-5.856217260742187,-56.2442748091603,-52.62595419847328,25.709923664122137,-23.45599366455078,-5.904101293945312,-1.8052280517578123,7.374045801526718,-17.251908396946565,-28.702290076335878,0.0
10.010000467300415,-7.524975817871093,-2.0254946044921875,-6.050147595214844,-80.94656488549619,-54.717557251908396,12.80916030534351,-18.22705723876953,0.6105214233398437,-2.8802245971679685,11.16030534351145,-23.129770992366414,-34.3206106870229,1.0
10.020000457763672,-5.643133312988281,-1.5059528442382812,-5.1523219726562495,-91.25190839694656,-40.36641221374046,7.206106870229007,-18.03552110595703,2.403778466796875,-2.1404162841796874,5.374045801526718,-20.625954198473284,-31.740458015267176,1.0
10.030000925064087,-2.89219560546875,-2.3678654418945313,-9.674968908691406,-72.79389312977099,-16.38167938931298,8.045801526717558,-18.64364832763672,1.24498486328125,-0.6560112548828124,1.7404580152671756,-16.47328244274809,-29.31297709923664,1.0
10.04013180732727,-4.036623999023437,0.16280571289062498,-8.489839086914062,-77.8473282442748,-1.6030534351145038,2.6106870229007635,-17.803283544921875,0.41898529052734373,0.28490999755859375,5.022900763358779,-17.14503816793893,-31.923664122137403,1.0
10.0500009059906,-9.519345800781249,-1.5083470458984374,-4.7022120605468745,-58.152671755725194,29.404580152671755,0.44274809160305345,-15.933412048339843,1.5945383056640625,0.28490999755859375,7.419847328244275,-16.045801526717558,-33.23664122137404,1.0
10.060000658035278,-8.80347950439453,-4.039018200683594,-5.185840795898438,-34.534351145038165,50.595419847328245,-3.1603053435114505,-13.5224509765625,2.511517541503906,0.430956298828125,13.419847328244275,-14.595419847328245,-30.702290076335878,1.0
10.070000410079956,-10.587159741210938,-4.204218115234375,-3.42849677734375,-5.770992366412214,81.7557251908397,-12.854961832061068,-11.245565197753905,3.7158009765625,0.181959326171875,22.12213740458015,-15.48091603053435,-27.908396946564885,1.0
10.080000638961792,-2.370259643554687,-7.805097412109374,-6.675034228515624,32.229007633587784,83.1145038167939,-13.389312977099237,-10.63025537109375,5.1690813842773435,0.6248866333007812,19.66412213740458,-10.198473282442748,-25.34351145038168,1.0
10.090000629425049,-9.208099584960937,-4.177881896972656,-2.5139117431640625,52.045801526717554,122.90076335877863,-36.67175572519084,-10.445901843261717,6.002263562011718,0.277727392578125,5.083969465648855,-1.0534351145038168,-19.557251908396946,1.0
10.100000619888306,-10.211270080566406,0.3184288208007812,-1.6519991455078125,49.282442748091604,116.76335877862596,-47.06870229007634,-10.89122335205078,5.518634826660156,0.1005564697265625,-2.6717557251908395,2.8244274809160306,-12.16793893129771,1.0
10.110000848770142,-12.73715283203125,2.114080065917969,0.5889736083984375,48.778625954198475,123.16030534351145,-45.51145038167939,-10.989385620117186,4.649539624023437,0.17477672119140625,-13.893129770992367,5.572519083969466,-1.1297709923664123,1.0
10.12000060081482,-13.881581225585936,7.264007836914062,2.6527754394531247,21.267175572519083,118.50381679389314,-44.44274809160305,-10.709264025878905,5.422866760253906,-0.3280056274414062,-25.587786259541986,4.702290076335878,5.7251908396946565,1.0
10.130000591278076,-10.536881506347656,4.898536596679687,1.8004396484374998,-5.709923664122138,98.19847328244275,-33.48091603053435,-9.9981861328125,5.963956335449218,-0.584185205078125,-39.80152671755725,3.6030534351145036,13.404580152671755,1.0
10.140000820159912,-10.453084448242187,2.5713725830078125,1.4101847778320311,-15.114503816793894,100.10687022900764,-26.732824427480917,-9.411606726074218,5.145139367675781,-1.0941501586914062,-54.06106870229008,4.061068702290076,21.282442748091604,1.0
10.15000057220459,-10.771513269042968,2.952050646972656,2.118868469238281,-31.389312977099237,95.6793893129771,-28.717557251908396,-9.143456140136719,3.8235400512695312,-1.0582371337890624,-60.88549618320611,3.6030534351145036,25.435114503816795,1.0
10.160000801086426,-5.923254907226562,-3.6152445068359373,-0.13646949462890623,-27.587786259541986,84.13740458015268,-22.27480916030534,-8.942343200683593,2.3367408203125,-1.24498486328125,-62.091603053435115,3.877862595419847,28.82442748091603,1.0
10.170000553131104,-6.619967590332031,-5.57370146484375,-0.016759411621093748,8.381679389312977,102.54961832061069,-25.96946564885496,-8.339004382324218,0.38786066894531246,-1.3431471313476562,-57.80152671755725,3.7557251908396947,30.106870229007633,1.0
10.18000078201294,-6.940790612792968,-2.463633508300781,0.15083470458984374,24.900763358778626,107.74045801526718,-38.778625954198475,-7.996633544921875,-0.28012159423828126,-0.4644751220703125,-47.38931297709924,2.1068702290076335,28.442748091603054,1.0
10.190000534057617,-9.181763366699219,1.678335363769531,1.6328455322265625,25.633587786259543,107.57251908396947,-44.76335877862596,-6.926425402832031,-0.737414111328125,-0.689530078125,-41.587786259541986,3.5572519083969465,26.82442748091603,1.0
10.200000524520874,-9.87608184814453,3.268085266113281,2.4133552734375,24.48854961832061,103.0381679389313,-39.282442748091604,-7.3669585083007805,-2.2026655273437497,0.3399766357421875,-24.366412213740457,3.068702290076336,25.206106870229007,1.0
10.210000276565552,-10.412383020019531,6.236895324707031,2.7269956909179687,18.68702290076336,99.22137404580153,-31.068702290076335,-7.273584643554687,-1.2641384765625,0.28730419921875,-18.091603053435115,1.0534351145038168,21.328244274809162,0.0
10.22005033493042,-10.077194787597655,6.603208178710937,2.1068974609374997,0.12213740458015267,88.38167938931298,-21.709923664122137,-6.928819604492187,-0.3112462158203125,0.239420166015625,-19.984732824427482,-0.4732824427480916,17.389312977099237,0.0
10.230000495910645,-11.027692846679686,6.349422802734375,1.7549498168945312,-21.17557251908397,83.22137404580153,-13.98473282442748,-7.314286071777343,0.7062894897460937,-0.16041151123046873,-28.30534351145038,-0.8549618320610687,15.83206106870229,0.0
10.240000486373901,-10.71884083251953,5.834669445800781,1.707065783691406,-45.587786259541986,73.98473282442748,-8.778625954198473,-8.166621862792969,-0.13168109130859373,0.6871358764648438,-41.267175572519086,1.3435114503816794,15.98473282442748,0.0
10.250000476837158,-10.091559997558592,3.2609026611328122,1.6112977172851561,-57.786259541984734,67.70992366412214,-2.854961832061069,-8.429984045410155,-0.5027823486328125,0.3016694091796875,-39.93893129770992,-6.442748091603053,13.206106870229007,0.0
10.260000705718994,-10.156203442382813,1.8602946899414061,1.599326708984375,-61.20610687022901,64.21374045801527,1.0229007633587786,-9.572018237304688,-0.48123453369140623,0.3399766357421875,-46.6412213740458,-9.893129770992367,9.725190839694656,0.0
10.27000093460083,-8.987833032226561,1.0582371337890624,1.924938134765625,-58.58015267175573,59.83206106870229,4.305343511450381,-8.978256225585938,-1.218648645019531,0.22505495605468748,-51.770992366412216,-13.236641221374045,4.732824427480916,0.0
10.280000686645508,-8.63109698486328,1.1085153686523437,2.2481553588867187,-54.70229007633588,58.916030534351144,5.694656488549619,-8.923189587402343,-1.62805712890625,0.12449848632812499,-53.61832061068702,-15.526717557251908,-1.3893129770992367,0.0
10.290000915527344,-7.7787611938476555,0.2920926025390625,1.4173673828125,-54.48854961832061,52.900763358778626,5.923664122137405,-8.808267907714843,-1.9776105712890624,0.09337386474609374,-50.961832061068705,-17.740458015267176,-6.320610687022901,0.0
10.300000429153442,-9.184157568359375,0.4165910888671875,1.6831237670898436,-52.88549618320611,51.61832061068702,3.5877862595419847,-8.678981018066406,-3.737348791503906,0.6057330200195312,-42.458015267175576,-18.68702290076336,-10.67175572519084,0.0
10.3100004196167,-9.3852705078125,-0.5339069702148437,2.023100402832031,-52.19847328244275,46.01526717557252,2.0,-9.14824454345703,-4.728548278808593,1.93451494140625,-18.53435114503817,-25.435114503816795,-14.931297709923664,0.0
10.320000648498535,-9.65342109375,0.4285620971679687,1.9297265380859374,-50.68702290076336,38.61068702290076,-0.061068702290076333,-10.08677159423828,-3.4069489624023435,1.8531120849609375,-3.480916030534351,-33.63358778625954,-21.236641221374047,0.0
10.330000638961792,-9.169792358398437,-0.2825157958984375,1.180341418457031,-52.47328244274809,31.480916030534353,-0.2595419847328244,-9.368511096191405,-0.814028564453125,1.1324573852539062,-4.458015267175573,-37.603053435114504,-29.603053435114504,0.0
10.340033769607544,-11.587936035156249,1.5107412475585937,2.0470424194335934,-57.7557251908397,27.587786259541986,-1.6488549618320612,-9.282319836425781,-2.0638018310546875,1.0486603271484374,-5.847328244274809,-34.30534351145038,-31.267175572519083,0.0
10.350000381469727,-10.199299072265624,-0.9911994873046874,0.6655880615234374,-43.603053435114504,25.068702290076335,-0.32061068702290074,-10.366893188476562,-2.8514941772460936,1.7501614135742187,11.34351145038168,-35.725190839694655,-31.251908396946565,0.0
10.360000610351562,-10.81460889892578,-0.8451531860351562,0.584185205078125,-36.67175572519084,23.923664122137403,-1.8015267175572518,-10.20887587890625,-2.094926452636719,1.37906015625,23.17557251908397,-41.847328244274806,-35.48091603053435,0.0
10.37000060081482,-10.187328063964843,-0.86191259765625,0.6272808349609375,-24.885496183206108,23.770992366412212,-2.2900763358778624,-9.79946739501953,-0.5674257934570313,0.9050082275390624,21.66412213740458,-39.404580152671755,-37.49618320610687,0.0
10.380000352859497,-11.669338891601562,0.04548983154296875,1.426944189453125,-21.404580152671755,21.480916030534353,-2.3053435114503817,-9.782707983398437,-2.35589443359375,1.3168109130859373,28.702290076335878,-34.74809160305343,-34.595419847328245,0.0
10.390000581741333,-10.225635290527343,-0.2442085693359375,0.3064578125,-11.755725190839694,20.045801526717558,-2.7022900763358777,-10.081983190917969,-1.47482822265625,1.0175357055664063,40.152671755725194,-36.396946564885496,-35.465648854961835,0.0
10.400000810623169,-9.45470235595703,0.43574470214843747,-0.6655880615234374,-7.648854961832061,19.83206106870229,-3.282442748091603,-9.018957653808593,0.12449848632812499,0.6200982299804687,36.18320610687023,-34.68702290076336,-37.099236641221374,0.0
10.410000562667847,-10.915165368652342,2.288856787109375,-0.3758896606445312,-13.618320610687023,21.17557251908397,-3.648854961832061,-9.45470235595703,-0.6727706665039062,0.7924807495117187,35.29770992366412,-24.671755725190838,-32.12213740458015,0.0
10.420000791549683,-10.611101757812499,1.8004396484374998,-1.0654197387695312,-13.938931297709924,23.69465648854962,-2.33587786259542,-9.871293444824218,-1.7908628417968748,1.0702081420898437,46.79389312977099,-21.954198473282442,-28.48854961832061,0.0
10.43000054359436,-9.639055883789062,1.1444283935546875,-1.6256629272460936,-11.17557251908397,26.717557251908396,-0.15267175572519084,-9.445125549316407,-0.8355763793945312,0.5865794067382812,56.38167938931298,-24.12213740458015,-27.954198473282442,0.0
10.440000772476196,-10.58476553955078,1.6448165405273436,-0.7829039428710937,-13.679389312977099,30.427480916030536,0.13740458015267176,-8.037334973144532,1.3479355346679687,0.0047884033203125,49.587786259541986,-20.916030534351144,-28.68702290076336,0.0
10.450000524520874,-9.392453112792968,0.411802685546875,-0.7134720947265625,-11.236641221374045,32.045801526717554,1.1755725190839694,-9.469067565917967,1.66636435546875,0.28969840087890625,39.7557251908397,-9.770992366412214,-24.900763358778626,0.0
10.46000051498413,-10.963049401855468,1.5322890624999999,0.9002198242187499,-14.091603053435115,34.19847328244275,-0.8854961832061069,-8.068459594726562,-0.2154781494140625,0.5291185668945312,37.038167938931295,-5.251908396946565,-21.251908396946565,0.0
10.470000505447388,-10.299855541992187,0.612915625,1.16837041015625,-8.793893129770993,30.564885496183205,-1.633587786259542,-9.801861596679688,-0.5746083984375,1.0917559570312498,46.900763358778626,0.15267175572519084,-18.48854961832061,0.0
10.480000257492065,-10.685322009277343,1.0606313354492187,1.9871873779296874,-1.5877862595419847,28.916030534351144,-2.595419847328244,-8.927977990722656,-0.12689268798828124,1.4700398193359374,50.38167938931298,-1.984732824427481,-19.923664122137403,0.0
10.490000486373901,-9.935936889648437,0.9528922607421875,2.1835119140624997,2.9160305343511452,24.946564885496183,-3.984732824427481,-8.688557824707031,0.16759411621093748,1.6519991455078125,47.31297709923664,1.618320610687023,-20.641221374045802,0.0
10.500000476837158,-10.532093103027343,1.6352397338867186,2.9281086303710935,3.618320610687023,21.34351145038168,-4.687022900763359,-7.706935144042968,0.5578489868164063,0.6727706665039062,39.31297709923664,2.687022900763359,-21.786259541984734,0.0
10.510000944137573,-10.156203442382813,1.5921441040039062,3.265691064453125,5.755725190839694,17.770992366412212,-5.893129770992366,-7.316680273437499,1.6041151123046875,0.5123591552734374,31.572519083969464,6.748091603053435,-23.31297709923664,0.0
10.520000696182251,-10.137049829101562,1.8602946899414061,3.756502404785156,6.091603053435114,12.854961832061068,-6.229007633587786,-8.406042028808594,-0.6272808349609375,1.4006079711914061,22.045801526717558,17.297709923664122,-20.412213740458014,0.0
10.530000925064087,-10.352527978515624,1.5298948608398437,4.134786267089844,7.190839694656488,7.572519083969466,-5.511450381679389,-8.51617530517578,-1.2138602416992186,1.9680337646484374,23.541984732824428,19.206106870229007,-19.893129770992367,0.0
10.540000438690186,-10.04846436767578,0.9816226806640624,4.072537023925781,12.030534351145038,1.6030534351145038,-6.580152671755725,-8.465897070312499,-1.1563994018554686,2.185906115722656,27.17557251908397,17.083969465648856,-20.427480916030536,0.0
10.5500009059906,-9.8449572265625,0.6967126831054687,3.9145197143554684,15.099236641221374,-3.236641221374046,-7.893129770992366,-8.453926062011718,-0.9074024291992187,2.4349030883789062,30.977099236641223,15.358778625954198,-19.862595419847327,0.0
10.5600004196167,-9.698910925292969,0.8762778076171874,3.9336733276367184,16.900763358778626,-7.587786259541985,-9.572519083969466,-8.427589843749999,-0.5195417602539062,2.7724855224609373,32.51908396946565,13.526717557251908,-17.96946564885496,0.0
10.570000648498535,-9.593566052246093,1.13006318359375,4.060566015625,21.129770992366414,-12.381679389312977,-11.16030534351145,-8.33182177734375,-0.02154781494140625,2.712630480957031,32.045801526717554,11.83206106870229,-16.641221374045802,0.0
10.580000638961792,-9.677363110351562,1.3287819213867187,4.537012145996093,24.580152671755727,-16.412213740458014,-12.213740458015268,-8.456320263671875,0.3687070556640625,2.91134921875,28.732824427480917,9.755725190839694,-15.206106870229007,0.0
10.590000629425049,-9.593566052246093,1.4053963745117186,5.2073886108398435,30.717557251908396,-22.290076335877863,-12.748091603053435,-8.21690009765625,0.97683427734375,2.8993782104492185,22.18320610687023,7.251908396946565,-12.870229007633588,0.0
10.600000619888306,-9.962273107910155,1.8746598999023436,6.342240197753906,33.954198473282446,-28.564885496183205,-14.183206106870228,-8.030152368164062,0.5458779785156249,2.214636535644531,16.53435114503817,5.3893129770992365,-12.01526717557252,0.0
10.610000371932983,-11.654973681640625,3.5482068603515624,8.559270935058594,25.419847328244273,-39.908396946564885,-16.15267175572519,-7.666233715820312,0.4429273071289062,2.1835119140624997,12.687022900763358,3.7251908396946565,-10.67175572519084,0.0
10.62000060081482,-11.623849060058593,3.1124621582031247,9.545682019042967,23.374045801526716,-58.76335877862596,-15.16030534351145,-7.544129431152343,0.7062894897460937,2.032677209472656,8.01526717557252,2.2290076335877864,-9.282442748091603,0.0
10.630000352859497,-12.224793676757812,2.4109610717773435,11.511321582031249,25.587786259541986,-76.29007633587786,-14.458015267175572,-7.3932947265625,0.32082302246093747,1.7884686401367187,3.648854961832061,1.6488549618320612,-9.32824427480916,0.0
10.640000820159912,-11.79862578125,1.4915876342773438,12.818555688476561,27.404580152671755,-99.57251908396947,-12.335877862595419,-7.319074475097656,1.4772224243164063,1.5370774658203123,-3.954198473282443,0.4580152671755725,-12.427480916030534,0.0
10.65000033378601,-11.79144317626953,0.5051765502929687,13.99410870361328,33.908396946564885,-122.70229007633588,-12.122137404580153,-6.919242797851562,-0.5506663818359374,3.6008792968749996,-17.938931297709924,2.0,-17.00763358778626,0.0
10.660000801086426,-12.646173168945312,-0.07900865478515624,14.688427185058593,32.152671755725194,-147.16030534351145,-13.374045801526718,-8.291120349121094,-3.0119056884765625,4.139574670410156,-18.290076335877863,4.580152671755725,-19.541984732824428,0.0
10.670000553131104,-13.642161059570311,0.7517793212890624,11.96382569580078,17.19083969465649,-177.16030534351145,-18.33587786259542,-7.060500695800781,-1.465251416015625,0.04548983154296875,-20.27480916030534,8.244274809160306,-25.87786259541985,0.0
10.68000078201294,-11.884817041015625,-0.8954314208984374,5.633556506347656,6.595419847328245,-205.96946564885496,-18.946564885496183,-9.169792358398437,1.4508862060546874,-3.4069489624023435,-0.9923664122137404,20.259541984732824,-28.27480916030534,0.0
10.690000534057617,-10.005368737792969,-2.5234885498046875,-0.5363011718749999,3.1755725190839694,-216.25954198473283,-26.427480916030536,-14.496891052246093,0.6679822631835937,-0.5746083984375,25.984732824427482,27.755725190839694,-23.84732824427481,0.0
10.700000762939453,-8.015787158203125,-1.484405029296875,-5.5449710449218745,-7.572519083969466,-229.55725190839695,-30.99236641221374,-16.498443640136717,-0.8044517578125,3.1196447631835937,33.14503816793893,23.938931297709924,-22.12213740458015,0.0
10.710000276565552,-8.52335791015625,-4.996698864746094,-7.295132458496093,14.412213740458014,-218.83969465648855,-28.045801526717558,-16.101006164550782,-2.2768857788085937,4.742913488769531,38.80916030534351,16.977099236641223,-12.01526717557252,0.0
10.720000505447388,-8.307879760742187,-8.851363537597656,-8.391676818847655,64.3969465648855,-193.80152671755727,-23.603053435114504,-14.489708447265624,-2.2481553588867187,3.5003228271484375,46.35114503816794,9.83206106870229,0.6564885496183206,0.0
10.730000257492065,-11.427524523925781,-5.928043310546875,-7.445967163085937,115.87786259541984,-162.68702290076337,-22.27480916030534,-9.473855969238281,-1.6352397338867186,1.8124106567382812,44.88549618320611,6.931297709923665,8.687022900763358,0.0
10.740000486373901,-14.118607189941406,0.9193734375,-6.198588098144531,144.65648854961833,-138.53435114503816,-20.48854961832061,-8.379705810546875,-1.35990654296875,1.6615759521484375,38.79389312977099,15.053435114503817,17.46564885496183,0.0
10.750000476837158,-16.218322045898436,5.719747766113281,-3.6727053466796873,148.61068702290078,-118.99236641221374,-16.763358778625953,-9.26316622314453,-3.787627026367187,1.189918225097656,31.099236641221374,17.557251908396946,19.328244274809162,0.0
10.760000705718994,-17.01559119873047,8.992621435546875,-0.46208092041015625,134.4732824427481,-102.06106870229007,-7.3893129770992365,-8.078036401367187,-4.371812231445312,-0.7805097412109374,29.83206106870229,10.381679389312977,14.15267175572519,0.0
10.77000093460083,-16.15846700439453,9.636661682128906,1.7980454467773437,113.20610687022901,-88.30534351145039,7.282442748091603,-8.066065393066406,-5.456385583496093,-1.2689268798828124,27.83206106870229,11.297709923664122,9.572519083969466,0.0
10.780000686645508,-14.250288281249999,9.112331518554686,2.461239306640625,79.5114503816794,-80.82442748091603,26.137404580152673,-8.300697155761718,-5.80354482421875,-0.6009446166992187,28.30534351145038,12.320610687022901,6.061068702290076,0.0
10.790000915527344,-12.033257543945313,8.238447912597655,1.8291700683593748,36.99236641221374,-71.93893129770993,43.343511450381676,-9.054870678710937,-4.862623571777344,-0.15083470458984374,29.52671755725191,11.603053435114504,2.351145038167939,0.0
10.800000667572021,-9.871293444824218,6.809109521484374,0.3950432739257812,-5.190839694656488,-64.25954198473282,52.13740458015267,-9.533711010742186,-3.143586779785156,-0.5578489868164063,29.480916030534353,11.801526717557252,-0.366412213740458,0.0
10.810000658035278,-7.094019519042968,3.782838623046875,-1.5394716674804687,-37.19083969465649,-58.229007633587784,55.51145038167939,-9.521740002441407,-1.5490484741210937,-1.0438719238281249,30.03053435114504,12.82442748091603,-1.2061068702290076,0.0
10.820000648498535,-4.211400720214844,-0.29927520751953124,-2.9855694702148434,-53.343511450381676,-45.43511450381679,54.732824427480914,-9.270348828125,-0.05746083984375,-1.5705962890624998,26.106870229007633,13.053435114503817,-0.44274809160305345,0.0
10.830000638961792,-2.3367408203125,-2.422932080078125,-3.172317199707031,-54.229007633587784,-29.450381679389313,47.41984732824427,-9.840168823242188,0.8762778076171874,-1.197100830078125,13.221374045801527,20.977099236641223,2.2748091603053435,0.0
10.840000629425049,-2.3127988037109373,-3.208230224609375,-3.430890979003906,-51.37404580152672,-13.923664122137405,39.23664122137404,-7.881711865234375,-0.08140285644531249,-0.9696516723632812,6.473282442748092,22.0,4.259541984732825,0.0
10.850000619888306,-2.31758720703125,-1.9776105712890624,-2.729389892578125,-48.717557251908396,4.137404580152672,27.83206106870229,-10.297461340332031,0.13407529296874998,-0.05027823486328125,6.030534351145038,32.229007633587784,8.732824427480915,0.0
10.860000848770142,-2.7653029174804686,-1.1611878051757811,-2.530671154785156,-55.038167938931295,12.580152671755725,20.80916030534351,-8.702923034667968,1.5370774658203123,0.18914193115234373,-0.9312977099236641,35.541984732824424,8.305343511450381,0.0
10.87000060081482,-4.242525341796875,0.86191259765625,-1.1540052001953125,-68.91603053435115,22.53435114503817,17.450381679389313,-7.706935144042968,2.1021090576171875,0.699106884765625,-15.450381679389313,37.43511450381679,11.465648854961833,0.0
10.880000591278076,-2.863465185546875,-0.7829039428710937,-1.2401964599609374,-72.3206106870229,31.84732824427481,18.35114503816794,-8.674192614746094,0.9624690673828125,1.5969325073242187,-25.267175572519083,42.0,17.435114503816795,0.0
10.890000581741333,-1.4724340209960938,-2.987963671875,-1.5107412475585937,-68.30534351145039,40.67175572519084,17.34351145038168,-9.117119921875,-1.5107412475585937,2.4875755249023435,-19.572519083969464,40.534351145038165,19.72519083969466,0.0
10.900000810623169,-3.0262708984374997,-4.716577270507813,0.5506663818359374,-56.0763358778626,55.02290076335878,11.068702290076336,-8.731653454589843,-2.1260510742187497,2.987963671875,-7.801526717557252,35.31297709923664,18.18320610687023,0.0
10.910000324249268,-3.4428619873046875,-5.097255334472656,1.714248388671875,-40.045801526717554,63.57251908396947,1.5419847328244274,-9.107543115234375,-1.7429788085937499,2.9664158569335934,-1.5419847328244274,31.068702290076335,18.045801526717558,0.0
10.920000553131104,-4.994304663085937,-3.6918589599609373,3.7804444213867185,-39.98473282442748,67.81679389312977,-9.450381679389313,-8.465897070312499,-1.7621324218749999,2.91134921875,-1.465648854961832,26.580152671755727,20.03053435114504,0.0
10.930000305175781,-6.517016918945312,-3.0813375366210938,5.693411547851563,-38.74809160305343,67.81679389312977,-16.458015267175572,-6.818686328125,-1.8076222534179687,2.9281086303710935,-7.7251908396946565,21.51145038167939,20.65648854961832,0.0
10.940000295639038,-7.122749938964843,-1.7693150268554687,6.4284314575195305,-27.541984732824428,66.6412213740458,-16.99236641221374,-7.513004809570312,-2.5761609863281247,3.0645781249999997,-8.076335877862595,19.480916030534353,24.137404580152673,0.0
10.950000524520874,-7.410054138183593,-1.3120225097656248,6.928819604492187,-9.282442748091603,64.38167938931298,-10.900763358778626,-5.837063647460937,-2.5546131713867184,2.6982652709960937,-7.557251908396947,12.534351145038167,23.66412213740458,0.0
10.96000051498413,-8.173804467773436,-0.5722141967773438,9.0788126953125,14.549618320610687,62.25954198473283,-3.282442748091603,-6.8976949829101555,-2.1260510742187497,2.6216508178710938,-1.0534351145038168,7.129770992366412,23.022900763358777,0.0
10.970000267028809,-8.183381274414062,0.08379705810546874,11.944672082519531,40.10687022900763,54.961832061068705,4.67175572519084,-6.636727001953124,-1.3910311645507811,2.43250888671875,-2.5801526717557253,4.0,21.908396946564885,0.0
10.980000495910645,-9.093177905273437,2.3223756103515623,13.776236352539062,58.33587786259542,39.80152671755725,10.992366412213741,-6.0908490234374995,0.11013327636718749,1.7932570434570312,-7.32824427480916,2.0763358778625953,20.015267175572518,0.0
10.990000486373901,-8.904035974121093,4.903325,13.99410870361328,62.30534351145038,21.099236641221374,15.98473282442748,-5.633556506347656,0.16041151123046873,1.9201497314453124,-11.816793893129772,0.6259541984732825,19.81679389312977,0.0
11.000000238418579,-8.123526232910155,7.338228088378906,13.927071057128906,59.31297709923664,0.916030534351145,19.87786259541985,-5.5545478515625,1.66636435546875,1.7908628417968748,-17.755725190839694,-1.8473282442748091,20.48854961832061,0.0
11.010000944137573,-4.680664245605469,2.961627453613281,12.717999218749998,68.12213740458016,-25.053435114503817,27.938931297709924,-5.221753820800781,2.6671406494140624,1.43652099609375,-28.244274809160306,-4.732824427480916,21.984732824427482,0.0
11.020047187805176,-4.515464331054687,1.1947066284179686,13.685256689453125,86.29007633587786,-33.43511450381679,28.870229007633586,-6.797138513183594,1.4891934326171874,2.099714855957031,-40.33587786259542,-2.7022900763358777,30.65648854961832,0.0
11.030000925064087,-3.5098996337890624,-0.2442085693359375,11.152191333007812,90.38167938931298,-46.06106870229008,25.755725190839694,-6.572083557128906,0.11731588134765625,1.3718775512695311,-44.152671755725194,-5.908396946564886,32.54961832061068,0.0
11.040000677108765,-8.489839086914062,1.85790048828125,4.589684582519531,51.587786259541986,-54.30534351145038,25.221374045801525,-8.32463917236328,-2.4205378784179685,1.9752163696289062,-41.61832061068702,-6.885496183206107,33.05343511450382,0.0
11.050000667572021,-18.409016564941407,-1.0773907470703123,9.361328491210937,5.435114503816794,-55.81679389312977,33.725190839694655,-10.28549033203125,-3.6152445068359373,0.19871873779296872,-36.68702290076336,-10.427480916030534,28.091603053435115,0.0
11.060000658035278,-31.80696905517578,7.805097412109374,12.966996191406249,34.6412213740458,-53.49618320610687,51.267175572519086,-14.106636181640624,-2.760514514160156,-1.1468225952148436,-39.66412213740458,-9.572519083969466,15.664122137404581,0.0
11.070000648498535,-37.098154724121095,22.404939135742186,0.7996633544921875,47.725190839694655,-51.31297709923664,82.10687022900764,-21.018696374511716,-3.622427111816406,0.7015010864257812,-55.11450381679389,-0.916030534351145,9.022900763358779,0.0
11.080000638961792,-24.66267130126953,4.88417138671875,-0.8858546142578124,-41.343511450381676,-70.58015267175573,68.16793893129771,-26.0489140625,-9.380482104492186,3.4356793823242184,-39.87786259541985,-12.748091603053435,6.717557251908397,0.0
11.090000629425049,-13.409923498535155,-10.20887587890625,2.2481553588867187,-27.053435114503817,-73.23664122137404,46.0,-25.04574356689453,-9.710881933593749,2.9568390502929685,-6.183206106870229,-37.12977099236641,-3.5572519083969465,0.0
11.100000619888306,-2.683900061035156,-9.433154541015625,-9.030928662109375,18.671755725190838,-58.213740458015266,17.099236641221374,-18.842367065429688,-3.2034418212890623,-0.5578489868164063,4.763358778625954,-53.541984732824424,-22.671755725190838,0.0
11.110000610351562,-2.061407629394531,-3.5817256835937497,-9.540893615722656,-6.977099236641221,-39.51145038167939,-7.511450381679389,-15.286977600097655,2.530671154785156,-2.2960393920898436,-0.04580152671755725,-48.67175572519084,-24.396946564885496,0.0
11.12000060081482,-3.5242648437499997,0.14125789794921875,-6.864176159667968,-18.47328244274809,-25.72519083969466,-13.557251908396946,-17.527950354003906,0.8044517578125,-0.373495458984375,9.312977099236642,-39.86259541984733,-13.86259541984733,0.0
11.130000591278076,-5.137956762695312,1.8339584716796873,-6.5026517089843745,-12.580152671755725,4.351145038167939,-12.030534351145038,-17.635689428710936,0.7398083129882812,0.3112462158203125,13.801526717557252,-46.50381679389313,-11.923664122137405,0.0
11.140000343322754,-10.386046801757812,8.315062365722655,-6.9360022094726554,-38.87022900763359,24.732824427480917,-17.129770992366414,-17.082628845214842,1.8507178833007811,0.023942016601562498,6.473282442748092,-48.56488549618321,-14.396946564885496,0.0
11.150000810623169,-13.893552233886718,8.817844714355468,-3.9600095458984375,-63.63358778625954,37.37404580152672,-8.717557251908397,-13.773842150878906,3.2058360229492187,-1.70467158203125,-8.687022900763358,-48.900763358778626,-15.282442748091603,0.0
11.160000801086426,-13.405135095214844,5.195417602539062,-2.3918074584960936,-67.87786259541984,50.80916030534351,5.801526717557252,-13.603853833007811,2.916137622070312,-0.82360537109375,-14.335877862595419,-36.16793893129771,-7.4961832061068705,0.0
11.170000791549683,-12.734758630371093,1.3718775512695311,-0.7398083129882812,-64.44274809160305,62.94656488549618,10.106870229007633,-13.970166687011718,1.7860744384765623,-0.28969840087890625,-9.572519083969466,-29.69465648854962,-2.595419847328244,0.0
11.18000078201294,-11.949460485839843,-1.5466542724609373,-0.16519991455078123,-51.81679389312977,72.01526717557252,10.885496183206106,-11.233594189453123,1.649604943847656,0.0047884033203125,2.351145038167939,-28.3206106870229,-1.0229007633587786,0.0
11.190000295639038,-10.534487304687499,-2.5163059448242184,-0.13168109130859373,-32.58015267175573,80.3969465648855,8.458015267175572,-10.527304699707031,4.000710974121094,-0.6105214233398437,4.458015267175573,-25.404580152671755,0.7022900763358778,0.0
11.200000524520874,-10.40041201171875,-1.5538368774414062,0.7757213378906249,-23.709923664122137,83.19083969465649,1.5267175572519085,-8.279149340820313,4.295197778320312,-1.5610194824218748,-6.809160305343512,-19.893129770992367,2.885496183206107,0.0
11.21000051498413,-10.548852514648438,-0.469263525390625,1.6304513305664061,-19.00763358778626,82.06106870229007,-3.2519083969465647,-8.595183959960938,4.848258361816406,-2.1883003173828124,-17.69465648854962,-8.442748091603054,9.114503816793894,0.0
11.220000267028809,-10.271125122070313,-0.33518823242187495,1.8626888916015625,-14.564885496183207,79.38931297709924,-6.916030534351145,-9.821015209960937,3.5122938354492184,-1.8818425048828125,-19.893129770992367,0.732824427480916,17.00763358778626,0.0
11.230000495910645,-10.381258398437499,0.3136404174804687,1.8124106567382812,-12.580152671755725,73.61832061068702,-10.534351145038167,-9.6151138671875,2.6144682128906247,-1.7836802368164062,-19.908396946564885,4.931297709923665,21.358778625954198,0.0
11.240000486373901,-9.995791931152343,-0.19871873779296872,1.5155296508789062,-9.083969465648854,72.35114503816794,-11.679389312977099,-8.920795385742187,2.4396914916992185,-2.032677209472656,-20.778625954198475,8.259541984732824,24.717557251908396,0.0
11.250000238418579,-9.502586389160156,-0.3112462158203125,1.5346832641601562,-4.061068702290076,72.3206106870229,-12.732824427480915,-8.257601525878906,1.6735469604492186,-2.2361843505859373,-22.427480916030536,11.32824427480916,25.984732824427482,0.0
11.260000705718994,-9.567229833984374,0.29448680419921874,1.618480322265625,-3.648854961832061,68.97709923664122,-15.267175572519085,-9.861716638183593,0.2609679809570312,-0.6871358764648438,-10.198473282442748,16.732824427480917,31.17557251908397,0.0
11.27000093460083,-9.351751684570312,-0.5722141967773438,2.2361843505859373,0.13740458015267176,70.29007633587786,-16.99236641221374,-8.94473740234375,-0.9457096557617187,-0.5722141967773438,-0.3969465648854962,13.511450381679388,30.68702290076336,0.0
11.280000448226929,-8.865728747558594,-0.5602431884765625,2.3870190551757813,5.129770992366412,70.58015267175573,-19.52671755725191,-11.197681164550781,-2.578555187988281,0.7685387329101562,16.50381679389313,18.045801526717558,32.68702290076336,0.0
11.290000915527344,-8.645462194824217,0.20829554443359374,2.138022082519531,10.442748091603054,66.77862595419847,-21.755725190839694,-8.015787158203125,-2.2266075439453124,0.28969840087890625,33.70992366412214,2.2442748091603053,24.198473282442748,0.0
11.300000667572021,-7.843404638671874,0.5410895751953124,2.3151930053710936,16.15267175572519,67.5114503816794,-23.389312977099237,-9.179369165039063,-3.5242648437499997,1.3455413330078123,45.41984732824427,-1.6793893129770991,20.198473282442748,0.0
11.310000658035278,-8.698134631347656,1.9105729248046874,2.6623522460937497,17.450381679389313,68.41221374045801,-24.198473282442748,-7.606378674316406,-0.8283937744140625,0.009576806640625,50.229007633587784,-14.870229007633588,10.030534351145038,0.0
11.320000648498535,-10.13226142578125,4.103661645507812,3.2034418212890623,11.068702290076336,66.6412213740458,-23.31297709923664,-8.341398583984375,-0.1388636962890625,0.3112462158203125,32.916030534351144,-12.610687022900763,4.091603053435114,0.0
11.330000400543213,-9.840168823242188,4.553771557617187,3.5482068603515624,-0.5648854961832062,61.19083969465649,-17.053435114503817,-8.571241943359375,0.040701428222656245,0.34237083740234375,29.068702290076335,-17.893129770992367,1.5572519083969465,0.0
11.34000039100647,-9.926360083007811,4.235342736816406,3.394977954101562,-9.541984732824428,55.17557251908397,-12.916030534351146,-8.643067993164061,1.388636962890625,0.3950432739257812,12.427480916030534,-18.30534351145038,-1.2671755725190839,0.0
11.350000619888306,-9.552864624023437,3.7229835815429686,3.0166940917968748,-19.19083969465649,48.93129770992366,-9.068702290076336,-9.203311181640624,-0.2657563842773437,1.2330138549804688,1.4045801526717556,-17.435114503816795,-1.4351145038167938,0.0
11.360000610351562,-9.090783703613281,2.8036101440429686,2.616862414550781,-28.564885496183205,42.83969465648855,-6.244274809160306,-11.645396875,-2.152387292480469,2.7461493041992187,7.908396946564886,-19.022900763358777,0.13740458015267176,0.0
11.37000060081482,-10.105925207519531,2.2290017456054687,2.626439221191406,-31.083969465648856,42.25954198473283,-6.473282442748092,-10.577582934570312,-3.289633081054687,2.4133552734375,24.595419847328245,-36.87022900763359,-7.419847328244275,0.0
11.380001068115234,-10.773907470703124,2.7653029174804686,2.760514514160156,-34.36641221374046,42.0763358778626,-8.564885496183207,-14.815319873046874,-6.955155822753905,4.582501977539062,49.52671755725191,-38.656488549618324,-8.473282442748092,0.0
11.390000820159912,-10.907982763671875,2.3127988037109373,2.454056701660156,-36.48854961832061,40.36641221374046,-7.908396946564886,-11.030087048339842,-5.006275671386718,4.024652990722656,74.27480916030534,-66.65648854961832,-20.0,0.0
11.400000810623169,-9.813832604980469,1.419761584472656,1.5490484741210937,-36.25954198473283,38.30534351145038,-7.145038167938932,-10.766724865722656,-2.942473840332031,3.3327287109375,78.99236641221374,-84.18320610687023,-30.748091603053435,0.0
11.410000562667847,-11.154585534667968,3.308786694335937,1.838746875,-50.85496183206107,37.770992366412216,-6.931297709923665,-9.014169250488282,-0.18914193115234373,2.3582886352539063,75.7557251908397,-98.58015267175573,-36.99236641221374,0.0
11.420000791549683,-10.338162768554687,2.6791116577148437,1.8363526733398436,-59.25190839694657,36.54961832061068,-6.1679389312977095,-9.68454571533203,0.3064578125,3.277662072753906,70.7175572519084,-101.0381679389313,-33.63358778625954,0.0
11.43000054359436,-9.689334118652344,1.455674609375,1.39821376953125,-66.30534351145039,35.954198473282446,-3.3587786259541983,-9.900023864746093,0.699106884765625,3.047818713378906,68.44274809160305,-109.55725190839695,-29.206106870229007,0.0
11.440000534057617,-9.928754284667969,1.6328455322265625,1.4149731811523436,-70.33587786259542,36.16793893129771,-4.961832061068702,-11.394005700683593,-0.0047884033203125,3.909731311035156,60.44274809160305,-110.36641221374046,-24.16793893129771,0.0
11.450000524520874,-9.813832604980469,0.7302315063476562,1.2210428466796874,-74.41221374045801,36.06106870229008,-2.9770992366412212,-10.922347973632812,0.9720458740234375,3.2561142578125,59.63358778625954,-113.96946564885496,-20.53435114503817,0.0
11.460000276565552,-9.643844287109374,0.41419688720703124,1.0869675537109373,-72.70229007633588,36.58015267175573,-3.5877862595419847,-9.445125549316407,1.886630908203125,2.6958710693359373,42.62595419847328,-110.83969465648855,-21.49618320610687,0.0
11.470000267028809,-9.241618408203124,0.3902548706054687,1.2234370483398436,-72.41221374045801,36.93129770992366,-2.6106870229007635,-8.197746484375,2.1715409057617188,1.5490484741210937,24.18320610687023,-99.37404580152672,-20.442748091603054,0.0
11.480000495910645,-9.469067565917967,0.2705447875976562,1.3838485595703125,-70.33587786259542,35.7557251908397,-1.3740458015267176,-7.381323718261719,2.834734765625,2.6599580444335937,3.4198473282442747,-84.21374045801527,-15.374045801526718,0.0
11.490000486373901,-9.576806640625,0.4285620971679687,1.9321207397460936,-65.45038167938931,34.47328244274809,-0.3969465648854962,-7.429207751464843,1.4628572143554686,2.5570073730468748,-9.801526717557252,-70.1526717557252,-10.091603053435115,0.0
11.500000476837158,-9.402029919433593,-0.37828386230468747,1.618480322265625,-57.16030534351145,32.091603053435115,0.8091603053435115,-6.974309436035155,1.68551796875,1.9512743530273435,-20.9618320610687,-59.3587786259542,-10.030534351145038,0.0
11.510000467300415,-8.712499841308594,-1.9943699829101562,0.6967126831054687,-41.786259541984734,31.46564885496183,2.3969465648854964,-7.1395093505859375,0.5602431884765625,3.6296097167968746,-28.015267175572518,-39.7557251908397,-7.374045801526718,0.0
11.520000696182251,-7.943961108398437,-1.915361328125,0.8667010009765624,-20.595419847328245,37.343511450381676,-1.251908396946565,-7.668627917480468,-0.7829039428710937,3.0741549316406247,-19.66412213740458,-34.47328244274809,-5.648854961832061,0.0
11.530000925064087,-9.3086560546875,-1.0031704956054688,1.0079588989257813,-8.290076335877863,41.43511450381679,-7.435114503816794,-8.767566479492187,-1.2473790649414063,3.6296097167968746,-0.3969465648854962,-30.885496183206108,-4.916030534351145,0.0
11.540000677108765,-9.756371765136718,0.3232172241210937,0.9193734375,0.33587786259541985,41.587786259541986,-10.01526717557252,-8.386888415527343,-0.39743747558593745,4.027047192382812,10.51908396946565,-30.763358778625953,-6.3816793893129775,0.0
11.550000667572021,-9.495403784179686,0.3758896606445312,1.0175357055664063,1.4198473282442747,42.62595419847328,-11.16030534351145,-6.976703637695312,0.7015010864257812,3.892971899414062,4.885496183206107,-25.114503816793892,-7.419847328244275,0.0
11.5600004196167,-9.555258825683593,1.5586252807617187,1.5490484741210937,1.3893129770992367,44.229007633587784,-11.98473282442748,-4.163516687011718,2.518700146484375,2.2744915771484373,-14.351145038167939,-20.9618320610687,-10.13740458015267,0.0
11.570000648498535,-10.000580334472655,2.272097375488281,2.3391350219726563,-4.0458015267175576,44.3206106870229,-12.732824427480915,-6.129156249999999,0.7637503295898437,3.1938650146484373,-29.435114503816795,-4.8396946564885495,-3.435114503816794,0.0
11.580000400543213,-9.490615380859374,1.5969325073242187,2.3511060302734372,-0.8702290076335878,43.55725190839695,-10.80916030534351,-5.9974751586914055,-0.2753331909179687,2.583343591308594,-34.412213740458014,-2.366412213740458,-3.6793893129770994,0.0
11.590000629425049,-9.054870678710937,2.5617957763671875,2.3127988037109373,0.4732824427480916,41.11450381679389,-10.992366412213741,-7.630320690917968,-1.20667763671875,3.3686417358398435,-27.83206106870229,1.3129770992366412,-2.1068702290076335,0.0
11.600000619888306,-8.702923034667968,1.5682020874023437,2.5546131713867184,-0.3816793893129771,39.12977099236641,-11.786259541984732,-6.605602380371093,-1.2401964599609374,3.725377783203125,-27.740458015267176,0.44274809160305345,-5.648854961832061,0.0
11.610000610351562,-9.188945971679686,1.5729904907226562,3.308786694335937,1.816793893129771,40.229007633587784,-12.274809160305344,-5.607220288085937,-1.0438719238281249,3.4763808105468748,-27.633587786259543,3.572519083969466,-8.641221374045802,0.0
11.62000060081482,-9.859322436523437,1.3024457031249999,3.9887399658203124,-1.9389312977099236,38.38167938931298,-13.786259541984732,-6.6510922119140625,-1.6639701538085936,3.8474820678710935,-23.435114503816795,6.030534351145038,-7.786259541984733,0.0
11.630000591278076,-9.282319836425781,1.707065783691406,4.61602080078125,-1.1603053435114503,32.656488549618324,-14.580152671755725,-6.6271501953125,-1.024718310546875,4.017470385742187,-27.480916030534353,12.01526717557252,-9.83206106870229,0.0
11.640000820159912,-9.53131680908203,1.3096283081054687,5.504269616699219,-2.6106870229007635,27.46564885496183,-13.679389312977099,-5.166687182617188,-1.177947216796875,2.978386865234375,-27.068702290076335,10.916030534351146,-11.877862595419847,0.0
11.65000057220459,-9.674968908691406,2.4756045166015626,6.1818286865234375,-1.0381679389312977,20.198473282442748,-15.145038167938932,-7.249642626953125,-1.4053963745117186,3.8762124877929685,-24.106870229007633,19.46564885496183,-9.053435114503817,0.0
11.660000801086426,-8.870517150878905,2.1068974609374997,6.5385647338867185,1.8015267175572518,11.068702290076336,-14.458015267175572,-5.755660791015624,-0.239420166015625,3.134009973144531,-23.435114503816795,20.702290076335878,-11.557251908396946,0.0
11.670000553131104,-8.765172277832031,2.4349030883789062,7.0461354858398435,3.2061068702290076,-0.4122137404580153,-12.67175572519084,-5.023035083007812,1.1923124267578125,2.9544448486328125,-34.6412213740458,30.091603053435115,-11.679389312977099,0.0
11.68000054359436,-8.808267907714843,1.9776105712890624,8.384494213867187,3.4198473282442747,-9.34351145038168,-11.709923664122137,-5.082890124511718,0.7062894897460937,3.019088293457031,-40.99236641221374,39.63358778625954,-7.557251908396947,0.0
11.690000534057617,-8.480262280273436,0.3711012573242187,8.611943371582031,8.259541984732824,-25.328244274809162,-9.969465648854962,-5.810727429199218,0.20829554443359374,2.5426421630859375,-40.94656488549618,43.31297709923664,-2.9618320610687023,0.0
11.700000524520874,-9.801861596679688,0.09337386474609374,9.785102185058593,14.854961832061068,-39.66412213740458,-12.290076335877863,-4.027047192382812,1.7094599853515624,1.8722656982421875,-45.74045801526717,48.045801526717554,-2.549618320610687,0.0
11.71000051498413,-9.311050256347656,-1.7334020019531249,10.436325036621094,31.068702290076335,-54.732824427480914,-15.068702290076336,-5.839457849121094,0.8714894042968749,2.4205378784179685,-41.61832061068702,56.152671755725194,-0.3969465648854962,0.0
11.720000505447388,-9.198522778320312,-2.3582886352539063,11.166556542968749,49.038167938931295,-68.45801526717557,-21.19083969465649,-6.909665991210937,0.9169792358398436,4.766855505371093,-48.94656488549618,57.282442748091604,-9.053435114503817,0.0
11.730000257492065,-12.351686364746094,-0.5099649536132812,14.283807104492187,56.74809160305343,-87.26717557251908,-28.442748091603054,-6.093243225097656,0.3232172241210937,4.082113830566406,-62.961832061068705,59.954198473282446,-13.709923664122137,0.0
11.740000486373901,-13.038822241210937,-0.852335791015625,15.87116280517578,65.43511450381679,-117.45038167938931,-25.404580152671755,-4.99909306640625,-1.5083470458984374,-1.9991583862304687,-78.59541984732824,69.23664122137404,-11.83206106870229,0.0
11.750000238418579,-13.385981481933593,-1.2904746948242187,14.355633154296875,77.16030534351145,-141.58778625954199,-19.786259541984734,-7.015010864257812,-2.887407202148437,-7.592013464355468,-68.90076335877863,81.1145038167939,-12.061068702290076,0.0
11.760000467300415,-12.361263171386717,-1.4820108276367188,9.785102185058593,61.770992366412216,-169.9083969465649,-22.610687022900763,-13.895946435546874,-4.707000463867187,-3.9336733276367184,-38.99236641221374,91.06870229007633,-23.282442748091604,0.0
11.77000093460083,-12.023680737304687,-1.1827356201171875,2.6958710693359373,43.847328244274806,-195.29770992366412,-31.557251908396946,-19.615694201660155,-5.9017070922851556,4.754884497070313,-17.770992366412212,95.87786259541984,-43.14503816793893,0.0
11.780000686645508,-11.410765112304686,-1.47482822265625,-4.594472985839843,41.93893129770992,-203.63358778625954,-32.25954198473283,-23.6355587890625,-7.433996154785156,14.180856433105468,6.778625954198473,69.19083969465649,-47.38931297709924,0.0
11.790000915527344,-10.275913525390624,-4.13718046875,-8.765172277832031,55.00763358778626,-194.53435114503816,-26.50381679389313,-19.65878983154297,-5.88015927734375,15.332467431640625,51.14503816793893,26.27480916030534,-29.267175572519083,0.0
11.8000009059906,-12.624625354003905,-3.902548706054687,-10.500968481445312,88.73282442748092,-170.9770992366412,-18.259541984732824,-14.089876770019531,-0.3687070556640625,8.0062103515625,80.51908396946565,-3.114503816793893,7.587786259541985,0.0
11.810000658035278,-14.662090966796875,-3.687070556640625,-9.188945971679686,102.16793893129771,-153.74045801526717,-16.671755725190838,-11.465831750488281,3.878606689453125,2.789244934082031,73.81679389312977,-17.053435114503817,24.366412213740457,0.0
11.820000648498535,-15.73708751220703,0.49799394531249996,-4.6830584472656245,126.18320610687023,-128.38167938931298,-12.80916030534351,-8.425195642089843,6.8210805297851556,-0.12689268798828124,28.580152671755727,-17.297709923664122,23.96946564885496,0.0
11.830000877380371,-17.080234643554686,5.286397265624999,-1.1180921752929687,126.99236641221374,-108.56488549618321,-0.916030534351145,-5.892130285644531,3.778050219726562,-2.798821740722656,-7.358778625954199,-7.6183206106870225,27.374045801526716,0.0
11.84000039100647,-16.072275744628904,5.700594152832031,1.4173673828125,113.12977099236642,-97.93893129770993,10.625954198473282,-5.286397265624999,-2.987963671875,-2.877830395507812,-19.51145038167939,5.557251908396947,28.061068702290076,0.0
11.850000619888306,-15.267823986816405,5.580884069824219,3.5003228271484375,91.78625954198473,-92.65648854961832,20.85496183206107,-5.961562133789062,-8.090007409667969,-3.191470812988281,-16.732824427480917,17.129770992366414,18.9618320610687,0.0
11.860000610351562,-14.202404248046873,6.758831286621094,3.5482068603515624,63.083969465648856,-89.45038167938931,32.97709923664122,-5.274426257324219,-11.705251916503906,-2.2649147705078123,0.24427480916030533,21.251908396946565,10.0,0.0
11.87000060081482,-12.859257116699219,6.976703637695312,2.786850732421875,32.76335877862596,-86.50381679389314,44.67175572519084,-11.334150659179686,-8.29351455078125,-2.5665841796874997,27.435114503816795,31.022900763358777,1.9083969465648856,0.0
11.880000591278076,-10.919953771972656,4.857835168457031,1.5155296508789062,1.83206106870229,-82.22900763358778,51.847328244274806,-9.114725720214842,-2.3343466186523436,-3.7708676147460936,33.29770992366412,29.72519083969466,-7.847328244274809,0.0
11.890000343322754,-8.628702783203124,2.1356278808593747,0.055066638183593745,-28.625954198473284,-79.96946564885496,51.32824427480916,-9.425971936035156,-0.2442085693359375,-2.8945898071289062,23.114503816793892,35.404580152671755,-4.809160305343512,0.0
11.900000810623169,-6.641515405273437,-0.3280056274414062,-1.1563994018554686,-48.12213740458015,-77.49618320610686,46.10687022900763,-10.412383020019531,-2.3247698120117186,-0.4213794921875,16.458015267175572,39.51145038167939,2.7480916030534353,0.0
11.910000324249268,-5.097255334472656,-1.3239935180664062,-2.250549560546875,-57.61832061068702,-71.90839694656489,38.213740458015266,-11.066000073242186,-2.849099975585937,1.0462661254882812,19.389312977099237,40.83969465648855,2.015267175572519,0.0
11.920000791549683,-13.414711901855467,6.5577183471679685,2.5450363647460934,-87.43511450381679,-51.05343511450382,24.47328244274809,-9.239224206542968,0.8667010009765624,0.7996633544921875,12.732824427480915,42.50381679389313,-4.213740458015267,0.0
11.930000305175781,-12.215216870117187,5.906495495605468,1.24498486328125,-123.52671755725191,-82.9618320610687,37.267175572519086,-8.911218579101561,2.327164013671875,1.2521674682617188,-0.9007633587786259,50.10687022900763,4.870229007633588,0.0
11.940000295639038,-4.6351744140625,-1.7286135986328124,-1.6017209106445311,-115.86259541984732,-82.99236641221374,58.732824427480914,-8.269572534179687,2.789244934082031,0.8451531860351562,-7.0534351145038165,44.25954198473283,13.740458015267176,0.0
11.950000524520874,-1.1133037719726562,-5.904101293945312,-3.3542765258789062,-99.63358778625954,-63.64885496183206,49.55725190839695,-7.881711865234375,3.3590649291992185,1.2880804931640624,-25.14503816793893,51.55725190839695,17.068702290076335,0.0
11.96000051498413,8.712499841308594,-15.612589025878906,-10.524910498046875,-27.14503816793893,-37.9236641221374,50.30534351145038,-5.267243652343749,2.0973206542968748,1.6519991455078125,-33.51145038167939,53.221374045801525,22.47328244274809,0.0
11.970000505447388,6.335057592773437,-14.367604162597656,-8.030152368164062,31.96946564885496,30.702290076335878,25.221374045801525,-6.873752966308594,-0.23223756103515625,2.142810485839844,-39.74045801526717,64.04580152671755,28.0,0.0
11.980000495910645,1.8339584716796873,-9.272743029785156,-7.218518005371093,61.954198473282446,64.62595419847328,-0.7480916030534351,-6.675034228515624,-1.3287819213867187,2.272097375488281,-35.70992366412214,63.89312977099237,27.251908396946565,0.0
11.990000486373901,-1.20667763671875,-5.348646508789062,-4.917690209960937,82.3206106870229,102.09160305343511,-13.358778625954198,-8.89924757080078,-2.3439234252929686,3.0406361083984375,-34.61068702290076,68.53435114503817,29.770992366412212,0.0
12.000000476837158,-2.8658593872070313,-2.4516625,-2.6479870361328124,71.25190839694656,115.86259541984732,-28.870229007633586,-6.41646044921875,0.34715924072265625,0.7445967163085937,-29.236641221374047,54.13740458015267,22.977099236641223,0.0
12.010000944137573,-5.025429284667968,-0.08858546142578125,0.2154781494140625,49.48091603053435,122.79389312977099,-41.11450381679389,-7.931990100097655,-1.5729904907226562,2.205059729003906,-32.229007633587784,57.31297709923664,29.297709923664122,0.0
12.020000696182251,-8.195352282714843,2.3511060302734372,4.601655590820312,14.687022900763358,117.77099236641222,-49.37404580152672,-7.790732202148437,-2.24097275390625,2.578555187988281,-23.755725190839694,53.587786259541986,32.67175572519084,0.0
12.030000686645508,-8.111555224609374,0.3280056274414062,6.169857678222656,-7.236641221374046,100.0,-47.587786259541986,-7.359775903320312,-4.5322237426757805,3.172317199707031,-8.290076335877863,43.06870229007634,32.94656488549618,0.0
12.040000677108765,-8.695740429687499,1.7310078002929687,9.050082275390624,8.16793893129771,96.22900763358778,-38.94656488549618,-7.5537062377929685,-3.9791631591796874,3.4165257690429685,8.442748091603054,32.534351145038165,29.954198473282442,0.0
12.0500009059906,-9.471461767578125,5.073313317871094,11.652579479980469,10.67175572519084,74.29007633587786,-25.51145038167939,-6.967126831054687,-1.8076222534179687,2.868253588867187,8.67175572519084,24.076335877862597,23.72519083969466,0.0
12.060000658035278,-9.842563024902343,6.919242797851562,14.089876770019531,23.14503816793893,58.030534351145036,1.3893129770992367,-6.988674645996094,-2.2673089721679687,3.404554760742187,4.366412213740458,27.72519083969466,24.671755725190838,0.0
12.070000648498535,-8.930372192382812,6.801926916503906,14.020444921874999,34.3206106870229,37.404580152671755,25.52671755725191,-5.109226342773437,-1.0390835205078124,3.028665100097656,2.885496183206107,20.47328244274809,20.80916030534351,0.0
12.080000877380371,-7.211335400390625,5.686228942871093,13.412317700195311,38.274809160305345,8.763358778625955,35.49618320610687,-5.53539423828125,-0.373495458984375,3.2321722412109373,4.351145038167939,19.083969465648856,19.068702290076335,0.0
12.09000039100647,-3.763685009765625,-0.9744400756835937,13.326126440429686,67.20610687022901,-6.778625954198473,39.587786259541986,-4.709394665527343,-0.3016694091796875,2.9759926635742184,2.732824427480916,16.045801526717558,19.633587786259543,0.0
12.100000619888306,-1.3144167114257812,-3.5913024902343746,13.754688537597655,108.56488549618321,-21.52671755725191,28.30534351145038,-5.267243652343749,-0.13646949462890623,3.356670727539062,2.183206106870229,16.18320610687023,21.770992366412212,0.0
12.110000610351562,-2.602497204589844,-0.82360537109375,13.862427612304687,135.66412213740458,-34.56488549618321,13.129770992366412,-5.370194323730469,0.239420166015625,2.664746447753906,-3.8473282442748094,15.954198473282442,23.419847328244273,0.0
12.12000060081482,-2.4133552734375,1.7669208251953124,6.672640026855468,138.33587786259542,-39.63358778625954,11.206106870229007,-6.0142345703124995,-3.3016040893554686,3.0358477050781247,-1.4045801526717556,15.465648854961833,27.46564885496183,0.0
12.130000591278076,-9.363722692871093,2.825157958984375,-0.19153613281249998,60.213740458015266,-47.49618320610687,9.709923664122137,-9.758765966796874,-4.604049792480469,2.214636535644531,10.946564885496183,12.045801526717558,23.19083969465649,0.0
12.140000820159912,-23.32191837158203,2.920926025390625,6.6893994384765625,31.236641221374047,-44.88549618320611,24.717557251908396,-11.353304272460937,-6.1076084350585935,1.6256629272460936,17.893129770992367,12.687022900763358,16.564885496183205,0.0
12.15000057220459,-39.22540289916992,26.09919229736328,6.133944653320312,86.76335877862596,-4.229007633587786,90.47328244274809,-16.800113049316405,-3.77326181640625,-0.12449848632812499,17.83206106870229,8.320610687022901,0.7633587786259542,0.0
12.160001039505005,-39.22540289916992,21.957223425292966,-7.242460021972656,51.29770992366412,-18.213740458015266,117.57251908396947,-26.95871069335937,-4.11802685546875,0.9265560424804687,-9.053435114503817,8.702290076335878,-2.427480916030534,0.0
12.170000553131104,-21.351490405273438,-12.222399475097655,4.149151477050781,-14.458015267175572,-20.732824427480917,86.53435114503817,-31.196447631835937,-7.785943798828124,1.838746875,-2.427480916030534,-15.358778625954198,1.816793893129771,0.0
12.18000054359436,-9.181763366699219,-21.02348477783203,6.957550024414062,43.282442748091604,-25.16030534351145,27.0381679389313,-29.582755712890624,-9.330203869628905,1.4508862060546874,31.61832061068702,-38.045801526717554,-11.312977099236642,0.0
12.190000534057617,-3.3877953491210935,-5.652710119628906,-7.908048083496094,54.99236641221374,-31.770992366412212,-10.961832061068701,-21.665130822753905,-3.928884924316406,-2.568978381347656,41.48091603053435,-58.79389312977099,-41.74045801526717,0.0
12.200000286102295,-1.0319009155273438,1.8267758666992187,-7.556100439453124,-0.24427480916030533,-37.9236641221374,-25.64885496183206,-20.159177978515626,1.8938135131835936,-2.9951462768554684,50.091603053435115,-55.3587786259542,-47.98473282442748,0.0
12.210000276565552,-1.8100164550781248,-2.5761609863281247,-4.276044165039062,-18.045801526717558,-15.755725190839694,-29.786259541984734,-20.415357556152344,3.9743747558593747,-2.1547814941406247,64.06106870229007,-56.18320610687023,-42.76335877862596,0.0
12.220000267028809,-3.778050219726562,1.2018892333984375,-9.516951599121093,-16.885496183206108,9.022900763358779,-36.93129770992366,-19.136853869628904,5.312733483886719,-1.5346832641601562,54.06106870229008,-60.97709923664122,-42.6412213740458,0.0
12.230000495910645,-6.892906579589844,5.082890124511718,-11.700463513183593,-36.56488549618321,26.015267175572518,-39.66412213740458,-16.239869860839843,5.990292553710937,-1.6328455322265625,28.244274809160306,-59.52671755725191,-39.770992366412216,0.0
12.240000486373901,-10.51533369140625,2.664746447753906,-8.556876733398436,-43.954198473282446,53.05343511450382,-31.83206106870229,-13.814543579101562,5.434837768554687,-1.0749965454101562,14.442748091603054,-51.98473282442748,-29.893129770992367,0.0
12.250000476837158,-12.39238779296875,2.1739351074218747,-6.105214233398437,-24.885496183206108,85.12977099236642,-28.610687022900763,-10.979808813476561,5.1140147460937495,-1.5825672973632812,4.717557251908397,-47.48091603053435,-21.022900763358777,0.0
12.260000705718994,-14.341267944335936,3.162740393066406,-3.9360675292968748,-18.30534351145038,106.04580152671755,-27.129770992366414,-10.01015714111328,4.050989208984375,-0.2059013427734375,-4.732824427480916,-36.396946564885496,-12.595419847328245,0.0
12.27000117301941,-14.255076684570312,1.8531120849609375,-2.003946789550781,-10.80916030534351,119.54198473282443,-18.106870229007633,-9.782707983398437,4.742913488769531,-0.03591302490234375,-7.282442748091603,-28.900763358778626,-6.595419847328245,0.0
12.280000448226929,-11.918335864257811,-0.08379705810546874,-0.6200982299804687,-10.732824427480915,122.91603053435115,-16.48854961832061,-11.171344946289063,3.0119056884765625,0.5578489868164063,-12.335877862595419,-17.374045801526716,2.8396946564885495,0.0
12.290000915527344,-12.48097325439453,-1.0199299072265624,1.8770541015625,-13.923664122137405,120.70229007633588,-21.480916030534353,-10.36210478515625,3.105279553222656,0.24181436767578124,-7.297709923664122,-11.297709923664122,10.473282442748092,0.0
12.300000667572021,-11.956643090820311,-0.3327940307617187,2.863465185546875,-19.374045801526716,108.21374045801527,-25.64885496183206,-12.076353173828124,0.9504980590820312,1.8698714965820311,-0.030534351145038167,-3.7251908396946565,22.137404580152673,0.0
12.310000658035278,-10.565611926269531,-0.7852981445312499,2.463633508300781,-25.52671755725191,96.59541984732824,-27.129770992366414,-9.188945971679686,3.4572271972656248,-0.9074024291992187,1.1297709923664123,-16.763358778625953,22.061068702290076,0.0
12.320000648498535,-10.637437976074217,0.22266075439453123,2.454056701660156,-32.778625954198475,88.3206106870229,-29.114503816793892,-9.205705383300781,3.641580725097656,-1.8171990600585937,-13.16030534351145,-15.84732824427481,23.923664122137403,0.0
12.330000638961792,-9.483432775878907,0.8116343627929687,1.93451494140625,-41.770992366412216,82.13740458015268,-28.106870229007633,-8.434772448730468,5.758054992675781,-2.7940333374023436,-31.61832061068702,-14.396946564885496,26.290076335877863,0.0
12.340000629425049,-9.131485131835937,0.8044517578125,1.5777788940429687,-50.47328244274809,78.90076335877863,-28.870229007633586,-9.512163195800781,5.118803149414062,-1.659181750488281,-51.17557251908397,-7.603053435114504,33.6793893129771,0.0
12.350000619888306,-6.794744311523437,-2.001552587890625,0.17477672119140625,-44.74809160305343,69.2824427480916,-26.33587786259542,-7.352593298339843,3.153163586425781,-1.6472107421875,-60.2442748091603,-13.129770992366412,36.213740458015266,0.0
12.360000371932983,-7.721300354003906,-1.8291700683593748,0.5578489868164063,-30.106870229007633,75.25190839694656,-28.53435114503817,-8.939948999023438,0.3280056274414062,0.354341845703125,-47.83206106870229,-10.320610687022901,41.45038167938932,0.0
12.37000060081482,-6.282385156249999,-1.599326708984375,0.38307226562499996,-13.786259541984732,77.81679389312977,-29.297709923664122,-7.721300354003906,-1.3024457031249999,0.6847416748046875,-33.05343511450382,-21.17557251908397,37.87786259541985,0.0
12.380001068115234,-8.504204296874999,0.04548983154296875,1.2976572998046874,-3.1603053435114505,83.22137404580153,-29.14503816793893,-7.714117749023437,-1.1516109985351561,1.0319009155273438,-22.061068702290076,-25.282442748091604,32.35114503816794,0.0
12.390000581741333,-7.8721350585937495,2.461239306640625,1.2282254516601563,-4.595419847328245,80.1526717557252,-26.427480916030536,-7.271190441894531,0.5698199951171875,0.8571241943359375,-32.35114503816794,-27.587786259541986,24.290076335877863,0.0
12.400000810623169,-10.654197387695312,4.472368701171875,2.8730419921875,-14.122137404580153,78.58015267175573,-23.114503816793892,-7.541735229492187,-2.01112939453125,2.133233679199219,-38.50381679389313,-24.80916030534351,22.30534351145038,0.0
12.410000562667847,-11.616666455078125,4.352658618164062,3.0597897216796874,-29.81679389312977,67.66412213740458,-17.862595419847327,-9.14824454345703,-2.6048914062499997,2.1715409057617188,-28.458015267175572,-35.55725190839695,20.412213740458014,0.0
12.420000791549683,-13.603853833007811,6.5768719604492185,4.613626599121093,-45.37404580152672,63.23664122137404,-15.84732824427481,-9.406818322753905,-1.6927005737304686,2.0829554443359375,-32.2442748091603,-42.50381679389313,14.625954198473282,0.0
12.430000305175781,-10.800243688964843,2.2361843505859373,2.3822306518554686,-58.458015267175576,46.87022900763359,-6.198473282442748,-9.524134204101562,-2.645592834472656,2.4444798950195312,-33.52671755725191,-46.74809160305343,11.526717557251908,0.0
12.440000534057617,-11.88721124267578,3.1100679565429687,3.076549133300781,-60.70229007633588,47.282442748091604,-6.015267175572519,-11.745953344726562,-3.7924154296875,2.2673089721679687,-22.061068702290076,-54.01526717557252,9.374045801526718,0.0
12.450000524520874,-10.848127722167968,1.429338391113281,1.9776105712890624,-68.47328244274809,42.87022900763359,-8.259541984732824,-11.489773767089844,-3.246537451171875,2.3343466186523436,-14.01526717557252,-63.89312977099237,2.351145038167939,0.0
12.46000051498413,-10.031704956054687,1.2234370483398436,1.005564697265625,-73.95419847328245,36.58015267175573,-7.343511450381679,-11.71482872314453,-3.172317199707031,2.231395947265625,-4.183206106870229,-72.56488549618321,-3.099236641221374,0.0
12.470000505447388,-9.641450085449218,1.4867992309570313,1.1923124267578125,-74.27480916030534,37.48091603053435,-8.183206106870228,-11.674127294921874,-3.5194764404296874,1.908178723144531,7.099236641221374,-82.09160305343511,-9.84732824427481,0.0
12.480000495910645,-9.773131176757811,1.5801730957031248,1.2785036865234374,-76.1526717557252,35.83206106870229,-7.175572519083969,-11.173739147949219,-3.7612908081054686,2.4756045166015626,11.557251908396946,-83.86259541984732,-14.83969465648855,0.0
12.490000486373901,-9.710881933593749,1.7573440185546874,1.2856862915039062,-76.70229007633588,34.274809160305345,-4.885496183206107,-9.368511096191405,-1.7094599853515624,1.2282254516601563,17.206106870229007,-92.30534351145039,-22.12213740458015,0.0
12.500000238418579,-10.333374365234375,2.0063409912109376,1.3838485595703125,-76.87022900763358,32.06106870229008,-4.076335877862595,-10.577582934570312,-2.1404162841796874,0.9720458740234375,22.793893129770993,-90.30534351145039,-23.755725190839694,0.0
12.510000944137573,-10.053252770996092,1.0702081420898437,1.6735469604492186,-74.42748091603053,30.900763358778626,-2.33587786259542,-9.41639512939453,-2.3343466186523436,1.2785036865234374,26.763358778625953,-91.45038167938931,-26.549618320610687,0.0
12.520000696182251,-10.47702646484375,0.8930372192382812,1.3431471313476562,-73.23664122137404,29.61832061068702,-1.618320610687023,-9.667786303710937,-2.602497204589844,2.3630770385742186,29.450381679389313,-84.27480916030534,-26.366412213740457,0.0
12.530001163482666,-9.9981861328125,0.37828386230468747,0.7517793212890624,-70.41221374045801,26.793893129770993,-0.22900763358778625,-9.011775048828124,-1.455674609375,2.0087351928710935,33.86259541984733,-84.65648854961832,-30.65648854961832,0.0
12.540000677108765,-9.97903251953125,0.3495534423828125,0.47884033203125,-66.10687022900764,25.52671755725191,-0.5648854961832062,-9.713276135253906,-2.2936451904296873,2.9496564453125,39.64885496183206,-76.65648854961832,-29.083969465648856,0.0
12.550000667572021,-9.440337145996093,-0.24660277099609373,0.0047884033203125,-62.10687022900763,25.51145038167939,-0.8854961832061069,-8.590395556640624,-1.1133037719726562,2.8227637573242186,37.81679389312977,-70.19847328244275,-31.801526717557252,0.0
12.560000658035278,-10.237606298828124,-0.29448680419921874,0.488417138671875,-56.50381679389313,24.82442748091603,-0.3969465648854962,-8.492233288574218,-0.8643067993164062,2.9544448486328125,41.05343511450382,-64.77862595419847,-30.870229007633586,0.0
12.570000648498535,-10.05564697265625,-0.2154781494140625,0.3327940307617187,-46.045801526717554,25.572519083969464,0.6412213740458015,-6.847416748046874,0.35194764404296874,2.6982652709960937,34.30534351145038,-57.17557251908397,-32.16793893129771,0.0
12.580000638961792,-10.98699141845703,0.5003881469726562,0.3232172241210937,-42.99236641221374,26.732824427480917,1.5877862595419847,-7.070077502441406,0.44053310546874996,2.5665841796874997,33.43511450381679,-46.213740458015266,-29.31297709923664,0.0
12.590000629425049,-10.060435375976562,0.7829039428710937,-0.40940848388671874,-37.61832061068702,26.0,2.5801526717557253,-7.802703210449218,0.05746083984375,3.687070556640625,33.23664122137404,-36.51908396946565,-25.435114503816795,0.0
12.600000619888306,-10.309432348632813,0.93852705078125,-0.354341845703125,-35.954198473282446,27.053435114503817,2.2748091603053435,-5.360617517089843,0.9648632690429687,2.1260510742187497,24.671755725190838,-32.717557251908396,-27.46564885496183,0.0
12.610000371932983,-9.485826977539062,-0.143652099609375,-0.5913678100585937,-32.396946564885496,27.755725190839694,2.946564885496183,-5.623979699707031,2.013523596191406,2.789244934082031,9.923664122137405,-15.83206106870229,-24.778625954198475,0.0
12.62000060081482,-10.156203442382813,-0.16998831787109375,0.8547299926757812,-17.893129770992367,36.93129770992366,2.030534351145038,-5.571307263183593,1.3263877197265623,2.559401574707031,8.122137404580153,-9.877862595419847,-18.778625954198475,0.0
12.630000591278076,-9.449913952636718,-0.8164227661132812,0.9959878906249999,-7.816793893129771,38.25954198473283,0.916030534351145,-8.037334973144532,-0.4261678955078125,3.229778039550781,17.572519083969464,-3.435114503816794,-13.267175572519085,0.0
12.640000820159912,-10.747571252441405,-0.38307226562499996,1.1109095703125,1.633587786259542,35.32824427480916,-0.7633587786259542,-6.45476767578125,0.9169792358398436,3.028665100097656,17.572519083969464,-2.030534351145038,-16.427480916030536,0.0
12.65000057220459,-9.476250170898437,1.16837041015625,1.7908628417968748,4.824427480916031,33.969465648854964,-0.8244274809160306,-6.7037646484375,0.5315127685546874,3.749319799804687,12.320610687022901,9.267175572519085,-13.648854961832061,0.0
12.660000801086426,-11.362881079101562,1.35990654296875,2.9568390502929685,5.755725190839694,32.18320610687023,-2.4732824427480917,-6.155492468261718,1.6639701538085936,2.980781066894531,6.198473282442748,12.381679389312977,-11.282442748091603,0.0
12.670000314712524,-10.309432348632813,1.4173673828125,2.473210314941406,4.0,21.572519083969464,-1.1908396946564885,-6.0142345703124995,1.4245499877929686,3.1771056030273437,-2.7938931297709924,20.778625954198475,-9.083969465648854,0.0
12.68000054359436,-10.333374365234375,1.6160861206054686,2.93050283203125,4.8396946564885495,16.38167938931298,-1.633587786259542,-5.911283898925781,1.6160861206054686,2.9759926635742184,-11.679389312977099,25.72519083969466,-8.259541984732824,0.0
12.690000534057617,-11.286266625976562,3.399766357421875,4.161122485351562,-3.480916030534351,12.50381679389313,-3.114503816793893,-5.303156677246093,1.917755529785156,2.5043349365234375,-30.290076335877863,35.786259541984734,-9.816793893129772,0.0
12.700000524520874,-10.778695874023438,2.2385785522460937,4.046200805664062,-7.526717557251908,5.358778625954199,-0.7633587786259542,-7.168239770507812,0.028730419921875,2.81558115234375,-34.29007633587786,45.43511450381679,-5.145038167938932,0.0
12.710000276565552,-9.789890588378906,0.8164227661132812,3.1292215698242187,4.687022900763359,1.0381679389312977,1.0687022900763359,-8.279149340820313,-0.9026140258789062,3.0358477050781247,-31.267175572519083,47.17557251908397,-4.320610687022901,0.0
12.720000505447388,-9.763554370117188,0.4525041137695312,2.8275521606445313,13.511450381679388,0.15267175572519084,-0.3511450381679389,-7.340622290039062,-0.7110778930664062,3.0310593017578125,-30.091603053435115,47.55725190839695,-7.603053435114504,0.0
12.730000257492065,-9.076418493652342,0.8906430175781249,3.0885201416015624,12.305343511450381,-3.5877862595419847,-1.9389312977099236,-7.740453967285156,-0.5889736083984375,3.3016040893554686,-25.46564885496183,49.14503816793893,-7.114503816793893,0.0
12.740000247955322,-10.144232434082031,1.8818425048828125,4.204218115234375,9.251908396946565,-8.412213740458014,-3.786259541984733,-7.615955480957031,-0.7158662963867187,3.459621398925781,-25.389312977099237,50.29007633587786,-6.3816793893129775,0.0
12.750000476837158,-9.313444458007812,0.9074024291992187,4.6447512207031245,14.778625954198473,-15.572519083969466,-4.977099236641221,-8.104372619628906,-1.388636962890625,3.8283284545898435,-21.34351145038168,49.55725190839695,-3.49618320610687,0.0
12.760000705718994,-8.901641772460938,0.2705447875976562,5.2648494506835934,20.412213740458014,-22.15267175572519,-6.519083969465649,-7.8912886718749995,-0.40462008056640625,3.1938650146484373,-20.091603053435115,43.61832061068702,-5.312977099236641,0.0
12.77000093460083,-8.580818749999999,0.27293898925781246,6.0142345703124995,29.51145038167939,-29.053435114503817,-8.992366412213741,-6.988674645996094,-0.016759411621093748,3.189076611328125,-22.625954198473284,44.50381679389313,-4.33587786259542,0.0
12.780000686645508,-8.772354882812499,0.32082302246093747,7.1035963256835934,35.282442748091604,-37.725190839694655,-11.038167938931299,-7.230489013671875,-0.8930372192382812,3.6248213134765623,-18.9618320610687,44.01526717557252,-0.183206106870229,0.0
12.790000677108765,-9.643844287109374,1.3192051147460937,8.688557824707031,34.70229007633588,-49.31297709923664,-15.099236641221374,-6.543353137207031,0.277727392578125,2.6982652709960937,-17.267175572519083,37.969465648854964,-1.2366412213740459,0.0
12.800000667572021,-6.825868933105468,-1.0702081420898437,7.577648254394531,53.45038167938932,-69.54198473282443,-13.572519083969466,-6.287173559570312,0.7062894897460937,2.923320227050781,-21.69465648854962,41.465648854961835,-0.32061068702290074,0.0
12.810000896453857,-9.670180505371093,-0.55545478515625,10.510545288085936,62.06106870229008,-73.70992366412214,-18.870229007633586,-6.289567761230469,0.6009446166992187,3.208230224609375,-23.587786259541986,41.267175572519086,1.816793893129771,0.0
12.820000648498535,-12.773065856933593,0.1484405029296875,14.504073657226561,52.56488549618321,-96.2442748091603,-26.290076335877863,-6.205770703124999,3.1100679565429687,2.2194249389648437,-26.885496183206108,37.969465648854964,-0.3969465648854962,0.0
12.830000638961792,-11.88721124267578,-0.7948749511718749,16.218322045898436,62.61068702290076,-127.06870229007633,-23.923664122137403,-8.195352282714843,2.138022082519531,4.364629626464843,-42.54961832061068,43.25190839694657,-5.251908396946565,0.0
12.840000629425049,-12.109871997070313,-2.0661960327148434,15.689203479003906,73.08396946564885,-155.40458015267177,-22.3206106870229,-9.751583361816406,-0.03591302490234375,6.311115576171875,-46.50381679389313,36.79389312977099,-10.351145038167939,0.0
12.850000619888306,-11.326968054199218,-0.25139117431640623,8.111555224609374,56.778625954198475,-180.4732824427481,-24.763358778625953,-6.591237170410156,-2.2170307373046874,0.8451531860351562,-66.04580152671755,34.25954198473283,-20.50381679389313,0.0
12.860000371932983,-11.71482872314453,1.927332336425781,-0.3854664672851562,13.267175572519085,-204.15267175572518,-32.229007633587784,-5.916072302246094,-3.342305517578125,-6.296750366210937,-75.20610687022901,43.404580152671755,-29.87786259541985,0.0
12.87000060081482,-9.294290844726563,-0.7924807495117187,-7.592013464355468,-18.045801526717558,-221.95419847328245,-33.20610687022901,-14.046781140136718,-9.143456140136719,-1.7190367919921874,-35.20610687022901,63.099236641221374,-42.48854961832061,0.0
12.880000591278076,-11.595118640136718,1.8698714965820311,-4.8123453369140625,-11.450381679389313,-197.1145038167939,-39.32824427480916,-24.284387438964842,-9.100360510253905,9.983820922851562,-9.358778625954198,56.56488549618321,-63.69465648854962,0.0
12.890145778656006,-8.578424548339843,-5.889736083984375,-9.794678991699218,8.992366412213741,-202.4885496183206,-33.66412213740458,-26.230873388671874,-4.096479040527344,16.096217761230466,32.54961832061068,12.061068702290076,-59.32824427480916,0.0
12.900000810623169,-15.538368774414062,-4.568136767578125,-6.888118176269531,53.404580152671755,-162.0763358778626,-28.50381679389313,-15.5144267578125,-0.9624690673828125,10.927136376953124,58.50381679389313,-26.12213740458015,-14.702290076335878,0.0
12.910000562667847,-19.773711511230466,-0.9624690673828125,-3.239354846191406,90.9618320610687,-151.3587786259542,-18.519083969465647,-10.070012182617187,2.96881005859375,4.618415002441406,67.1145038167939,-30.442748091603054,26.38167938931298,0.0
12.920000791549683,-27.392061193847656,6.507440112304687,1.6065093139648436,114.65648854961832,-133.09923664122138,0.48854961832061067,-7.220912207031249,6.430825659179687,-1.5705962890624998,34.51908396946565,-29.69465648854962,40.79389312977099,0.0
12.930000305175781,-25.73527364501953,9.337386474609374,3.4261025756835934,98.42748091603053,-147.45038167938932,22.885496183206108,-6.229712719726562,4.237736938476562,-4.376600634765625,0.33587786259541985,-20.137404580152673,43.41984732824427,0.0
12.940000534057617,-27.473464050292968,10.27830772705078,7.939172705078125,59.86259541984733,-145.6946564885496,40.94656488549618,-3.6846763549804686,-1.6352397338867186,-4.173093493652344,-22.3206106870229,-7.572519083969466,40.36641221374046,0.0
12.950000286102295,-20.982783349609374,8.494627490234375,4.070142822265625,21.740458015267176,-167.29770992366412,60.61068702290076,-5.415684155273437,-8.125920434570313,-3.4356793823242184,-22.946564885496183,16.641221374045802,32.717557251908396,0.0
12.96000051498413,-16.2805712890625,3.7900212280273435,0.7613561279296874,-13.618320610687023,-162.27480916030535,75.69465648854961,-7.532158422851562,-11.3389390625,-5.070919116210937,-4.702290076335878,26.33587786259542,25.770992366412212,0.0
12.970000267028809,-9.1554271484375,-1.70467158203125,-2.389413256835937,-36.35114503816794,-161.206106870229,71.14503816793894,-10.060435375976562,-9.196128576660156,-5.398924743652343,20.671755725190838,34.412213740458014,16.015267175572518,0.0
12.980000257492065,0.9864110839843749,-12.670115185546875,-6.9910688476562495,-18.045801526717558,-152.61068702290078,57.603053435114504,-10.826579907226561,-5.999869360351562,-4.69263525390625,38.30534351145038,40.36641221374046,8.931297709923664,0.0
12.990000247955322,3.0334535034179684,-11.686098303222655,-5.647921716308593,22.65648854961832,-102.87022900763358,22.33587786259542,-12.097900988769531,-5.72693037109375,-2.980781066894531,47.404580152671755,47.45038167938932,5.00763358778626,0.0
13.000000238418579,9.088389501953124,-11.221623181152344,-8.513781103515624,91.74045801526718,-70.83969465648855,10.244274809160306,-11.556811413574218,-4.742913488769531,-1.8411410766601561,64.51908396946565,49.70992366412214,-3.2213740458015265,0.0
13.010000944137573,2.6862942626953124,-6.112396838378906,-4.553771557617187,123.37404580152672,-5.1603053435114505,-11.419847328244275,-11.322179650878905,-3.366247534179687,-0.43574470214843747,73.25190839694656,55.52671755725191,-8.854961832061068,0.0
13.020000457763672,0.35194764404296874,-2.4516625,-5.839457849121094,129.17557251908397,15.389312977099237,-25.572519083969464,-7.723694555664062,1.0366893188476562,-0.97683427734375,63.770992366412216,53.74045801526717,-17.61832061068702,0.0
13.030000925064087,-3.6343981201171873,0.59376201171875,-3.3973721557617185,112.85496183206106,54.06106870229008,-31.72519083969466,-8.109161022949218,3.3590649291992185,0.062249243164062495,31.083969465648856,67.22137404580153,-8.793893129770993,0.0
13.040000677108765,-6.347028601074219,4.675875842285156,-2.3630770385742186,64.91603053435115,62.87022900763359,-36.25954198473283,-7.134720947265625,3.744531396484375,0.19153613281249998,11.007633587786259,66.68702290076335,-1.4809160305343512,0.0
13.050000667572021,-8.214505895996094,6.938396411132812,0.028730419921875,16.442748091603054,67.90839694656489,-31.435114503816795,-9.765948571777344,3.507505432128906,1.3048399047851562,-4.763358778625954,69.81679389312977,7.404580152671755,0.0
13.060000658035278,-7.4603323730468745,3.976768957519531,1.2042834350585936,-27.770992366412212,62.56488549618321,-16.83969465648855,-9.969455712890625,1.1013327636718748,2.6719290527343746,-12.80916030534351,64.19847328244275,14.381679389312977,0.0
13.070000648498535,-5.382165332031249,2.492363928222656,1.9704279663085937,-36.74809160305343,66.07633587786259,-8.396946564885496,-9.543287817382812,-0.43574470214843747,3.957615344238281,-19.16030534351145,62.76335877862596,17.954198473282442,0.0
13.080000638961792,-6.536170532226562,1.8531120849609375,2.7653029174804686,-60.38167938931298,57.20610687022901,-10.229007633587786,-8.930372192382812,-1.3072341064453123,4.048595007324218,-7.129770992366412,54.152671755725194,20.68702290076336,0.0
13.090000629425049,-5.135562561035156,-0.3950432739257812,2.9855694702148434,-61.37404580152672,54.458015267175576,-4.8396946564885495,-8.051700183105469,0.22266075439453123,2.863465185546875,-4.442748091603053,45.66412213740458,21.862595419847327,0.0
13.100000619888306,-4.446032482910156,-2.205059729003906,2.817975354003906,-51.37404580152672,54.94656488549618,-1.2366412213740459,-7.206546997070312,-0.3495534423828125,2.9041666137695312,-5.465648854961832,39.038167938931295,23.81679389312977,0.0
13.110000610351562,-2.959233251953125,-2.7940333374023436,2.473210314941406,-35.7557251908397,63.343511450381676,-2.9618320610687023,-7.651868505859374,-0.1005564697265625,2.7198130859375,-3.984732824427481,31.69465648854962,24.259541984732824,0.0
13.12000060081482,-2.9664158569335934,-0.45968671875,2.8802245971679685,-32.25954198473283,60.44274809160305,-3.7557251908396947,-8.02536396484375,0.13407529296874998,3.0358477050781247,-9.022900763358779,28.137404580152673,25.923664122137403,0.0
13.130000591278076,-3.679887951660156,-0.7757213378906249,4.125209460449218,-15.603053435114504,72.61068702290076,0.12213740458015267,-7.096413720703125,-0.7685387329101562,2.8610709838867185,-13.267175572519085,24.091603053435115,31.083969465648856,0.0
13.140000820159912,-2.272097375488281,-2.664746447753906,4.206612316894531,7.251908396946565,74.35114503816794,3.2213740458015265,-7.180210778808593,-1.7262193969726563,2.8203695556640622,-8.427480916030534,21.61832061068702,33.19083969465649,0.0
13.15000057220459,-6.121973645019531,-2.0877438476562498,10.05564697265625,35.49618320610687,87.54198473282443,0.6412213740458015,-6.406883642578125,-2.346317626953125,2.6575638427734374,-3.9236641221374047,19.17557251908397,33.23664122137404,0.0
13.160000801086426,-2.8945898071289062,-3.347093920898437,10.520122094726561,67.66412213740458,82.79389312977099,1.4198473282442747,-5.691017346191406,-1.139639990234375,2.152387292480469,-2.9923664122137406,14.442748091603054,27.19083969465649,0.0
13.170000553131104,-5.331887097167969,-0.6847416748046875,14.686032983398437,102.79389312977099,71.89312977099236,0.9465648854961832,-5.204994409179688,1.0342951171875,1.3718775512695311,-13.954198473282442,14.335877862595419,19.541984732824428,0.0
13.18000078201294,-6.725312463378906,6.584054565429687,13.874398620605469,115.83206106870229,54.16793893129771,-1.8015267175572518,-3.9719805541992184,1.2856862915039062,1.7741034301757812,-26.27480916030534,14.732824427480915,18.48854961832061,0.0
13.190000534057617,-8.805873706054687,11.504138977050781,16.294936499023436,90.99236641221374,28.290076335877863,-6.900763358778626,-6.600813977050781,1.0558429321289062,1.7597382202148437,-32.29007633587786,16.82442748091603,23.52671755725191,0.0
13.200000524520874,-3.3207577026367185,6.536170532226562,12.418724011230468,92.13740458015268,-10.320610687022901,-1.3893129770992367,-5.585672473144531,-0.36152445068359373,2.3032219970703123,-38.732824427480914,9.786259541984732,27.587786259541986,0.0
13.21000051498413,-3.1411925781249996,3.361459130859375,7.5153990112304685,96.0,-13.16030534351145,4.427480916030534,-6.402095239257812,-1.0271125122070313,1.6160861206054686,-42.93129770992366,3.1603053435114505,29.206106870229007,0.0
13.220000505447388,-2.834734765625,2.262520568847656,-0.32082302246093747,55.48091603053435,-12.702290076335878,9.099236641221374,-7.4220251464843745,-0.5482721801757812,2.2194249389648437,-44.778625954198475,6.99236641221374,30.549618320610687,0.0
13.230000495910645,-6.9719152343749995,2.365471240234375,-4.170699291992188,-17.053435114503817,-16.977099236641223,17.419847328244273,-7.706935144042968,-2.8562825805664063,2.779668127441406,-37.16030534351145,3.1603053435114505,31.083969465648856,0.0
13.240000486373901,-15.861585998535155,-0.32082302246093747,3.5506010620117183,-22.33587786259542,-2.0916030534351147,41.725190839694655,-8.844180932617187,-5.6407391113281244,2.6001030029296874,-28.198473282442748,1.0381679389312977,26.580152671755727,0.0
13.250000476837158,-36.08780162353516,16.012420703125,11.844115612792969,28.68702290076336,24.366412213740457,90.80916030534351,-11.803414184570311,-4.829104748535156,-0.3447650390625,-23.83206106870229,-6.778625954198473,12.244274809160306,0.0
13.260000705718994,-39.22540289916992,31.88358350830078,4.091690637207031,9.419847328244275,4.99236641221374,118.25954198473282,-18.459294799804688,-4.829104748535156,-0.27293898925781246,-23.587786259541986,2.9770992366412212,6.152671755725191,0.0
13.27000093460083,-34.14370987548828,9.34696328125,-5.578489868164062,-73.98473282442748,-42.0,109.64885496183206,-27.595568334960937,-6.9910688476562495,0.6272808349609375,-24.137404580152673,-6.99236641221374,-1.786259541984733,0.0
13.280000686645508,-15.928623645019531,-20.24536923828125,2.913743420410156,-93.26717557251908,-52.961832061068705,60.717557251908396,-29.551631091308593,-10.98699141845703,2.157175695800781,-16.259541984732824,-21.404580152671755,-3.801526717557252,0.0
13.290000915527344,-7.824251025390624,-22.960393920898436,3.172317199707031,-14.290076335877863,-33.16030534351145,22.229007633587788,-24.167071557617184,-7.352593298339843,-1.687912170410156,21.83206106870229,-46.44274809160305,-25.0381679389313,0.0
13.300000667572021,-2.1715409057617188,-8.961496813964843,-9.045293872070312,8.351145038167939,-27.068702290076335,-11.129770992366412,-20.343531506347656,-1.254561669921875,-3.0526071166992184,33.70992366412214,-50.30534351145038,-43.221374045801525,0.0
13.3100004196167,-1.3718775512695311,-2.252943762207031,-6.988674645996094,-13.923664122137405,-11.282442748091603,-29.19083969465649,-19.962853442382812,0.5770026000976562,-1.3742717529296875,41.969465648854964,-39.282442748091604,-42.656488549618324,0.0
13.320000648498535,-2.806004345703125,-2.817975354003906,-7.184999182128906,-18.35114503816794,4.961832061068702,-31.053435114503817,-20.24536923828125,0.36391865234375,-0.10773907470703124,63.74045801526717,-42.51908396946565,-42.13740458015267,0.0
13.330000638961792,-4.661510632324219,-1.0079588989257813,-10.694898815917968,-8.778625954198473,31.755725190839694,-38.88549618320611,-18.38746875,2.8275521606445313,0.16041151123046873,59.38931297709924,-46.12213740458015,-45.9236641221374,0.0
13.34000039100647,-6.622361791992187,1.9201497314453124,-12.543222497558594,-15.32824427480916,57.19083969465649,-44.87022900763359,-14.841656091308593,4.153939880371094,-0.10773907470703124,40.76335877862596,-41.17557251908397,-43.49618320610687,0.0
13.350000619888306,-10.50815108642578,4.240131140136718,-9.409212524414063,-24.412213740458014,82.19847328244275,-42.51908396946565,-12.325350146484375,3.873818286132812,-0.1580173095703125,41.9236641221374,-37.25190839694657,-31.099236641221374,0.0
13.360000610351562,-13.618219042968748,4.197035510253906,-5.4515971801757805,-24.061068702290076,101.7557251908397,-34.68702290076336,-10.89122335205078,4.295197778320312,0.5243301635742187,42.54961832061068,-35.83206106870229,-24.091603053435115,0.0
13.37000036239624,-14.791377856445312,3.028665100097656,-2.6862942626953124,-20.595419847328245,115.14503816793894,-21.984732824427482,-9.368511096191405,6.047753393554687,0.4285620971679687,30.99236641221374,-30.80916030534351,-19.786259541984734,0.0
13.380000591278076,-13.792995764160155,1.5275006591796874,-0.6440402465820312,-24.076335877862597,118.22900763358778,-13.587786259541986,-7.0652890991210935,8.389282617187499,-0.967257470703125,13.145038167938932,-23.49618320610687,-13.679389312977099,0.0
13.390000581741333,-14.041992736816406,-1.189918225097656,1.419761584472656,-27.938931297709924,116.1526717557252,-13.053435114503817,-7.501033801269531,6.617573388671874,0.5817910034179687,-1.5267175572519085,-7.923664122137405,-1.282442748091603,0.0
13.400000810623169,-12.145785021972655,-2.4205378784179685,2.6527754394531247,-27.19083969465649,105.19083969465649,-16.48854961832061,-7.8529814453124995,5.05655390625,0.4572925170898437,-9.541984732824428,-1.6793893129770991,10.458015267175572,0.0
13.410000562667847,-11.528080993652344,-2.5163059448242184,3.3207577026367185,-23.267175572519083,95.86259541984732,-21.236641221374047,-7.513004809570312,5.025429284667968,-0.23702596435546874,-21.770992366412212,0.6259541984732825,17.64885496183206,0.0
13.420000791549683,-9.634267480468749,-2.9472622436523435,2.844311572265625,-14.885496183206106,86.61068702290076,-23.267175572519083,-7.888894470214844,4.7764323120117185,-0.7589619262695312,-28.16793893129771,3.480916030534351,26.519083969465647,0.0
13.43000054359436,-8.963891015625,-2.9975404785156248,2.252943762207031,-2.3969465648854964,79.14503816793894,-25.923664122137403,-7.529764221191406,4.546588952636719,-1.3934253662109375,-43.786259541984734,5.251908396946565,32.33587786259542,0.0
13.440000534057617,-8.046911779785155,-1.39821376953125,1.4772224243164063,6.916030534351145,76.9618320610687,-30.18320610687023,-7.589619262695312,3.7708676147460936,-1.484405029296875,-53.55725190839695,4.030534351145038,36.458015267175576,0.0
13.450000524520874,-8.518569506835936,-0.11731588134765625,1.197100830078125,7.847328244274809,75.61832061068702,-34.13740458015267,-7.963114721679687,2.4660277099609376,-0.9050082275390624,-56.94656488549618,2.4122137404580153,40.229007633587784,0.0
13.46000051498413,-8.183381274414062,1.8938135131835936,1.599326708984375,5.740458015267175,74.29007633587786,-35.64885496183206,-8.003816149902343,0.93852705078125,-0.21308394775390624,-52.67175572519084,0.3511450381679389,43.52671755725191,0.0
13.470000505447388,-7.3837179199218745,2.0661960327148434,1.3024457031249999,4.259541984732825,70.50381679389314,-33.14503816793893,-8.695740429687499,-1.0271125122070313,0.15322890625,-33.74045801526717,-5.4961832061068705,44.213740458015266,0.0
13.480000495910645,-8.935160595703124,1.8746598999023436,2.6001030029296874,7.297709923664122,73.08396946564885,-31.328244274809162,-8.583212951660157,-1.9823989746093749,1.0295067138671874,-18.748091603053435,-9.49618320610687,40.30534351145038,0.0
13.490000486373901,-9.550470422363281,2.4947581298828125,3.0262708984374997,6.290076335877862,68.29007633587786,-26.30534351145038,-7.841010437011718,-2.1619640991210938,1.024718310546875,-10.351145038167939,-17.358778625954198,33.02290076335878,0.0
13.500000476837158,-11.640608471679688,5.025429284667968,3.873818286132812,5.32824427480916,67.93893129770993,-22.442748091603054,-7.991845141601562,-1.1037269653320312,1.149216796875,-12.259541984732824,-21.282442748091604,26.045801526717558,0.0
13.510000944137573,-10.283096130371094,7.400477331542969,2.9281086303710935,-10.870229007633588,56.595419847328245,-15.86259541984733,-6.768408093261718,-1.5586252807617187,0.33758243408203126,-14.458015267175572,-33.16030534351145,16.519083969465647,0.0
13.52000093460083,-11.089942089843749,5.463568188476562,1.8531120849609375,-30.80916030534351,47.16030534351145,-8.198473282442748,-10.256759912109374,-2.779668127441406,1.8267758666992187,-18.931297709923665,-28.137404580152673,13.221374045801527,0.0
13.530000925064087,-11.992556115722655,4.541800549316406,2.3918074584960936,-44.62595419847328,42.091603053435115,-4.412213740458015,-10.271125122070313,-3.1124621582031247,1.3144167114257812,-13.404580152671755,-38.274809160305345,5.572519083969466,0.0
13.540000677108765,-11.171344946289063,2.3439234252929686,2.0446482177734375,-52.56488549618321,38.213740458015266,-4.106870229007634,-10.874463940429687,-3.258508459472656,1.5705962890624998,-20.702290076335878,-41.465648854961835,-1.8625954198473282,0.0
13.55000114440918,-10.682927807617187,1.465251416015625,1.7741034301757812,-54.274809160305345,34.79389312977099,-2.0763358778625953,-11.276689819335937,-4.580107775878906,1.3958195678710936,-9.84732824427481,-50.30534351145038,-7.083969465648855,0.0
13.5600004196167,-10.462661254882812,1.7788918334960937,1.5705962890624998,-59.49618320610687,31.267175572519083,-5.267175572519084,-11.851298217773437,-4.838681555175781,1.7525556152343749,0.5190839694656488,-57.282442748091604,-13.664122137404581,0.0
13.570000648498535,-10.127473022460936,1.7166425903320313,1.4939818359375,-63.099236641221374,28.931297709923665,-6.3816793893129775,-12.114660400390624,-4.197035510253906,1.6256629272460936,17.129770992366414,-71.20610687022901,-22.442748091603054,0.0
13.580000638961792,-9.715670336914062,1.697488977050781,1.2114660400390624,-64.22900763358778,28.641221374045802,-7.465648854961832,-11.456254943847656,-2.5761609863281247,1.6831237670898436,19.893129770992367,-77.29770992366412,-30.625954198473284,0.0
13.590000629425049,-10.448296044921875,1.9608511596679685,1.465251416015625,-71.64885496183206,26.870229007633586,-6.9465648854961835,-10.924742175292968,-1.4987702392578124,1.3646949462890625,22.061068702290076,-81.00763358778626,-35.63358778625954,0.0
13.600000619888306,-11.231199987792968,1.4724340209960938,1.9584569580078124,-74.16793893129771,24.259541984732824,-6.1679389312977095,-11.765106958007811,-2.528276953125,2.1930887207031247,33.465648854961835,-85.1145038167939,-34.48854961832061,0.0
13.610000371932983,-10.66856259765625,0.44053310546874996,1.9512743530273435,-64.79389312977099,23.31297709923664,-4.152671755725191,-11.487379565429686,-1.695094775390625,2.5761609863281247,38.58015267175573,-88.04580152671755,-37.099236641221374,0.0
13.62000060081482,-11.889605444335936,1.4173673828125,2.0829554443359375,-63.89312977099237,22.12213740458015,-2.6564885496183206,-13.302184423828125,-2.729389892578125,4.146757275390625,47.343511450381676,-78.97709923664122,-33.74045801526717,0.0
13.630000352859497,-9.447519750976562,-1.7956512451171873,-0.5410895751953124,-53.083969465648856,19.00763358778626,-0.9312977099236641,-10.39322940673828,-3.220201232910156,3.0813375366210938,66.56488549618321,-98.12213740458016,-39.37404580152672,0.0
13.640000820159912,-9.725247143554688,-0.6105214233398437,-0.7254431030273437,-46.30534351145038,21.603053435114504,-5.862595419847328,-10.709264025878905,-1.3575123413085937,2.231395947265625,76.56488549618321,-100.19847328244275,-43.86259541984733,0.0
13.65000057220459,-11.65736788330078,1.5131354492187499,0.5243301635742187,-58.916030534351144,19.557251908396946,-10.916030534351146,-7.874529260253905,0.5626373901367188,1.3766659545898436,76.36641221374046,-99.86259541984732,-45.64885496183206,0.0
13.660000562667847,-10.563217724609375,0.5315127685546874,-0.3280056274414062,-62.10687022900763,10.961832061068701,-8.916030534351146,-6.007051965332031,2.272097375488281,1.20667763671875,67.25190839694656,-95.32824427480917,-43.32824427480916,0.0
13.670000553131104,-10.144232434082031,-1.2330138549804688,-0.5458779785156249,-56.67175572519084,10.213740458015268,-5.282442748091603,-6.813897924804687,2.712630480957031,1.4915876342773438,53.66412213740458,-82.13740458015268,-36.0,0.0
13.68000078201294,-10.754753857421875,-0.5985504150390625,0.36631285400390623,-49.02290076335878,13.19083969465649,-5.435114503816794,-6.069301208496094,2.5378537597656248,1.6927005737304686,32.85496183206107,-67.78625954198473,-31.587786259541986,0.0
13.690000534057617,-9.976638317871092,-1.4173673828125,-0.11013327636718749,-44.778625954198475,9.664122137404581,-2.9923664122137406,-6.153098266601562,2.6001030029296874,2.2361843505859373,16.85496183206107,-51.6793893129771,-27.31297709923664,0.0
13.700000524520874,-8.413224633789062,-0.8044517578125,-0.39743747558593745,-28.9618320610687,11.587786259541986,-1.8473282442748091,-3.806780639648437,3.4524387939453125,1.024718310546875,-6.0458015267175576,-37.17557251908397,-27.00763358778626,0.0
13.710000276565552,-8.188169677734374,-0.8571241943359375,-0.6105214233398437,-17.64885496183206,16.85496183206107,-1.6641221374045803,-6.528987927246093,1.0821791503906248,2.9544448486328125,-10.748091603053435,-13.679389312977099,-17.541984732824428,0.0
13.720000505447388,-8.552088330078124,-0.4381389038085937,-1.0223241088867188,-14.488549618320612,14.778625954198473,-1.465648854961832,-6.730100866699218,0.622492431640625,3.071760729980469,-5.297709923664122,-12.244274809160306,-14.259541984732824,0.0
13.730000257492065,-9.950302099609374,1.1707646118164061,-0.277727392578125,-6.244274809160306,20.99236641221374,-3.267175572519084,-6.8976949829101555,-0.47644613037109373,3.6631285400390623,-2.0916030534351147,-0.16793893129770993,-11.114503816793894,0.0
13.740000486373901,-10.005368737792969,0.8810662109374999,-0.05746083984375,-11.450381679389313,19.541984732824428,-2.198473282442748,-7.115567333984375,0.0,3.0071172851562498,11.32824427480916,-3.282442748091603,-10.0,0.0
13.750000476837158,-9.734823950195311,0.8930372192382812,0.16041151123046873,-8.854961832061068,19.541984732824428,-1.9541984732824427,-7.271190441894531,0.5386953735351562,3.5122938354492184,6.717557251908397,8.290076335877863,-7.374045801526718,0.0
13.760000705718994,-9.327809667968749,0.23702596435546874,0.7062894897460937,-8.244274809160306,20.33587786259542,-2.0,-7.4411787597656245,-0.36631285400390623,3.5434184570312497,10.732824427480915,11.389312977099237,-2.015267175572519,0.0
13.77000093460083,-9.787496386718749,0.5219359619140624,1.4867992309570313,-6.916030534351145,20.442748091603054,-4.854961832061068,-6.210559106445312,0.9983820922851562,2.4851813232421875,11.603053435114504,6.625954198473282,-4.3816793893129775,0.0
13.780000448226929,-9.636661682128906,1.0797849487304687,2.042254016113281,-3.5267175572519083,19.69465648854962,-6.6106870229007635,-5.269637854003906,2.0733786376953125,2.2098481323242187,0.2595419847328244,11.557251908396946,-6.290076335877862,0.0
13.790000915527344,-9.548076220703125,1.3814543579101561,2.7078420776367187,-1.3435114503816794,18.061068702290076,-6.977099236641221,-5.9591679321289055,0.5626373901367188,3.399766357421875,-14.961832061068701,24.045801526717558,-2.2595419847328246,0.0
13.800000667572021,-10.601524951171875,2.808398547363281,4.144363073730468,-4.091603053435114,16.580152671755727,-7.526717557251908,-5.501875415039062,0.5961562133789062,2.559401574707031,-22.16793893129771,25.083969465648856,-3.7099236641221376,0.0
13.810000658035278,-9.93354268798828,2.748543505859375,4.3813890380859375,-0.5190839694656488,11.17557251908397,-5.633587786259542,-4.953603234863281,0.8475473876953125,2.6384102294921874,-41.98473282442748,37.02290076335878,-5.969465648854962,0.0
13.820000648498535,-9.83777462158203,3.1387983764648437,4.747701892089843,-1.0534351145038168,5.847328244274809,-1.816793893129771,-6.260837341308593,-1.2210428466796874,3.4907460205078125,-55.69465648854962,51.29770992366412,-3.5419847328244276,0.0
13.830000638961792,-9.995791931152343,2.3822306518554686,4.838681555175781,2.8091603053435112,1.2366412213740459,-0.21374045801526717,-7.754819177246094,-3.0980969482421874,4.04141240234375,-42.88549618320611,49.45038167938932,-2.6106870229007635,0.0
13.840000629425049,-10.443507641601562,3.1771056030273437,5.276820458984375,4.595419847328245,-3.267175572519084,-0.5038167938931297,-7.42441934814453,-2.9185318237304685,4.122815258789062,-33.83206106870229,46.50381679389313,-7.32824427480916,0.0
13.850000619888306,-10.359710583496094,2.978386865234375,5.66946953125,2.16793893129771,-10.412213740458014,0.5343511450381679,-7.244854223632812,-3.0526071166992184,4.455609289550781,-22.580152671755727,45.81679389312977,-8.259541984732824,0.0
13.860000371932983,-10.266336718749999,2.0661960327148434,6.177040283203125,0.21374045801526717,-18.259541984732824,1.9541984732824427,-7.493851196289062,-2.1643583007812497,4.106055847167968,-9.816793893129772,41.23664122137404,-8.580152671755725,0.0
13.87000036239624,-9.5001921875,0.7110778930664062,6.332663391113281,7.847328244274809,-26.870229007633586,1.9694656488549618,-6.825868933105468,-1.2330138549804688,3.768473413085937,-5.847328244274809,40.091603053435115,-8.305343511450381,0.0
13.880000352859497,-12.138602416992187,3.306392492675781,9.473855969238281,3.8931297709923665,-33.74045801526717,-2.4885496183206106,-7.429207751464843,-1.5729904907226562,3.766079211425781,-0.04580152671755725,38.58015267175573,-6.305343511450381,0.0
13.890000581741333,-11.487379565429686,3.4668040039062498,11.039663854980468,-16.595419847328245,-59.404580152671755,-3.114503816793893,-6.476315490722656,0.17956512451171874,2.607285607910156,4.748091603053435,31.480916030534353,-7.404580152671755,0.0
13.900000810623169,-12.356474768066406,3.42849677734375,12.65335577392578,-14.580152671755725,-82.68702290076335,-0.21374045801526717,-4.594472985839843,2.43250888671875,1.6424223388671875,-7.190839694656488,33.465648854961835,-7.572519083969466,0.0
13.910000562667847,-11.937489477539062,1.5107412475585937,13.029245434570312,-13.038167938931299,-113.02290076335878,3.5267175572519083,-5.449202978515625,2.602497204589844,1.8722656982421875,-23.358778625954198,42.35114503816794,-2.763358778625954,0.0
13.920000553131104,-13.206416357421874,1.158793603515625,15.861585998535155,-0.6106870229007634,-138.70229007633588,4.809160305343512,-7.232883215332031,0.9600748657226562,2.0278888061523435,-23.404580152671755,47.32824427480916,-0.1984732824427481,0.0
13.93000054359436,-11.496956372070311,-0.4955997436523437,15.830461376953124,12.290076335877863,-168.53435114503816,5.7251908396946565,-10.527304699707031,0.5291185668945312,4.168305090332031,-24.198473282442748,48.58015267175573,-11.404580152671755,0.0
13.940000534057617,-13.057975854492186,0.19871873779296872,11.918335864257811,6.8396946564885495,-193.89312977099237,0.732824427480916,-12.093112585449218,-3.2058360229492187,6.042964990234375,-37.43511450381679,52.458015267175576,-28.244274809160306,0.0
13.950000524520874,-12.964601989746093,-2.5378537597656248,6.864176159667968,-17.389312977099237,-225.46564885496184,-8.67175572519084,-16.065093139648436,-9.205705383300781,5.748478186035156,-36.916030534351144,53.93893129770992,-48.229007633587784,0.0
13.96000051498413,-12.51928048095703,-5.465962390136719,1.4413093994140624,-17.00763358778626,-242.7175572519084,-17.51145038167939,-18.624494714355468,-10.204087475585936,6.928819604492187,-17.572519083969464,45.06870229007634,-72.29007633587786,0.0
13.970000505447388,-10.66137999267578,-8.451531860351562,-4.6351744140625,7.893129770992366,-249.12977099236642,-22.916030534351144,-18.181567407226563,-2.29843359375,11.142614526367186,21.022900763358777,18.595419847328245,-54.595419847328245,0.0
13.980000495910645,-13.814543579101562,-10.376469995117187,-6.129156249999999,48.213740458015266,-229.98473282442748,-22.35114503816794,-17.252617163085937,4.220977526855468,12.169727038574218,77.74045801526718,-9.022900763358779,-7.099236641221374,0.0
13.990000486373901,-13.2926076171875,-10.670956799316405,-7.52737001953125,98.76335877862596,-210.85496183206106,-19.16030534351145,-12.85207451171875,6.9719152343749995,5.892130285644531,80.70229007633588,-34.229007633587784,25.770992366412212,0.0
14.000000476837158,-16.764200024414063,-7.206546997070312,-6.698976245117187,146.45801526717557,-184.0916030534351,-17.64885496183206,-5.9400143188476555,6.89530078125,-1.668758557128906,37.770992366412216,-35.587786259541986,32.29007633587786,0.0
14.010000944137573,-17.547103967285157,0.833182177734375,-5.121197351074218,163.70992366412213,-164.27480916030535,-19.862595419847327,-3.1196447631835937,6.224924316406249,-4.582501977539062,-7.312977099236641,-16.53435114503817,34.30534351145038,0.0
14.020000696182251,-16.994043383789062,6.720524060058593,-1.9416975463867185,147.0229007633588,-146.0916030534351,-18.717557251908396,-4.69263525390625,3.6391865234374996,-3.303998291015625,-39.38931297709924,4.854961832061068,34.458015267175576,0.0
14.030000925064087,-14.401122985839843,6.8210805297851556,-0.6679822631835937,121.55725190839695,-133.09923664122138,-12.900763358778626,-5.0182466796875,-1.005564697265625,-4.120421057128906,-70.80916030534351,20.977099236641223,35.00763358778626,0.0
14.040000677108765,-10.850521923828124,3.6296097167968746,1.4628572143554686,104.27480916030534,-116.3206106870229,-2.7022900763358777,-8.128314636230469,-9.258377819824219,-4.553771557617187,-68.25954198473282,32.412213740458014,37.969465648854964,0.0
14.050000667572021,-9.662997900390625,3.7995980346679685,2.5665841796874997,89.43511450381679,-103.40458015267176,1.1603053435114503,-12.140996618652343,-14.125789794921873,-2.932897033691406,-37.51145038167939,40.13740458015267,27.740458015267176,0.0
14.060000896453857,-6.713341455078124,2.8993782104492185,1.189918225097656,80.94656488549619,-94.82442748091603,6.6106870229007635,-11.501744775390625,-11.796231579589843,-3.248931652832031,-13.618320610687023,39.37404580152672,8.900763358778626,0.0
14.070000410079956,-8.039729174804688,3.768473413085937,1.695094775390625,57.89312977099237,-77.55725190839695,5.419847328244275,-11.396399902343749,-10.089165795898436,-2.786850732421875,19.633587786259543,40.94656488549618,4.122137404580153,0.0
14.080000638961792,-5.671863732910156,0.7326257080078125,-1.3144167114257812,49.099236641221374,-76.83969465648855,7.236641221374046,-11.664550488281249,-6.871358764648437,-1.0845733520507812,44.19847328244275,38.152671755725194,0.6717557251908397,0.0
14.090000629425049,-7.584830859375,2.50912333984375,-0.1771709228515625,30.564885496183205,-57.61832061068702,1.4809160305343512,-11.279084020996093,-5.702988354492187,-0.3495534423828125,54.717557251908396,40.88549618320611,-4.824427480916031,0.0
14.100000619888306,-7.019799267578125,2.147598889160156,-0.9935936889648437,24.80916030534351,-44.36641221374046,3.66412213740458,-8.573636145019531,-1.0271125122070313,-0.6775590698242188,56.18320610687023,39.083969465648856,-14.916030534351146,0.0
14.110000610351562,-8.559270935058594,3.957615344238281,0.0909796630859375,-0.15267175572519084,-35.05343511450382,5.374045801526718,-7.9272016967773435,2.4253262817382812,-1.2808978881835937,34.717557251908396,50.48854961832061,-15.236641221374045,0.0
14.12000036239624,-5.949591125488281,1.9704279663085937,-1.254561669921875,-6.854961832061068,-27.96946564885496,15.709923664122137,-7.8338278320312495,2.8371289672851563,-0.9744400756835937,11.053435114503817,62.85496183206107,-4.488549618320611,0.0
14.130000352859497,-6.500257507324219,0.26336218261718747,0.11013327636718749,-15.404580152671755,-7.801526717557252,17.587786259541986,-9.315838659667968,1.1947066284179686,0.3711012573242187,3.114503816793893,70.91603053435115,6.717557251908397,0.0
14.140000820159912,-1.838746875,-2.9089550170898435,-3.227383837890625,-2.6412213740458017,-3.2213740458015265,20.946564885496183,-9.629479077148437,-1.2521674682617188,1.1851298217773436,3.5572519083969465,72.61068702290076,11.450381679389313,0.0
14.15000057220459,-2.3774422485351563,-4.331110803222656,-2.916137622070312,11.923664122137405,22.412213740458014,17.267175572519083,-9.13627353515625,-1.4221557861328125,1.9967641845703124,7.190839694656488,72.9618320610687,12.51908396946565,0.0
14.160000801086426,-2.2026655273437497,-4.11802685546875,-3.0909143432617188,15.816793893129772,39.099236641221374,7.6183206106870225,-9.648632690429688,-2.8036101440429686,3.23696064453125,18.396946564885496,70.8854961832061,15.068702290076336,0.0
14.170000553131104,-2.863465185546875,-3.6535517333984373,-1.599326708984375,18.198473282442748,57.221374045801525,2.4885496183206106,-8.614337573242187,-1.1755530151367186,2.999934680175781,24.48854961832061,61.038167938931295,15.770992366412214,0.0
14.18000054359436,-3.0621839233398433,-2.4301146850585935,-0.42377369384765623,10.427480916030534,65.69465648854961,-5.9541984732824424,-9.37808790283203,-0.33758243408203126,3.3973721557617185,22.458015267175572,55.86259541984733,17.00763358778626,0.0
14.190000534057617,-3.938461730957031,-1.5586252807617187,1.448492004394531,-0.8396946564885496,72.0,-13.694656488549619,-10.35492218017578,-0.5889736083984375,3.6391865234374996,27.328244274809162,47.343511450381676,18.83969465648855,0.0
14.200000524520874,-4.553771557617187,0.08379705810546874,2.5570073730468748,-11.755725190839694,75.06870229007633,-20.748091603053435,-9.677363110351562,-1.005564697265625,3.622427111816406,27.801526717557252,33.541984732824424,16.519083969465647,0.0
14.21000051498413,-5.293579870605469,1.6065093139648436,4.00310517578125,-18.931297709923665,76.29007633587786,-21.66412213740458,-8.195352282714843,0.7254431030273437,2.8131869506835936,16.259541984732824,25.786259541984734,13.694656488549619,0.0
14.220000505447388,-5.758054992675781,2.844311572265625,5.449202978515625,-20.442748091603054,78.58015267175573,-16.15267175572519,-7.826645227050781,0.7350199096679687,2.442085693359375,5.00763358778626,23.908396946564885,16.549618320610687,0.0
14.230000495910645,-5.465962390136719,2.8562825805664063,6.2392895263671875,-18.259541984732824,76.85496183206106,-9.053435114503817,-7.876923461914062,0.181959326171875,2.9544448486328125,-3.6946564885496183,22.015267175572518,20.610687022900763,0.0
14.240000486373901,-5.272032055664062,2.070984436035156,7.089231115722656,-9.709923664122137,73.54198473282443,0.6412213740458015,-7.893682873535155,-0.9241618408203125,3.1938650146484373,-6.320610687022901,20.15267175572519,22.16793893129771,0.0
14.250000476837158,-5.480327600097656,1.5538368774414062,9.129090930175781,5.145038167938932,71.12977099236642,9.053435114503817,-6.586448767089843,-0.26815058593749996,2.8850130004882812,-8.992366412213741,16.33587786259542,20.732824427480917,0.0
14.260000467300415,-5.214571215820312,1.139639990234375,10.704475622558594,22.717557251908396,65.98473282442748,14.885496183206106,-5.051765502929687,1.9416975463867185,1.4820108276367188,-15.786259541984732,13.664122137404581,19.84732824427481,0.0
14.27000093460083,-5.248090039062499,1.0582371337890624,11.413159313964844,27.770992366412212,48.961832061068705,17.17557251908397,-3.718195178222656,3.0454245117187497,0.5315127685546874,-25.14503816793893,11.053435114503817,22.091603053435115,0.0
14.280000686645508,-4.3454760131835934,1.3024457031249999,12.567164514160156,66.82442748091603,44.88549618320611,19.114503816793892,-3.995922570800781,3.641580725097656,1.2330138549804688,-39.57251908396947,16.610687022900763,30.076335877862597,0.0
14.290000915527344,-5.762843395996094,3.5697546752929687,12.284648718261717,73.08396946564885,28.15267175572519,10.0,-3.622427111816406,2.3630770385742186,1.2138602416992186,-52.656488549618324,17.66412213740458,35.25190839694657,0.0
14.300000667572021,-2.262520568847656,1.2641384765625,5.066130712890625,66.38167938931298,14.15267175572519,10.01526717557252,-5.269637854003906,-0.34715924072265625,1.70467158203125,-50.67175572519084,18.396946564885496,42.48854961832061,0.0
14.310000658035278,-2.3822306518554686,0.016759411621093748,1.8076222534179687,51.83206106870229,17.72519083969466,5.969465648854962,-3.9887399658203124,-1.429338391113281,0.9361328491210937,-50.778625954198475,15.49618320610687,39.98473282442748,0.0
14.320000648498535,-4.929661218261718,-2.070984436035156,1.3670891479492187,14.0,14.748091603053435,3.1908396946564888,-6.074089611816406,-3.450044592285156,0.30406361083984373,-48.6412213740458,12.488549618320612,36.85496183206107,0.0
14.330000638961792,-12.97178459472656,-1.905784521484375,8.14028564453125,-6.061068702290076,10.183206106870228,3.3282442748091605,-6.782773303222656,-4.072537023925781,-0.35673604736328124,-41.70992366412214,8.50381679389313,30.702290076335878,0.0
14.34000039100647,-25.06489718017578,17.712303881835936,11.130643518066405,68.33587786259542,25.908396946564885,48.656488549618324,-10.793061083984375,-3.564966271972656,-1.0941501586914062,-39.847328244274806,13.572519083969466,24.16793893129771,0.0
14.350000858306885,-39.07576529541016,39.22540289916992,7.539341027832031,76.83969465648855,46.44274809160305,122.56488549618321,-15.751452722167969,-4.319139794921875,-2.1595698974609374,-49.14503816793893,15.908396946564885,18.99236641221374,0.0
14.360000610351562,-39.17871596679687,12.114660400390624,3.1747114013671873,-63.9236641221374,-5.4961832061068705,113.40458015267176,-28.979416894531248,-10.989385620117186,2.272097375488281,-31.862595419847327,23.34351145038168,24.549618320610687,0.0
14.37000060081482,-25.285163732910156,-21.396980236816404,7.860164050292968,-99.55725190839695,-34.80916030534351,64.33587786259542,-29.52290067138672,-12.9861498046875,3.220201232910156,7.908396946564886,-13.633587786259541,5.343511450381679,0.0
14.380000591278076,-7.943961108398437,-22.002713256835936,-0.7829039428710937,-17.0381679389313,-31.19083969465649,24.717557251908396,-24.193407775878907,-7.223306408691406,0.4285620971679687,22.68702290076336,-37.57251908396947,-22.671755725190838,0.0
14.390000581741333,-2.887407202148437,-7.323862878417969,-10.647014782714843,-22.442748091603054,-24.595419847328245,-21.6793893129771,-17.896657409667966,-1.3527239379882812,-1.649604943847656,24.83969465648855,-39.29770992366412,-44.62595419847328,0.0
14.400000810623169,-1.3838485595703125,-5.367800122070312,-4.1754876953124995,-28.641221374045802,-11.038167938931299,-40.274809160305345,-15.983690283203124,2.5809493896484375,-1.7812860351562498,28.595419847328245,-38.50381679389313,-47.969465648854964,0.0
14.410000562667847,-5.468356591796875,1.889025109863281,-3.7110125732421873,-21.72519083969466,8.610687022900763,-44.717557251908396,-18.691532360839844,1.24498486328125,-0.055066638183593745,36.56488549618321,-34.961832061068705,-42.35114503816794,0.0
14.420000791549683,-3.859453076171875,0.842758984375,-9.811438403320311,-13.419847328244275,22.595419847328245,-37.49618320610687,-19.737798486328124,1.1037269653320312,1.0486603271484374,43.038167938931295,-40.045801526717554,-41.61832061068702,0.0
14.43000054359436,-5.935225915527344,1.5083470458984374,-11.63821427001953,-13.572519083969466,51.20610687022901,-36.18320610687023,-16.41943498535156,3.189076611328125,-0.062249243164062495,33.31297709923664,-47.11450381679389,-44.85496183206107,0.0
14.440000295639038,-9.145850341796875,3.768473413085937,-9.399635717773437,-21.633587786259543,73.20610687022901,-38.030534351145036,-13.965378283691406,3.768473413085937,-0.05746083984375,24.27480916030534,-43.221374045801525,-36.778625954198475,0.0
14.450000286102295,-12.9095353515625,5.154716174316406,-4.608838195800781,-13.022900763358779,97.20610687022901,-28.458015267175572,-12.983755603027342,4.517858532714843,0.8283937744140625,17.206106870229007,-34.10687022900763,-24.885496183206108,0.0
14.46000051498413,-12.126631408691406,3.6248213134765623,-3.0406361083984375,-7.557251908396947,105.08396946564885,-15.419847328244275,-10.64222637939453,5.5258174316406246,0.36152445068359373,8.51908396946565,-31.786259541984734,-17.87786259541985,0.0
14.470000505447388,-13.065158459472656,1.6232687255859375,-0.47165772705078124,-7.603053435114504,113.69465648854961,-11.206106870229007,-9.311050256347656,5.679046337890624,0.1197100830078125,-4.900763358778626,-24.763358778625953,-11.099236641221374,0.0
14.480000495910645,-13.172897534179686,0.5793968017578125,0.5123591552734374,-19.17557251908397,111.43511450381679,-11.32824427480916,-8.8872765625,5.044582897949218,0.38786066894531246,-5.32824427480916,-13.129770992366412,0.22900763358778625,0.0
14.490000486373901,-13.022062829589842,0.26336218261718747,1.5897499023437498,-28.198473282442748,103.09923664122137,-12.15267175572519,-7.826645227050781,3.902548706054687,0.49799394531249996,-12.534351145038167,-3.114503816793893,9.221374045801527,0.0
14.500000476837158,-13.012486022949219,0.2825157958984375,2.2026655273437497,-34.79389312977099,93.66412213740458,-12.717557251908397,-9.33978067626953,5.066130712890625,-0.39264907226562495,-15.954198473282442,0.24427480916030533,16.18320610687023,0.0
14.510000944137573,-11.966219897460936,0.718260498046875,2.6216508178710938,-39.083969465648856,84.47328244274809,-11.541984732824428,-7.960720520019531,6.0333881835937495,-0.7445967163085937,-38.82442748091603,6.244274809160306,21.389312977099237,0.0
14.520000696182251,-10.386046801757812,0.15083470458984374,1.9488801513671874,-42.778625954198475,75.57251908396947,-10.045801526717558,-8.475473876953124,5.0206408813476555,-1.13006318359375,-52.83969465648855,10.045801526717558,28.12213740458015,0.0
14.530000925064087,-9.026140258789061,-1.0031704956054688,1.3311761230468748,-41.66412213740458,70.42748091603053,-12.442748091603054,-8.530540515136718,4.431667272949219,-1.6519991455078125,-59.51145038167939,4.99236641221374,31.129770992366414,0.0
14.540000677108765,-8.755595471191405,-2.5809493896484375,0.9265560424804687,-38.74809160305343,63.282442748091604,-16.366412213740457,-9.181763366699219,2.868253588867187,-1.0031704956054688,-64.87022900763358,5.343511450381679,35.83206106870229,0.0
14.5500009059906,-7.338228088378906,-2.3295582153320313,1.2330138549804688,-27.908396946564885,64.44274809160305,-19.96946564885496,-8.808267907714843,1.867477294921875,-0.93852705078125,-63.541984732824424,4.091603053435114,37.93893129770992,0.0
14.560000896453857,-9.255983618164063,-1.886630908203125,2.0374656127929685,-16.732824427480917,71.95419847328245,-24.82442748091603,-8.552088330078124,1.388636962890625,-1.0917559570312498,-59.404580152671755,0.7786259541984732,38.10687022900763,0.0
14.570000648498535,-8.99501563720703,-0.19153613281249998,2.039859814453125,-9.938931297709924,72.87022900763358,-26.763358778625953,-7.558494641113281,0.6631938598632812,-0.8667010009765624,-59.465648854961835,0.5954198473282443,37.282442748091604,0.0
14.580000400543213,-8.870517150878905,1.7286135986328124,2.0973206542968748,-5.755725190839694,70.80916030534351,-26.35114503816794,-9.320627062988281,-1.209071838378906,0.1580173095703125,-42.961832061068705,1.618320610687023,39.282442748091604,0.0
14.590000629425049,-8.91840118408203,2.35589443359375,1.8052280517578123,-1.3282442748091603,69.40458015267176,-24.68702290076336,-7.433996154785156,-1.695094775390625,0.19871873779296872,-41.20610687022901,-4.5038167938931295,33.02290076335878,0.0
14.600000619888306,-11.429918725585937,3.5290532470703124,2.5809493896484375,-5.4961832061068705,67.08396946564885,-20.610687022900763,-7.922413293457031,-3.143586779785156,1.1707646118164061,-22.641221374045802,-9.786259541984732,30.015267175572518,0.0
14.610000610351562,-12.236764685058594,3.840299462890625,2.7150246826171873,-12.854961832061068,59.17557251908397,-16.30534351145038,-8.84178673095703,-2.6384102294921874,1.3527239379882812,-18.442748091603054,-16.30534351145038,23.328244274809162,0.0
14.62000060081482,-11.674127294921874,3.6367923217773437,2.6216508178710938,-16.03053435114504,51.86259541984733,-12.030534351145038,-9.794678991699218,-2.0661960327148434,1.180341418457031,-20.931297709923665,-20.244274809160306,16.47328244274809,0.0
14.630000352859497,-11.537657800292967,3.919308117675781,3.0214824951171875,-31.221374045801525,43.29770992366412,-11.267175572519085,-8.95670841064453,-0.507570751953125,0.8259995727539062,-33.51145038167939,-22.27480916030534,10.458015267175572,0.0
14.640001058578491,-11.391611499023437,3.038241906738281,2.877830395507812,-38.3206106870229,35.17557251908397,-9.206106870229007,-11.073182678222656,-3.3303345092773435,1.5442600708007812,-37.16030534351145,-20.259541984732824,11.98473282442748,0.0
14.65000057220459,-10.59194814453125,1.6543933471679686,2.3127988037109373,-34.88549618320611,32.274809160305345,-8.870229007633588,-11.212046374511718,-4.7955859252929685,1.89620771484375,-19.480916030534353,-33.00763358778626,8.061068702290076,0.0
14.660000562667847,-11.573570825195311,1.9129671264648436,2.664746447753906,-37.05343511450382,28.50381679389313,-10.320610687022901,-11.693280908203125,-3.919308117675781,1.6352397338867186,-8.885496183206106,-43.16030534351145,-2.900763358778626,0.0
14.670000553131104,-10.582371337890624,1.7094599853515624,2.3223756103515623,-31.61832061068702,28.519083969465647,-7.66412213740458,-10.812214697265624,-4.637568615722656,2.0781670410156248,-0.8091603053435115,-48.36641221374046,-11.17557251908397,0.0
14.68000078201294,-10.065223779296874,1.5466542724609373,1.936909143066406,-32.61068702290076,25.053435114503817,-5.312977099236641,-11.422736120605467,-5.0182466796875,2.29843359375,14.122137404580153,-54.30534351145038,-17.236641221374047,0.0
14.690000772476196,-9.473855969238281,1.3910311645507811,1.0199299072265624,-32.97709923664122,24.3206106870229,-5.4961832061068705,-10.781090075683593,-4.3454760131835934,2.1619640991210938,27.786259541984734,-63.282442748091604,-26.33587786259542,0.0
14.700000524520874,-10.568006127929687,3.73495458984375,1.4030021728515625,-45.038167938931295,23.19083969465649,-8.381679389312977,-10.876858142089842,-3.35188232421875,2.059013427734375,36.42748091603053,-67.61832061068702,-32.54961832061068,0.0
14.71000075340271,-9.100360510253905,2.4684219116210935,0.373495458984375,-62.6412213740458,11.679389312977099,-5.1603053435114505,-10.754753857421875,-2.77727392578125,2.3367408203125,48.916030534351144,-75.00763358778626,-36.900763358778626,0.0
14.720000267028809,-10.89840595703125,3.1124621582031247,0.9696516723632812,-70.82442748091603,13.022900763358779,-4.076335877862595,-11.757924353027343,-4.134786267089844,3.1364041748046874,55.63358778625954,-73.89312977099236,-37.05343511450382,0.0
14.730000495910645,-10.005368737792969,0.430956298828125,-0.33518823242187495,-75.19083969465649,5.694656488549619,0.6564885496183206,-9.303867651367186,-3.27526787109375,1.9536685546875,63.20610687022901,-82.18320610687023,-41.86259541984733,0.0
14.740000486373901,-10.9175595703125,1.3718775512695311,0.13646949462890623,-70.3969465648855,7.786259541984733,1.3129770992366412,-10.903194360351561,-1.6998831787109374,3.0502129150390624,74.56488549618321,-84.1526717557252,-41.587786259541986,0.0
14.750000476837158,-10.491391674804687,-0.70868369140625,-0.3016694091796875,-69.89312977099236,7.8320610687022905,1.9236641221374047,-10.692504614257812,-1.8626888916015625,2.882618798828125,88.27480916030534,-87.95419847328245,-41.00763358778626,0.0
14.760000944137573,-10.127473022460936,-1.8171990600585937,-0.7781155395507812,-56.33587786259542,9.206106870229007,1.8473282442748091,-10.433930834960936,-1.8004396484374998,3.1364041748046874,91.6793893129771,-87.70992366412214,-39.70992366412214,0.0
14.770000696182251,-8.453926062011718,-2.877830395507812,-1.6424223388671875,-42.06106870229008,13.511450381679388,-0.16793893129770993,-9.150638745117186,-1.3838485595703125,2.9568390502929685,96.1526717557252,-84.87022900763358,-38.74809160305343,0.0
14.780000686645508,-10.963049401855468,-1.1061211669921875,0.00239420166015625,-33.51145038167939,24.244274809160306,-7.694656488549619,-8.073247998046874,0.4955997436523437,2.252943762207031,91.58778625954199,-83.12977099236642,-39.51145038167939,0.0
