timestamp,Thigh_L_Acc_X,Thigh_L_Acc_Y,Thigh_L_Acc_Z,Thigh_L_Gyr_X,Thigh_L_Gyr_Y,Thigh_L_Gyr_Z,Thigh_R_Acc_X,Thigh_R_Acc_Y,Thigh_R_Acc_Z,Thigh_R_Gyr_X,Thigh_R_Gyr_Y,Thigh_R_Gyr_Z,gpio_output
10.000000476837158,-8.032546569824218,-14.082694165039062,-2.0063409912109376,109.37404580152672,-9.908396946564885,8.50381679389313,-16.891092712402344,-3.308786694335937,6.385335827636719,-44.10687022900763,-0.5343511450381679,21.14503816793893,0.0
10.010000705718994,-3.756502404785156,-0.7422025146484375,-8.482656481933594,154.33587786259542,27.16030534351145,-1.2671755725190839,-16.773776831054686,-1.9393033447265624,7.091625317382812,-51.32824427480916,-12.427480916030534,14.82442748091603,1.0
10.020000696182251,0.6679822631835937,2.3032219970703123,-13.249511987304686,147.89312977099237,34.83969465648855,-8.549618320610687,-18.727445385742186,-2.5665841796874997,4.458003491210937,-34.68702290076336,-46.61068702290076,9.389312977099237,1.0
10.030000448226929,-0.40940848388671874,1.3239935180664062,-8.497021691894531,125.38931297709924,48.534351145038165,-21.251908396946565,-19.182343701171874,-0.47644613037109373,1.7549498168945312,-28.076335877862597,-77.26717557251908,6.6106870229007635,1.0
10.040000677108765,-2.47081611328125,3.6439749267578123,-7.122749938964843,94.7175572519084,58.44274809160305,-34.76335877862596,-17.21191573486328,0.70868369140625,0.9959878906249999,-19.31297709923664,-92.62595419847328,2.4122137404580153,1.0
10.050000667572021,-6.4284314575195305,8.619125976562499,-7.0078282592773435,46.717557251908396,74.53435114503817,-40.58015267175573,-16.95094775390625,-0.09576806640624999,0.7972691528320313,-0.2748091603053435,-106.36641221374046,-0.44274809160305345,1.0
10.0600004196167,-6.442796667480469,8.609549169921875,-8.28633194580078,14.412213740458014,83.09923664122137,-32.50381679389313,-15.0164328125,2.0733786376953125,-0.9864110839843749,-2.4427480916030535,-125.8473282442748,-9.603053435114504,1.0
10.070000648498535,-9.634267480468749,8.698134631347656,-5.892130285644531,-6.366412213740458,104.79389312977099,-25.389312977099237,-12.761094848632812,2.93050283203125,-1.429338391113281,-18.015267175572518,-127.02290076335878,-16.732824427480917,1.0
10.080000877380371,-9.382876306152344,2.47081611328125,-4.522646936035156,-27.31297709923664,114.21374045801527,-20.580152671755727,-7.989450939941406,3.1411925781249996,-2.6048914062499997,-17.541984732824428,-134.35114503816794,-23.633587786259543,1.0
10.090000629425049,-11.54244620361328,0.04548983154296875,-1.6304513305664061,-20.885496183206108,137.23664122137404,-23.709923664122137,-10.441113439941406,1.1563994018554686,-2.480392919921875,-26.900763358778626,-136.44274809160305,-29.557251908396946,1.0
10.100000858306885,-10.541669909667968,-1.7310078002929687,-0.5602431884765625,-25.114503816793892,142.67175572519085,-29.099236641221374,-10.726023437499999,1.5418658691406248,-1.1468225952148436,-42.35114503816794,-125.64885496183206,-33.06870229007634,1.0
10.110000371932983,-11.006145031738281,-1.1611878051757811,1.3527239379882812,-25.31297709923664,144.24427480916032,-34.25954198473283,-8.355763793945313,2.8850130004882812,-2.020706201171875,-46.51908396946565,-130.06106870229007,-35.06870229007634,1.0
10.12000060081482,-11.121066711425781,-0.6488286499023437,2.8898014038085935,-28.778625954198475,140.4885496183206,-41.23664122137404,-11.233594189453123,0.8451531860351562,-0.5051765502929687,-45.29770992366412,-122.03053435114504,-32.2442748091603,1.0
10.130000352859497,-11.822567797851562,3.1938650146484373,2.882618798828125,-45.099236641221374,123.6793893129771,-41.282442748091604,-10.417171423339843,2.7940333374023436,-1.4221557861328125,-45.89312977099237,-125.74045801526718,-31.14503816793893,1.0
10.140000581741333,-13.225569970703123,4.917690209960937,4.134786267089844,-68.33587786259542,110.73282442748092,-38.229007633587784,-10.81460889892578,3.9360675292968748,-2.5378537597656248,-45.93893129770992,-123.5114503816794,-32.51908396946565,1.0
10.15000057220459,-10.740388647460938,3.440467785644531,2.6503812377929687,-93.6793893129771,85.98473282442748,-29.480916030534353,-10.697293017578124,3.756502404785156,-2.7198130859375,-42.99236641221374,-114.45801526717557,-28.16793893129771,1.0
10.160000324249268,-10.749965454101561,3.1316157714843746,2.2026655273437497,-99.34351145038168,69.57251908396947,-20.442748091603054,-9.763554370117188,4.276044165039062,-2.731784094238281,-44.16793893129771,-110.13740458015268,-25.129770992366414,1.0
10.170000553131104,-8.729259252929687,0.0047884033203125,1.180341418457031,-97.40458015267176,54.56488549618321,-8.900763358778626,-9.244012609863281,4.723759875488281,-3.2561142578125,-39.14503816793893,-108.13740458015268,-25.206106870229007,1.0
10.18000078201294,-8.71489404296875,-1.120486376953125,1.484405029296875,-62.83969465648855,51.55725190839695,-1.816793893129771,-10.347739575195313,1.9680337646484374,-1.1707646118164061,-35.00763358778626,-94.19847328244275,-18.53435114503817,1.0
10.190000534057617,-8.157045056152343,-3.9049429077148434,0.9720458740234375,-36.76335877862596,48.091603053435115,0.07633587786259542,-7.414842541503906,0.8714894042968749,-1.3263877197265623,-29.34351145038168,-94.03053435114504,-20.763358778625953,1.0
10.200000524520874,-12.176909643554687,-0.6560112548828124,2.863465185546875,-14.946564885496183,49.87786259541985,-5.557251908396947,-7.857769848632812,0.36391865234375,-0.7900865478515624,-17.19083969465649,-88.82442748091603,-21.49618320610687,1.0
10.21000075340271,-12.48097325439453,0.74699091796875,4.13718046875,-11.84732824427481,42.0,-8.366412213740459,-8.104372619628906,0.44053310546874996,-0.18914193115234373,-7.099236641221374,-86.76335877862596,-20.732824427480917,0.0
10.220000505447388,-15.322890625,2.47081611328125,5.779602807617187,-18.091603053435115,35.00763358778626,-10.213740458015268,-8.113949426269532,-0.22266075439453123,0.7613561279296874,-6.473282442748092,-80.41221374045801,-17.49618320610687,0.0
10.230000734329224,-11.9135474609375,2.473210314941406,3.900154504394531,-34.0,16.48854961832061,-6.778625954198473,-7.352593298339843,0.9169792358398436,-0.7709329345703124,-5.786259541984733,-82.91603053435115,-18.763358778625953,0.0
10.240000486373901,-12.394781994628906,2.7940333374023436,3.679887951660156,-31.954198473282442,8.50381679389313,-2.5801526717557253,-9.947907897949218,-0.277727392578125,0.9074024291992187,-5.175572519083969,-70.27480916030534,-15.374045801526718,0.0
10.250000715255737,-10.678139404296875,0.8882488159179687,2.3127988037109373,-26.702290076335878,6.519083969465649,2.2290076335877864,-8.046911779785155,0.13646949462890623,-0.4644751220703125,-3.435114503816794,-76.94656488549619,-16.671755725190838,0.0
10.260000705718994,-12.380416784667968,3.2561142578125,3.5194764404296874,-19.404580152671755,9.572519083969466,0.8549618320610687,-10.275913525390624,-0.49799394531249996,0.411802685546875,4.137404580152672,-69.58778625954199,-16.53435114503817,0.0
10.270000696182251,-10.053252770996092,2.5139117431640625,2.1595698974609374,-24.763358778625953,2.2595419847328246,3.267175572519084,-9.265560424804686,-0.8738836059570312,0.23223756103515625,3.2519083969465647,-70.82442748091603,-19.14503816793893,0.0
10.280000448226929,-10.160991845703125,2.35589443359375,1.426944189453125,-17.221374045801525,4.580152671755725,6.442748091603053,-9.5384994140625,-0.7350199096679687,0.2537853759765625,10.51908396946565,-66.33587786259542,-20.549618320610687,0.0
10.290000677108765,-8.367734802246094,1.1611878051757811,0.6751648681640625,-12.13740458015267,7.6183206106870225,6.99236641221374,-9.100360510253905,-0.0047884033203125,0.6368576416015624,6.9465648854961835,-61.86259541984733,-24.15267175572519,0.0
10.300000429153442,-8.748412866210938,2.6982652709960937,1.2234370483398436,-13.664122137404581,12.977099236641221,3.099236641221374,-9.670180505371093,-1.0007762939453124,0.9840168823242187,13.083969465648854,-55.770992366412216,-26.076335877862597,0.0
10.310000658035278,-9.85692823486328,2.7748797241210936,0.9983820922851562,-20.68702290076336,14.488549618320612,-0.8244274809160306,-8.844180932617187,-0.3806780639648437,0.5770026000976562,14.488549618320612,-56.091603053435115,-31.435114503816795,0.0
10.320000410079956,-10.402806213378906,4.1563340820312495,1.5370774658203123,-24.30534351145038,20.931297709923665,-1.6641221374045803,-9.289502441406249,-1.3623007446289062,1.4413093994140624,18.931297709923665,-45.12977099236641,-34.030534351145036,0.0
10.330000638961792,-10.287884533691406,3.7134067749023436,1.37906015625,-41.86259541984733,16.778625954198475,0.7480916030534351,-9.651026892089844,-1.4891934326171874,0.8595183959960937,26.244274809160306,-49.23664122137404,-36.961832061068705,0.0
10.340000867843628,-9.593566052246093,2.3295582153320313,1.3623007446289062,-36.68702290076336,21.00763358778626,4.183206106870229,-8.044517578125,-0.8355763793945312,1.4820108276367188,23.755725190839694,-43.25190839694657,-40.74809160305343,0.0
10.350000381469727,-9.26316622314453,1.7477672119140624,1.0582371337890624,-42.18320610687023,21.64885496183206,6.9465648854961835,-10.043675964355469,-2.039859814453125,2.147598889160156,30.137404580152673,-35.81679389312977,-39.038167938931295,0.0
10.360000848770142,-9.222464794921875,0.40462008056640625,1.0007762939453124,-37.16030534351145,24.0,6.519083969465649,-10.134655627441406,-2.1021090576171875,2.760514514160156,43.541984732824424,-39.52671755725191,-40.274809160305345,0.0
10.37000060081482,-8.84178673095703,0.6153098266601562,0.8068459594726562,-34.0,24.946564885496183,4.061068702290076,-6.718129858398437,0.737414111328125,2.1883003173828124,38.778625954198475,-40.85496183206107,-45.98473282442748,0.0
10.380000829696655,-9.579200842285156,1.8770541015625,1.3551181396484375,-40.58015267175573,23.6793893129771,2.6717557251908395,-6.691793640136718,-0.4333505004882812,3.555389465332031,32.778625954198475,-24.3206106870229,-42.68702290076336,0.0
10.390000581741333,-9.655815295410155,1.3311761230468748,1.5610194824218748,-43.66412213740458,23.099236641221374,4.305343511450381,-7.71890615234375,-2.291250988769531,3.632003918457031,36.67175572519084,-24.35114503816794,-35.74045801526717,0.0
10.40000033378601,-9.595960253906249,0.6296750366210937,1.2737152832031249,-40.62595419847328,22.3206106870229,5.557251908396947,-7.220912207031249,-1.2976572998046874,3.1316157714843746,49.74045801526717,-30.977099236641223,-35.7557251908397,0.0
10.410000324249268,-8.851363537597656,-1.0917559570312498,0.36391865234375,-29.709923664122137,23.19083969465649,6.0458015267175576,-7.211335400390625,0.15083470458984374,3.423708374023437,53.74045801526717,-24.549618320610687,-35.51145038167939,0.0
10.420000314712524,-9.5384994140625,-0.928950244140625,0.5386953735351562,-20.732824427480917,28.259541984732824,3.4198473282442747,-5.961562133789062,1.8100164550781248,3.0526071166992184,52.732824427480914,-23.435114503816795,-34.18320610687023,0.0
10.430000305175781,-7.903259680175781,-0.33758243408203126,0.22505495605468748,-13.786259541984732,29.938931297709924,-0.22900763358778625,-5.786785412597656,1.5466542724609373,3.9049429077148434,40.030534351145036,-9.404580152671755,-30.106870229007633,0.0
10.440000295639038,-9.641450085449218,-0.49799394531249996,1.24498486328125,-9.557251908396946,36.030534351145036,-1.6641221374045803,-6.347028601074219,0.7876923461914062,3.478775012207031,35.93893129770992,-6.931297709923665,-23.69465648854962,0.0
10.450000524520874,-9.248801013183593,-0.5027823486328125,1.0199299072265624,-2.213740458015267,37.954198473282446,-2.4427480916030535,-8.327033374023436,-0.6703764648437499,4.3813890380859375,41.38931297709924,-4.33587786259542,-19.61832061068702,0.0
10.460000276565552,-8.832209924316405,-0.7924807495117187,1.0175357055664063,6.229007633587786,40.18320610687023,-3.8625954198473282,-6.770802294921874,0.7876923461914062,4.165910888671875,38.79389312977099,-4.625954198473282,-20.595419847328245,0.0
10.470000743865967,-8.688557824707031,0.0718260498046875,0.86191259765625,11.389312977099237,38.94656488549618,-5.572519083969466,-6.763619689941406,0.8092401611328125,3.83072265625,37.725190839694655,-0.8244274809160306,-18.671755725190838,0.0
10.480000257492065,-9.3086560546875,1.0295067138671874,1.4173673828125,15.251908396946565,39.98473282442748,-7.679389312977099,-5.925649108886718,1.5275006591796874,3.5529952636718747,30.900763358778626,1.3282442748091603,-16.732824427480917,0.0
10.49000072479248,-9.358934289550781,1.005564697265625,1.7405846069335937,17.786259541984734,39.954198473282446,-7.465648854961832,-6.663063220214843,1.3479355346679687,3.6487633300781246,26.015267175572518,6.6106870229007635,-12.854961832061068,0.0
10.500000476837158,-10.635043774414061,2.2840683837890623,2.9568390502929685,18.229007633587788,41.43511450381679,-9.511450381679388,-6.667851623535156,1.1755530151367186,4.067748620605468,16.3206106870229,12.717557251908397,-9.32824427480916,0.0
10.510000705718994,-9.253589416503905,2.4971523315429685,2.5641899780273434,13.022900763358779,33.343511450381676,-7.190839694656488,-6.054935998535156,1.5562310791015623,3.9935283691406247,7.572519083969466,16.732824427480917,-7.419847328244275,0.0
10.520000457763672,-11.271901416015623,3.23696064453125,4.3239281982421875,7.419847328244275,33.11450381679389,-7.709923664122138,-6.943184814453125,1.5682020874023437,3.277662072753906,-1.3129770992366412,20.65648854961832,-4.961832061068702,0.0
10.530000686645508,-10.43871923828125,2.6910826660156246,4.568136767578125,4.244274809160306,26.061068702290076,-5.847328244274809,-6.234501123046875,1.5873557006835937,2.863465185546875,-13.114503816793894,28.68702290076336,-2.3053435114503817,0.0
10.540000677108765,-10.505756884765624,2.817975354003906,4.728548278808593,-6.427480916030534,14.961832061068701,-3.6030534351145036,-5.844246252441406,1.956062756347656,2.47081611328125,-26.0,35.32824427480916,0.07633587786259542,0.0
10.550000667572021,-9.988609326171874,1.8746598999023436,5.054159704589844,2.366412213740458,11.816793893129772,-3.2977099236641223,-7.46272657470703,-0.0143652099609375,3.497928625488281,-34.412213740458014,46.80916030534351,5.511450381679389,0.0
10.5600004196167,-9.931148486328125,1.2713210815429687,5.439626171875,4.809160305343512,4.824427480916031,-3.3893129770992365,-8.226476904296874,-1.2306196533203124,3.057395520019531,-26.458015267175572,42.42748091603053,5.877862595419847,0.0
10.570000410079956,-10.47702646484375,1.4867992309570313,6.078878015136718,13.572519083969466,-0.8702290076335878,-7.480916030534351,-7.398083129882812,0.055066638183593745,2.779668127441406,-22.244274809160306,44.01526717557252,3.099236641221374,0.0
10.580000877380371,-10.108319409179687,1.4700398193359374,6.287173559570312,18.595419847328245,-7.770992366412214,-8.183206106870228,-6.6510922119140625,0.6679822631835937,1.9297265380859374,-26.519083969465647,51.908396946564885,2.7022900763358777,0.0
10.59000039100647,-11.061211669921875,2.4947581298828125,6.926425402832031,14.15267175572519,-18.27480916030534,-11.083969465648854,-7.773972790527344,-0.6631938598632812,1.956062756347656,-22.18320610687023,56.10687022900763,5.374045801526718,0.0
10.600000858306885,-12.727576025390624,3.7205893798828122,8.240842114257813,0.732824427480916,-32.01526717557252,-14.488549618320612,-7.1586629638671875,0.6919242797851562,0.8164227661132812,-16.977099236641223,55.099236641221374,3.312977099236641,0.0
10.610000610351562,-12.035651745605469,3.469198205566406,8.67658681640625,-9.618320610687023,-50.18320610687023,-12.610687022900763,-5.5545478515625,3.191470812988281,-0.5865794067382812,-23.81679389312977,65.26717557251908,2.122137404580153,0.0
10.620000839233398,-12.993332409667968,4.012681982421875,9.947907897949218,-19.786259541984734,-70.2442748091603,-9.541984732824428,-7.8912886718749995,1.2042834350585936,0.5339069702148437,-32.44274809160305,76.77862595419847,6.351145038167939,0.0
10.630000591278076,-12.61504854736328,2.760514514160156,10.251971508789062,-30.442748091603054,-95.0381679389313,-9.083969465648854,-10.019733947753906,-1.8363526733398436,0.6153098266601562,-33.64885496183206,78.51908396946565,2.9160305343511452,0.0
10.640000343322754,-12.732364428710937,1.5849614990234373,10.771513269042968,-18.48854961832061,-115.70992366412214,-7.893129770992366,-11.303026037597656,-2.655169641113281,1.22583125,-29.0381679389313,86.06106870229007,-3.312977099236641,0.0
10.65000057220459,-12.808978881835937,-1.024718310546875,10.726023437499999,3.7709923664122136,-136.85496183206106,-5.755725190839694,-13.144167114257812,-3.797203833007812,2.47081611328125,-6.870229007633588,83.45038167938931,-3.8931297709923665,0.0
10.660000562667847,-12.531251489257812,-2.3367408203125,9.8449572265625,36.82442748091603,-152.87022900763358,-7.022900763358779,-14.9015111328125,-3.744531396484375,5.434837768554687,21.64885496183206,73.83206106870229,-3.114503816793893,0.0
10.670000553131104,-14.906299536132812,-2.693476867675781,9.200916979980468,59.25190839694657,-168.33587786259542,-13.86259541984733,-15.105018273925781,-3.6296097167968746,5.662286926269531,48.274809160305345,58.93129770992366,-3.6793893129770994,0.0
10.680000305175781,-15.873557006835936,-4.355052819824219,9.471461767578125,81.2824427480916,-186.8091603053435,-19.129770992366414,-13.448230725097655,-0.8020575561523438,3.9600095458984375,64.70229007633588,48.01526717557252,-3.1603053435114505,0.0
10.690000295639038,-16.66843195800781,-4.333505004882812,9.60793126220703,126.38167938931298,-197.98473282442748,-10.564885496183207,-11.039663854980468,2.712630480957031,1.209071838378906,65.00763358778626,44.2442748091603,-0.732824427480916,0.0
10.700000524520874,-16.50562624511719,-2.4061726684570313,6.1650692749023435,147.34351145038167,-201.3587786259542,4.183206106870229,-6.215347509765625,7.029376074218749,-2.8419173706054686,41.404580152671755,39.89312977099237,0.1984732824427481,0.0
10.71000075340271,-15.950171459960936,0.22744915771484372,1.5825672973632812,126.9618320610687,-209.66412213740458,9.17557251908397,-7.036558679199218,8.226476904296874,-2.4588451049804685,-10.0,72.21374045801527,12.80916030534351,0.0
10.720000505447388,-14.245499877929687,2.3965958618164063,-3.1699229980468746,92.68702290076335,-218.99236641221373,14.763358778625955,-5.877765075683594,8.698134631347656,-4.414907861328125,-52.44274809160305,79.78625954198473,23.740458015267176,0.0
10.730000495910645,-12.835315100097656,3.2321722412109373,-5.427655163574219,74.25954198473282,-211.84732824427482,18.35114503816794,-8.29351455078125,3.7110125732421873,-3.414131567382812,-85.14503816793894,94.6412213740458,33.847328244274806,0.0
10.740000486373901,-10.793061083984375,-0.9983820922851562,-5.578489868164062,72.83969465648855,-195.7709923664122,27.374045801526716,-11.640608471679688,-3.0310593017578125,-1.5083470458984374,-86.82442748091603,97.37404580152672,41.02290076335878,0.0
10.750000953674316,-11.109095703125,-1.1731588134765625,-6.030993981933594,80.07633587786259,-169.2824427480916,27.435114503816795,-15.20078634033203,-9.172186560058593,1.4173673828125,-58.045801526717554,89.08396946564885,39.80152671755725,0.0
10.760000944137573,-12.217611071777343,-0.833182177734375,-2.798821740722656,76.53435114503817,-154.3053435114504,17.954198473282442,-15.152902307128905,-10.321403356933594,2.3726538452148436,-19.297709923664122,72.74809160305344,30.748091603053435,0.0
10.770000696182251,-12.51928048095703,-0.30406361083984373,-0.26815058593749996,75.3587786259542,-132.9770992366412,16.83969465648855,-9.428366137695312,-5.2456958374023435,-0.6967126831054687,5.740458015267175,50.6412213740458,20.106870229007633,0.0
10.780000925064087,-12.145785021972655,0.8571241943359375,1.7453730102539062,80.65648854961832,-114.94656488549619,18.83969465648855,-6.909665991210937,-0.3495534423828125,-2.2673089721679687,-7.923664122137405,53.908396946564885,19.755725190839694,0.0
10.790000677108765,-12.208034265136718,3.9312791259765625,3.0166940917968748,70.9618320610687,-100.13740458015268,23.221374045801525,-9.006986645507812,-1.5658078857421873,-0.6081272216796875,-24.27480916030534,67.48091603053435,28.641221374045802,0.0
10.800000667572021,-8.604760766601562,2.7724855224609373,1.5610194824218748,48.93129770992366,-97.22137404580153,29.374045801526716,-7.105990527343749,0.41898529052734373,-2.70065947265625,-25.786259541984734,57.9236641221374,24.671755725190838,0.0
10.810000658035278,-7.098807922363281,3.2561142578125,1.4628572143554686,21.17557251908397,-82.27480916030534,26.519083969465647,-8.616731774902343,0.8930372192382812,-1.4867992309570313,-54.93129770992366,79.26717557251908,23.099236641221374,0.0
10.820000886917114,-6.8593877563476555,4.752490295410156,0.5315127685546874,-12.0,-79.25190839694656,24.198473282442748,-6.282385156249999,-0.26815058593749996,-1.924938134765625,-54.48854961832061,86.8854961832061,24.83969465648855,0.0
10.830000638961792,-7.1395093505859375,3.7158009765625,-0.17956512451171874,-35.74045801526717,-71.40458015267176,26.595419847328245,-10.251971508789062,-4.6447512207031245,0.9935936889648437,-42.091603053435115,89.23664122137404,32.47328244274809,0.0
10.840000867843628,-5.741295581054687,1.3215993164062498,-1.149216796875,-50.97709923664122,-61.52671755725191,29.908396946564885,-10.192116467285155,-5.475539196777343,1.7860744384765623,-24.778625954198475,87.46564885496183,32.10687022900763,0.0
10.850000381469727,-4.1563340820312495,-1.1755530151367186,-2.3535002319335936,-52.961832061068705,-54.70229007633588,30.671755725190838,-9.220070593261719,-2.96881005859375,0.4213794921875,-7.435114503816794,73.90839694656489,26.076335877862597,0.0
10.860000848770142,-2.5809493896484375,-2.868253588867187,-2.6599580444335937,-46.13740458015267,-41.16030534351145,28.213740458015266,-9.418789331054686,-2.2170307373046874,0.7038952880859375,-12.931297709923664,73.32824427480917,25.862595419847327,0.0
10.870000839233398,-1.924938134765625,-1.637633935546875,-2.3726538452148436,-39.282442748091604,-25.17557251908397,21.81679389312977,-9.854534033203125,-2.1068974609374997,1.448492004394531,1.7404580152671756,69.0381679389313,26.076335877862597,0.0
10.880000591278076,-1.4724340209960938,-1.3359645263671873,-2.612074011230469,-36.68702290076336,-11.526717557251908,17.740458015267176,-9.205705383300781,-1.3072341064453123,1.3910311645507811,1.4351145038167938,65.29770992366412,27.51145038167939,0.0
10.890000820159912,-0.6919242797851562,-1.2282254516601563,-3.1579519897460937,-31.099236641221374,5.679389312977099,14.946564885496183,-9.586383447265625,-1.9704279663085937,2.0159177978515626,9.206106870229007,62.274809160305345,28.427480916030536,0.0
10.900000810623169,-1.7956512451171873,0.9241618408203125,-2.8131869506835936,-46.99236641221374,19.587786259541986,8.396946564885496,-8.154650854492187,-1.7381904052734374,1.946485949707031,17.251908396946565,55.11450381679389,28.442748091603054,0.0
10.910000562667847,-1.3215993164062498,0.7445967163085937,-2.7748797241210936,-55.89312977099237,31.34351145038168,8.01526717557252,-11.911153259277343,-3.1603461914062496,4.089296435546875,22.0,58.6412213740458,30.458015267175572,0.0
10.920000791549683,-1.9656395629882812,0.7038952880859375,-1.3096283081054687,-72.54961832061069,42.94656488549618,6.0458015267175576,-9.679757312011718,-0.143652099609375,2.118868469238281,25.129770992366414,45.89312977099237,24.916030534351144,0.0
10.93000054359436,-1.7621324218749999,-0.679953271484375,-0.016759411621093748,-83.29770992366412,51.98473282442748,2.900763358778626,-9.3086560546875,-0.24899697265624998,1.5969325073242187,13.664122137404581,41.93893129770992,22.427480916030536,0.0
10.940000534057617,-1.8171990600585937,-1.9895815795898437,2.3056161987304686,-83.08396946564885,66.04580152671755,-0.8549618320610687,-9.028534460449219,0.03591302490234375,1.7788918334960937,4.305343511450381,41.343511450381676,22.625954198473284,0.0
10.950000524520874,-1.3239935180664062,-3.2249896362304686,4.833893151855468,-72.70229007633588,72.42748091603053,-6.305343511450381,-11.58075343017578,-2.940079638671875,3.859453076171875,8.183206106870228,45.17557251908397,26.717557251908396,0.0
10.960000276565552,-1.678335363769531,-3.0142998901367184,5.796362219238281,-43.51145038167939,86.74809160305344,-5.236641221374046,-9.873687646484374,-1.5586252807617187,3.5960908935546874,7.541984732824427,39.70992366412214,25.51145038167939,0.0
10.970000267028809,-3.766079211425781,-1.235408056640625,9.236830004882812,-15.114503816793894,98.77862595419847,-2.3053435114503817,-9.124302526855468,-1.9728221679687499,3.296815686035156,9.236641221374045,33.847328244274806,24.68702290076336,0.0
10.980000495910645,-5.738901379394531,0.8259995727539062,13.807360974121092,9.541984732824428,98.2442748091603,3.3740458015267176,-12.548010900878905,-5.147533569335937,5.930437512207031,23.87786259541985,37.61832061068702,28.610687022900763,0.0
10.990000486373901,-8.044517578125,3.897760302734375,16.903063720703123,30.519083969465647,90.03053435114504,12.13740458015267,-7.46272657470703,-3.5697546752929687,2.779668127441406,38.30534351145038,16.213740458015266,23.083969465648856,0.0
11.000000476837158,-10.838550915527343,6.095637426757812,18.770541015625,23.083969465648856,70.90076335877863,14.717557251908397,-8.068459594726562,-0.13168109130859373,1.8004396484374998,24.045801526717558,17.923664122137403,17.954198473282442,0.0
11.010000705718994,-12.291831323242187,3.900154504394531,20.513519824218747,-3.1603053435114505,38.900763358778626,13.022900763358779,-11.611878051757811,-2.8323405639648436,5.315127685546875,21.00763358778626,31.862595419847327,21.984732824427482,0.0
11.020000696182251,-14.743493823242186,1.177947216796875,23.860613745117185,6.106870229007634,11.816793893129772,15.557251908396946,-10.654197387695312,-2.0087351928710935,4.192247106933594,21.786259541984734,24.610687022900763,19.66412213740458,0.0
11.030000686645508,-17.125724475097655,0.679953271484375,15.80173095703125,17.053435114503817,-15.251908396946565,16.48854961832061,-12.07874737548828,-1.1731588134765625,3.7134067749023436,14.106870229007633,15.435114503816793,17.221374045801525,0.0
11.040000677108765,-22.151153759765624,3.706224169921875,-0.6177040283203125,48.36641221374046,-7.938931297709924,34.045801526717554,-14.437036010742187,-0.9217676391601562,3.5960908935546874,7.6183206106870225,6.656488549618321,19.068702290076335,0.0
11.0500009059906,-29.388825378417966,-1.5634136840820312,-0.6512228515624999,38.396946564885496,-0.42748091603053434,35.12977099236641,-15.617377429199218,-0.9935936889648437,4.283226770019531,-5.236641221374046,-0.9770992366412213,22.15267175572519,0.0
11.0600004196167,-20.961235534667967,-13.49611475830078,-1.8411410766601561,27.709923664122137,-11.083969465648854,18.763358778625953,-17.77215892333984,-2.47081611328125,5.5090580200195305,-15.435114503816793,-10.702290076335878,21.923664122137403,0.0
11.070000648498535,-9.483432775878907,-16.232687255859375,-1.7262193969726563,89.22137404580153,11.16030534351145,9.938931297709924,-16.314090112304687,-1.2952630981445312,4.99909306640625,-28.396946564885496,-31.740458015267176,10.061068702290076,0.0
11.080000877380371,-0.229843359375,-8.971073620605468,-8.590395556640624,149.98473282442748,40.42748091603053,0.12213740458015267,-18.176779003906248,0.9624690673828125,5.724536169433593,-34.82442748091603,-44.76335877862596,-0.10687022900763359,0.0
11.090000629425049,-0.7805097412109374,1.6424223388671875,-8.75320126953125,152.15267175572518,62.74809160305343,-24.015267175572518,-16.98207237548828,2.080561242675781,5.195417602539062,-53.49618320610687,-60.42748091603053,2.763358778625954,0.0
11.100000619888306,-4.240131140136718,7.211335400390625,-6.076483813476562,105.05343511450381,65.26717557251908,-42.13740458015267,-19.26135235595703,1.6519991455078125,3.584119885253906,-43.55725190839695,-76.19847328244275,6.351145038167939,0.0
11.110000371932983,-3.478775012207031,5.815515832519531,-5.473144995117187,69.83206106870229,66.33587786259542,-40.93129770992366,-17.84398497314453,2.166752502441406,1.5945383056640625,-37.465648854961835,-98.56488549618321,7.770992366412214,0.0
11.120000839233398,-5.853823059082031,5.011064074707031,-6.177040283203125,45.786259541984734,90.16793893129771,-36.961832061068705,-17.228675146484374,1.0031704956054688,1.2928688964843749,-27.328244274809162,-106.59541984732824,4.763358778625954,0.0
11.130000591278076,-10.383652600097655,7.948749511718749,-4.659116430664063,14.65648854961832,109.6793893129771,-39.49618320610687,-14.834473486328124,1.4796166259765624,-1.0893617553710937,-16.35114503816794,-120.4885496183206,-3.2519083969465647,0.0
11.140000820159912,-13.864821813964843,8.875305554199219,-2.7198130859375,-23.16030534351145,114.61068702290076,-37.19083969465649,-12.818555688476561,3.0071172851562498,-2.288856787109375,-27.603053435114504,-123.54198473282443,-9.236641221374045,0.0
11.15000057220459,-7.625532287597656,-0.8738836059570312,-4.632780212402343,-39.64885496183206,109.12977099236642,-25.587786259541986,-11.48498536376953,3.21780703125,-3.066972326660156,-43.14503816793893,-121.25190839694656,-14.229007633587786,0.0
11.160000562667847,-7.675810522460937,-6.035782385253906,-4.034229797363281,1.3129770992366412,143.1145038167939,-30.396946564885496,-9.658209497070311,0.8954314208984374,-3.1124621582031247,-53.6793893129771,-116.3969465648855,-19.251908396946565,0.0
11.170000553131104,-11.176133349609374,-0.2154781494140625,-0.2753331909179687,19.00763358778626,160.91603053435114,-46.274809160305345,-8.43956085205078,1.7764976318359373,-2.952050646972656,-40.18320610687023,-114.91603053435115,-28.290076335877863,0.0
11.180000305175781,-11.40837091064453,3.459621398925781,0.9840168823242187,7.938931297709924,155.2824427480916,-52.2442748091603,-11.61906065673828,-0.5243301635742187,-0.6416460449218749,-36.30534351145038,-111.41984732824427,-27.61832061068702,0.0
11.190000295639038,-11.690886706542969,4.520252734375,2.6623522460937497,-12.83969465648855,147.70992366412213,-47.87786259541985,-9.445125549316407,1.678335363769531,-1.8411410766601561,-37.06870229007634,-113.49618320610686,-27.954198473282442,0.0
11.200000524520874,-11.664550488281249,6.030993981933594,3.5984850952148437,-47.93893129770992,131.46564885496184,-44.93129770992366,-10.259154113769531,3.4093431640625,-1.7741034301757812,-30.259541984732824,-105.92366412213741,-26.213740458015266,0.0
11.210000276565552,-10.943895788574219,4.438849877929687,3.347093920898437,-84.18320610687023,110.74809160305344,-40.30534351145038,-9.050082275390624,4.9416322265625,-2.1595698974609374,-31.221374045801525,-102.8854961832061,-21.19083969465649,0.0
11.220000505447388,-12.61504854736328,6.421248852539062,3.873818286132812,-104.41221374045801,94.30534351145039,-32.88549618320611,-9.718064538574218,4.436455676269531,-1.9776105712890624,-29.755725190839694,-91.52671755725191,-15.587786259541986,0.0
11.230000495910645,-11.092336291503905,2.482787121582031,3.191470812988281,-114.62595419847328,75.12977099236642,-19.66412213740458,-8.530540515136718,5.099649536132812,-2.703053674316406,-35.31297709923664,-89.63358778625954,-14.030534351145038,0.0
11.240000247955322,-9.686939916992188,-1.3479355346679687,1.3144167114257812,-83.87786259541984,64.91603053435115,-6.0,-7.783549597167968,4.046200805664062,-3.5386300537109374,-35.16030534351145,-82.65648854961832,-14.335877862595419,0.0
11.250000953674316,-9.730035546875,-0.8738836059570312,3.438073583984375,-54.50381679389313,61.69465648854962,-2.4122137404580153,-8.008604553222655,1.3263877197265623,-1.848323681640625,-32.06106870229008,-66.91603053435115,-11.938931297709924,0.0
11.260000467300415,-11.018116040039061,-1.0366893188476562,4.122815258789062,-38.87022900763359,56.152671755725194,-4.198473282442748,-7.8338278320312495,0.4333505004882812,-1.6472107421875,-13.419847328244275,-65.34351145038168,-13.297709923664122,0.0
11.270000457763672,-10.498574279785156,-1.8243816650390623,3.5482068603515624,-16.671755725190838,51.29770992366412,-6.030534351145038,-7.381323718261719,-0.1484405029296875,-0.8403647827148437,-4.396946564885496,-61.66412213740458,-14.778625954198473,0.0
11.280000686645508,-10.350133776855468,-1.3718775512695311,3.0238766967773434,-2.351145038167939,46.213740458015266,-8.259541984732824,-6.392518432617187,0.7661445312499999,-1.0821791503906248,1.9083969465648856,-59.63358778625954,-16.18320610687023,0.0
11.290000677108765,-12.588712329101561,1.8171990600585937,3.6846763549804686,-9.145038167938932,35.969465648854964,-13.709923664122137,-7.999027746582031,-0.8547299926757812,0.7206546997070312,4.396946564885496,-44.458015267175576,-13.679389312977099,0.0
11.300000429153442,-12.548010900878905,2.1835119140624997,3.5721488769531247,-10.717557251908397,33.908396946564885,-12.213740458015268,-8.626308581542968,-1.2425906616210938,0.23702596435546874,19.96946564885496,-48.06106870229008,-13.98473282442748,0.0
11.310000658035278,-11.851298217773437,4.019864587402344,3.5793314819335937,-11.083969465648854,28.442748091603054,-10.213740458015268,-7.809885815429687,0.4070142822265625,-0.2705447875976562,18.53435114503817,-48.97709923664122,-19.709923664122137,0.0
11.320000886917114,-14.85602130126953,6.543353137207031,5.145139367675781,-26.80916030534351,21.740458015267176,-7.312977099236641,-9.622296472167967,-0.9552864624023437,0.9576806640625,24.80916030534351,-37.45038167938932,-19.328244274809162,0.0
11.330000400543213,-10.213664282226562,3.5506010620117183,2.5474305664062498,-35.51145038167939,8.16793893129771,0.732824427480916,-9.208099584960937,0.43574470214843747,-0.948103857421875,28.12213740458015,-48.916030534351144,-23.480916030534353,0.0
11.340000867843628,-9.840168823242188,2.152387292480469,1.6112977172851561,-21.16030534351145,9.48091603053435,5.358778625954199,-9.229647399902344,0.1388636962890625,-0.023942016601562498,26.65648854961832,-41.587786259541986,-25.709923664122137,0.0
11.350000381469727,-10.541669909667968,2.5450363647460934,1.5107412475585937,-18.610687022900763,12.351145038167939,6.213740458015267,-10.479420666503906,-0.6703764648437499,0.4525041137695312,32.732824427480914,-39.51145038167939,-26.0,0.0
11.360000848770142,-10.527304699707031,3.4548329956054684,1.0390835205078124,-25.633587786259543,11.282442748091603,1.1297709923664123,-10.366893188476562,-0.4525041137695312,0.948103857421875,33.16030534351145,-39.23664122137404,-28.82442748091603,0.0
11.37000060081482,-9.409212524414063,3.1459809814453124,-0.143652099609375,-32.58015267175573,9.297709923664122,2.7480916030534353,-10.062829577636718,-0.6584054565429687,1.2617442749023438,38.99236641221374,-38.48854961832061,-31.0381679389313,0.0
11.380000591278076,-8.36294639892578,1.0869675537109373,-1.158793603515625,-29.206106870229007,11.618320610687023,5.175572519083969,-9.200916979980468,0.40940848388671874,0.9959878906249999,37.43511450381679,-40.10687022900763,-34.458015267175576,0.0
11.390000581741333,-9.409212524414063,1.927332336425781,-0.26815058593749996,-31.51145038167939,20.137404580152673,3.3587786259541983,-8.834604125976561,0.11731588134765625,2.7150246826171873,32.732824427480914,-29.358778625954198,-36.274809160305345,0.0
11.40000057220459,-9.698910925292969,2.8467057739257813,0.2346317626953125,-40.229007633587784,23.709923664122137,1.2061068702290076,-10.141838232421874,-1.9393033447265624,2.712630480957031,39.37404580152672,-32.2442748091603,-35.267175572519086,0.0
11.410000562667847,-9.87608184814453,3.220201232910156,-0.07900865478515624,-51.05343511450382,22.427480916030536,1.6946564885496183,-9.976638317871092,-1.1468225952148436,2.961627453613281,49.23664122137404,-41.7557251908397,-38.12213740458015,0.0
11.420000553131104,-8.726865051269531,1.180341418457031,-0.6512228515624999,-50.33587786259542,23.83206106870229,5.114503816793893,-8.066065393066406,0.7015010864257812,2.7198130859375,46.534351145038165,-39.02290076335878,-41.74045801526717,0.0
11.43000054359436,-8.463502868652343,-0.16519991455078123,-0.44532150878906246,-47.57251908396947,28.931297709923665,7.022900763358779,-8.33182177734375,-0.46686932373046874,3.806780639648437,44.213740458015266,-30.85496183206107,-37.25190839694657,0.0
11.440000295639038,-10.601524951171875,1.5466542724609373,1.66636435546875,-47.49618320610687,35.81679389312977,1.5267175572519085,-9.789890588378906,0.09816226806640624,4.173093493652344,51.587786259541986,-36.61068702290076,-34.74809160305343,0.0
11.450000524520874,-10.194510668945313,1.0702081420898437,0.8643067993164062,-51.31297709923664,27.984732824427482,2.2595419847328246,-7.45075556640625,2.231395947265625,3.564966271972656,47.32824427480916,-40.12213740458015,-36.778625954198475,0.0
11.46000051498413,-8.037334973144532,-1.5610194824218748,-0.373495458984375,-33.12977099236641,29.572519083969464,7.480916030534351,-6.062118603515625,3.5865140869140624,3.938461730957031,27.938931297709924,-29.404580152671755,-33.32824427480916,0.0
11.470000982284546,-8.913612780761719,-0.7805097412109374,0.7158662963867187,-25.19083969465649,38.2442748091603,4.030534351145038,-6.852205151367187,2.501940734863281,3.928884924316406,10.320610687022901,-18.259541984732824,-28.12213740458015,0.0
11.480000257492065,-8.384494213867187,-0.17956512451171874,0.1580173095703125,-22.106870229007633,35.70992366412214,0.3969465648854962,-7.129932543945312,1.5011644409179687,3.5960908935546874,5.190839694656488,-15.83206106870229,-23.00763358778626,0.0
11.490000486373901,-8.84178673095703,-0.35194764404296874,0.3447650390625,-10.885496183206106,37.80152671755725,-0.9618320610687023,-8.444349255371094,0.28969840087890625,4.084508032226562,6.961832061068702,-13.954198473282442,-19.19083969465649,0.0
11.500000476837158,-10.046070166015625,-0.076614453125,0.9959878906249999,-2.9770992366412212,41.404580152671755,-3.4198473282442747,-7.364564306640625,0.8188169677734375,3.5506010620117183,5.114503816793893,-14.305343511450381,-20.38167938931298,0.0
11.510000467300415,-9.859322436523437,0.45968671875,0.7398083129882812,-1.786259541984733,37.43511450381679,-3.786259541984733,-7.563283044433593,0.6727706665039062,3.399766357421875,4.244274809160306,-10.702290076335878,-20.931297709923665,0.0
11.520000457763672,-9.299079248046874,0.258573779296875,0.6248866333007812,5.770992366412214,36.3206106870229,-3.312977099236641,-7.6231380859375,0.7230489013671875,3.3494881225585935,1.0381679389312977,-7.251908396946565,-18.778625954198475,0.0
11.530000448226929,-8.923189587402343,0.6560112548828124,1.0295067138671874,13.404580152671755,37.587786259541986,-4.183206106870229,-6.622361791992187,1.6328455322265625,2.7150246826171873,-4.519083969465649,-7.267175572519084,-18.595419847328245,0.0
11.540000677108765,-9.516951599121093,0.5817910034179687,1.66636435546875,15.572519083969466,38.35114503816794,-6.412213740458015,-7.448361364746093,0.74699091796875,3.1866824096679687,-8.320610687022901,-1.0229007633587786,-15.83206106870229,0.0
11.550000667572021,-9.325415466308593,0.852335791015625,1.7669208251953124,20.610687022900763,36.50381679389313,-6.564885496183206,-7.884106066894531,0.7302315063476562,3.2920272827148436,-9.755725190839694,0.3053435114503817,-14.946564885496183,0.0
11.560000658035278,-9.105148913574219,1.8818425048828125,2.0542250244140625,21.786259541984734,33.48091603053435,-7.9541984732824424,-6.756437084960937,1.2138602416992186,2.8802245971679685,-14.061068702290076,0.6259541984732825,-16.625954198473284,0.0
11.570000648498535,-9.05965908203125,2.212242333984375,2.6599580444335937,19.69465648854962,30.091603053435115,-8.51908396946565,-6.141127258300781,1.70467158203125,2.712630480957031,-23.31297709923664,7.740458015267175,-16.18320610687023,0.0
11.580000877380371,-9.387664709472656,2.0087351928710935,3.0262708984374997,21.206106870229007,27.709923664122137,-8.595419847328245,-5.966350537109375,1.3551181396484375,2.916137622070312,-31.938931297709924,13.038167938931299,-13.86259541984733,0.0
11.590000629425049,-10.326191760253906,2.4253262817382812,3.67749375,19.740458015267176,25.282442748091604,-9.694656488549619,-7.431601953125,-0.0430956298828125,3.3351229125976563,-37.05343511450382,20.3206106870229,-8.900763358778626,0.0
11.600000619888306,-12.121843005371092,3.299209887695312,4.786009118652344,12.732824427480915,20.793893129770993,-12.366412213740459,-7.184999182128906,-0.6440402465820312,2.942473840332031,-34.961832061068705,19.0381679389313,-7.7251908396946565,0.0
11.610000371932983,-11.188104357910156,3.6056677001953124,4.441244079589843,3.2977099236641223,7.679389312977099,-11.022900763358779,-7.216123803710937,-0.35673604736328124,2.042254016113281,-35.06870229007634,21.251908396946565,-8.274809160305344,0.0
11.620000839233398,-10.065223779296874,2.061407629394531,4.429273071289062,7.145038167938932,2.030534351145038,-9.770992366412214,-5.57370146484375,1.448492004394531,0.9576806640625,-41.282442748091604,27.374045801526716,-8.931297709923664,0.0
11.630000591278076,-9.394847314453125,1.8004396484374998,4.386177441406249,1.7099236641221374,-7.4961832061068705,-9.98473282442748,-6.150704064941406,1.216254443359375,0.93852705078125,-52.25954198473283,40.3206106870229,-5.572519083969466,0.0
11.640000581741333,-10.78348427734375,1.905784521484375,5.355829113769531,-2.366412213740458,-14.977099236641221,-14.396946564885496,-7.2903440551757805,-0.5291185668945312,1.0319009155273438,-49.786259541984734,47.099236641221374,-1.9694656488549618,0.0
11.65000057220459,-10.022128149414062,0.3687070556640625,5.681440539550781,2.0610687022900764,-23.984732824427482,-16.35114503816794,-6.315903979492187,-0.3902548706054687,-0.28730419921875,-39.404580152671755,47.14503816793893,-2.9770992366412212,0.0
11.660000562667847,-11.427524523925781,1.6903063720703124,6.461950280761719,6.6106870229007635,-33.29770992366412,-21.099236641221374,-5.68862314453125,0.3064578125,-1.6112977172851561,-36.29007633587786,54.74809160305343,-3.877862595419847,0.0
11.670000553131104,-11.6837041015625,2.6958710693359373,7.943961108398437,-12.80916030534351,-49.80152671755725,-22.27480916030534,-7.40526573486328,-1.5921441040039062,-0.18435352783203124,-30.793893129770993,64.6412213740458,-1.2213740458015268,0.0
11.68000054359436,-15.586252807617187,4.220977526855468,10.369287390136718,-26.48854961832061,-65.92366412213741,-23.221374045801525,-9.68454571533203,-4.680664245605469,1.1875240234375,-21.72519083969466,64.4885496183206,-5.038167938931298,0.0
11.690000295639038,-15.746664318847655,3.342305517578125,11.741164941406248,-30.106870229007633,-90.4885496183206,-19.206106870229007,-10.060435375976562,-5.7700260009765625,1.0654197387695312,-20.458015267175572,66.35114503816794,-14.351145038167939,0.0
11.700000524520874,-17.19276212158203,2.5426421630859375,12.746729638671875,-13.236641221374045,-114.01526717557252,-12.610687022900763,-12.129025610351562,-5.087678527832031,1.8363526733398436,5.0534351145038165,69.55725190839695,-14.061068702290076,0.0
11.71000075340271,-18.559851269531247,3.394977954101562,13.232752575683593,10.65648854961832,-133.7709923664122,-6.9465648854961835,-13.912705847167969,-1.879448303222656,3.5721488769531247,31.358778625954198,61.12977099236641,-10.045801526717558,0.0
11.720000267028809,-19.553444958496094,4.484339709472656,11.247959399414063,13.389312977099237,-158.87022900763358,-1.1145038167938932,-14.516044665527343,-0.2346317626953125,4.96078583984375,47.80152671755725,54.412213740458014,-3.7557251908396947,0.0
11.730000495910645,-17.57583438720703,1.4101847778320311,10.304643945312499,8.274809160305344,-193.23664122137404,7.236641221374046,-14.695609790039061,0.5410895751953124,5.099649536132812,60.06106870229008,44.16793893129771,1.984732824427481,0.0
11.740000486373901,-18.938135131835935,-0.5817910034179687,11.566388220214844,24.0,-213.95419847328245,14.717557251908397,-12.313379138183594,3.1172505615234374,3.430890979003906,52.83969465648855,37.25190839694657,1.3740458015267176,0.0
11.750000715255737,-17.458518505859374,-1.3048399047851562,7.955932116699218,32.79389312977099,-236.27480916030535,25.541984732824428,-10.398017810058594,3.69664736328125,2.35589443359375,31.87786259541985,44.68702290076336,6.3816793893129775,0.0
11.760000705718994,-15.643713647460936,-1.5538368774414062,1.7621324218749999,15.282442748091603,-252.25954198473283,33.61832061068702,-8.470685473632813,4.73094248046875,1.197100830078125,11.038167938931299,46.97709923664122,15.816793893129772,0.0
11.77000093460083,-15.205574743652344,-4.431667272949219,-4.247313745117188,3.801526717557252,-264.7480916030534,31.251908396946565,-6.768408093261718,5.851428857421874,-1.0726023437499999,-17.61832061068702,50.916030534351144,20.65648854961832,0.0
11.780000686645508,-13.493720556640625,-4.055777612304687,-5.791573815917968,7.801526717557252,-258.9770992366412,26.38167938931298,-6.404489440917969,2.7557261108398436,-1.5203180541992187,-50.900763358778626,61.16030534351145,26.793893129770993,0.0
11.790000677108765,-11.168950744628905,-6.241683728027343,-5.276820458984375,32.51908396946565,-240.10687022900763,24.045801526717558,-10.426748229980468,-2.1164742675781247,0.41419688720703124,-66.07633587786259,75.1145038167939,34.534351145038165,0.0
11.800000667572021,-10.026916552734374,-7.4699091796875,-6.279990954589843,70.27480916030534,-212.36641221374046,21.84732824427481,-8.051700183105469,-4.012681982421875,-1.3120225097656248,-59.954198473282446,64.29007633587786,30.12213740458015,0.0
11.8100004196167,-9.543287817382812,-4.446032482910156,-5.284003063964843,89.06870229007633,-192.67175572519085,6.702290076335878,-10.374075793457031,-5.111620544433594,0.74699091796875,-49.099236641221374,71.20610687022901,29.908396946564885,0.0
11.820001125335693,-8.530540515136718,-3.555389465332031,-3.4955344238281247,96.80916030534351,-164.793893129771,-4.229007633587786,-9.598354455566406,-5.1882349975585935,0.8595183959960937,-27.282442748091604,66.36641221374046,27.49618320610687,0.0
11.830000638961792,-10.405200415039062,-1.3215993164062498,-1.0869675537109373,104.35114503816794,-136.73282442748092,-12.076335877862595,-10.716446630859375,-5.729324572753906,1.1180921752929687,-6.458015267175573,59.66412213740458,24.18320610687023,0.0
11.840000867843628,-9.481038574218749,-0.34237083740234375,0.3327940307617187,112.70229007633588,-117.92366412213741,-10.687022900763358,-7.168239770507812,-2.2361843505859373,-1.6017209106445311,-0.8549618320610687,45.83206106870229,12.442748091603054,0.0
11.850000381469727,-9.418789331054686,3.306392492675781,2.1930887207031247,102.0,-97.40458015267176,-10.030534351145038,-8.334215979003906,-2.6815058593749996,-0.9576806640625,-16.580152671755727,60.68702290076336,12.351145038167939,0.0
11.860000848770142,-10.534487304687499,6.892906579589844,3.5314474487304683,57.45038167938932,-97.74045801526718,-8.610687022900763,-9.260772021484375,-4.1946413085937495,-0.03591302490234375,-2.7786259541984735,61.81679389312977,14.488549618320612,0.0
11.87000060081482,-8.810662109374999,5.8226984375,2.327164013671875,22.83969465648855,-103.00763358778626,-1.7557251908396947,-7.580042456054687,-0.5243301635742187,-1.4245499877929686,-2.8702290076335877,53.587786259541986,11.633587786259541,0.0
11.880000591278076,-7.706935144042968,4.893748193359374,0.4955997436523437,-6.33587786259542,-96.01526717557252,4.900763358778626,-9.217676391601563,-0.7972691528320313,-0.9720458740234375,-7.984732824427481,65.43511450381679,12.702290076335878,0.0
11.890000581741333,-7.625532287597656,3.9647979492187497,-0.4477157104492187,-30.564885496183205,-91.29770992366412,9.206106870229007,-9.79946739501953,-2.3151930053710936,0.6512228515624999,-7.4961832061068705,76.09160305343511,19.17557251908397,0.0
11.90000033378601,-4.127603662109375,0.46208092041015625,-2.655169641113281,-34.30534351145038,-87.95419847328245,16.045801526717558,-7.862558251953125,-0.6536170532226562,-1.5873557006835937,1.7251908396946565,65.7557251908397,17.053435114503817,0.0
11.910000562667847,-2.978386865234375,-1.7238251953125,-2.616862414550781,-23.72519083969466,-66.74809160305344,14.198473282442748,-8.583212951660157,0.2657563842773437,-0.8547299926757812,-21.206106870229007,82.53435114503817,19.49618320610687,0.0
11.920000791549683,-1.7717092285156248,-2.7724855224609373,-3.0885201416015624,-12.259541984732824,-51.038167938931295,11.083969465648854,-8.537723120117187,-0.055066638183593745,-0.7613561279296874,-12.778625954198473,85.32824427480917,22.80916030534351,0.0
11.930000305175781,-2.5234885498046875,-1.1348515869140625,-2.4756045166015626,-3.786259541984733,-28.50381679389313,5.541984732824427,-11.432312927246093,-3.6655227416992187,1.8195932617187498,-1.8473282442748091,89.63358778625954,30.27480916030534,0.0
11.940000534057617,-2.7629087158203123,0.3112462158203125,-2.5522189697265625,-2.122137404580153,-16.396946564885496,0.7633587786259542,-10.105925207519531,-2.224213342285156,1.0654197387695312,16.366412213740457,84.42748091603053,28.48854961832061,0.0
11.950000286102295,-3.8857892944335934,1.5203180541992187,-2.1835119140624997,-13.145038167938932,-4.488549618320611,0.732824427480916,-10.290278735351562,-2.7844565307617186,1.6998831787109374,28.99236641221374,79.63358778625954,27.374045801526716,0.0
11.96000051498413,-1.7405846069335937,0.16280571289062498,-2.9185318237304685,-13.465648854961833,6.961832061068702,6.061068702290076,-11.394005700683593,-2.1930887207031247,1.8267758666992187,43.16030534351145,73.49618320610686,26.870229007633586,0.0
11.970000267028809,-1.9584569580078124,-0.4836287353515625,-1.2880804931640624,-6.961832061068702,31.450381679389313,6.122137404580153,-9.873687646484374,-0.5913678100585937,1.254561669921875,41.20610687022901,67.52671755725191,24.641221374045802,0.0
11.980000495910645,-0.33039982910156246,-1.1133037719726562,-1.3527239379882812,-8.412213740458014,42.56488549618321,1.7404580152671756,-12.088324182128906,-3.294421484375,2.4349030883789062,48.33587786259542,68.4885496183206,24.50381679389313,0.0
11.99000072479248,-2.0446482177734375,-1.0917559570312498,1.0917559570312498,-12.687022900763358,58.94656488549618,-5.00763358778626,-9.229647399902344,-1.3120225097656248,0.5722141967773438,60.94656488549618,51.25190839694657,21.34351145038168,0.0
12.000000476837158,-2.3439234252929686,-0.8762778076171874,2.6144682128906247,-20.18320610687023,66.47328244274809,-11.419847328244275,-10.759542260742187,-0.41898529052734373,0.9241618408203125,53.099236641221374,49.93893129770992,18.27480916030534,0.0
12.010000705718994,-3.337517114257812,0.15083470458984374,5.53539423828125,-16.412213740458014,76.6412213740458,-12.641221374045802,-9.931148486328125,-0.10773907470703124,1.438915197753906,38.25954198473283,51.267175572519086,17.893129770992367,0.0
12.020000696182251,-3.3782185424804685,0.7445967163085937,6.294356164550781,-9.48091603053435,82.83969465648855,-8.625954198473282,-11.188104357910156,-1.3431471313476562,2.8371289672851563,36.18320610687023,51.343511450381676,20.091603053435115,0.0
12.030000686645508,-4.050989208984375,1.7884686401367187,7.726088757324218,5.8320610687022905,91.16030534351145,-1.5419847328244274,-9.952696301269532,-1.0869675537109373,2.683900061035156,27.328244274809162,48.30534351145038,20.931297709923665,0.0
12.040000438690186,-5.45877978515625,2.877830395507812,9.45470235595703,21.557251908396946,93.78625954198473,6.809160305343512,-11.3006318359375,-1.9608511596679685,3.816357446289062,30.580152671755727,46.80916030534351,21.801526717557252,0.0
12.050000667572021,-6.72291826171875,4.218583325195312,11.010933435058593,31.267175572519083,92.59541984732824,13.770992366412214,-10.297461340332031,-1.5705962890624998,3.2058360229492187,23.419847328244273,40.961832061068705,20.259541984732824,0.0
12.060001134872437,-7.625532287597656,5.159504577636718,11.358092675781249,22.53435114503817,85.19083969465649,16.580152671755727,-10.108319409179687,-1.1516109985351561,3.1842882080078123,21.557251908396946,36.36641221374046,18.259541984732824,0.0
12.070000886917114,-8.243236315917969,4.594472985839843,11.79862578125,-3.9083969465648853,70.83969465648855,12.16793893129771,-12.054805358886718,-1.9728221679687499,4.92247861328125,23.61832061068702,37.45038167938932,20.9618320610687,0.0
12.080000400543213,-8.32463917236328,3.6152445068359373,11.17852755126953,-28.3206106870229,52.62595419847328,7.022900763358779,-11.171344946289063,0.354341845703125,4.383783239746093,14.625954198473282,32.44274809160305,20.12213740458015,0.0
12.090000629425049,-9.883264453125,2.4779987182617185,11.353304272460937,-30.564885496183205,44.42748091603053,5.297709923664122,-9.464279162597656,2.1978771240234374,2.9089550170898435,0.5648854961832062,27.129770992366414,20.580152671755727,0.0
12.100000619888306,-11.202469567871093,1.0869675537109373,13.268665600585937,-25.587786259541986,30.015267175572518,8.702290076335878,-10.141838232421874,1.7477672119140624,2.3247698120117186,-9.84732824427481,26.137404580152673,27.206106870229007,0.0
12.110000610351562,-12.97178459472656,0.37828386230468747,15.035586425781249,6.763358778625954,20.137404580152673,19.633587786259543,-12.19366905517578,-1.1707646118164061,3.881000891113281,-13.557251908396946,27.236641221374047,36.091603053435115,0.0
12.120000839233398,-15.945383056640624,3.0789433349609374,10.333374365234375,2.6259541984732824,6.290076335877862,30.106870229007633,-12.356474768066406,-0.08140285644531249,2.446874096679687,-26.076335877862597,17.786259541984734,37.343511450381676,0.0
12.130000591278076,-20.484789404296873,1.8459294799804686,4.786009118652344,17.282442748091604,7.0534351145038165,44.595419847328245,-12.294225524902343,-2.2194249389648437,2.4157494750976563,-17.34351145038168,7.404580152671755,40.82442748091603,0.0
12.140000581741333,-21.59091057128906,-6.356605407714843,7.654262707519531,12.366412213740459,9.587786259541986,42.213740458015266,-14.235923071289061,-3.4261025756835934,2.786850732421875,-29.0381679389313,1.1755725190839694,40.19847328244275,0.0
12.15000057220459,-20.88940948486328,-10.568006127929687,8.743624462890624,17.053435114503817,8.045801526717558,18.38167938931298,-12.725181823730468,-3.5314474487304683,2.6240450195312497,-43.954198473282446,-9.419847328244275,31.267175572519083,0.0
12.160000562667847,-10.69968721923828,-16.033968518066406,0.5770026000976562,60.2442748091603,-14.183206106870228,8.67175572519084,-13.838485595703125,-2.626439221191406,2.6862942626953124,-44.29007633587786,-18.412213740458014,22.641221374045802,0.0
12.170000314712524,-7.596801867675781,-6.253654736328125,-3.4069489624023435,130.21374045801528,31.328244274809162,-2.8702290076335877,-15.346832641601562,-3.0526071166992184,3.3638533325195312,-39.05343511450382,-24.47328244274809,20.65648854961832,0.0
12.180000305175781,-2.6982652709960937,0.603338818359375,-10.419565624999999,143.40458015267177,41.64885496183206,-9.251908396946565,-15.926229443359373,-0.8595183959960937,1.2952630981445312,-31.435114503816795,-50.152671755725194,10.885496183206106,0.0
12.190000295639038,-2.7533319091796873,2.9281086303710935,-8.863334545898438,125.6793893129771,54.70229007633588,-17.374045801526716,-18.009184887695312,1.848323681640625,1.4317325927734375,-27.709923664122137,-58.18320610687023,11.251908396946565,0.0
12.200000524520874,-4.958391638183594,5.006275671386718,-4.414907861328125,80.29007633587786,59.908396946564885,-27.923664122137403,-16.517597253417968,0.9648632690429687,-0.45968671875,-15.34351145038168,-80.59541984732824,8.030534351145038,0.0
12.21000075340271,-2.2768857788085937,4.414907861328125,-5.4013189453125,47.55725190839695,58.70229007633588,-29.129770992366414,-16.45055960693359,2.501940734863281,-1.7477672119140624,-9.48091603053435,-96.9618320610687,3.801526717557252,0.0
12.220000505447388,-2.712630480957031,4.446032482910156,-7.362170104980469,34.94656488549618,77.7557251908397,-28.519083969465647,-14.834473486328124,2.4947581298828125,-1.9704279663085937,-17.740458015267176,-99.57251908396947,2.33587786259542,0.0
12.230000734329224,-7.936778503417968,8.262389929199218,-6.062118603515625,13.954198473282442,101.89312977099236,-31.49618320610687,-12.670115185546875,3.1268273681640624,-2.5641899780273434,-22.702290076335878,-103.6030534351145,-3.4656488549618323,0.0
12.240000486373901,-11.880028637695311,8.580818749999999,-3.758896606445312,-25.083969465648856,108.7175572519084,-28.748091603053435,-11.568782421875,3.3399113159179685,-2.91134921875,-21.46564885496183,-104.01526717557252,-8.946564885496183,0.0
12.250000715255737,-8.832209924316405,0.7541735229492187,-3.526659045410156,-41.98473282442748,108.9618320610687,-17.72519083969466,-10.965443603515624,2.2840683837890623,-2.9496564453125,-32.213740458015266,-109.02290076335878,-14.870229007633588,0.0
12.260000705718994,-7.414842541503906,-2.798821740722656,-2.674323254394531,-23.51145038167939,133.1145038167939,-19.00763358778626,-10.419565624999999,0.9552864624023437,-2.300827795410156,-39.32824427480916,-103.55725190839695,-16.763358778625953,0.0
12.270000696182251,-10.357316381835936,0.1771709228515625,-0.03591302490234375,-21.84732824427481,144.7175572519084,-31.52671755725191,-10.005368737792969,1.5179238525390624,-2.214636535644531,-31.81679389312977,-106.03053435114504,-22.580152671755727,0.0
12.280000686645508,-11.678915698242188,3.306392492675781,2.7437551025390623,-38.97709923664122,140.0763358778626,-37.25190839694657,-9.624690673828125,1.9201497314453124,-1.2952630981445312,-36.16793893129771,-103.32824427480917,-22.213740458015266,0.0
12.290000677108765,-9.928754284667969,1.20667763671875,1.898601916503906,-48.83969465648855,127.08396946564885,-32.79389312977099,-10.019733947753906,1.927332336425781,-1.3455413330078123,-35.465648854961835,-98.36641221374046,-21.221374045801525,0.0
12.300000429153442,-9.227253198242186,0.842758984375,1.7884686401367187,-45.6793893129771,122.0,-30.0,-9.287108239746093,1.944091748046875,-1.2521674682617188,-34.97709923664122,-95.8473282442748,-17.450381679389313,0.0
12.3100004196167,-10.520122094726561,2.1739351074218747,2.925714428710937,-52.778625954198475,114.2442748091603,-30.900763358778626,-8.147468249511718,4.223371728515625,-2.269703173828125,-30.549618320610687,-95.12977099236642,-20.48854961832061,0.0
12.320000886917114,-10.026916552734374,1.484405029296875,1.7501614135742187,-59.86259541984733,102.1526717557252,-28.977099236641223,-7.3478048950195305,5.741295581054687,-2.612074011230469,-41.49618320610687,-87.6030534351145,-15.114503816793894,0.0
12.330000877380371,-10.472238061523436,2.2744915771484373,1.7956512451171873,-69.5114503816794,88.74809160305344,-24.03053435114504,-9.418789331054686,3.902548706054687,-1.2737152832031249,-41.083969465648856,-71.86259541984732,-8.885496183206106,0.0
12.340000629425049,-11.015721838378905,2.2170307373046874,2.379836450195312,-77.14503816793894,75.34351145038168,-18.03053435114504,-8.10197841796875,2.91134921875,-2.27927998046875,-42.10687022900763,-70.53435114503817,-8.13740458015267,0.0
12.350000619888306,-9.713276135253906,-0.21308394775390624,1.3766659545898436,-71.17557251908397,63.404580152671755,-10.01526717557252,-8.259995727539062,1.6807295654296874,-2.5737667846679684,-38.33587786259542,-66.29007633587786,-11.98473282442748,0.0
12.360000848770142,-11.33175645751953,2.379836450195312,3.986345764160156,-61.954198473282446,60.16793893129771,-7.8320610687022905,-8.470685473632813,1.2880804931640624,-1.20667763671875,-33.038167938931295,-59.770992366412216,-11.893129770992367,0.0
12.37000060081482,-10.536881506347656,-1.3479355346679687,2.6336218261718747,-49.587786259541986,53.37404580152672,-5.0534351145038165,-8.501810095214843,-0.09337386474609374,-0.7565677246093749,-20.061068702290076,-57.786259541984734,-13.022900763358779,0.0
12.380000591278076,-10.206481677246094,-2.1930887207031247,1.5969325073242187,-30.748091603053435,46.458015267175576,-4.366412213740458,-8.576030346679687,0.17956512451171874,-0.1484405029296875,-13.34351145038168,-59.099236641221374,-13.908396946564885,0.0
12.390000581741333,-10.089165795898436,-1.0702081420898437,2.039859814453125,-16.625954198473284,43.74045801526717,-7.770992366412214,-8.315062365722655,-0.16280571289062498,0.373495458984375,-4.122137404580153,-57.37404580152672,-17.419847328244273,0.0
12.40000057220459,-11.93270107421875,1.484405029296875,3.294421484375,-22.106870229007633,38.534351145038165,-12.045801526717558,-8.559270935058594,-0.5027823486328125,0.7637503295898437,-7.755725190839694,-54.67175572519084,-20.106870229007633,0.0
12.410000562667847,-12.418724011230468,2.8658593872070313,3.3446997192382812,-35.55725190839695,30.595419847328245,-13.587786259541986,-8.84178673095703,-0.5865794067382812,0.6751648681640625,-2.2442748091603053,-53.19083969465649,-21.52671755725191,0.0
12.420000791549683,-12.876016528320312,3.227383837890625,3.277662072753906,-32.38167938931298,26.3206106870229,-9.297709923664122,-8.798691101074219,0.45489831542968745,0.5434837768554687,-5.938931297709924,-53.81679389312977,-23.17557251908397,0.0
12.43000054359436,-11.997344519042969,3.1842882080078123,2.224213342285156,-32.42748091603053,23.801526717557252,-4.809160305343512,-10.117896215820313,-1.0223241088867188,1.13006318359375,-4.152671755725191,-50.0,-22.916030534351144,0.0
12.440000534057617,-11.647791076660155,3.0142998901367184,1.6615759521484375,-34.42748091603053,22.015267175572518,-2.2442748091603053,-9.756371765136718,-0.6655880615234374,1.01514150390625,0.6870229007633588,-54.25954198473283,-24.03053435114504,0.0
12.450000286102295,-8.456320263671875,2.147598889160156,-0.4740519287109375,-38.229007633587784,17.16030534351145,-0.07633587786259542,-9.686939916992188,-0.5363011718749999,1.1827356201171875,-1.0229007633587786,-49.70992366412214,-26.793893129770993,0.0
12.46000051498413,-8.164227661132813,0.19153613281249998,-1.2018892333984375,-29.17557251908397,25.114503816793892,0.9312977099236641,-10.182539660644531,-2.2553379638671873,1.5418658691406248,5.282442748091603,-49.98473282442748,-27.893129770992367,0.0
12.470000743865967,-9.969455712890625,2.5139117431640625,0.10773907470703124,-30.931297709923665,29.61832061068702,-3.6946564885496183,-9.404424121093749,-1.1444283935546875,1.7022773803710936,9.19083969465649,-51.74045801526717,-31.770992366412212,0.0
12.480000495910645,-11.992556115722655,5.042188696289062,0.9121908325195311,-56.2442748091603,23.984732824427482,-7.7251908396946565,-10.388441003417968,-1.898601916503906,2.492363928222656,16.48854961832061,-46.595419847328245,-33.29770992366412,0.0
12.49000072479248,-11.042058056640624,3.0837317382812497,-0.29448680419921874,-63.465648854961835,19.984732824427482,-2.0763358778625953,-10.764330664062498,-2.1356278808593747,2.0542250244140625,26.33587786259542,-52.35114503816794,-34.51908396946565,0.0
12.500000476837158,-9.557653027343749,1.139639990234375,-0.21787235107421873,-48.74809160305343,28.80916030534351,1.3587786259541985,-9.730035546875,-1.2856862915039062,2.422932080078125,25.541984732824428,-51.06870229007634,-39.02290076335878,0.0
12.510000705718994,-11.37006368408203,3.0119056884765625,1.0079588989257813,-61.267175572519086,28.244274809160306,-0.44274809160305345,-10.022128149414062,-2.2098481323242187,2.7820623291015623,35.099236641221374,-49.16030534351145,-39.69465648854962,0.0
12.520000457763672,-12.569558715820312,4.383783239746093,2.4301146850585935,-72.83969465648855,23.984732824427482,-0.6564885496183206,-9.030928662109375,-0.6871358764648438,1.8459294799804686,39.343511450381676,-53.45038167938932,-41.93893129770992,0.0
12.530000686645508,-10.862492932128905,1.6424223388671875,0.9792284790039062,-73.87786259541984,16.80916030534351,6.99236641221374,-8.609549169921875,-0.6248866333007812,2.422932080078125,36.47328244274809,-47.25190839694657,-40.412213740458014,0.0
12.540000438690186,-9.076418493652342,0.6919242797851562,0.7062894897460937,-64.82442748091603,17.450381679389313,11.603053435114504,-5.288791467285156,1.9321207397460936,-0.12689268798828124,30.885496183206108,-54.396946564885496,-43.02290076335878,0.0
12.550000667572021,-9.04050546875,-0.1005564697265625,0.718260498046875,-58.396946564885496,16.519083969465647,10.763358778625955,-5.0948611328124995,3.4452561889648434,2.2385785522460937,3.572519083969466,-24.229007633587788,-39.267175572519086,0.0
12.5600004196167,-7.539341027832031,-2.568978381347656,0.09816226806640624,-42.83969465648855,19.69465648854962,13.618320610687023,-8.051700183105469,-1.180341418457031,3.392583752441406,3.114503816793893,-12.259541984732824,-27.923664122137403,0.0
12.570000648498535,-8.2743609375,-2.5665841796874997,0.74699091796875,-17.450381679389313,27.786259541984734,9.389312977099237,-8.796296899414061,-2.1260510742187497,4.082113830566406,15.694656488549619,-14.992366412213741,-27.053435114503817,0.0
12.580000877380371,-10.654197387695312,0.05027823486328125,2.1260510742187497,-5.969465648854962,31.267175572519083,2.16793893129771,-6.481103894042969,-0.8259995727539062,3.3494881225585935,22.65648854961832,-16.290076335877863,-33.038167938931295,0.0
12.590000629425049,-10.62307276611328,-0.33039982910156246,1.7836802368164062,-17.587786259541986,20.580152671755727,1.0534351145038168,-7.086836914062499,-0.6488286499023437,3.0406361083984375,30.045801526717558,-11.786259541984732,-31.755725190839694,0.0
12.600000858306885,-10.769119067382812,-1.3287819213867187,1.7429788085937499,9.083969465648854,22.885496183206108,3.786259541984733,-6.114791040039062,-0.19632453613281248,3.1411925781249996,29.450381679389313,-7.9541984732824424,-29.84732824427481,0.0
12.610000610351562,-9.107543115234375,-1.7022773803710936,1.4508862060546874,24.793893129770993,22.793893129770993,1.4961832061068703,-7.161057165527343,-0.3016694091796875,3.057395520019531,35.221374045801525,-5.816793893129771,-26.50381679389313,0.0
12.62000060081482,-9.782707983398437,-1.39821376953125,2.528276953125,30.99236641221374,25.297709923664122,-4.3816793893129775,-7.1035963256835934,0.20829554443359374,3.2561142578125,34.97709923664122,-3.267175572519084,-24.580152671755727,0.0
12.630000591278076,-8.360552197265624,-0.8930372192382812,1.2473790649414063,43.969465648854964,20.68702290076336,-4.9465648854961835,-7.472303381347656,0.3112462158203125,3.2345664428710936,34.2442748091603,-0.7175572519083969,-22.931297709923665,0.0
12.640000343322754,-8.40125362548828,0.4213794921875,1.2330138549804688,51.00763358778626,20.50381679389313,-7.114503816793893,-6.981492041015625,0.9121908325195311,3.0358477050781247,31.51145038167939,1.0076335877862594,-21.66412213740458,0.0
12.65000057220459,-10.749965454101561,1.659181750488281,2.375048046875,46.13740458015267,21.755725190839694,-9.404580152671755,-6.2584431396484375,2.3151930053710936,2.4301146850585935,23.068702290076335,4.595419847328245,-20.641221374045802,0.0
12.660000562667847,-9.79946739501953,2.1715409057617188,1.7429788085937499,45.81679389312977,17.328244274809162,-7.709923664122138,-6.296750366210937,1.3359645263671873,2.3151930053710936,14.076335877862595,11.465648854961833,-16.412213740458014,0.0
12.670000314712524,-8.267178332519531,1.4700398193359374,1.3551181396484375,42.25954198473283,13.786259541984732,-5.00763358778626,-8.353369592285155,0.17477672119140625,3.9815573608398434,13.297709923664122,17.404580152671755,-11.557251908396946,0.0
12.680000305175781,-8.896853369140624,2.195482922363281,1.618480322265625,42.091603053435115,12.82442748091603,-4.9465648854961835,-7.8170684204101555,0.13168109130859373,2.6623522460937497,13.221374045801527,13.618320610687023,-11.755725190839694,0.0
12.690000295639038,-9.809044201660155,3.517082238769531,2.43250888671875,33.31297709923664,10.702290076335878,-6.0,-7.357381701660156,0.8188169677734375,2.5905261962890624,8.351145038167939,18.27480916030534,-10.793893129770993,0.0
12.700000524520874,-10.599130749511717,4.254496350097656,3.801992236328125,31.00763358778626,13.557251908396946,-7.6183206106870225,-7.438784558105469,-0.28012159423828126,2.9975404785156248,1.099236641221374,23.87786259541985,-7.801526717557252,0.0
12.71000075340271,-9.588777648925781,2.568978381347656,3.4093431640625,22.793893129770993,5.282442748091603,-4.0458015267175576,-8.054094384765625,-1.2808978881835937,3.469198205566406,7.8320610687022905,23.328244274809162,-5.709923664122138,0.0
12.720000505447388,-11.494562170410155,4.57771357421875,4.841075756835937,19.87786259541985,3.5114503816793894,-6.305343511450381,-9.7683427734375,-2.5234885498046875,4.826710546875,19.389312977099237,23.00763358778626,-4.625954198473282,0.0
12.730000495910645,-9.782707983398437,1.9800047729492187,3.8474820678710935,13.083969465648854,-6.412213740458015,-4.061068702290076,-7.675810522460937,-1.66636435546875,3.1172505615234374,30.870229007633586,10.01526717557252,-9.007633587786259,0.0
12.740000486373901,-10.532093103027343,2.6479870361328124,4.173093493652344,17.709923664122137,-10.274809160305344,-3.7709923664122136,-7.299920861816406,0.0718260498046875,2.9975404785156248,28.213740458015266,11.358778625954198,-10.045801526717558,0.0
12.750000715255737,-9.871293444824218,1.9919757812499999,4.855440966796874,14.580152671755725,-13.083969465648854,-5.114503816793893,-7.352593298339843,0.63206923828125,2.8754361938476563,21.938931297709924,13.038167938931299,-9.49618320610687,0.0
12.760000705718994,-11.056423266601563,3.622427111816406,5.647921716308593,-0.9007633587786259,-23.603053435114504,-7.221374045801527,-7.400477331542969,2.176329309082031,2.925714428710937,12.778625954198473,12.916030534351146,-9.129770992366412,0.0
12.770000696182251,-10.747571252441405,3.536235852050781,6.349422802734375,-19.297709923664122,-39.770992366412216,-7.038167938931298,-6.64630380859375,4.012681982421875,2.683900061035156,-12.916030534351146,18.47328244274809,-7.6183206106870225,0.0
12.780000686645508,-12.246341491699217,3.5051112304687497,7.517793212890624,-26.931297709923665,-50.06106870229008,-4.580152671755725,-6.076483813476562,4.290409374999999,1.7980454467773437,-38.274809160305345,25.786259541984734,-5.541984732824427,0.0
12.790000677108765,-11.267113012695312,2.020706201171875,8.104372619628906,-36.85496183206107,-66.93129770992367,-4.641221374045801,-4.932055419921875,2.8036101440429686,-1.4221557861328125,-60.213740458015266,45.20610687022901,-2.931297709923664,0.0
12.800000667572021,-12.382810986328124,-0.12449848632812499,8.892064965820312,-30.916030534351144,-84.94656488549619,-4.198473282442748,-4.548983154296875,1.2689268798828124,-5.044582897949218,-53.725190839694655,59.83206106870229,-0.04580152671755725,0.0
12.810000658035278,-12.306196533203124,-2.6623522460937497,9.890447058105469,-12.320610687022901,-103.06870229007633,-6.0458015267175576,-8.358157995605469,0.7613561279296874,-4.177881896972656,-42.94656488549618,73.93893129770993,2.900763358778626,0.0
12.820000886917114,-14.815319873046874,-4.647145422363281,11.707646118164062,14.580152671755725,-118.68702290076335,-10.80916030534351,-10.656591589355468,1.350329736328125,-1.927332336425781,-32.06106870229008,75.41984732824427,3.480916030534351,0.0
12.830000638961792,-15.105018273925781,-6.045359191894531,12.109871997070313,43.70992366412214,-142.4885496183206,-18.03053435114504,-13.967772485351562,1.0295067138671874,2.379836450195312,-39.31297709923664,90.3206106870229,6.977099236641221,0.0
12.840000867843628,-17.247828759765625,-4.881777185058594,13.299790222167967,66.30534351145039,-166.85496183206106,-27.64885496183206,-12.437877624511717,0.4333505004882812,0.45010991210937495,-44.54961832061068,84.2442748091603,6.061068702290076,0.0
12.850000619888306,-17.520767749023438,-3.3207577026367185,12.488155859374999,92.16793893129771,-191.4351145038168,-30.15267175572519,-13.685256689453125,-1.5945383056640625,0.40462008056640625,-40.396946564885496,86.2442748091603,10.900763358778626,0.0
12.860000610351562,-18.351555725097654,-0.33039982910156246,9.588777648925781,117.74045801526718,-207.80152671755727,-18.15267175572519,-13.49611475830078,-3.4644098022460934,0.1867477294921875,-15.770992366412214,78.16793893129771,17.450381679389313,0.0
12.87000036239624,-16.04833372802734,-0.05746083984375,4.386177441406249,114.8854961832061,-222.8091603053435,-5.114503816793893,-13.335703247070311,-1.946485949707031,1.5179238525390624,7.083969465648855,75.49618320610686,20.65648854961832,0.0
12.880000591278076,-16.67561456298828,0.47884033203125,-0.10295067138671875,103.81679389312977,-230.0916030534351,2.50381679389313,-9.524134204101562,0.1388636962890625,0.7972691528320313,19.72519083969466,61.404580152671755,17.862595419847327,0.0
12.890000581741333,-16.13931339111328,2.4157494750976563,-4.903325,87.12977099236642,-231.48091603053436,7.0534351145038165,-10.709264025878905,-1.0630255371093749,1.1947066284179686,8.702290076335878,64.62595419847328,20.564885496183205,0.0
12.90000033378601,-14.865598107910156,2.147598889160156,-8.406042028808594,73.1145038167939,-225.0381679389313,13.725190839694656,-8.678981018066406,0.33518823242187495,-0.8762778076171874,0.10687022900763359,55.786259541984734,19.0381679389313,0.0
12.910000562667847,-12.89038173828125,1.946485949707031,-6.754042883300781,68.10687022900764,-208.65648854961833,18.12213740458015,-10.426748229980468,-1.0271125122070313,-0.22026655273437498,-25.267175572519083,68.59541984732824,25.282442748091604,0.0
12.920000553131104,-12.67250938720703,2.5426421630859375,-5.370194323730469,57.32824427480916,-191.6793893129771,16.65648854961832,-11.686098303222655,-4.5968671875,0.0143652099609375,-12.595419847328245,66.94656488549619,29.587786259541986,0.0
12.93000054359436,-12.861651318359375,0.9457096557617187,-0.8786720092773437,57.83206106870229,-167.08396946564886,18.47328244274809,-10.024522351074218,-4.800374328613281,-0.5315127685546874,-1.465648854961832,57.221374045801525,24.33587786259542,0.0
12.940000534057617,-11.992556115722655,0.8044517578125,1.4987702392578124,68.29007633587786,-143.45038167938932,22.9618320610687,-8.947131604003905,-3.852270471191406,-0.9552864624023437,2.50381679389313,58.50381679389313,19.328244274809162,0.0
12.950000524520874,-10.39322940673828,1.9225439331054686,1.8171990600585937,71.87786259541984,-128.59541984732823,27.84732824427481,-9.433154541015625,-3.912125512695312,-0.469263525390625,8.15267175572519,60.30534351145038,19.862595419847327,0.0
12.96000051498413,-8.82981572265625,2.27927998046875,1.0510545288085937,60.62595419847328,-115.20610687022901,33.02290076335878,-8.999804040527343,-1.8052280517578123,-0.6488286499023437,6.106870229007634,63.32824427480916,19.0381679389313,0.0
12.970000743865967,-8.214505895996094,3.2800562744140622,0.9193734375,38.35114503816794,-106.56488549618321,33.00763358778626,-8.973467822265624,-2.1739351074218747,0.011971008300781249,9.053435114503817,66.25954198473282,18.580152671755727,0.0
12.980000495910645,-7.094019519042968,3.23696064453125,0.5099649536132812,12.610687022900763,-103.37404580152672,31.954198473282442,-7.539341027832031,0.6823474731445313,-1.35990654296875,5.8320610687022905,62.50381679389313,14.80916030534351,0.0
12.99000072479248,-6.811503723144531,2.913743420410156,-0.023942016601562498,-7.236641221374046,-92.62595419847328,30.48854961832061,-9.181763366699219,0.033518823242187495,-0.6057330200195312,-5.190839694656488,67.3587786259542,17.34351145038168,0.0
13.000000476837158,-4.76924970703125,1.8507178833007811,-1.3431471313476562,-26.12213740458015,-86.70229007633588,32.3206106870229,-8.40125362548828,1.0271125122070313,-1.3215993164062498,-7.938931297709924,64.0,17.114503816793892,0.0
13.010000705718994,-4.3263223999023435,0.4955997436523437,-1.5322890624999999,-35.17557251908397,-73.92366412213741,31.72519083969466,-9.665392102050781,0.34715924072265625,0.0909796630859375,-20.763358778625953,69.16030534351145,19.893129770992367,0.0
13.020000696182251,-1.7932570434570312,-1.9488801513671874,-2.528276953125,-35.80152671755725,-61.89312977099237,31.755725190839694,-9.696516723632811,-0.11013327636718749,0.02154781494140625,-15.083969465648854,64.47328244274809,22.061068702290076,0.0
13.030000686645508,-1.0031704956054688,-1.1875240234375,-2.1595698974609374,-31.64885496183206,-41.465648854961835,27.00763358778626,-10.156203442382813,-1.5490484741210937,0.6416460449218749,-18.106870229007633,63.9236641221374,23.908396946564885,0.0
13.040000677108765,-2.9472622436523435,0.19871873779296872,-1.6903063720703124,-35.49618320610687,-26.625954198473284,21.14503816793893,-10.268730920410155,-2.3343466186523436,0.9457096557617187,-7.358778625954199,59.038167938931295,23.52671755725191,0.0
13.050000667572021,-1.419761584472656,0.00718260498046875,-3.009511486816406,-37.49618320610687,-15.954198473282442,20.68702290076336,-11.135431921386719,-2.2960393920898436,1.6543933471679686,3.7251908396946565,54.900763358778626,22.83969465648855,0.0
13.060000658035278,-1.3215993164062498,0.37828386230468747,-2.422932080078125,-34.091603053435115,6.213740458015267,19.068702290076335,-9.045293872070312,-1.7932570434570312,1.0414777221679687,5.816793893129771,49.587786259541986,19.862595419847327,0.0
13.070000648498535,-2.118868469238281,1.8914193115234375,-2.24097275390625,-50.99236641221374,15.572519083969466,13.633587786259541,-7.4028715332031245,-0.22744915771484372,-0.9265560424804687,-2.030534351145038,43.32824427480916,15.755725190839694,0.0
13.080000400543213,-0.7134720947265625,0.565031591796875,-2.3582886352539063,-59.48091603053435,29.14503816793893,15.312977099236642,-13.615824841308592,-4.584896179199219,4.091690637207031,8.946564885496183,59.41984732824427,23.84732824427481,0.0
13.090000629425049,-1.5705962890624998,-1.6927005737304686,-0.3447650390625,-58.717557251908396,48.87022900763359,12.870229007633588,-10.192116467285155,-1.7094599853515624,1.5059528442382812,16.549618320610687,41.12977099236641,16.9618320610687,0.0
13.100000858306885,-1.4915876342773438,-1.9129671264648436,0.6871358764648438,-56.29007633587786,60.01526717557252,5.022900763358779,-11.451466540527344,-1.3838485595703125,2.3056161987304686,16.442748091603054,41.404580152671755,15.358778625954198,0.0
13.110000610351562,-2.427720483398437,-1.675941162109375,3.5697546752929687,-50.595419847328245,69.25190839694656,-1.8625954198473282,-8.786720092773438,0.03591302490234375,0.8738836059570312,5.9541984732824424,37.81679389312977,13.969465648854962,0.0
13.120000839233398,-2.9281086303710935,-1.6807295654296874,5.7149593627929685,-39.52671755725191,76.79389312977099,-0.366412213740458,-9.8449572265625,-0.5386953735351562,1.2832920898437499,5.801526717557252,38.58015267175573,16.641221374045802,0.0
13.130000591278076,-4.110844250488281,-0.4213794921875,7.75721337890625,-19.786259541984734,88.36641221374046,3.8931297709923665,-9.81862100830078,-1.8938135131835936,2.3223756103515623,5.694656488549619,38.961832061068705,19.770992366412212,0.0
13.140000581741333,-4.905719201660156,0.9600748657226562,9.94072529296875,-1.8015267175572518,91.98473282442748,8.977099236641221,-11.700463513183593,-2.5450363647460934,4.070142822265625,14.412213740458014,40.62595419847328,21.61832061068702,0.0
13.15000057220459,-6.481103894042969,3.909731311035156,12.445060229492187,13.541984732824428,90.61068702290076,14.442748091603054,-9.976638317871092,-2.001552587890625,3.1507693847656246,12.610687022900763,34.80916030534351,18.85496183206107,0.0
13.160000562667847,-7.141903552246093,6.5960255737304685,11.975796704101562,9.48091603053435,80.65648854961832,17.31297709923664,-10.455478649902343,-1.8004396484374998,3.67749375,15.541984732824428,34.85496183206107,17.908396946564885,0.0
13.170000553131104,-7.4699091796875,6.572083557128906,11.915941662597655,-13.312977099236642,69.64885496183206,16.549618320610687,-9.557653027343749,-1.0127473022460938,3.327940307617187,8.992366412213741,31.87786259541985,15.633587786259541,0.0
13.18000078201294,-7.71890615234375,4.50109912109375,11.5304751953125,-42.656488549618324,50.80916030534351,11.297709923664122,-11.180921752929686,-0.7996633544921875,4.649539624023437,8.15267175572519,33.80152671755725,15.725190839694656,0.0
13.190000534057617,-5.5545478515625,1.5825672973632812,9.251195214843749,-47.465648854961835,39.74045801526717,9.725190839694656,-9.179369165039063,1.637633935546875,3.2154128295898436,-9.435114503816793,29.69465648854962,13.145038167938932,0.0
13.200000524520874,-7.232883215332031,-0.7613561279296874,9.811438403320311,-45.14503816793893,36.01526717557252,8.274809160305344,-9.02135185546875,3.9743747558593747,1.9919757812499999,-29.61832061068702,28.48854961832061,13.83206106870229,0.0
13.21000075340271,-9.34696328125,-2.27927998046875,9.516951599121093,-29.862595419847327,38.83969465648855,12.717557251908397,-11.717222924804688,1.5227122558593749,3.1842882080078123,-47.603053435114504,34.6412213740458,22.717557251908396,0.0
13.220000505447388,-13.352462658691405,-2.492363928222656,5.109226342773437,-42.10687022900763,35.587786259541986,17.740458015267176,-10.83376251220703,-0.5219359619140624,3.9456443359374997,-61.465648854961835,33.55725190839695,27.297709923664122,0.0
13.230000495910645,-17.829619763183594,-4.015076184082031,2.437297290039062,-9.938931297709924,30.259541984732824,25.389312977099237,-12.943054174804686,-2.212242333984375,3.2704794677734372,-50.3206106870229,19.46564885496183,28.0,0.0
13.240000486373901,-26.240450195312498,-5.142745166015625,8.611943371582031,20.137404580152673,34.30534351145038,21.740458015267176,-14.38436357421875,-2.0446482177734375,3.5122938354492184,-65.49618320610686,9.16030534351145,27.801526717557252,0.0
13.250000715255737,-29.85330050048828,-4.6830584472656245,10.644620581054687,35.05343511450382,40.3206106870229,12.549618320610687,-15.217545751953125,-3.8043864379882812,4.110844250488281,-78.0,4.198473282442748,28.763358778625953,0.0
13.260000944137573,-25.893290954589844,-5.710170959472656,6.0884548217773435,51.969465648854964,28.99236641221374,-1.9389312977099236,-15.981296081542968,-6.251260534667968,5.410895751953125,-79.7557251908397,-3.099236641221374,26.16793893129771,0.0
13.270000696182251,-17.132907080078123,-7.714117749023437,-1.93451494140625,93.98473282442748,38.51908396946565,-13.206106870229007,-17.635689428710936,-5.928043310546875,5.255272644042968,-61.725190839694655,-21.908396946564885,14.412213740458014,0.0
13.280000686645508,-8.693346228027343,1.2641384765625,-6.277596752929687,100.12213740458016,43.83206106870229,-24.076335877862597,-16.438588598632812,-5.255272644042968,3.727771984863281,-41.17557251908397,-52.61068702290076,0.7175572519083969,0.0
13.290000677108765,-3.0813375366210938,3.7110125732421873,-8.959102612304687,85.46564885496183,35.57251908396947,-24.580152671755727,-17.784129931640624,-3.1603461914062496,2.3487118286132813,-22.35114503816794,-74.70229007633588,-4.412213740458015,0.0
13.300000667572021,-0.23223756103515625,0.2920926025390625,-7.781155395507812,71.58778625954199,50.18320610687023,-20.870229007633586,-17.527950354003906,-0.6368576416015624,0.27293898925781246,0.030534351145038167,-94.04580152671755,-5.847328244274809,0.0
13.310000658035278,-2.7150246826171873,1.889025109863281,-6.287173559570312,60.3206106870229,73.29770992366412,-31.64885496183206,-16.780959436035154,1.216254443359375,-0.1388636962890625,19.709923664122137,-103.77099236641222,-4.183206106870229,0.0
13.320000410079956,-7.005434057617187,5.887341882324218,-5.6383449096679685,36.229007633587784,81.49618320610686,-37.74045801526717,-15.828067175292968,4.525041137695312,-0.9792284790039062,28.366412213740457,-113.29770992366412,-7.480916030534351,0.0
13.330000638961792,-6.007051965332031,2.825157958984375,-7.407659936523437,17.740458015267176,83.74045801526718,-28.717557251908396,-14.559140295410156,4.716577270507813,-1.369483349609375,8.65648854961832,-113.12977099236642,-4.106870229007634,0.0
13.340000629425049,-5.453991381835937,-3.8666356811523435,-7.060500695800781,31.541984732824428,109.89312977099236,-24.625954198473284,-9.95987890625,3.6727053466796873,-3.5194764404296874,9.206106870229007,-119.58778625954199,-10.870229007633588,0.0
13.350000381469727,-9.600748657226562,-0.4165910888671875,-3.6583401367187496,44.58015267175573,135.64885496183206,-38.534351145038165,-11.334150659179686,0.5434837768554687,-2.5330653564453125,-9.648854961832061,-120.87022900763358,-14.427480916030534,0.0
13.360000610351562,-13.642161059570311,4.295197778320312,0.11731588134765625,16.290076335877863,140.29007633587787,-48.10687022900763,-9.095572106933593,3.6391865234374996,-3.299209887695312,-24.870229007633586,-116.54961832061069,-23.022900763358777,0.0
13.37000036239624,-9.732429748535155,-0.37828386230468747,-1.1659762084960936,-0.48854961832061067,134.18320610687022,-39.70992366412214,-10.117896215820313,1.43652099609375,-1.1324573852539062,-29.87786259541985,-102.47328244274809,-19.435114503816795,0.0
13.380000352859497,-10.072406384277343,-3.7397429931640622,-1.120486376953125,22.38167938931298,147.0229007633588,-37.3587786259542,-10.632649572753905,0.38307226562499996,-0.6943184814453125,-16.80916030534351,-107.57251908396947,-19.96946564885496,0.0
13.390000581741333,-10.556035119628906,0.6703764648437499,1.6448165405273436,28.48854961832061,151.78625954198472,-48.82442748091603,-9.868899243164062,1.446097802734375,-0.6105214233398437,-12.625954198473282,-111.17557251908397,-22.076335877862597,0.0
13.40000057220459,-11.707646118164062,3.775656018066406,2.1787235107421874,2.2748091603053435,138.93129770992365,-52.045801526717554,-8.51617530517578,4.328716601562499,-2.437297290039062,-16.80916030534351,-111.74045801526718,-22.778625954198475,0.0
13.410000562667847,-9.744400756835937,2.5713725830078125,1.1444283935546875,-15.16030534351145,120.74809160305344,-43.43511450381679,-9.56962403564453,3.73495458984375,-1.7381904052734374,-23.954198473282442,-95.46564885496183,-12.106870229007633,0.0
13.420000553131104,-9.672574707031249,1.7166425903320313,0.8259995727539062,-10.870229007633588,115.38931297709924,-34.916030534351144,-9.878476049804688,3.5122938354492184,-2.77727392578125,-19.099236641221374,-97.08396946564885,-11.145038167938932,0.0
13.430000305175781,-9.955090502929687,2.8131869506835936,0.8954314208984374,-10.488549618320612,107.40458015267176,-31.358778625954198,-9.509768994140625,3.67749375,-2.3056161987304686,-24.564885496183205,-92.27480916030534,-11.19083969465649,0.0
13.440000534057617,-12.212822668457031,5.722141967773437,3.821145849609375,-31.083969465648856,94.7175572519084,-28.458015267175572,-9.0788126953125,3.0645781249999997,-3.1220389648437497,-26.625954198473284,-83.54198473282443,-11.969465648854962,0.0
13.450000524520874,-8.657433203124999,2.789244934082031,1.3431471313476562,-53.00763358778626,69.00763358778626,-21.81679389312977,-9.10993731689453,0.9911994873046874,-2.5665841796874997,-19.099236641221374,-77.7557251908397,-10.366412213740459,0.0
13.46000051498413,-12.617442749023438,4.074931225585937,3.1603461914062496,-57.57251908396947,61.282442748091604,-16.549618320610687,-8.164227661132813,0.679953271484375,-1.5538368774414062,-15.450381679389313,-73.34351145038168,-11.145038167938932,0.0
13.470000743865967,-8.525752111816406,-1.4053963745117186,1.0558429321289062,-35.37404580152672,61.465648854961835,-7.694656488549619,-7.809885815429687,0.8451531860351562,-1.62805712890625,-4.5038167938931295,-71.26717557251908,-14.50381679389313,0.0
13.480000495910645,-10.251971508789062,0.181959326171875,1.8100164550781248,-27.083969465648856,57.7557251908397,-7.068702290076335,-9.066841687011719,-0.9409212524414062,0.29448680419921874,0.5954198473282443,-65.78625954198473,-14.488549618320612,0.0
13.49000072479248,-9.952696301269532,-0.055066638183593745,1.0223241088867188,-21.374045801526716,54.79389312977099,-8.50381679389313,-7.3286512817382805,-0.44532150878906246,-0.5530605834960938,6.396946564885496,-71.06870229007633,-19.572519083969464,0.0
13.500000238418579,-9.758765966796874,1.2114660400390624,0.9265560424804687,-16.977099236641223,54.25954198473283,-8.13740458015267,-8.312668164062499,-0.7158662963867187,0.26815058593749996,7.419847328244275,-65.41984732824427,-21.770992366412212,0.0
13.510000705718994,-12.449848632812499,4.529829541015625,3.1962592163085937,-35.282442748091604,49.19083969465649,-10.15267175572519,-8.17859287109375,-0.9528922607421875,0.3112462158203125,5.587786259541985,-63.20610687022901,-23.96946564885496,0.0
13.520000457763672,-9.260772021484375,1.8626888916015625,0.6177040283203125,-31.893129770992367,49.41984732824427,-5.6183206106870225,-9.200916979980468,-1.8291700683593748,0.32561142578124996,10.366412213740459,-61.00763358778626,-24.900763358778626,0.0
13.530000686645508,-9.162609753417968,3.2225954345703123,0.51714755859375,-29.419847328244273,49.52671755725191,-2.8396946564885495,-9.215282189941405,-1.2761094848632812,0.277727392578125,9.465648854961833,-62.10687022900763,-27.984732824427482,0.0
13.540000677108765,-9.583989245605467,3.8953661010742184,1.0103531005859374,-41.25190839694657,46.83969465648855,-1.8778625954198473,-10.034099157714843,-1.4891934326171874,0.2705447875976562,16.229007633587788,-58.50381679389313,-30.870229007633586,0.0
13.550000429153442,-12.284648718261717,4.546588952636719,2.7437551025390623,-53.786259541984734,44.2442748091603,0.15267175572519084,-9.65342109375,-0.8499415893554687,0.7541735229492187,17.480916030534353,-56.916030534351144,-33.23664122137404,0.0
13.560000658035278,-11.133037719726563,2.5354595581054684,2.2936451904296873,-50.13740458015267,42.88549618320611,4.305343511450381,-10.266336718749999,-1.7812860351562498,1.1875240234375,23.282442748091604,-54.030534351145036,-35.61832061068702,0.0
13.570000410079956,-9.919177478027343,0.5363011718749999,1.2904746948242187,-47.587786259541986,41.87786259541985,5.908396946564886,-9.519345800781249,-0.9145850341796874,0.8188169677734375,31.64885496183206,-60.88549618320611,-40.091603053435115,0.0
13.58000111579895,-10.673351000976561,0.7254431030273437,0.9720458740234375,-45.66412213740458,40.58015267175573,3.3893129770992365,-10.046070166015625,-1.7238251953125,2.4516625,37.93893129770992,-56.396946564885496,-42.93129770992366,0.0
13.590000629425049,-12.667720983886719,1.70467158203125,1.4030021728515625,-57.87786259541985,34.961832061068705,1.8473282442748091,-8.992621435546875,-1.2210428466796874,1.707065783691406,42.458015267175576,-62.54961832061068,-45.083969465648856,0.0
13.600000858306885,-12.598289135742187,2.118868469238281,1.9656395629882812,-61.267175572519086,32.93129770992366,2.3206106870229006,-8.379705810546875,-0.011971008300781249,2.5450363647460934,35.3587786259542,-53.7557251908397,-46.16793893129771,0.0
13.610000610351562,-10.864887133789061,-0.8690952026367187,0.9313444458007812,-61.465648854961835,25.69465648854962,8.977099236641221,-9.258377819824219,-2.4157494750976563,3.1387983764648437,39.221374045801525,-50.961832061068705,-43.267175572519086,0.0
13.62000060081482,-11.786654772949218,-0.2920926025390625,2.583343591308594,-45.31297709923664,27.236641221374047,7.0534351145038165,-9.509768994140625,-1.9225439331054686,3.239354846191406,48.51908396946565,-55.06870229007634,-44.0,0.0
13.630000591278076,-13.038822241210937,1.5107412475585937,3.8570588745117185,-55.038167938931295,20.702290076335878,2.717557251908397,-8.20971749267578,0.4070142822265625,2.6503812377929687,48.18320610687023,-51.19083969465649,-48.83969465648855,0.0
13.640000581741333,-12.42351241455078,2.50912333984375,4.405331054687499,-54.19847328244275,14.045801526717558,2.183206106870229,-7.352593298339843,-0.20829554443359374,2.7054478759765623,45.11450381679389,-43.86259541984733,-48.06106870229008,0.0
13.65000033378601,-9.548076220703125,0.031124621582031248,2.987963671875,-42.778625954198475,5.8320610687022905,7.557251908396947,-9.014169250488282,-0.38307226562499996,3.9049429077148434,50.87022900763359,-40.01526717557252,-44.48854961832061,0.0
13.660000324249268,-9.004592443847656,-0.6296750366210937,1.39821376953125,-29.862595419847327,-1.1603053435114503,9.740458015267176,-8.257601525878906,0.6440402465820312,2.96881005859375,47.45038167938932,-36.732824427480914,-44.44274809160305,0.0
13.670000314712524,-10.077194787597655,0.4860229370117187,2.4588451049804685,-15.541984732824428,4.061068702290076,6.351145038167939,-6.864176159667968,2.1212626708984375,2.8754361938476563,37.221374045801525,-29.328244274809162,-42.67175572519084,0.0
13.68000054359436,-8.418013037109375,-0.8954314208984374,1.0390835205078124,-10.183206106870228,0.22900763358778625,7.847328244274809,-7.335833886718749,1.0941501586914062,3.749319799804687,22.82442748091603,-14.82442748091603,-35.25190839694657,0.0
13.690000534057617,-8.820238916015624,-0.8667010009765624,0.4955997436523437,9.83206106870229,4.259541984732825,8.091603053435115,-8.535328918457031,-0.15083470458984374,3.871424084472656,28.015267175572518,-15.404580152671755,-28.717557251908396,0.0
13.700000524520874,-9.469067565917967,0.488417138671875,0.4836287353515625,9.877862595419847,7.145038167938932,4.8396946564885495,-7.285555651855469,0.9313444458007812,3.4955344238281247,27.801526717557252,-15.923664122137405,-28.641221374045802,0.0
13.71000075340271,-9.41639512939453,-0.8259995727539062,-0.3495534423828125,13.114503816793894,8.50381679389313,5.358778625954199,-7.472303381347656,0.8068459594726562,3.7708676147460936,25.862595419847327,-9.17557251908397,-25.358778625954198,0.0
13.720000505447388,-9.983820922851562,0.36391865234375,0.5291185668945312,17.862595419847327,13.404580152671755,4.2748091603053435,-6.612784985351562,2.1547814941406247,3.0047230834960934,20.580152671755727,-9.435114503816793,-23.419847328244273,0.0
13.730000495910645,-10.266336718749999,1.197100830078125,0.5746083984375,11.908396946564885,12.534351145038167,2.2900763358778624,-7.3837179199218745,2.4349030883789062,3.5194764404296874,6.854961832061068,2.9160305343511452,-18.641221374045802,0.0
13.740000486373901,-9.777919580078125,1.158793603515625,0.9648632690429687,8.213740458015268,12.122137404580153,2.595419847328244,-6.619967590332031,1.5227122558593749,2.8275521606445313,-0.6564885496183206,2.8091603053435112,-14.335877862595419,0.0
13.750000715255737,-9.246406811523437,0.9121908325195311,0.8499415893554687,11.740458015267176,11.053435114503817,1.83206106870229,-7.283161450195312,0.7038952880859375,3.323151904296875,-0.5801526717557252,4.2748091603053435,-11.221374045801527,0.0
13.760000705718994,-9.349357482910156,0.8858546142578124,0.9959878906249999,16.50381679389313,12.320610687022901,0.9618320610687023,-7.5537062377929685,-0.1005564697265625,3.7804444213867185,0.6412213740458015,5.984732824427481,-9.34351145038168,0.0
13.770000457763672,-8.382100012207031,0.5506663818359374,0.9265560424804687,29.908396946564885,16.427480916030536,-0.33587786259541985,-6.775590698242187,0.3711012573242187,3.6727053466796873,-0.0916030534351145,6.015267175572519,-8.67175572519084,0.0
13.780000686645508,-7.9104422851562495,1.1875240234375,1.2737152832031249,33.69465648854962,18.610687022900763,-2.0,-6.291961962890625,0.8714894042968749,3.1747114013671873,-4.580152671755725,8.13740458015267,-7.893129770992366,0.0
13.790000438690186,-9.437942944335937,3.0071172851562498,2.3678654418945313,27.83206106870229,20.35114503816794,-4.778625954198473,-5.058948107910156,1.956062756347656,2.602497204589844,-17.419847328244273,12.65648854961832,-5.938931297709924,0.0
13.800000429153442,-10.287884533691406,3.7325603881835936,2.7341782958984373,19.69465648854962,19.282442748091604,-4.427480916030534,-6.4643444824218745,1.1516109985351561,3.3782185424804685,-25.69465648854962,21.267175572519083,-0.5954198473282443,0.0
13.810000658035278,-11.33175645751953,5.449202978515625,3.1172505615234374,3.6946564885496183,15.49618320610687,-4.564885496183206,-6.655880615234374,0.39983167724609375,2.971204260253906,-33.16030534351145,23.236641221374047,2.381679389312977,0.0
13.820000886917114,-10.213664282226562,4.235342736816406,2.9951462768554684,-13.129770992366412,7.00763358778626,-0.9923664122137404,-6.56968935546875,0.9217676391601562,2.39420166015625,-41.98473282442748,28.977099236641223,3.480916030534351,0.0
13.830000638961792,-9.701305126953125,2.578555187988281,2.588131994628906,-14.183206106870228,2.595419847328244,3.6793893129770994,-7.129932543945312,-0.19153613281249998,2.806004345703125,-50.25954198473283,36.88549618320611,7.114503816793893,0.0
13.840000867843628,-9.952696301269532,1.5059528442382812,3.383006945800781,-11.465648854961833,2.885496183206107,4.3816793893129775,-8.465897070312499,-1.7238251953125,3.5098996337890624,-43.81679389312977,39.51145038167939,9.34351145038168,0.0
13.850000619888306,-11.372457885742186,2.3056161987304686,4.2688615600585935,-15.801526717557252,-1.3435114503816794,0.42748091603053434,-8.221688500976562,-1.8938135131835936,3.5098996337890624,-32.68702290076336,35.6793893129771,7.32824427480916,0.0
13.860000848770142,-10.694898815917968,1.2401964599609374,4.821922143554687,-12.412213740458014,-8.50381679389313,-1.1145038167938932,-6.236895324707031,-0.36152445068359373,1.6998831787109374,-30.946564885496183,32.19847328244275,2.4885496183206106,0.0
13.87000060081482,-10.579977136230468,2.269703173828125,6.1650692749023435,-12.366412213740459,-14.931297709923664,-3.0839694656488548,-5.528211633300781,1.4628572143554686,0.9600748657226562,-40.595419847328245,40.51908396946565,2.030534351145038,0.0
13.880000352859497,-10.46984385986328,1.946485949707031,7.584830859375,-21.46564885496183,-26.30534351145038,-6.748091603053435,-6.438008264160156,0.7422025146484375,0.411802685546875,-47.282442748091604,53.587786259541986,5.633587786259542,0.0
13.890000343322754,-13.7906015625,2.961627453613281,9.674968908691406,-33.725190839694655,-40.56488549618321,-12.595419847328245,-8.257601525878906,-1.608903515625,0.5698199951171875,-45.038167938931295,57.57251908396947,6.717557251908397,0.0
13.90000057220459,-13.898340637207031,4.141968872070312,11.532869396972655,-60.961832061068705,-73.3587786259542,-17.908396946564885,-9.227253198242186,-2.8514941772460936,0.7541735229492187,-38.13740458015267,58.76335877862596,1.7251908396946565,0.0
13.910000324249268,-13.838485595703125,1.407790576171875,11.633425866699218,-56.30534351145038,-102.01526717557252,-14.305343511450381,-9.574412438964844,-3.227383837890625,1.5777788940429687,-39.587786259541986,63.63358778625954,-4.290076335877862,0.0
13.920000553131104,-13.050793249511718,-0.8475473876953125,11.710040319824218,-34.25954198473283,-123.38931297709924,-10.122137404580153,-10.955866796875,-4.833893151855468,3.785232824707031,-22.396946564885496,64.06106870229007,-6.2748091603053435,0.0
13.93000054359436,-13.618219042968748,-1.5011644409179687,12.284648718261717,-12.549618320610687,-143.09923664122138,-12.885496183206106,-12.203245861816406,-3.459621398925781,6.478709692382812,0.2900763358778626,53.587786259541986,-6.442748091603053,0.0
13.940000534057617,-14.41548819580078,-2.549824768066406,11.75313594970703,9.740458015267176,-168.90076335877862,-16.50381679389313,-12.715605017089842,-2.094926452636719,7.031770275878906,19.14503816793893,43.19083969465649,-4.122137404580153,0.0
13.950000524520874,-14.355633154296875,-4.2880151733398435,9.402029919433593,42.595419847328245,-194.0916030534351,-16.30534351145038,-12.598289135742187,-1.1037269653320312,4.2305543334960936,37.954198473282446,35.43511450381679,-0.8396946564885496,0.0
13.960000276565552,-16.500837841796873,-1.5131354492187499,6.488286499023437,72.33587786259542,-204.93129770992365,-17.358778625954198,-10.199299072265624,-0.411802685546875,1.9536685546875,52.48854961832061,23.52671755725191,0.3053435114503817,0.0
13.970000743865967,-16.84799708251953,-2.3630770385742186,4.819527941894531,68.73282442748092,-224.27480916030535,-19.282442748091604,-9.93354268798828,3.718195178222656,0.6488286499023437,41.12977099236641,28.229007633587788,1.0229007633587786,0.0
13.980000495910645,-19.83117235107422,-2.925714428710937,4.8506525634765625,78.77862595419847,-234.10687022900763,-11.236641221374045,-7.996633544921875,5.293579870605469,0.33518823242187495,11.709923664122137,43.02290076335878,8.396946564885496,0.0
13.99000072479248,-19.330784204101562,-2.123656872558594,0.15562310791015624,77.17557251908397,-234.74809160305344,6.015267175572519,-8.734047656249999,2.592920397949219,0.32561142578124996,-7.770992366412214,53.61832061068702,19.923664122137403,0.0
14.000000476837158,-18.997990173339844,0.4525041137695312,-3.612850305175781,57.847328244274806,-236.0916030534351,17.435114503816795,-8.13310303955078,1.707065783691406,-0.6703764648437499,-28.30534351145038,56.68702290076336,23.068702290076335,0.0
14.010000467300415,-17.082628845214842,1.4820108276367188,-6.1459156616210935,39.57251908396947,-239.93893129770993,17.358778625954198,-9.349357482910156,-1.2641384765625,0.14604630126953125,-40.51908396946565,64.87022900763358,26.885496183206108,0.0
14.02000093460083,-14.822502478027342,1.8531120849609375,-5.214571215820312,31.755725190839694,-232.77862595419847,18.625954198473284,-9.435548742675781,-3.7158009765625,0.2154781494140625,-40.93129770992366,62.70229007633588,28.106870229007633,0.0
14.030000686645508,-12.310984936523436,1.5777788940429687,-2.3367408203125,43.86259541984733,-211.16030534351145,26.0,-11.441889733886718,-4.733336682128906,0.8068459594726562,-28.977099236641223,63.083969465648856,27.84732824427481,0.0
14.040000677108765,-10.656591589355468,1.1180921752929687,-3.2058360229492187,42.88549618320611,-194.0916030534351,26.18320610687023,-13.136984509277344,-7.218518005371093,1.917755529785156,-11.801526717557252,62.274809160305345,30.076335877862597,0.0
14.050000667572021,-11.219228979492186,0.143652099609375,-1.0893617553710937,33.45038167938932,-183.0229007633588,16.641221374045802,-10.40041201171875,-6.270414147949219,-0.181959326171875,11.511450381679388,45.770992366412216,22.412213740458014,0.0
14.060000658035278,-10.690110412597656,-1.3455413330078123,0.6919242797851562,39.61832061068702,-158.83969465648855,14.076335877862595,-9.361328491210937,-1.6160861206054686,-0.9648632690429687,10.198473282442748,49.49618320610687,19.00763358778626,0.0
14.070000648498535,-10.256759912109374,-0.488417138671875,0.35194764404296874,42.61068702290076,-144.4885496183206,13.435114503816793,-10.0748005859375,-2.559401574707031,-0.3016694091796875,4.458015267175573,59.099236641221374,23.786259541984734,0.0
14.080000877380371,-8.350975390624999,-1.5370774658203123,0.00718260498046875,43.221374045801525,-132.29007633587787,15.389312977099237,-5.887341882324218,-0.2920926025390625,-2.2864625854492187,3.8931297709923665,50.38167938931298,19.236641221374047,0.0
14.090000867843628,-6.629544396972656,-0.23702596435546874,0.5147533569335937,40.88549618320611,-114.18320610687023,9.450381679389313,-6.337451794433593,2.540247961425781,-3.0645781249999997,-27.206106870229007,69.87786259541984,18.15267175572519,0.0
14.100000619888306,-5.832275244140624,1.4030021728515625,0.7445967163085937,25.358778625954198,-106.6412213740458,5.709923664122138,-7.589619262695312,0.09816226806640624,-2.6671406494140624,-27.740458015267176,79.72519083969466,22.977099236641223,0.0
14.110000610351562,-5.6383449096679685,1.9991583862304687,0.8259995727539062,11.129770992366412,-91.55725190839695,5.297709923664122,-10.766724865722656,-3.411737365722656,-0.41419688720703124,-24.732824427480917,88.54961832061069,28.732824427480917,0.0
14.120000839233398,-4.8889597900390624,0.4955997436523437,-0.39743747558593745,4.366412213740458,-82.18320610687023,6.961832061068702,-7.388506323242187,-0.16280571289062498,-2.990357873535156,-16.641221374045802,80.3206106870229,19.52671755725191,0.0
14.130000352859497,-4.503493322753906,0.4381389038085937,-0.6871358764648438,2.2900763358778624,-65.93893129770993,7.099236641221374,-9.595960253906249,-1.7669208251953124,-0.6392518432617187,-22.48854961832061,92.3206106870229,21.068702290076335,0.0
14.140000581741333,-3.469198205566406,-1.0510545288085937,-1.4173673828125,0.22900763358778625,-56.412213740458014,7.297709923664122,-9.947907897949218,-0.0430956298828125,0.04548983154296875,-21.236641221374047,95.3587786259542,25.053435114503817,0.0
14.15000033378601,-3.488351818847656,0.17477672119140625,-0.9050082275390624,2.2442748091603053,-37.038167938931295,4.702290076335878,-9.34696328125,0.0047884033203125,-0.105344873046875,-19.66412213740458,94.18320610687023,27.572519083969464,0.0
14.160000562667847,-2.473210314941406,-0.16998831787109375,-1.8195932617187498,5.404580152671755,-27.435114503816795,1.984732824427481,-10.287884533691406,-0.9433154541015625,0.7398083129882812,-9.068702290076336,91.23664122137404,31.450381679389313,0.0
14.170000553131104,-2.6240450195312497,0.7805097412109374,-1.889025109863281,-1.7404580152671756,-16.83969465648855,1.2213740458015268,-10.838550915527343,-0.7206546997070312,1.177947216796875,-12.320610687022901,94.45801526717557,35.51145038167939,0.0
14.180000305175781,-1.898601916503906,0.852335791015625,-2.779668127441406,-2.0610687022900764,-6.748091603053435,3.0229007633587788,-11.322179650878905,-1.350329736328125,1.5562310791015623,2.351145038167939,89.20610687022901,35.343511450381676,0.0
14.190000534057617,-2.868253588867187,1.599326708984375,-2.3367408203125,-14.351145038167939,7.236641221374046,1.9389312977099236,-11.473014355468749,-1.7621324218749999,1.936909143066406,7.022900763358779,84.10687022900764,33.969465648854964,0.0
14.200000524520874,-1.455674609375,0.41898529052734373,-3.246537451171875,-14.854961832061068,18.061068702290076,4.351145038167939,-10.836156713867187,-3.038241906738281,3.303998291015625,19.450381679389313,80.07633587786259,33.32824427480916,0.0
14.210000276565552,-2.1787235107421874,-0.5770026000976562,-2.243366955566406,-10.854961832061068,42.412213740458014,3.6030534351145036,-10.793061083984375,-1.2114660400390624,1.599326708984375,34.10687022900763,65.98473282442748,29.51145038167939,0.0
14.220000267028809,-2.932897033691406,0.9696516723632812,-1.1468225952148436,-17.297709923664122,58.717557251908396,-3.816793893129771,-6.6893994384765625,1.9704279663085937,-0.3399766357421875,18.9618320610687,57.02290076335878,23.267175572519083,0.0
14.230000734329224,-2.817975354003906,1.5059528442382812,-0.5410895751953124,-27.83206106870229,68.68702290076335,-4.99236641221374,-10.225635290527343,0.0143652099609375,2.6791116577148437,1.7709923664122138,68.38167938931298,27.572519083969464,0.0
14.240000486373901,-3.1483751831054687,-0.14604630126953125,2.0350714111328125,-36.67175572519084,75.74045801526718,-4.870229007633588,-10.848127722167968,-2.300827795410156,5.097255334472656,13.16030534351145,63.282442748091604,31.84732824427481,0.0
14.250000715255737,-4.094084838867187,0.21787235107421873,5.125985754394531,-30.198473282442748,85.8473282442748,-4.702290076335878,-9.567229833984374,-0.5291185668945312,4.242525341796875,5.8320610687022905,49.17557251908397,27.267175572519083,0.0
14.260000705718994,-3.641580725097656,-0.0143652099609375,6.344634399414062,-12.13740458015267,91.06870229007633,2.900763358778626,-11.394005700683593,-0.7493851196289062,4.75009609375,-0.6259541984732825,44.0,27.984732824427482,0.0
14.270000696182251,-5.219359619140625,2.0781670410156248,8.932766394042968,6.3816793893129775,102.19847328244275,10.427480916030534,-9.567229833984374,-1.9129671264648436,4.2880151733398435,-16.259541984732824,34.13740458015267,29.709923664122137,0.0
14.280000686645508,-7.240065820312499,5.236119030761718,12.076353173828124,12.213740458015268,100.04580152671755,16.427480916030536,-10.996568225097656,-3.919308117675781,4.972756848144531,-13.114503816793894,28.213740458015266,31.64885496183206,0.0
14.290000677108765,-7.924807495117187,7.182604980468749,12.318167541503906,8.01526717557252,90.77862595419847,22.12213740458015,-10.577582934570312,-3.785232824707031,4.027047192382812,-4.67175572519084,13.664122137404581,30.18320610687023,0.0
14.300000667572021,-7.721300354003906,6.912060192871094,11.585541833496093,-11.068702290076336,78.82442748091603,23.404580152671755,-10.182539660644531,-1.8076222534179687,2.990357873535156,-13.32824427480916,9.312977099236642,25.450381679389313,0.0
14.3100004196167,-7.4411787597656245,4.53940634765625,11.401188305664062,-42.97709923664122,59.83206106870229,20.458015267175572,-10.522516296386717,-1.7956512451171873,4.508281726074219,-20.16793893129771,15.740458015267176,25.419847328244273,0.0
14.320000886917114,-7.996633544921875,0.43574470214843747,11.719617126464843,-57.954198473282446,47.63358778625954,17.6793893129771,-11.463437548828125,-3.4572271972656248,4.912901806640625,-1.7557251908396947,8.870229007633588,26.198473282442748,0.0
14.330000638961792,-10.0748005859375,-2.750937707519531,13.560758203125,-54.16793893129771,35.89312977099237,14.717557251908397,-11.106701501464842,-2.2960393920898436,3.3590649291992185,6.656488549618321,-1.4809160305343512,22.99236641221374,0.0
14.340000867843628,-11.666944689941406,-4.546588952636719,9.081206896972656,-33.908396946564885,30.091603053435115,20.03053435114504,-12.658144177246093,-2.5570073730468748,4.256890551757812,2.6106870229007635,-1.099236641221374,23.282442748091604,0.0
14.350000619888306,-16.469713220214842,-2.9568390502929685,3.2345664428710936,-16.458015267175572,36.87022900763359,19.0381679389313,-12.617442749023438,0.6727706665039062,1.2282254516601563,-1.6641221374045803,-15.603053435114504,19.64885496183206,0.0
14.360000848770142,-21.102493432617187,-3.7612908081054686,3.797203833007812,3.7099236641221376,33.45038167938932,16.12213740458015,-14.056357946777343,0.5530605834960938,1.2114660400390624,-32.74809160305343,-17.221374045801525,24.83969465648855,0.0
14.37000036239624,-22.83110703125,-7.639897497558593,7.517793212890624,17.541984732824428,40.36641221374046,8.977099236641221,-15.586252807617187,-1.350329736328125,3.6822821533203123,-47.7557251908397,-8.900763358778626,32.87022900763359,0.0
14.380000591278076,-26.592397839355467,-9.639055883789062,9.229647399902344,41.37404580152672,38.12213740458015,-5.923664122137405,-17.72427489013672,-3.8187516479492185,5.523423229980469,-47.725190839694655,-18.33587786259542,32.94656488549618,0.0
14.390000820159912,-17.049110021972655,-6.49307490234375,1.7980454467773437,134.77862595419847,53.19083969465649,-5.9541984732824424,-15.600618017578125,-5.341463903808593,5.267243652343749,-43.41984732824427,-35.908396946564885,24.68702290076336,0.0
14.40000057220459,-14.46097802734375,5.614402893066406,-3.047818713378906,135.64885496183206,69.48091603053435,-11.297709923664122,-15.31570802001953,-4.881777185058594,4.405331054687499,-27.572519083969464,-56.656488549618324,10.625954198473282,0.0
14.410000562667847,-7.558494641113281,6.698976245117187,-7.79552060546875,104.90076335877863,50.44274809160305,-4.6106870229007635,-17.650054638671875,-2.825157958984375,2.961627453613281,-25.419847328244273,-71.08396946564885,3.5267175572519083,0.0
14.420000553131104,-0.9313444458007812,-0.4261678955078125,-6.974309436035155,82.90076335877863,52.274809160305345,-1.4809160305343512,-18.794483032226562,-2.1883003173828124,1.936909143066406,-11.206106870229007,-80.58015267175573,-0.8091603053435115,0.0
14.430000305175781,-1.8770541015625,-0.28969840087890625,-5.487510205078125,75.19083969465649,76.03053435114504,-17.17557251908397,-17.7362458984375,-2.8706477905273435,1.7812860351562498,14.992366412213741,-94.04580152671755,-5.7251908396946565,0.0
14.440000534057617,-5.590460876464843,6.323086584472656,-5.999869360351562,41.908396946564885,82.74809160305344,-35.98473282442748,-17.228675146484374,0.9576806640625,-0.21068974609375,33.847328244274806,-113.5114503816794,-16.564885496183205,0.0
14.450000524520874,-5.035006091308594,5.102043737792968,-7.44357296142578,14.625954198473282,85.25190839694656,-31.129770992366414,-15.600618017578125,3.2417490478515623,-1.1659762084960936,20.12213740458015,-118.47328244274809,-21.984732824427482,0.0
14.46000051498413,-5.664681127929687,2.291250988769531,-5.585672473144531,5.267175572519084,103.81679389312977,-25.96946564885496,-11.623849060058593,4.582501977539062,-3.873818286132812,5.00763358778626,-119.57251908396947,-29.19083969465649,0.0
14.470000743865967,-10.369287390136718,4.077325427246094,-2.0661960327148434,-7.66412213740458,121.96946564885496,-32.56488549618321,-16.72589279785156,2.674323254394531,-2.375048046875,6.732824427480916,-105.16030534351145,-28.458015267175572,0.0
14.480000495910645,-12.641384765624998,4.086902233886718,0.1484405029296875,-29.00763358778626,123.43511450381679,-31.84732824427481,-11.219228979492186,2.9855694702148434,-2.767697119140625,-8.595419847328245,-109.63358778625954,-32.458015267175576,0.0
14.49000072479248,-9.119514123535156,-0.928950244140625,0.08858546142578125,-36.152671755725194,117.57251908396947,-23.297709923664122,-9.332598071289063,3.612850305175781,-1.8459294799804686,-15.419847328244275,-103.70992366412214,-35.038167938931295,0.0
14.500000476837158,-9.423577734375,-1.6711527587890624,2.233790148925781,-13.679389312977099,130.70229007633588,-23.34351145038168,-8.365340600585936,2.767697119140625,-1.13006318359375,-19.00763358778626,-99.32824427480917,-30.458015267175572,0.0
14.510000705718994,-9.938331091308592,-1.4604630126953124,4.465186096191406,-10.717557251908397,130.18320610687022,-31.480916030534353,-7.613561279296874,2.2936451904296873,-1.7525556152343749,-11.19083969465649,-97.48091603053435,-32.38167938931298,0.0
14.520000696182251,-10.577582934570312,3.5577836669921874,3.3255461059570313,-11.923664122137405,117.09923664122137,-33.282442748091604,-7.082048510742187,3.342305517578125,-2.0757728393554684,-18.82442748091603,-93.19083969465649,-29.358778625954198,0.0
14.530000686645508,-10.773907470703124,2.3678654418945313,2.6192566162109374,-20.458015267175572,106.29007633587786,-28.519083969465647,-7.864952453613281,2.5258827514648434,-1.4820108276367188,-18.717557251908396,-77.16030534351145,-25.61832061068702,0.0
14.540000677108765,-10.51533369140625,2.463633508300781,2.2960393920898436,-19.00763358778626,98.97709923664122,-22.259541984732824,-7.606378674316406,2.080561242675781,-2.133233679199219,-14.305343511450381,-77.81679389312977,-25.87786259541985,0.0
14.550000667572021,-10.115502014160155,2.1308394775390624,2.549824768066406,-21.572519083969464,89.31297709923665,-18.27480916030534,-8.226476904296874,2.6575638427734374,-1.9129671264648436,-14.687022900763358,-70.41221374045801,-26.427480916030536,0.0
14.560000658035278,-9.665392102050781,1.216254443359375,2.1691467041015624,-18.99236641221374,78.29007633587786,-12.595419847328245,-8.355763793945313,2.4109610717773435,-2.288856787109375,-11.709923664122137,-65.69465648854961,-24.610687022900763,0.0
14.570000648498535,-12.363657373046875,5.269637854003906,5.209782812499999,-30.18320610687023,69.40458015267176,-12.961832061068701,-8.738836059570312,1.1348515869140625,-0.4477157104492187,-16.015267175572518,-55.11450381679389,-20.885496183206108,0.0
14.580000877380371,-12.952630981445312,4.599261389160156,6.517016918945312,-61.66412213740458,50.93129770992366,-10.580152671755725,-9.809044201660155,-0.28012159423828126,0.03591302490234375,-3.2213740458015265,-53.083969465648856,-21.267175572519083,0.0
14.59000039100647,-8.106766821289062,-1.6208745239257811,2.712630480957031,-44.06106870229008,38.85496183206107,-2.6259541984732824,-8.305485559082031,1.4317325927734375,-0.7398083129882812,2.6717557251908395,-62.0,-25.129770992366414,0.0
14.600000858306885,-9.81862100830078,-0.5291185668945312,2.2673089721679687,-23.587786259541986,35.725190839694655,-2.7786259541984735,-9.897629663085937,-0.6703764648437499,1.5298948608398437,9.022900763358779,-48.61068702290076,-23.64885496183206,0.0
14.610000610351562,-10.01015714111328,-1.2808978881835937,2.4588451049804685,-10.396946564885496,40.61068702290076,-7.297709923664122,-8.518569506835936,-0.5602431884765625,0.2825157958984375,23.19083969465649,-62.35114503816794,-27.435114503816795,0.0
14.620000839233398,-12.267889306640624,2.1643583007812497,2.9927520751953125,-10.473282442748092,37.43511450381679,-12.992366412213741,-10.096348400878906,-0.689530078125,1.3000515014648437,29.557251908396946,-60.045801526717554,-28.900763358778626,0.0
14.630000591278076,-11.568782421875,2.868253588867187,1.6232687255859375,-26.27480916030534,24.748091603053435,-11.389312977099237,-8.616731774902343,0.8547299926757812,0.296881005859375,26.015267175572518,-65.86259541984732,-31.984732824427482,0.0
14.640000581741333,-11.923124267578125,4.666299035644531,2.4971523315429685,-33.06870229007634,27.16030534351145,-9.587786259541986,-9.677363110351562,0.9648632690429687,0.3711012573242187,22.900763358778626,-61.05343511450382,-30.53435114503817,0.0
14.65000057220459,-8.537723120117187,2.779668127441406,-0.4860229370117187,-39.64885496183206,20.27480916030534,-5.0534351145038165,-9.662997900390625,0.5674257934570313,0.4333505004882812,13.938931297709924,-57.6793893129771,-29.022900763358777,0.0
14.660000562667847,-12.081141577148436,3.878606689453125,1.0678139404296874,-46.38167938931298,26.35114503816794,-5.66412213740458,-9.842563024902343,0.82360537109375,0.4908113403320312,14.045801526717558,-54.35114503816794,-28.03053435114504,0.0
14.670000314712524,-12.43069501953125,5.439626171875,1.4437036010742186,-61.725190839694655,25.893129770992367,-6.748091603053435,-9.6151138671875,0.43574470214843747,1.2880804931640624,6.183206106870229,-49.404580152671755,-28.549618320610687,0.0
14.68000054359436,-8.578424548339843,3.593696691894531,-0.9265560424804687,-72.12213740458016,21.801526717557252,-0.6717557251908397,-9.710881933593749,-0.2920926025390625,1.5227122558593749,7.587786259541985,-45.66412213740458,-28.061068702290076,0.0
14.690000534057617,-9.598354455566406,2.5665841796874997,-0.4070142822265625,-70.04580152671755,28.870229007633586,3.801526717557252,-9.629479077148437,0.6344634399414062,0.8667010009765624,4.290076335877862,-47.37404580152672,-30.213740458015266,0.0
14.700000524520874,-7.692569934082031,0.07422025146484375,-1.484405029296875,-68.3969465648855,28.412213740458014,6.137404580152672,-10.122684619140625,0.03591302490234375,2.013523596191406,1.7709923664122138,-38.87022900763359,-31.129770992366414,0.0
14.71000075340271,-10.500968481445312,1.6352397338867186,0.7038952880859375,-68.3969465648855,34.732824427480914,3.099236641221374,-10.302249743652343,-1.419761584472656,2.5330653564453125,8.427480916030534,-40.97709923664122,-30.625954198473284,0.0
14.720000267028809,-10.103531005859374,0.7110778930664062,0.9097966308593749,-69.1145038167939,34.091603053435115,1.6488549618320612,-9.354145886230468,-0.03591302490234375,2.0638018310546875,13.374045801526718,-46.152671755725194,-34.99236641221374,0.0
14.730000734329224,-9.7683427734375,0.4285620971679687,0.6847416748046875,-63.603053435114504,33.725190839694655,3.7099236641221376,-9.062053283691405,0.040701428222656245,3.308786694335937,9.251908396946565,-37.32824427480916,-34.412213740458014,0.0
14.740000486373901,-10.579977136230468,0.36631285400390623,1.0678139404296874,-64.61068702290076,31.480916030534353,4.091603053435114,-9.854534033203125,-1.9321207397460936,3.220201232910156,15.022900763358779,-40.80916030534351,-32.045801526717554,0.0
14.750000715255737,-10.570400329589843,0.00239420166015625,1.3024457031249999,-56.13740458015267,32.67175572519084,2.9770992366412212,-8.267178332519531,0.316034619140625,2.9759926635742184,19.709923664122137,-46.68702290076336,-34.274809160305345,0.0
14.760000705718994,-9.380482104492186,-0.24181436767578124,0.5003881469726562,-44.97709923664122,32.51908396946565,4.030534351145038,-6.9910688476562495,1.2593500732421874,2.940079638671875,9.541984732824428,-38.412213740458014,-34.54961832061068,0.0
14.770000457763672,-9.212887988281249,-0.38786066894531246,0.4333505004882812,-41.6793893129771,31.908396946564885,3.6946564885496183,-7.417236743164062,-0.4285620971679687,3.421314172363281,7.267175572519084,-31.129770992366414,-28.366412213740457,0.0
14.780000448226929,-10.374075793457031,0.46208092041015625,1.2785036865234374,-38.99236641221374,30.702290076335878,1.1755725190839694,-8.508992700195313,-1.0031704956054688,4.163516687011718,18.946564885496183,-34.47328244274809,-27.251908396946565,0.0
