timestamp,Thigh_L_Acc_X,Thigh_L_Acc_Y,Thigh_L_Acc_Z,Thigh_L_Gyr_X,Thigh_L_Gyr_Y,Thigh_L_Gyr_Z,Thigh_R_Acc_X,Thigh_R_Acc_Y,Thigh_R_Acc_Z,Thigh_R_Gyr_X,Thigh_R_Gyr_Y,Thigh_R_Gyr_Z,gpio_output
10.000000476837158,-23.22615030517578,1.1851298217773436,19.49598411865234,-19.633587786259543,26.38167938931298,27.068702290076335,-13.13219610595703,-1.5490484741210937,3.909731311035156,-63.603053435114504,54.2442748091603,28.778625954198475,0.0
10.010000705718994,-31.847670483398435,-3.5817256835937497,17.31247220458984,10.351145038167939,4.732824427480916,31.862595419847327,-13.895946435546874,-3.375824340820312,4.125209460449218,-65.63358778625954,44.091603053435115,32.38167938931298,1.0
10.020000696182251,-32.970551062011715,-1.8435352783203125,9.813832604980469,24.35114503816794,-8.778625954198473,27.17557251908397,-15.931017846679687,-6.37815322265625,4.637568615722656,-57.89312977099237,33.083969465648856,31.328244274809162,1.0
10.0300772190094,-20.875044274902343,-8.310273962402343,-0.5386953735351562,34.61068702290076,-26.916030534351144,20.549618320610687,-18.330007910156247,-8.79150849609375,5.930437512207031,-52.87022900763359,14.977099236641221,25.14503816793893,1.0
10.040000915527344,-2.31758720703125,-14.654908361816405,-8.214505895996094,68.44274809160305,-43.00763358778626,20.12213740458015,-15.444994909667967,-6.167463476562499,5.216965417480468,-36.16793893129771,-20.38167938931298,9.068702290076336,1.0
10.050000667572021,0.7493851196289062,-8.664615808105468,-5.604826086425781,104.67175572519083,-3.404580152671756,1.450381679389313,-18.282123876953126,-3.6296097167968746,3.6583401367187496,-7.908396946564886,-45.52671755725191,2.6412213740458017,1.0
10.060000896453857,4.872200378417968,-4.970362646484375,-8.772354882812499,125.34351145038168,13.969465648854962,-18.99236641221374,-18.94052933349609,-1.0941501586914062,3.0238766967773434,11.725190839694656,-70.42748091603053,4.5038167938931295,1.0
10.070000886917114,1.24498486328125,2.839523168945312,-7.738059765625,112.42748091603053,32.045801526717554,-40.99236641221374,-17.190367919921876,1.01514150390625,1.0869675537109373,25.541984732824428,-93.63358778625954,6.809160305343512,1.0
10.080000400543213,-0.7015010864257812,3.5889082885742187,-6.912060192871094,94.33587786259542,41.16030534351145,-42.83969465648855,-14.051569543457031,4.620809204101562,-0.4333505004882812,34.76335877862596,-109.17557251908397,5.847328244274809,1.0
10.09000039100647,-5.0014872680664055,5.1690813842773435,-5.91846650390625,83.74045801526718,68.83969465648855,-43.64885496183206,-12.069170568847655,5.729324572753906,-0.22505495605468748,50.900763358778626,-113.57251908396947,10.580152671755725,1.0
10.100033283233643,-6.950367419433594,7.455543969726562,-6.744466076660156,61.3587786259542,88.94656488549619,-44.87022900763359,-9.562441430664062,6.756437084960937,-1.7405846069335937,23.61832061068702,-123.45038167938931,9.969465648854962,1.0
10.110000610351562,-11.410765112304686,10.09395419921875,-3.9432501342773434,30.977099236641223,109.31297709923665,-40.70229007633588,-9.466673364257812,4.247313745117188,-3.0597897216796874,-0.10687022900763359,-120.3206106870229,6.641221374045801,1.0
10.12000036239624,-14.674061975097656,11.609483850097655,-0.32561142578124996,-14.106870229007633,118.13740458015268,-32.916030534351144,-8.738836059570312,2.913743420410156,-2.9281086303710935,-32.82442748091603,-113.08396946564885,7.541984732824427,1.0
10.130000591278076,-11.188104357910156,3.1004911499023438,-2.1883003173828124,-44.045801526717554,108.29007633587786,-14.183206106870228,-8.935160595703124,1.70467158203125,-2.2864625854492187,-40.3206106870229,-105.12977099236642,7.694656488549619,1.0
10.140000581741333,-7.587225061035156,-5.260061047363281,-1.3958195678710936,-18.793893129770993,130.61068702290078,-9.068702290076336,-8.535328918457031,0.45968671875,-1.407790576171875,-46.030534351145036,-101.93893129770993,12.65648854961832,1.0
10.150000810623169,-10.560823522949217,-3.0550013183593747,1.1276689819335937,1.3740458015267176,147.49618320610688,-24.732824427480917,-9.813832604980469,-0.21308394775390624,-0.6679822631835937,-32.3206106870229,-103.14503816793894,11.206106870229007,1.0
10.160000324249268,-7.594407666015624,-2.094926452636719,0.6464344482421874,6.305343511450381,141.61832061068702,-32.74809160305343,-9.907206469726562,1.1228805786132812,-0.4333505004882812,-32.93129770992366,-108.83969465648855,10.16793893129771,1.0
10.170000791549683,-10.371681591796875,0.6296750366210937,1.4053963745117186,11.603053435114504,143.0381679389313,-35.43511450381679,-10.134655627441406,1.1348515869140625,-1.0654197387695312,-40.045801526717554,-108.36641221374046,6.5038167938931295,1.0
10.18000054359436,-11.312602844238281,2.839523168945312,3.0071172851562498,-13.526717557251908,131.6946564885496,-36.16793893129771,-9.7683427734375,3.2441432495117186,-2.729389892578125,-50.2442748091603,-107.38931297709924,4.67175572519084,1.0
10.190000295639038,-11.968614099121092,3.84987626953125,3.4524387939453125,-43.86259541984733,117.86259541984732,-36.06106870229008,-10.421959826660157,2.473210314941406,-2.920926025390625,-54.732824427480914,-98.80916030534351,5.450381679389313,1.0
10.200000524520874,-11.386823095703125,4.053383410644531,3.114856359863281,-69.70992366412214,99.02290076335878,-33.14503816793893,-9.639055883789062,4.398148449707031,-3.9049429077148434,-63.63358778625954,-95.23664122137404,5.129770992366412,1.0
10.210000276565552,-10.369287390136718,1.4532804077148436,1.4101847778320311,-80.93129770992367,84.10687022900764,-28.671755725190838,-10.35492218017578,3.0526071166992184,-2.8850130004882812,-69.72519083969466,-82.06106870229007,5.374045801526718,0.0
10.220000505447388,-10.754753857421875,2.1164742675781247,2.2074539306640624,-75.06870229007633,78.77862595419847,-25.770992366412212,-10.488997473144531,0.5530605834960938,-2.4301146850585935,-64.9618320610687,-75.41984732824427,2.732824427480916,0.0
10.230000495910645,-9.191340173339842,0.04548983154296875,1.7166425903320313,-69.16030534351145,66.53435114503817,-20.18320610687023,-10.694898815917968,-1.4101847778320311,-1.5729904907226562,-55.908396946564885,-69.0381679389313,-4.595419847328245,0.0
10.240000486373901,-11.997344519042969,1.3742717529296875,3.430890979003906,-47.45038167938932,70.42748091603053,-17.435114503816795,-9.409212524414063,-1.0127473022460938,-1.7812860351562498,-39.63358778625954,-68.2442748091603,-12.50381679389313,0.0
10.250000476837158,-9.945513696289062,-0.19393033447265623,1.649604943847656,-40.091603053435115,59.66412213740458,-13.114503816793894,-9.83777462158203,-1.93451494140625,-0.19632453613281248,-26.091603053435115,-62.74809160305343,-16.916030534351144,0.0
10.260001182556152,-12.018892333984374,2.214636535644531,1.9895815795898437,-35.603053435114504,53.770992366412216,-11.801526717557252,-8.391676818847655,-1.5035586425781249,-0.17238251953125,-14.946564885496183,-66.06106870229007,-19.00763358778626,0.0
10.270000696182251,-11.911153259277343,2.0757728393554684,2.020706201171875,-30.412213740458014,53.969465648854964,-12.732824427480915,-8.94473740234375,-2.5809493896484375,0.3064578125,-2.549618320610687,-62.35114503816794,-20.53435114503817,0.0
10.280000925064087,-11.326968054199218,1.458068811035156,1.4772224243164063,-33.587786259541986,46.732824427480914,-9.572519083969466,-7.888894470214844,-2.013523596191406,0.3112462158203125,4.152671755725191,-62.900763358778626,-22.35114503816794,0.0
10.290000677108765,-10.58476553955078,2.3367408203125,1.599326708984375,-34.70229007633588,44.88549618320611,-7.862595419847328,-9.435548742675781,-2.176329309082031,0.97683427734375,14.610687022900763,-59.17557251908397,-23.541984732824428,0.0
10.3000009059906,-10.007762939453125,1.5921441040039062,1.2617442749023438,-33.05343511450382,44.091603053435115,-6.412213740458015,-8.468291271972657,-0.3854664672851562,0.00718260498046875,19.954198473282442,-64.77862595419847,-27.541984732824428,0.0
10.310000658035278,-12.34689796142578,3.5889082885742187,2.0542250244140625,-44.93129770992366,41.25190839694657,-7.755725190839694,-9.730035546875,-0.7876923461914062,1.697488977050781,25.862595419847327,-52.88549618320611,-28.427480916030536,0.0
10.320000648498535,-10.560823522949217,1.93451494140625,0.8475473876953125,-41.74045801526717,40.717557251908396,-5.282442748091603,-9.610325463867188,-0.8762778076171874,0.5506663818359374,33.37404580152672,-58.54961832061068,-30.229007633587788,0.0
10.330000877380371,-9.052476477050782,1.426944189453125,-0.19871873779296872,-37.465648854961835,39.6793893129771,-4.061068702290076,-9.478644372558593,-0.5003881469726562,1.4700398193359374,34.01526717557252,-55.38931297709924,-34.229007633587784,0.0
10.340000629425049,-12.74912384033203,4.314351391601562,2.6623522460937497,-47.099236641221374,44.38167938931298,-8.213740458015268,-10.220846887207031,-0.8714894042968749,1.62805712890625,37.954198473282446,-53.23664122137404,-36.56488549618321,0.0
10.350000619888306,-10.692504614257812,2.7269956909179687,1.16837041015625,-50.595419847328245,36.732824427480914,-4.824427480916031,-9.13627353515625,0.4381389038085937,1.0438719238281249,36.18320610687023,-58.16793893129771,-39.51145038167939,0.0
10.360000610351562,-10.481814868164061,1.6448165405273436,0.47644613037109373,-36.68702290076336,39.32824427480916,0.33587786259541985,-9.102754711914063,-0.5434837768554687,1.5083470458984374,34.18320610687023,-50.74809160305343,-40.76335877862596,0.0
10.37000036239624,-9.674968908691406,1.5035586425781249,0.3711012573242187,-33.49618320610687,39.74045801526717,1.1908396946564885,-9.045293872070312,-1.2018892333984375,1.687912170410156,37.083969465648856,-54.458015267175576,-42.030534351145036,0.0
10.380000591278076,-11.980585107421874,4.6447512207031245,1.9871873779296874,-45.29770992366412,39.63358778625954,-2.8396946564885495,-8.204929089355469,-0.33039982910156246,2.1906945190429687,35.02290076335878,-50.045801526717554,-44.6412213740458,0.0
10.390000820159912,-11.056423266601563,4.582501977539062,1.2593500732421874,-72.74809160305344,25.83206106870229,5.0534351145038165,-8.583212951660157,-0.8762778076171874,2.5522189697265625,38.778625954198475,-44.83969465648855,-42.47328244274809,0.0
10.40000057220459,-10.637437976074217,3.0119056884765625,0.2442085693359375,-70.62595419847328,20.549618320610687,16.061068702290076,-7.6470801025390625,0.16998831787109375,1.8531120849609375,39.6793893129771,-48.82442748091603,-42.06106870229008,0.0
10.410000801086426,-9.241618408203124,0.7972691528320313,-0.2705447875976562,-58.6412213740458,23.64885496183206,25.893129770992367,-7.218518005371093,1.8746598999023436,1.4532804077148436,28.53435114503817,-36.50381679389313,-42.18320610687023,0.0
10.420000553131104,-8.67658681640625,-2.2768857788085937,-0.2059013427734375,-41.847328244274806,31.450381679389313,27.31297709923664,-7.541735229492187,-0.3854664672851562,3.323151904296875,28.610687022900763,-22.03053435114504,-35.282442748091604,0.0
10.430001020431519,-9.421183532714844,-1.7190367919921874,1.197100830078125,-34.595419847328245,37.43511450381679,20.85496183206107,-8.573636145019531,-1.2282254516601563,4.053383410644531,37.69465648854962,-17.740458015267176,-31.87786259541985,0.0
10.440000295639038,-10.443507641601562,-0.5339069702148437,2.4133552734375,-33.98473282442748,34.51908396946565,12.198473282442748,-6.981492041015625,-0.05027823486328125,3.373430139160156,41.41984732824427,-17.297709923664122,-33.12977099236641,0.0
10.450000524520874,-8.966285217285156,-3.4931402221679684,1.5849614990234373,-24.595419847328245,26.213740458015266,9.938931297709924,-7.771578588867187,0.06703764648437499,2.7174188842773437,46.56488549618321,-13.32824427480916,-32.36641221374046,0.0
10.46000051498413,-8.327033374023436,-3.778050219726562,1.197100830078125,-0.22900763358778625,26.458015267175572,5.1603053435114505,-7.630320690917968,0.32082302246093747,2.540247961425781,43.81679389312977,-10.351145038167939,-32.12213740458015,0.0
10.470000505447388,-7.582436657714843,-2.7557261108398436,1.0127473022460938,14.458015267175572,27.480916030534353,-1.4351145038167938,-7.939172705078125,0.852335791015625,2.8850130004882812,42.0763358778626,-2.9618320610687023,-30.580152671755727,0.0
10.480000495910645,-9.68454571533203,-0.8451531860351562,1.9105729248046874,29.46564885496183,30.885496183206108,-9.145038167938932,-8.377311608886718,0.7565677246093749,2.906560815429687,38.80916030534351,1.0534351145038168,-28.68702290076336,0.0
10.490000486373901,-8.954314208984375,0.4860229370117187,1.254561669921875,48.56488549618321,29.87786259541985,-10.290076335877863,-7.7596075805664055,1.47482822265625,2.5474305664062498,32.68702290076336,2.2900763358778624,-28.47328244274809,0.0
10.500000476837158,-9.478644372558593,1.3407529296874998,1.3862427612304686,55.17557251908397,30.18320610687023,-11.709923664122137,-7.900865478515625,1.3551181396484375,3.0693665283203124,26.625954198473284,6.595419847328245,-26.53435114503817,0.0
10.510000705718994,-10.012551342773437,1.7741034301757812,1.5562310791015623,55.587786259541986,28.045801526717558,-12.854961832061068,-7.903259680175781,1.7286135986328124,3.2345664428710936,19.755725190839694,9.49618320610687,-25.34351145038168,0.0
10.52000093460083,-10.263942517089843,2.6695348510742187,2.6767174560546874,53.93893129770992,28.50381679389313,-13.755725190839694,-7.45075556640625,2.001552587890625,3.318363500976562,5.022900763358779,15.648854961832061,-23.221374045801525,0.0
10.530000686645508,-10.778695874023438,3.564966271972656,2.5474305664062498,43.63358778625954,23.00763358778626,-12.80916030534351,-7.3478048950195305,1.8411410766601561,3.1962592163085937,-13.32824427480916,23.84732824427481,-20.091603053435115,0.0
10.540000915527344,-10.603919152832031,3.9552211425781247,2.6982652709960937,34.778625954198475,18.870229007633586,-12.229007633587786,-7.613561279296874,0.8978256225585937,3.536235852050781,-27.068702290076335,30.946564885496183,-15.664122137404581,0.0
10.550000667572021,-11.130643518066405,4.766855505371093,3.612850305175781,25.84732824427481,19.083969465648856,-12.916030534351146,-8.487444885253906,-1.2880804931640624,4.350264416503906,-24.900763358778626,31.17557251908397,-11.48091603053435,0.0
10.560000658035278,-9.651026892089844,2.607285607910156,2.6336218261718747,18.061068702290076,11.786259541984732,-9.389312977099237,-8.36294639892578,-1.446097802734375,4.151545678710937,-13.206106870229007,25.435114503816795,-11.633587786259541,0.0
10.570000648498535,-10.527304699707031,2.9855694702148434,3.1962592163085937,18.091603053435115,10.595419847328245,-9.541984732824428,-6.995857250976562,-0.5410895751953124,2.5809493896484375,-8.030534351145038,21.435114503816795,-13.099236641221374,0.0
10.580000638961792,-10.342951171874999,1.5346832641601562,3.399766357421875,12.992366412213741,8.458015267175572,-9.267175572519085,-5.863399865722656,0.8092401611328125,2.473210314941406,-8.916030534351146,25.480916030534353,-12.82442748091603,0.0
10.590000629425049,-11.027692846679686,2.607285607910156,4.422090466308593,11.267175572519085,7.648854961832061,-11.221374045801527,-6.129156249999999,2.1595698974609374,0.9121908325195311,-17.450381679389313,30.748091603053435,-10.229007633587786,0.0
10.600000619888306,-10.747571252441405,2.3127988037109373,4.833893151855468,-2.7786259541984735,-0.0916030534351145,-11.633587786259541,-4.809951135253906,2.8131869506835936,-0.20829554443359374,-34.229007633587784,38.79389312977099,-5.770992366412214,0.0
10.610000610351562,-11.166556542968749,1.4317325927734375,5.66946953125,-3.8625954198473282,-7.083969465648855,-11.679389312977099,-5.4707507934570305,0.8643067993164062,-0.43574470214843747,-37.9236641221374,49.770992366412216,2.3206106870229006,0.0
10.620000839233398,-11.310208642578125,0.23702596435546874,6.5409589355468745,-3.6946564885496183,-15.32824427480916,-13.099236641221374,-6.277596752929687,0.04548983154296875,-0.6512228515624999,-31.17557251908397,53.89312977099237,3.9083969465648853,0.0
10.630000591278076,-11.085153686523437,-1.2497732666015624,7.149086157226562,3.236641221374046,-26.625954198473284,-16.793893129770993,-5.9208607055664055,-0.5913678100585937,-0.9744400756835937,-29.862595419847327,58.916030534351144,-1.7251908396946565,0.0
10.640000581741333,-12.16254443359375,-0.5291185668945312,8.688557824707031,6.549618320610687,-37.267175572519086,-23.52671755725191,-5.628768103027343,-2.0446482177734375,-1.0989385620117187,-37.6793893129771,69.12977099236642,-5.923664122137405,0.0
10.65000057220459,-12.119448803710936,1.7956512451171873,9.660603698730467,-16.9618320610687,-61.23664122137404,-31.297709923664122,-7.388506323242187,-5.336675500488281,-1.0199299072265624,-30.763358778625953,83.22137404580153,-7.175572519083969,0.0
10.660000562667847,-13.651737866210937,0.8738836059570312,11.367669482421874,-24.870229007633586,-82.91603053435115,-30.641221374045802,-10.764330664062498,-4.886565588378906,0.842758984375,-2.6259541984732824,83.5114503816794,-6.427480916030534,0.0
10.670000791549683,-15.765817932128906,2.4779987182617185,13.407529296875,-5.740458015267175,-103.09923664122137,-26.18320610687023,-14.097059374999999,-2.9831752685546875,3.921702319335937,12.717557251908397,83.17557251908397,-6.33587786259542,0.0
10.68000054359436,-16.687585571289063,3.7325603881835936,14.235923071289061,-2.366412213740458,-132.67175572519085,-19.099236641221374,-17.183185314941404,-2.528276953125,4.944026428222656,34.091603053435115,75.02290076335878,-5.893129770992366,0.0
10.690000534057617,-16.845602880859374,3.5673604736328124,13.795389965820311,26.641221374045802,-164.10687022900763,-10.122137404580153,-17.757793713378906,-1.6208745239257811,4.84586416015625,43.908396946564885,68.09160305343511,-2.4885496183206106,0.0
10.700000286102295,-20.51112562255859,5.008669873046875,12.799402075195312,78.83969465648855,-193.22137404580153,2.8091603053435112,-15.576676000976562,0.34237083740234375,2.703053674316406,58.030534351145036,56.19847328244275,1.8473282442748091,0.0
10.71000051498413,-19.948488232421873,3.766079211425781,5.149927770996094,80.04580152671755,-211.3587786259542,18.396946564885496,-11.262324609375,5.748478186035156,0.59376201171875,44.47328244274809,53.9236641221374,9.83206106870229,0.0
10.720000267028809,-20.029891088867185,-0.05746083984375,0.7517793212890624,49.83206106870229,-226.36641221374046,24.106870229007633,-8.185775476074218,6.593631372070312,-0.5123591552734374,11.954198473282442,63.32824427480916,18.396946564885496,0.0
10.730000495910645,-18.535909252929688,-4.170699291992188,-2.059013427734375,23.984732824427482,-235.29770992366412,31.129770992366414,-8.104372619628906,4.75009609375,-1.0558429321289062,-17.46564885496183,75.43511450381679,25.328244274809162,0.0
10.740000247955322,-15.454571716308592,-2.3415292236328122,-4.2137949218749995,14.396946564885496,-234.70229007633588,30.106870229007633,-6.8402341430664055,1.5035586425781249,-2.7629087158203123,-42.213740458015266,83.81679389312977,27.251908396946565,0.0
10.750000476837158,-12.81376728515625,-4.04141240234375,-7.127538342285156,13.389312977099237,-229.29770992366412,27.954198473282442,-7.788338000488281,-1.2282254516601563,-1.458068811035156,-53.93893129770992,97.72519083969466,32.38167938931298,0.0
10.760000467300415,-9.562441430664062,-7.307103466796875,-4.632780212402343,36.87022900763359,-206.93129770992365,27.282442748091604,-10.280701928710936,-4.7955859252929685,-1.1180921752929687,-39.25190839694657,97.19083969465649,35.099236641221374,0.0
10.770000696182251,-8.238447912597655,-6.380547424316406,-2.7557261108398436,55.603053435114504,-184.83969465648855,14.290076335877863,-11.860875024414062,-6.442796667480469,-0.24899697265624998,-13.633587786259541,90.97709923664122,31.770992366412212,0.0
10.780000925064087,-8.949525805664061,-3.4524387939453125,-2.214636535644531,67.54198473282443,-168.41221374045801,-1.251908396946565,-9.624690673828125,-3.835511059570312,-0.6655880615234374,3.984732824427481,84.22900763358778,22.47328244274809,0.0
10.790000677108765,-8.789114294433594,-0.24660277099609373,-1.5921441040039062,80.19847328244275,-145.3740458015267,-6.625954198473282,-10.232817895507813,-3.825934252929687,0.29927520751953124,9.19083969465649,88.70229007633588,22.076335877862597,0.0
10.8000009059906,-9.445125549316407,1.3263877197265623,-1.5705962890624998,85.32824427480917,-128.0,-5.32824427480916,-9.469067565917967,-3.402160559082031,0.6009446166992187,14.564885496183207,84.99236641221374,23.541984732824428,0.0
10.8100004196167,-9.502586389160156,3.9647979492187497,-0.48123453369140623,76.09160305343511,-114.04580152671755,-4.305343511450381,-8.238447912597655,1.4173673828125,-2.4899697265625,5.068702290076335,67.23664122137404,17.022900763358777,0.0
10.820000648498535,-8.95670841064453,5.178658190917968,0.9193734375,49.93893129770992,-104.19847328244275,-1.0076335877862594,-5.911283898925781,4.69263525390625,-2.8850130004882812,-32.88549618320611,80.93129770992367,17.46564885496183,0.0
10.830000638961792,-8.588001354980468,6.4667386840820305,2.068590234375,17.786259541984734,-100.0,6.2748091603053435,-9.387664709472656,1.8938135131835936,-0.5746083984375,-53.908396946564885,95.19083969465649,26.885496183206108,0.0
10.840000629425049,-7.9846625366210935,5.106832141113281,1.4221557861328125,-10.885496183206106,-99.81679389312977,13.068702290076336,-12.038045947265624,-3.768473413085937,1.7812860351562498,-37.786259541984734,92.97709923664122,33.45038167938932,0.0
10.850000381469727,-6.136338854980468,1.8818425048828125,-0.1292868896484375,-20.045801526717558,-95.92366412213741,19.52671755725191,-9.105148913574219,-3.1387983764648437,0.679953271484375,-24.702290076335878,79.66412213740458,26.16793893129771,0.0
10.860000610351562,-4.1563340820312495,0.13646949462890623,-1.5466542724609373,-13.389312977099237,-83.83206106870229,22.3206106870229,-9.287108239746093,-1.9129671264648436,0.1149216796875,-18.0,73.96946564885496,20.412213740458014,0.0
10.87000060081482,-4.651933825683593,0.8690952026367187,-1.5346832641601562,-14.427480916030534,-71.54198473282443,20.27480916030534,-9.97184991455078,-4.819527941894531,1.6160861206054686,-7.66412213740458,74.38167938931298,21.49618320610687,0.0
10.880000591278076,-2.863465185546875,-0.5578489868164063,-2.9927520751953125,-11.251908396946565,-65.6030534351145,21.51145038167939,-8.212111694335936,-2.43250888671875,0.02633621826171875,10.320610687022901,60.0763358778626,17.297709923664122,0.0
10.890001058578491,-2.616862414550781,-0.05027823486328125,-2.147598889160156,-9.465648854961833,-46.36641221374046,18.763358778625953,-9.188945971679686,-0.842758984375,0.7996633544921875,-5.511450381679389,66.1526717557252,18.641221374045802,0.0
10.900000810623169,-3.0454245117187497,1.9943699829101562,-2.0877438476562498,-19.16030534351145,-38.732824427480914,16.702290076335878,-9.411606726074218,-0.8714894042968749,1.1635820068359375,5.068702290076335,65.63358778625954,17.022900763358777,0.0
10.910000562667847,-1.3455413330078123,0.8595183959960937,-2.39420166015625,-27.862595419847327,-31.66412213740458,19.84732824427481,-10.24718310546875,-1.2617442749023438,1.4341267944335936,7.358778625954199,65.8473282442748,18.748091603053435,0.0
10.920000553131104,-1.0462661254882812,0.5051765502929687,-2.2864625854492187,-26.85496183206107,-13.954198473282442,21.61832061068702,-10.211270080566406,-2.89219560546875,1.5634136840820312,16.0,58.97709923664122,16.580152671755727,0.0
10.93000078201294,-2.868253588867187,1.4867992309570313,-1.659181750488281,-38.74809160305343,-0.732824427480916,18.671755725190838,-11.583147631835937,-3.284844677734375,1.3359645263671873,31.52671755725191,51.57251908396947,14.610687022900763,0.0
10.940000772476196,-3.2537200561523436,1.7717092285156248,-0.97683427734375,-48.12213740458015,10.534351145038167,18.213740458015266,-10.429142431640624,-1.24498486328125,0.5626373901367188,26.458015267175572,45.66412213740458,11.450381679389313,0.0
10.950000524520874,-2.308010400390625,0.6177040283203125,-0.9576806640625,-52.16793893129771,22.870229007633586,20.18320610687023,-14.599841723632812,-4.458003491210937,4.513070129394531,29.17557251908397,56.88549618320611,16.580152671755727,0.0
10.96000051498413,-1.6807295654296874,-1.6807295654296874,-0.7062894897460937,-53.61832061068702,36.74809160305343,20.396946564885496,-10.414777221679687,-3.1004911499023438,3.248931652832031,45.31297709923664,41.87786259541985,12.274809160305344,0.0
10.970000505447388,-2.5761609863281247,-2.868253588867187,2.0063409912109376,-41.51145038167939,51.221374045801525,14.687022900763358,-9.076418493652342,0.18435352783203124,0.076614453125,42.50381679389313,23.87786259541985,5.694656488549619,0.0
10.980000495910645,-0.9744400756835937,-4.8650177734375,2.501940734863281,-15.404580152671755,61.587786259541986,13.236641221374045,-15.176844323730467,-3.5098996337890624,5.734112976074218,32.01526717557252,46.717557251908396,11.129770992366412,0.0
10.990000486373901,-2.7365724975585937,-4.283226770019531,4.627991809082031,20.076335877862597,83.57251908396947,9.053435114503817,-9.967061511230469,-2.844311572265625,2.5234885498046875,52.99236641221374,21.709923664122137,4.213740458015267,0.0
11.000000476837158,-4.975151049804687,-1.6903063720703124,7.503428002929687,40.50381679389313,95.49618320610686,0.6717557251908397,-9.967061511230469,-0.3591302490234375,0.9983820922851562,50.0763358778626,7.145038167938932,0.916030534351145,0.0
11.010000705718994,-5.851428857421874,0.5722141967773438,10.290278735351562,53.282442748091604,92.22900763358778,-0.5038167938931297,-9.07163009033203,3.3446997192382812,0.277727392578125,22.580152671755727,11.038167938931299,0.3053435114503817,0.0
11.02000117301941,-9.181763366699219,6.002263562011718,14.405911389160156,51.63358778625954,86.67175572519083,3.6030534351145036,-8.475473876953124,3.912125512695312,0.16759411621093748,-7.0534351145038165,20.50381679389313,4.183206106870229,0.0
11.030000686645508,-11.410765112304686,9.476250170898437,16.565481286621093,18.549618320610687,66.3206106870229,7.557251908396947,-9.636661682128906,3.1364041748046874,1.5945383056640625,-28.717557251908396,30.99236641221374,10.335877862595419,0.0
11.040000915527344,-12.150573425292968,8.379705810546875,16.615759521484375,-24.702290076335878,37.7557251908397,10.061068702290076,-13.304578625488281,1.5945383056640625,2.849099975585937,-36.030534351145036,37.23664122137404,15.954198473282442,0.0
11.050117492675781,-10.225635290527343,3.5601778686523438,14.221557861328124,-57.603053435114504,10.748091603053435,10.992366412213741,-10.888829150390624,1.4101847778320311,3.1507693847656246,-48.99236641221374,34.29007633587786,17.389312977099237,0.0
11.0600004196167,-9.91438907470703,1.1611878051757811,11.3772462890625,-51.908396946564885,1.0076335877862594,9.679389312977099,-10.436325036621094,-0.36391865234375,2.760514514160156,-56.900763358778626,33.3587786259542,19.81679389312977,0.0
11.070000648498535,-8.789114294433594,-1.1947066284179686,8.82263311767578,-27.61832061068702,-6.809160305343512,11.786259541984732,-10.704475622558594,-1.2976572998046874,2.375048046875,-61.69465648854962,29.801526717557252,22.549618320610687,0.0
11.080000638961792,-8.865728747558594,-1.687912170410156,8.001421948242188,14.854961832061068,-4.5038167938931295,18.641221374045802,-10.85291612548828,-1.0438719238281249,1.9416975463867185,-71.57251908396947,26.198473282442748,28.259541984732824,0.0
11.09000039100647,-12.478579052734375,1.5011644409179687,7.5345526245117185,31.34351145038168,-3.1908396946564888,25.51145038167939,-12.289437121582031,-2.760514514160156,2.693476867675781,-74.6412213740458,26.595419847328245,34.0763358778626,0.0
11.100000619888306,-14.88714592285156,2.0661960327148434,3.1172505615234374,35.93893129770992,2.2290076335877864,38.38167938931298,-13.812149377441406,-6.1842228881835934,4.1946413085937495,-58.16793893129771,21.66412213740458,38.47328244274809,0.0
11.110000610351562,-19.12248865966797,-2.3391350219726563,5.523423229980469,25.862595419847327,4.366412213740458,40.091603053435115,-13.543998791503906,-5.161898779296875,3.2034418212890623,-42.88549618320611,-1.6030534351145038,32.62595419847328,0.0
11.120000839233398,-22.263681237792966,-6.816292126464844,11.113884106445312,15.526717557251908,-2.3206106870229006,24.27480916030534,-14.26944189453125,-3.153163586425781,2.7174188842773437,-50.0763358778626,-13.572519083969466,25.87786259541985,0.0
11.130000352859497,-23.31473576660156,-9.330203869628905,13.3692220703125,7.786259541984733,-15.648854961832061,1.6030534351145038,-15.128960290527344,-4.642357019042969,3.201047619628906,-47.267175572519086,-23.099236641221374,23.236641221374047,0.0
11.140000581741333,-22.96518232421875,-6.766013891601562,10.081983190917969,42.3206106870229,-25.984732824427482,-13.17557251908397,-15.464148522949218,-4.6351744140625,3.440467785644531,-22.595419847328245,-46.80916030534351,19.587786259541986,0.0
11.15000057220459,-15.852009191894531,5.106832141113281,-3.210624426269531,82.3969465648855,-14.427480916030534,-2.4732824427480917,-14.841656091308593,-1.3215993164062498,2.5258827514648434,-16.442748091603054,-71.16030534351145,15.755725190839694,0.0
11.160000562667847,-3.986345764160156,1.5538368774414062,-13.180080139160156,101.77099236641222,-8.290076335877863,15.954198473282442,-16.546327673339842,0.97683427734375,-0.00239420166015625,-14.106870229007633,-94.68702290076335,11.404580152671755,0.0
11.170000791549683,-0.5195417602539062,-1.2330138549804688,-10.175357055664062,94.18320610687023,22.778625954198475,6.916030534351145,-19.31163059082031,-0.8355763793945312,0.8259995727539062,4.396946564885496,-104.42748091603053,15.297709923664122,0.0
11.18000054359436,-2.3774422485351563,1.6903063720703124,-6.653486413574218,65.69465648854961,44.62595419847328,-12.732824427480915,-23.032219970703125,-0.20350714111328125,1.0630255371093749,35.282442748091604,-111.69465648854961,16.732824427480917,0.0
11.190000534057617,0.430956298828125,2.1906945190429687,-8.078036401367187,43.32824427480916,55.099236641221374,-22.0,-16.115371374511717,2.8754361938476563,-1.66636435546875,40.396946564885496,-139.61832061068702,9.236641221374045,0.0
11.200000286102295,-0.05027823486328125,2.090138049316406,-9.7683427734375,26.27480916030534,83.89312977099236,-31.61832061068702,-14.786589453125,3.2728736694335936,-2.6599580444335937,25.282442748091604,-144.74809160305344,4.641221374045801,0.0
11.21000051498413,-5.875370874023437,6.4475850708007805,-6.445190869140625,5.404580152671755,111.6030534351145,-38.900763358778626,-11.336544860839844,3.1459809814453124,-4.163516687011718,2.0916030534351147,-141.4351145038168,-0.3969465648854962,0.0
11.220000267028809,-10.441113439941406,11.405976708984374,-4.1563340820312495,-30.83969465648855,123.00763358778626,-36.06106870229008,-10.160991845703125,4.754884497070313,-5.190629199218749,-28.18320610687023,-143.32824427480915,-10.213740458015268,0.0
11.230000257492065,-8.233659509277343,4.1946413085937495,-4.2305543334960936,-58.48854961832061,122.70229007633588,-18.045801526717558,-12.267889306640624,2.916137622070312,-3.73495458984375,-44.06106870229008,-132.8091603053435,-10.076335877862595,0.0
11.240000486373901,-8.312668164062499,-1.4628572143554686,-1.7956512451171873,-41.37404580152672,149.16030534351145,-14.030534351145038,-11.947066284179687,0.14604630126953125,-2.24097275390625,-48.152671755725194,-128.76335877862596,-8.030534351145038,0.0
11.250000476837158,-12.236764685058594,0.22744915771484372,1.5442600708007812,-38.6412213740458,160.27480916030535,-25.984732824427482,-9.066841687011719,2.2170307373046874,-3.2537200561523436,-51.49618320610687,-133.06870229007635,-20.53435114503817,0.0
11.260000467300415,-9.193734375,-3.81156904296875,-0.8092401611328125,-35.38931297709924,148.61068702290078,-26.916030534351144,-11.087547888183593,1.7597382202148437,-1.93451494140625,-46.70229007633588,-126.06106870229007,-20.870229007633586,0.0
11.270000696182251,-11.552023010253906,-2.674323254394531,1.43652099609375,-6.061068702290076,161.78625954198472,-30.442748091603054,-10.405200415039062,0.20829554443359374,-1.1109095703125,-45.87786259541985,-122.29007633587786,-18.68702290076336,0.0
11.280000925064087,-13.204022155761718,2.142810485839844,4.149151477050781,-20.885496183206108,151.46564885496184,-37.465648854961835,-7.809885815429687,3.2704794677734372,-3.4261025756835934,-49.725190839694655,-125.26717557251908,-30.427480916030536,0.0
11.290000677108765,-12.389993591308594,3.3686417358398435,4.431667272949219,-48.56488549618321,125.69465648854961,-35.87786259541985,-10.254365710449218,2.5809493896484375,-2.205059729003906,-42.83969465648855,-111.34351145038168,-23.572519083969464,0.0
11.300000667572021,-11.935095275878906,3.6463691284179687,3.0741549316406247,-65.70992366412214,105.43511450381679,-25.81679389312977,-8.786720092773438,2.959233251953125,-2.3726538452148436,-44.67175572519084,-102.03053435114504,-17.786259541984734,0.0
11.3100004196167,-11.200075366210937,3.0813375366210938,2.863465185546875,-79.55725190839695,88.47328244274809,-19.053435114503817,-8.681375219726561,4.165910888671875,-3.67749375,-47.725190839694655,-96.65648854961832,-22.045801526717558,0.0
11.320000410079956,-10.565611926269531,1.675941162109375,2.85388837890625,-79.7557251908397,76.04580152671755,-16.076335877862597,-9.311050256347656,2.0278888061523435,-2.6312276245117188,-49.41984732824427,-78.80916030534351,-17.450381679389313,0.0
11.330000638961792,-11.590330236816406,0.8379705810546875,3.0238766967773434,-79.08396946564885,62.74809160305343,-12.687022900763358,-9.792284790039062,0.07900865478515624,-1.3311761230468748,-35.725190839694655,-68.12213740458016,-15.48091603053435,0.0
11.340000629425049,-12.80658468017578,0.7398083129882812,3.6439749267578123,-76.2442748091603,51.603053435114504,-10.67175572519084,-9.641450085449218,-0.8212111694335937,-0.6416460449218749,-22.106870229007633,-64.91603053435115,-17.480916030534353,0.0
11.350000381469727,-9.931148486328125,-2.5139117431640625,2.461239306640625,-48.93129770992366,49.05343511450382,-4.305343511450381,-7.706935144042968,0.8978256225585937,-1.2785036865234374,-7.480916030534351,-67.08396946564885,-23.61832061068702,0.0
11.360000610351562,-10.472238061523436,-1.7693150268554687,2.8730419921875,-32.87022900763359,42.42748091603053,-3.404580152671756,-8.621520178222656,-0.39983167724609375,0.814028564453125,-3.312977099236641,-54.38167938931298,-22.82442748091603,0.0
11.37000036239624,-10.831368310546875,-1.13006318359375,3.2441432495117186,-19.236641221374047,42.76335877862596,-7.404580152671755,-7.769184387207031,-0.5195417602539062,0.11013327636718749,5.7251908396946565,-55.81679389312977,-25.709923664122137,0.0
11.380000591278076,-10.39322940673828,0.6847416748046875,2.6312276245117188,-15.19083969465649,37.20610687022901,-11.740458015267176,-7.417236743164062,-0.3950432739257812,0.6368576416015624,2.5343511450381677,-49.06870229007634,-26.80916030534351,0.0
11.390000820159912,-12.301408129882812,2.6096798095703124,2.789244934082031,-25.374045801526716,30.83969465648855,-12.885496183206106,-8.777143286132812,-1.0438719238281249,1.0031704956054688,7.114503816793893,-43.3587786259542,-25.34351145038168,0.0
11.400000810623169,-10.338162768554687,1.0223241088867188,1.6735469604492186,-13.83206106870229,30.35114503816794,-7.648854961832061,-8.398859423828124,0.39743747558593745,0.14604630126953125,5.297709923664122,-46.06106870229008,-24.610687022900763,0.0
11.410000801086426,-9.485826977539062,1.5394716674804687,1.1133037719726562,-8.80916030534351,29.83206106870229,-3.3282442748091605,-8.91840118408203,0.047884033203124995,1.1013327636718748,4.824427480916031,-37.465648854961835,-21.954198473282442,0.0
11.420000314712524,-9.753977563476562,2.0278888061523435,0.7685387329101562,-8.702290076335878,28.763358778625953,-2.4122137404580153,-10.563217724609375,-1.8171990600585937,2.123656872558594,17.587786259541986,-35.16030534351145,-18.625954198473284,0.0
11.43000078201294,-12.389993591308594,5.568913061523437,1.5155296508789062,-24.946564885496183,25.69465648854962,-4.305343511450381,-8.652644799804687,-0.28730419921875,1.139639990234375,21.84732824427481,-46.35114503816794,-24.9618320610687,0.0
11.440000534057617,-11.001356628417968,5.6383449096679685,0.6703764648437499,-56.54961832061068,13.465648854961833,-0.9923664122137404,-8.465897070312499,1.6927005737304686,1.1731588134765625,13.16030534351145,-34.19847328244275,-26.396946564885496,0.0
11.450000524520874,-8.415618835449218,2.693476867675781,-1.3263877197265623,-58.61068702290076,7.755725190839694,8.793893129770993,-8.149862451171874,-1.2761094848632812,2.7341782958984373,5.66412213740458,-27.267175572519083,-22.763358778625953,0.0
11.46000051498413,-11.274295617675781,4.84586416015625,1.1851298217773436,-59.80152671755725,16.106870229007633,6.763358778625954,-8.872911352539061,-2.1116858642578125,2.50912333984375,11.603053435114504,-33.908396946564885,-23.633587786259543,0.0
11.470000505447388,-10.94868419189453,4.264073156738281,0.9169792358398436,-80.90076335877863,6.290076335877862,6.687022900763359,-9.677363110351562,-1.7453730102539062,2.980781066894531,15.648854961832061,-31.34351145038168,-27.14503816793893,0.0
11.480000257492065,-9.811438403320311,0.7134720947265625,-0.4525041137695312,-73.87786259541984,3.954198473282443,13.908396946564885,-10.386046801757812,-2.8203695556640622,3.5793314819335937,26.38167938931298,-31.114503816793892,-28.15267175572519,0.0
11.490000486373901,-10.211270080566406,0.3112462158203125,0.24660277099609373,-53.45038167938932,13.786259541984732,15.129770992366412,-6.959944226074218,0.16041151123046873,0.8092401611328125,22.137404580152673,-40.091603053435115,-35.23664122137404,0.0
11.500000476837158,-9.612719665527344,-0.05746083984375,0.8499415893554687,-51.57251908396947,17.603053435114504,11.801526717557252,-6.658274816894531,1.0534487304687499,2.0638018310546875,3.480916030534351,-18.549618320610687,-35.43511450381679,0.0
11.510000467300415,-8.020575561523437,-2.6671406494140624,0.35194764404296874,-34.50381679389313,23.46564885496183,13.145038167938932,-8.904035974121093,-1.6448165405273436,3.4620156005859375,3.6946564885496183,-10.610687022900763,-27.328244274809162,0.0
11.52000093460083,-7.982268334960937,-2.1787235107421874,0.5147533569335937,-11.648854961832061,30.748091603053435,10.274809160305344,-9.586383447265625,-2.5450363647460934,3.7708676147460936,15.725190839694656,-14.961832061068701,-27.87786259541985,0.0
11.530000448226929,-8.650250598144531,-0.2753331909179687,1.3048399047851562,-11.312977099236642,33.69465648854962,4.442748091603053,-7.529764221191406,-0.076614453125,2.446874096679687,18.519083969465647,-19.251908396946565,-35.51145038167939,0.0
11.540000677108765,-9.085995300292968,-0.8475473876953125,0.047884033203124995,-14.458015267175572,26.458015267175572,4.458015267175573,-8.312668164062499,-0.8978256225585937,3.172317199707031,22.641221374045802,-12.01526717557252,-33.954198473282446,0.0
11.550000667572021,-8.74601866455078,-1.6352397338867186,0.5243301635742187,-0.549618320610687,31.16030534351145,3.282442748091603,-8.128314636230469,-0.016759411621093748,3.3327287109375,25.206106870229007,-13.038167938931299,-32.74809160305343,0.0
11.5600004196167,-8.602366564941406,-1.218648645019531,0.5506663818359374,13.114503816793894,35.51145038167939,-1.2061068702290076,-7.419630944824219,0.8571241943359375,2.8275521606445313,23.022900763358777,-11.98473282442748,-32.33587786259542,0.0
11.570000648498535,-9.0021982421875,-0.430956298828125,0.8499415893554687,21.52671755725191,37.847328244274806,-4.778625954198473,-8.221688500976562,0.2059013427734375,3.404554760742187,22.625954198473284,-7.786259541984733,-27.587786259541986,0.0
11.580000638961792,-10.17056865234375,0.7015010864257812,1.3215993164062498,27.633587786259543,38.87022900763359,-7.9541984732824424,-7.886500268554687,0.70868369140625,3.3590649291992185,20.610687022900763,-8.076335877862595,-25.34351145038168,0.0
11.590000629425049,-9.694122521972655,1.889025109863281,1.0534487304687499,29.69465648854962,36.48854961832061,-7.251908396946565,-8.291120349121094,0.603338818359375,3.2800562744140622,19.83206106870229,-6.229007633587786,-22.12213740458015,0.0
11.600000619888306,-10.503362683105468,0.9983820922851562,0.8355763793945312,32.10687022900763,36.83969465648855,-5.083969465648855,-8.403647827148436,0.02633621826171875,3.5577836669921874,20.091603053435115,-4.564885496183206,-18.442748091603054,0.0
11.610000610351562,-8.616731774902343,1.6041151123046875,0.4213794921875,37.83206106870229,36.38167938931298,-2.4427480916030535,-7.982268334960937,0.3854664672851562,3.1603461914062496,19.64885496183206,-4.564885496183206,-16.900763358778626,0.0
11.62000060081482,-10.498574279785156,2.001552587890625,0.7781155395507812,33.12977099236641,37.51145038167939,-3.2977099236641223,-7.850587243652344,0.59376201171875,3.0262708984374997,19.740458015267176,-2.0763358778625953,-14.854961832061068,0.0
11.630000591278076,-8.492233288574218,1.7860744384765623,-0.055066638183593745,35.55725190839695,36.3206106870229,-2.2748091603053435,-7.917624890136718,0.29927520751953124,3.1220389648437497,16.931297709923665,1.1603053435114503,-12.305343511450381,0.0
11.640000581741333,-10.333374365234375,1.5682020874023437,0.814028564453125,31.557251908396946,40.80916030534351,-4.33587786259542,-8.044517578125,-0.06464344482421874,2.896984008789062,15.526717557251908,2.0,-11.129770992366412,0.0
11.650000810623169,-9.97184991455078,1.3239935180664062,1.5610194824218748,28.015267175572518,40.85496183206107,-5.526717557251908,-8.066065393066406,-0.5219359619140624,2.8754361938476563,13.83206106870229,3.5572519083969465,-11.389312977099237,0.0
11.660000562667847,-9.988609326171874,1.7669208251953124,1.9608511596679685,26.35114503816794,40.595419847328245,-7.251908396946565,-8.030152368164062,-0.8044517578125,2.817975354003906,12.687022900763358,4.564885496183206,-12.320610687022901,0.0
11.670000791549683,-9.581595043945311,2.530671154785156,2.288856787109375,21.862595419847327,38.396946564885496,-7.435114503816794,-8.013392956542969,-1.0127473022460938,2.779668127441406,12.091603053435115,4.870229007633588,-13.389312977099237,0.0
11.680000305175781,-10.256759912109374,3.785232824707031,2.923320227050781,16.68702290076336,36.80916030534351,-7.3893129770992365,-8.192958081054687,-1.2282254516601563,2.786850732421875,12.213740458015268,5.7251908396946565,-13.954198473282442,0.0
11.690000534057617,-9.507374792480467,3.4763808105468748,2.157175695800781,11.068702290076336,29.450381679389313,-4.656488549618321,-8.226476904296874,-0.9337386474609375,2.693476867675781,12.091603053435115,6.1679389312977095,-14.213740458015268,0.0
11.700000524520874,-10.984597216796875,4.405331054687499,3.921702319335937,2.427480916030534,29.206106870229007,-5.374045801526718,-8.176198669433592,-0.6416460449218749,2.6216508178710938,11.908396946564885,6.763358778625954,-14.793893129770993,0.0
11.71000051498413,-10.627861169433594,3.7804444213867185,4.2497079467773435,-4.6106870229007635,23.34351145038168,-4.305343511450381,-8.279149340820313,-0.2657563842773437,2.568978381347656,12.83969465648855,7.6183206106870225,-14.244274809160306,0.0
11.720000505447388,-11.022904443359375,3.181894006347656,4.192247106933594,-18.641221374045802,11.541984732824428,-2.4122137404580153,-8.17859287109375,0.19632453613281248,2.4947581298828125,10.687022900763358,8.213740458015268,-14.0,0.0
11.730000495910645,-9.801861596679688,0.47884033203125,3.6463691284179687,-8.183206106870228,4.137404580152672,-0.9770992366412213,-7.829039428710937,0.4644751220703125,2.50912333984375,7.755725190839694,10.65648854961832,-12.183206106870228,0.0
11.740000247955322,-10.402806213378906,0.833182177734375,4.185064501953125,-5.755725190839694,0.5648854961832062,-3.480916030534351,-7.618349682617187,0.6009446166992187,1.9536685546875,3.8625954198473282,13.083969465648854,-10.763358778625955,0.0
11.750000476837158,-10.129867224121092,0.076614453125,4.455609289550781,0.8702290076335878,-4.519083969465649,-7.221374045801527,-6.763619689941406,1.1611878051757811,1.3072341064453123,1.5267175572519085,16.290076335877863,-10.412213740458014,0.0
11.760000944137573,-11.528080993652344,2.5330653564453125,5.743689782714843,1.4809160305343512,-8.870229007633588,-11.022900763358779,-6.042964990234375,1.4053963745117186,0.7493851196289062,-8.076335877862595,22.244274809160306,-9.98473282442748,0.0
11.770000457763672,-12.19366905517578,2.9089550170898435,6.533776330566406,-22.30534351145038,-24.671755725190838,-11.709923664122137,-5.391742138671875,3.1483751831054687,1.7860744384765623,-15.603053435114504,35.45038167938932,-7.221374045801527,0.0
11.780001163482666,-12.004527124023436,4.019864587402344,7.005434057617187,-30.702290076335878,-41.038167938931295,-9.374045801526718,-4.067748620605468,4.486733911132812,-1.89620771484375,-29.862595419847327,43.48091603053435,-4.122137404580153,0.0
11.790000677108765,-10.869675537109375,1.9321207397460936,7.0652890991210935,-35.725190839694655,-55.55725190839695,-7.099236641221374,-5.286397265624999,4.242525341796875,-1.235408056640625,-52.50381679389313,66.01526717557252,3.1908396946564888,0.0
11.8000009059906,-11.949460485839843,1.3718775512695311,8.166621862792969,-34.67175572519084,-67.96946564885496,-7.129770992366412,-6.667851623535156,1.6112977172851561,-1.2880804931640624,-59.404580152671755,77.87786259541984,9.664122137404581,0.0
11.810000658035278,-12.176909643554687,-0.24181436767578124,9.179369165039063,-26.65648854961832,-84.74809160305344,-9.877862595419847,-8.59997236328125,-0.5793968017578125,-0.9074024291992187,-60.99236641221374,95.09923664122137,13.740458015267176,0.0
11.820000648498535,-13.417106103515625,-0.8906430175781249,10.390835205078124,-8.13740458015267,-101.45038167938931,-11.267175572519085,-7.42441934814453,-1.0127473022460938,-3.5290532470703124,-49.49618320610687,94.83969465648855,9.709923664122137,0.0
11.830000638961792,-13.603853833007811,-1.8291700683593748,11.3006318359375,10.854961832061068,-118.47328244274809,-14.549618320610687,-10.618284362792968,-2.6503812377929687,-0.8810662109374999,-36.76335877862596,105.22137404580153,8.183206106870228,0.0
11.840000629425049,-14.279018701171875,-2.2577321655273437,11.942277880859374,33.80152671755725,-139.48091603053436,-18.427480916030536,-13.486537951660155,-3.3255461059570313,3.2537200561523436,-24.213740458015266,105.78625954198473,6.916030534351145,0.0
11.850000619888306,-15.342044238281249,-2.094926452636719,12.138602416992187,59.587786259541986,-162.61068702290078,-23.709923664122137,-14.111424584960936,-4.149151477050781,5.779602807617187,-13.740458015267176,96.07633587786259,2.2442748091603053,0.0
11.860000610351562,-15.708357092285155,-0.7493851196289062,10.256759912109374,78.91603053435115,-183.70992366412213,-25.69465648854962,-14.755464831542968,-2.528276953125,5.276820458984375,3.7557251908396947,74.80916030534351,0.44274809160305345,0.0
11.87000060081482,-16.91982313232422,-1.3048399047851562,8.702923034667968,80.79389312977099,-206.24427480916032,-29.022900763358777,-16.352397338867185,-0.4333505004882812,5.137956762695312,6.3816793893129775,72.87022900763358,8.900763358778626,0.0
11.880000829696655,-17.83201396484375,-2.722207287597656,6.5601125488281244,98.94656488549619,-219.58778625954199,-19.541984732824428,-9.634267480468749,3.5769372802734374,1.4724340209960938,13.603053435114504,54.19847328244275,12.687022900763358,0.0
11.890000343322754,-17.350779431152343,-1.62805712890625,2.47081611328125,121.80152671755725,-216.8854961832061,1.2366412213740459,-9.485826977539062,4.75009609375,2.114080065917969,-4.305343511450381,59.25190839694657,23.801526717557252,0.0
11.90000033378601,-15.011644409179686,-0.9002198242187499,-2.2768857788085937,108.61068702290076,-214.04580152671755,16.519083969465647,-9.567229833984374,2.166752502441406,2.3822306518554686,-21.114503816793892,64.9618320610687,28.458015267175572,0.0
11.910000801086426,-13.632584252929687,0.023942016601562498,-6.617573388671874,90.47328244274809,-214.8091603053435,15.19083969465649,-9.483432775878907,-1.369483349609375,0.6057330200195312,-23.801526717557252,57.51145038167939,26.82442748091603,0.0
11.920000553131104,-11.456254943847656,-0.16280571289062498,-7.697358337402343,75.5114503816794,-208.12213740458014,11.83206106870229,-8.013392956542969,-2.384624853515625,-0.373495458984375,-36.30534351145038,58.732824427480914,23.022900763358777,0.0
11.93000054359436,-10.89840595703125,-0.12689268798828124,-4.2688615600585935,70.62595419847328,-191.09923664122138,8.885496183206106,-9.777919580078125,-5.5545478515625,0.0718260498046875,-31.267175572519083,60.87022900763359,24.85496183206107,0.0
11.940000295639038,-9.849745629882811,-0.3854664672851562,-3.574543078613281,69.0381679389313,-174.3206106870229,6.106870229007634,-9.560047229003906,-4.826710546875,-0.49320554199218747,-14.793893129770993,53.38931297709924,22.198473282442748,0.0
11.950000524520874,-10.876858142089842,1.446097802734375,-0.7398083129882812,63.45038167938932,-155.93893129770993,-1.5725190839694656,-10.960655200195312,-5.80354482421875,0.33039982910156246,-8.396946564885496,55.17557251908397,20.33587786259542,0.0
11.96000051498413,-10.675745202636719,2.5354595581054684,0.7278373046875,62.152671755725194,-139.05343511450383,2.2900763358778624,-10.570400329589843,-5.521029028320312,0.3447650390625,10.854961832061068,50.732824427480914,15.099236641221374,0.0
11.970000505447388,-11.037269653320312,3.0119056884765625,1.3910311645507811,64.73282442748092,-117.93893129770993,10.83969465648855,-10.350133776855468,-4.120421057128906,-0.239420166015625,18.396946564885496,45.587786259541986,10.274809160305344,0.0
11.980000495910645,-11.180921752929686,4.723759875488281,1.3359645263671873,49.74045801526717,-107.2824427480916,16.35114503816794,-8.027758166503906,-1.0869675537109373,-1.3670891479492187,10.351145038167939,46.74809160305343,6.3816793893129775,0.0
11.990000486373901,-9.715670336914062,5.248090039062499,1.0342951171875,19.96946564885496,-104.09160305343511,21.755725190839694,-9.284714038085937,-1.2138602416992186,-0.5458779785156249,3.9389312977099236,53.221374045801525,9.877862595419847,0.0
12.000000238418579,-7.905653881835937,3.725377783203125,0.3854664672851562,-9.648854961832061,-101.02290076335878,25.96946564885496,-9.7683427734375,-1.5298948608398437,0.18435352783203124,11.007633587786259,52.67175572519084,12.427480916030534,0.0
12.010000705718994,-6.48589229736328,2.0087351928710935,-0.45489831542968745,-26.229007633587788,-93.78625954198473,26.80916030534351,-8.978256225585938,1.3192051147460937,-0.6105214233398437,2.0763358778625953,51.43511450381679,12.045801526717558,0.0
12.02000093460083,-2.89219560546875,-1.0821791503906248,-2.461239306640625,-25.31297709923664,-86.97709923664122,29.64885496183206,-10.517727893066406,-0.9241618408203125,0.07900865478515624,-5.908396946564886,59.954198473282446,15.83206106870229,0.0
12.030000686645508,-3.323151904296875,-2.693476867675781,-2.0638018310546875,-12.778625954198473,-63.00763358778626,26.259541984732824,-10.352527978515624,-3.248931652832031,0.39743747558593745,12.045801526717558,55.587786259541986,19.022900763358777,0.0
12.040000915527344,-3.366247534179687,-1.9919757812499999,-1.9009961181640624,-3.099236641221374,-49.16030534351145,19.984732824427482,-13.850456604003906,-4.393360046386719,2.4444798950195312,32.274809160305345,54.94656488549618,19.221374045801525,0.0
12.050000667572021,-4.132392065429687,-1.0199299072265624,-2.4684219116210935,-0.9618320610687023,-39.3587786259542,15.374045801526718,-11.104307299804686,-3.0789433349609374,0.7230489013671875,44.656488549618324,40.80916030534351,14.396946564885496,0.0
12.060000896453857,-3.153163586425781,-1.3359645263671873,-2.473210314941406,-1.0076335877862594,-26.946564885496183,13.038167938931299,-11.81777939453125,-2.1308394775390624,1.3192051147460937,49.41984732824427,40.85496183206107,13.908396946564885,0.0
12.070000886917114,-3.0166940917968748,0.22744915771484372,-2.4947581298828125,-3.7404580152671754,-11.404580152671755,11.801526717557252,-9.33978067626953,0.12689268798828124,0.8188169677734375,36.76335877862596,41.267175572519086,13.679389312977099,0.0
12.080000638961792,-2.4779987182617185,0.7876923461914062,-3.258508459472656,-13.282442748091603,-2.8244274809160306,9.969465648854962,-11.33175645751953,-2.7269956909179687,2.645592834472656,40.58015267175573,45.66412213740458,17.00763358778626,0.0
12.090000629425049,-2.8514941772460936,0.7829039428710937,-2.4396914916992185,-16.290076335877863,19.770992366412212,8.702290076335878,-10.211270080566406,-2.118868469238281,1.687912170410156,60.76335877862596,31.557251908396946,14.549618320610687,0.0
12.100000381469727,-2.96881005859375,1.1420341918945311,-2.6240450195312497,-31.068702290076335,27.557251908396946,4.030534351145038,-10.024522351074218,-0.016759411621093748,1.3215993164062498,56.030534351145036,25.389312977099237,10.045801526717558,0.0
12.110000610351562,-3.0645781249999997,1.6639701538085936,-2.1068974609374997,-40.213740458015266,41.404580152671755,4.0,-8.197746484375,2.511517541503906,-0.42377369384765623,34.94656488549618,22.916030534351144,6.656488549618321,0.0
12.12000060081482,-2.5354595581054684,1.8555062866210936,-1.4341267944335936,-55.49618320610687,55.3587786259542,3.984732824427481,-9.282319836425781,2.375048046875,1.2425906616210938,10.290076335877863,35.7557251908397,13.435114503816793,0.0
12.130000352859497,-2.808398547363281,1.3048399047851562,-0.43574470214843747,-67.87786259541984,65.69465648854961,5.511450381679389,-8.52335791015625,2.7054478759765623,0.6536170532226562,-2.6106870229007635,32.38167938931298,16.85496183206107,0.0
12.140000581741333,-2.8131869506835936,-0.86191259765625,0.7900865478515624,-60.88549618320611,80.33587786259542,5.465648854961832,-11.664550488281249,-0.0909796630859375,2.6408044311523438,-8.80916030534351,38.74809160305343,23.893129770992367,0.0
12.150000810623169,-2.365471240234375,-2.3535002319335936,2.7365724975585937,-45.786259541984734,92.62595419847328,2.2442748091603053,-10.694898815917968,-2.2361843505859373,3.744531396484375,-4.564885496183206,33.69465648854962,23.19083969465649,0.0
12.160000562667847,-3.6822821533203123,-1.7836802368164062,4.778826513671874,-29.419847328244273,102.1526717557252,-1.9389312977099236,-11.01332763671875,-3.6152445068359373,5.023035083007812,2.030534351145038,32.50381679389313,20.946564885496183,0.0
12.170001029968262,-4.934449621582031,-0.2753331909179687,6.545747338867187,-12.534351145038167,109.6030534351145,-0.5954198473282443,-10.472238061523436,-2.9735984619140625,3.4524387939453125,9.068702290076336,23.435114503816795,16.045801526717558,0.0
12.18000054359436,-6.773196496582031,1.4700398193359374,10.194510668945313,11.297709923664122,114.58015267175573,5.022900763358779,-10.249577307128906,-2.980781066894531,3.076549133300781,14.793893129770993,20.061068702290076,13.267175572519085,0.0
12.190000534057617,-8.892064965820312,3.8762124877929685,13.900734838867187,25.053435114503817,110.01526717557252,11.694656488549619,-9.117119921875,-1.1420341918945311,1.714248388671875,16.53435114503817,15.969465648854962,10.366412213740459,0.0
12.200000524520874,-10.931924780273437,6.229712719726562,16.22071624755859,26.580152671755727,95.92366412213741,16.68702290076336,-8.875305554199219,-0.02633621826171875,1.8339584716796873,3.2061068702290076,24.106870229007633,12.061068702290076,0.0
12.21000051498413,-12.382810986328124,7.848193041992187,16.529568261718747,-0.4122137404580153,73.45038167938931,18.35114503816794,-7.802703210449218,0.5099649536132812,1.707065783691406,10.702290076335878,28.18320610687023,14.030534351145038,0.0
12.220000505447388,-11.214440576171874,5.5449710449218745,15.344438439941406,-38.06106870229008,47.19083969465649,16.48854961832061,-8.441955053710936,1.5442600708007812,0.8714894042968749,0.1984732824427481,27.480916030534353,14.80916030534351,0.0
12.230000495910645,-10.16338604736328,3.1124621582031247,12.873622326660156,-47.7557251908397,31.81679389312977,13.633587786259541,-9.471461767578125,2.482787121582031,1.9201497314453124,-12.82442748091603,40.229007633587784,18.03053435114504,0.0
12.24000072479248,-9.244012609863281,0.43574470214843747,10.225635290527343,-50.67175572519084,11.969465648854962,12.564885496183207,-10.314220751953124,2.7533319091796873,1.3263877197265623,-26.045801526717558,46.458015267175576,22.931297709923665,0.0
12.250120401382446,-10.433930834960936,-0.6440402465820312,10.216058483886718,-25.297709923664122,9.664122137404581,16.18320610687023,-9.789890588378906,2.6192566162109374,0.9744400756835937,-50.29007633587786,50.54961832061068,30.198473282442748,0.0
12.260000944137573,-7.094019519042968,-5.9208607055664055,5.008669873046875,8.748091603053435,5.526717557251908,23.17557251908397,-11.755530151367187,-0.9002198242187499,2.3127988037109373,-55.29770992366412,55.6793893129771,40.12213740458015,0.0
12.270000696182251,-10.295067138671874,-6.663063220214843,4.8698061767578125,61.02290076335878,30.610687022900763,20.137404580152673,-12.856862915039061,-2.7198130859375,2.482787121582031,-45.81679389312977,47.267175572519086,43.221374045801525,0.0
12.280001163482666,-14.094665173339843,-6.861781958007812,3.5027170288085934,107.46564885496183,43.69465648854962,13.435114503816793,-13.936647863769531,-4.2880151733398435,3.497928625488281,-44.534351145038165,38.70229007633588,42.83969465648855,0.0
12.290000677108765,-20.27649385986328,-4.690241052246093,7.4579381713867186,141.78625954198472,55.267175572519086,15.572519083969466,-15.306131213378904,-5.607220288085937,4.067748620605468,-31.267175572519083,23.068702290076335,37.725190839694655,0.0
12.30000114440918,-24.078486096191405,-1.8243816650390623,11.372457885742186,122.82442748091603,45.404580152671755,7.236641221374046,-14.777012646484375,-3.5122938354492184,3.3207577026367185,-31.801526717557252,1.1450381679389312,28.778625954198475,0.0
12.310000658035278,-25.23727969970703,-1.8363526733398436,12.591106530761717,44.0,2.5343511450381677,-22.229007633587788,-15.581464404296874,-1.8555062866210936,3.7110125732421873,-35.11450381679389,-9.816793893129772,23.480916030534353,0.0
12.320000648498535,-18.59815849609375,-5.700594152832031,6.639121203613281,16.396946564885496,-30.85496183206107,-33.038167938931295,-17.061081030273435,-4.161122485351562,5.061342309570312,-25.00763358778626,-25.358778625954198,21.755725190839694,0.0
12.330000877380371,-13.259088793945311,0.9504980590820312,-1.5729904907226562,49.61832061068702,-22.33587786259542,-27.34351145038168,-15.849614990234373,0.15083470458984374,3.1364041748046874,-25.862595419847327,-54.16793893129771,13.251908396946565,0.0
12.340000629425049,-6.268019946289062,6.854599353027344,-9.849745629882811,94.1526717557252,0.061068702290076333,-5.267175572519084,-14.590264916992187,2.5258827514648434,1.455674609375,-41.52671755725191,-74.61068702290076,9.48091603053435,0.0
12.350000619888306,-0.4740519287109375,5.49708701171875,-11.563994018554688,81.90839694656489,5.755725190839694,1.3740458015267176,-16.74504641113281,1.4030021728515625,0.8882488159179687,-35.099236641221374,-83.2824427480916,14.931297709923664,0.0
12.360000610351562,0.9624690673828125,-0.143652099609375,-9.239224206542968,64.77862595419847,26.229007633587788,-3.1603053435114505,-15.198392138671874,-1.139639990234375,0.34237083740234375,-2.6717557251908395,-104.73282442748092,12.946564885496183,0.0
12.37000060081482,-0.7110778930664062,1.618480322265625,-5.925649108886718,70.18320610687023,56.93129770992366,-17.954198473282442,-15.040374829101562,-0.2537853759765625,0.1292868896484375,1.5725190839694656,-120.54961832061069,8.274809160305344,0.0
12.380000591278076,-3.356670727539062,6.548141540527343,-5.190629199218749,40.44274809160305,68.3206106870229,-30.3206106870229,-12.220005273437499,4.192247106933594,-3.028665100097656,-12.13740458015267,-129.23664122137404,-4.061068702290076,0.0
12.390000820159912,-3.3111808959960936,6.303932971191406,-6.880935571289062,0.5038167938931297,72.16793893129771,-31.587786259541986,-13.532027783203125,2.808398547363281,-2.6216508178710938,-22.916030534351144,-122.44274809160305,-5.282442748091603,0.0
12.40000057220459,-6.387730029296875,4.450820886230469,-5.585672473144531,-21.404580152671755,91.06870229007633,-29.389312977099237,-12.272677709960936,1.1109095703125,-1.9919757812499999,-32.70229007633588,-119.45038167938931,-5.312977099236641,0.0
12.410000801086426,-11.051634863281249,6.2201359130859375,-2.4875755249023435,-44.94656488549618,107.77099236641222,-28.931297709923665,-10.560823522949217,2.942473840332031,-3.1747114013671873,-36.30534351145038,-123.22137404580153,-14.885496183206106,0.0
12.420000553131104,-11.820173596191406,4.601655590820312,-1.1611878051757811,-63.14503816793893,112.10687022900764,-22.213740458015266,-11.77947216796875,0.9217676391601562,-1.189918225097656,-43.06870229007634,-112.19847328244275,-12.076335877862595,0.0
12.43000054359436,-12.69884560546875,0.7972691528320313,-0.16280571289062498,-74.38167938931298,112.73282442748092,-17.022900763358777,-9.337386474609374,2.4444798950195312,-2.710236279296875,-43.57251908396947,-115.49618320610686,-15.053435114503817,0.0
12.440000772476196,-14.487314245605468,1.5610194824218748,1.9871873779296874,-91.92366412213741,109.93893129770993,-21.34351145038168,-10.242394702148436,1.3024457031249999,-1.2234370483398436,-46.50381679389313,-106.4885496183206,-12.763358778625955,0.0
12.450000524520874,-13.220781567382812,-0.45968671875,1.3670891479492187,-107.98473282442748,97.74045801526718,-23.129770992366414,-7.898471276855468,3.5577836669921874,-2.8802245971679685,-46.961832061068705,-108.41221374045801,-13.297709923664122,0.0
12.46000051498413,-13.639766857910155,1.6232687255859375,1.7453730102539062,-111.83206106870229,89.96946564885496,-24.015267175572518,-9.567229833984374,2.9472622436523435,-1.235408056640625,-46.38167938931298,-95.8473282442748,-6.778625954198473,0.0
12.470000505447388,-11.161768139648437,-0.19393033447265623,1.3575123413085937,-116.19847328244275,74.85496183206106,-18.0,-7.941566906738281,4.017470385742187,-2.4684219116210935,-48.36641221374046,-95.14503816793894,-5.862595419847328,0.0
12.480000734329224,-10.108319409179687,-1.5107412475585937,0.8547299926757812,-96.3206106870229,69.7557251908397,-12.580152671755725,-9.102754711914063,3.162740393066406,-2.1404162841796874,-47.404580152671755,-86.54961832061069,-4.824427480916031,0.0
12.49000072479248,-12.378022583007812,0.05746083984375,2.5043349365234375,-78.85496183206106,70.42748091603053,-11.648854961832061,-9.368511096191405,1.8004396484374998,-0.928950244140625,-47.89312977099237,-73.6030534351145,-1.3435114503816794,0.0
12.500000476837158,-10.347739575195313,-0.44053310546874996,1.9488801513671874,-88.67175572519083,48.01526717557252,-7.801526717557252,-9.382876306152344,1.3838485595703125,-2.0278888061523435,-36.94656488549618,-71.6030534351145,-5.190839694656488,0.0
12.510000705718994,-9.572018237304688,-1.5131354492187499,2.0087351928710935,-56.16793893129771,52.67175572519084,-4.67175572519084,-8.738836059570312,0.2561795776367187,-1.1875240234375,-36.13740458015267,-64.74809160305344,-5.450381679389313,0.0
12.52000093460083,-10.685322009277343,-1.0031704956054688,2.521094348144531,-47.282442748091604,49.06870229007634,-4.290076335877862,-9.10993731689453,0.5458779785156249,-0.6751648681640625,-23.0381679389313,-57.282442748091604,-6.732824427480916,0.0
12.530000448226929,-9.375693701171874,-0.5219359619140624,1.936909143066406,-36.70229007633588,44.274809160305345,-6.152671755725191,-8.853757739257812,-0.0909796630859375,-0.16280571289062498,-16.290076335877863,-53.17557251908397,-7.648854961832061,0.0
12.540000915527344,-11.851298217773437,1.0726023437499999,2.7653029174804686,-36.16793893129771,39.00763358778626,-6.900763358778626,-9.212887988281249,-0.4285620971679687,0.28969840087890625,-7.786259541984733,-51.69465648854962,-10.290076335877863,0.0
12.550000429153442,-9.679757312011718,1.7238251953125,2.1739351074218747,-39.87786259541985,26.625954198473284,-4.259541984732825,-7.769184387207031,-0.105344873046875,-0.2442085693359375,-10.900763358778626,-51.16030534351145,-14.50381679389313,0.0
12.560000658035278,-11.939883679199218,2.825157958984375,2.932897033691406,-38.30534351145038,22.9618320610687,-0.33587786259541985,-8.884882360839843,-1.1276689819335937,0.21787235107421873,-4.900763358778626,-43.14503816793893,-14.80916030534351,0.0
12.570000648498535,-9.943119494628906,0.4860229370117187,1.6639701538085936,-32.38167938931298,17.51145038167939,3.9083969465648853,-8.813056311035156,-0.4477157104492187,-0.0143652099609375,1.3893129770992367,-47.38931297709924,-17.083969465648856,0.0
12.580000877380371,-8.429984045410155,-0.8355763793945312,1.149216796875,-11.419847328244275,19.72519083969466,5.6183206106870225,-8.595183959960938,-0.3064578125,0.612915625,2.7480916030534353,-39.63358778625954,-19.16030534351145,0.0
12.590000629425049,-12.07874737548828,2.5139117431640625,3.4931402221679684,-0.8854961832061069,31.6793893129771,0.030534351145038167,-10.273519323730468,-2.4133552734375,1.944091748046875,16.83969465648855,-36.3206106870229,-19.19083969465649,0.0
12.600000619888306,-10.309432348632813,2.5617957763671875,1.7908628417968748,-16.870229007633586,16.259541984732824,-0.5801526717557252,-9.382876306152344,0.00239420166015625,1.1228805786132812,24.885496183206108,-45.969465648854964,-26.03053435114504,0.0
12.610000610351562,-10.608707556152343,1.7310078002929687,0.9600748657226562,-13.526717557251908,17.267175572519083,2.1526717557251906,-8.939948999023438,0.07900865478515624,1.8914193115234375,20.33587786259542,-38.2442748091603,-28.83969465648855,0.0
12.620000839233398,-12.39238779296875,4.448426684570312,2.5163059448242184,-14.15267175572519,24.610687022900763,1.083969465648855,-9.399635717773437,-1.5634136840820312,2.1308394775390624,24.458015267175572,-38.88549618320611,-28.427480916030536,0.0
12.630000591278076,-9.643844287109374,4.0222587890625,0.6177040283203125,-32.229007633587784,11.511450381679388,1.8625954198473282,-9.119514123535156,-0.2920926025390625,1.6017209106445311,30.396946564885496,-45.81679389312977,-32.35114503816794,0.0
12.640000581741333,-10.93671318359375,4.57771357421875,1.3072341064453123,-37.93893129770992,14.183206106870228,4.442748091603053,-7.7787611938476555,0.41898529052734373,1.9536685546875,20.0,-39.29770992366412,-34.412213740458014,0.0
12.650000810623169,-8.688557824707031,2.990357873535156,0.3758896606445312,-44.412213740458014,10.65648854961832,11.48091603053435,-9.387664709472656,-1.8842367065429686,2.023100402832031,21.34351145038168,-34.19847328244275,-32.045801526717554,0.0
12.660000562667847,-9.208099584960937,0.5817910034179687,0.40462008056640625,-38.13740458015267,11.969465648854962,13.664122137404581,-9.1554271484375,-0.9504980590820312,1.438915197753906,27.52671755725191,-41.9236641221374,-34.42748091603053,0.0
12.670000553131104,-7.857769848632812,-0.9528922607421875,0.2705447875976562,-24.30534351145038,17.114503816793892,13.312977099236642,-7.295132458496093,0.8595183959960937,1.9201497314453124,22.229007633587788,-34.6412213740458,-38.87022900763359,0.0
12.68000054359436,-8.762778076171875,-0.373495458984375,1.2880804931640624,-17.099236641221374,25.770992366412212,8.763358778625955,-8.219294299316406,-1.0223241088867188,1.429338391113281,17.19083969465649,-24.045801526717558,-39.49618320610687,0.0
12.690000772476196,-8.719682446289061,1.7214309936523438,2.051830822753906,-21.297709923664122,23.236641221374047,3.969465648854962,-7.685387329101562,-0.6200982299804687,1.4987702392578124,19.893129770992367,-24.244274809160306,-40.70229007633588,0.0
12.700000524520874,-11.145008728027342,1.908178723144531,2.6336218261718747,-32.396946564885496,18.580152671755727,2.2748091603053435,-8.406042028808594,-1.005564697265625,2.7940333374023436,22.0,-14.732824427480915,-40.36641221374046,0.0
12.71000051498413,-9.598354455566406,-0.7398083129882812,1.467645617675781,-24.931297709923665,15.17557251908397,7.267175572519084,-8.568847741699217,-1.1827356201171875,3.1579519897460937,25.862595419847327,-13.557251908396946,-40.534351145038165,0.0
12.720000505447388,-9.9215716796875,-0.39743747558593745,1.2473790649414063,-13.282442748091603,19.6793893129771,5.66412213740458,-8.10197841796875,-1.0917559570312498,3.4356793823242184,29.16030534351145,-11.297709923664122,-42.12213740458015,0.0
12.730000257492065,-9.248801013183593,-0.0047884033203125,0.8307879760742187,-9.969465648854962,21.557251908396946,2.549618320610687,-6.040570788574218,-0.04548983154296875,2.748543505859375,27.14503816793893,-12.427480916030534,-43.57251908396947,0.0
12.740000486373901,-8.75320126953125,0.6679822631835937,1.0749965454101562,-10.0,22.18320610687023,1.0229007633587786,-7.096413720703125,-0.6440402465820312,3.356670727539062,30.0,-8.595419847328245,-39.83206106870229,0.0
12.750000476837158,-10.13226142578125,0.9600748657226562,1.6352397338867186,-9.618320610687023,25.16030534351145,0.16793893129770993,-7.687781530761718,-0.10773907470703124,3.938461730957031,30.625954198473284,-8.381679389312977,-36.54961832061068,0.0
12.760000944137573,-9.105148913574219,0.7948749511718749,0.7637503295898437,-3.633587786259542,24.610687022900763,1.1908396946564885,-6.318298181152343,1.5275006591796874,3.229778039550781,23.862595419847327,-9.419847328244275,-35.770992366412216,0.0
12.770000457763672,-8.497021691894531,1.0390835205078124,1.4413093994140624,-3.267175572519084,29.480916030534353,-0.3053435114503817,-7.3837179199218745,1.9488801513671874,4.299986181640625,8.01526717557252,3.8473282442748094,-29.908396946564885,0.0
12.780001163482666,-8.89924757080078,0.5985504150390625,0.9241618408203125,-3.5419847328244276,27.770992366412212,-0.21374045801526717,-8.106766821289062,0.8283937744140625,3.859453076171875,2.2595419847328246,6.106870229007634,-23.61832061068702,0.0
12.790000677108765,-9.861716638183593,0.28490999755859375,1.7525556152343749,-0.24427480916030533,30.9618320610687,-1.6793893129770991,-8.461108666992187,-0.7038952880859375,3.825934252929687,9.206106870229007,0.5343511450381679,-19.603053435114504,0.0
12.8000009059906,-10.450690246582031,0.34715924072265625,2.6910826660156246,4.793893129770993,31.984732824427482,-4.076335877862595,-7.326257080078125,0.5602431884765625,3.4548329956054684,12.290076335877863,-3.068702290076336,-20.045801526717558,0.0
12.810000658035278,-10.608707556152343,1.0342951171875,3.785232824707031,6.427480916030534,31.251908396946565,-5.175572519083969,-6.926425402832031,0.6919242797851562,3.0262708984374997,8.687022900763358,0.3816793893129771,-19.404580152671755,0.0
12.820000648498535,-8.851363537597656,0.6679822631835937,3.5601778686523438,10.870229007633588,24.458015267175572,-4.030534351145038,-6.943184814453125,0.6919242797851562,2.844311572265625,3.4656488549618323,2.854961832061069,-16.50381679389313,0.0
12.830000638961792,-11.365275280761718,1.1923124267578125,4.675875842285156,14.290076335877863,24.03053435114504,-6.900763358778626,-6.347028601074219,1.1444283935546875,2.85388837890625,-6.854961832061068,9.099236641221374,-13.709923664122137,0.0
12.840000629425049,-10.414777221679687,1.3168109130859373,4.53940634765625,11.251908396946565,14.320610687022901,-5.847328244274809,-7.520187414550781,0.00718260498046875,3.380612744140625,-12.83969465648855,16.931297709923665,-9.16030534351145,0.0
12.850000619888306,-10.850521923828124,1.9967641845703124,5.351040710449219,8.183206106870228,5.7251908396946565,-6.290076335877862,-8.046911779785155,-0.5243301635742187,2.6886884643554687,-14.045801526717558,19.389312977099237,-6.33587786259542,0.0
12.860000610351562,-11.937489477539062,2.712630480957031,6.0716954101562495,6.2748091603053435,-1.1450381679389312,-7.404580152671755,-7.48906279296875,0.02154781494140625,1.465251416015625,-13.633587786259541,22.30534351145038,-6.412213740458015,0.0
12.87000060081482,-9.624690673828125,-0.13168109130859373,4.61602080078125,8.366412213740459,-13.511450381679388,-4.2748091603053435,-6.268019946289062,0.44053310546874996,-0.047884033203124995,-13.435114503816793,25.69465648854962,-6.732824427480916,0.0
12.880000591278076,-9.246406811523437,-0.7062894897460937,4.405331054687499,24.48854961832061,-14.274809160305344,-6.99236641221374,-6.4356140625,0.842758984375,0.1867477294921875,-12.412213740458014,37.12977099236641,-4.5038167938931295,0.0
12.890000820159912,-11.077971081542968,2.6623522460937497,5.9208607055664055,14.473282442748092,-16.9618320610687,-14.717557251908397,-4.848258361816406,2.6096798095703124,-1.197100830078125,-19.435114503816795,45.038167938931295,-6.137404580152672,0.0
12.900000810623169,-12.138602416992187,2.7557261108398436,6.054935998535156,-2.9923664122137406,-30.12213740458015,-17.572519083969464,-5.899312890625,2.231395947265625,-1.5801730957031248,-30.396946564885496,63.770992366412216,-2.9923664122137406,0.0
12.910000562667847,-11.008539233398437,1.6208745239257811,6.6319385986328125,-7.022900763358779,-44.045801526717554,-13.969465648854962,-8.130708837890625,-0.1388636962890625,-1.1037269653320312,-30.595419847328245,73.64885496183206,1.618320610687023,0.0
12.920000553131104,-10.977414611816405,0.2920926025390625,7.173028173828125,-2.564885496183206,-53.541984732824424,-16.595419847328245,-9.562441430664062,-1.4437036010742186,-1.3096283081054687,-24.519083969465647,82.67175572519083,-1.3129770992366412,0.0
12.93000078201294,-14.41548819580078,2.5713725830078125,9.533711010742186,-2.9160305343511452,-62.045801526717554,-23.61832061068702,-9.466673364257812,-0.7829039428710937,-1.8267758666992187,-18.50381679389313,85.1145038167939,-6.732824427480916,0.0
12.940000295639038,-15.286977600097655,3.746925598144531,11.386823095703125,-15.755725190839694,-89.93893129770993,-25.450381679389313,-11.054029064941405,1.189918225097656,-0.023942016601562498,-17.557251908396946,96.93129770992367,-1.9694656488549618,0.0
12.950000524520874,-15.995661291503906,1.4820108276367188,12.399570397949217,-10.732824427480915,-116.79389312977099,-19.267175572519083,-14.166491223144531,-3.4811692138671875,5.200206005859375,-4.9465648854961835,105.98473282442748,14.305343511450381,0.0
12.96000051498413,-17.932570434570312,-0.16280571289062498,14.89432852783203,9.206106870229007,-141.64885496183206,-18.198473282442748,-19.75216369628906,-8.923189587402343,6.112396838378906,57.3587786259542,77.49618320610686,13.923664122137405,0.0
12.970000743865967,-18.511967236328125,0.023942016601562498,14.903905334472656,45.02290076335878,-169.63358778625954,-15.022900763358779,-15.27740079345703,-3.277662072753906,3.0837317382812497,93.0381679389313,43.52671755725191,-0.7938931297709924,0.0
12.980000495910645,-19.239804541015623,1.7357962036132812,13.381193078613281,73.22137404580153,-198.8854961832061,-3.7099236641221376,-12.27746611328125,0.6153098266601562,2.1260510742187497,94.1526717557252,41.80152671755725,-6.030534351145038,0.0
12.990000486373901,-18.918981518554688,1.1755530151367186,9.955090502929687,67.06870229007633,-228.03053435114504,7.847328244274809,-9.375693701171874,1.886630908203125,1.20667763671875,78.83969465648855,43.69465648854962,0.07633587786259542,0.0
13.000000476837158,-18.26057606201172,0.9121908325195311,5.398924743652343,48.717557251908396,-250.3053435114504,12.931297709923664,-8.32463917236328,5.252878442382812,-0.1388636962890625,61.98473282442748,44.70229007633588,3.954198473282443,0.0
13.010000467300415,-15.31570802001953,0.10295067138671875,-2.0302830078125,43.3587786259542,-264.5496183206107,16.946564885496183,-6.737283471679687,6.5505357421875,-0.14125789794921875,17.603053435114504,58.51908396946565,12.045801526717558,0.0
13.02000093460083,-12.428300817871094,-2.990357873535156,-6.672640026855468,51.465648854961835,-262.99236641221376,24.38167938931298,-7.8912886718749995,4.2688615600585935,-0.8954314208984374,-4.320610687022901,66.12213740458016,19.16030534351145,0.0
13.030000686645508,-9.200916979980468,-5.5545478515625,-8.645462194824217,71.90839694656489,-240.42748091603053,25.572519083969464,-6.667851623535156,2.8562825805664063,-1.5753846923828123,-40.396946564885496,77.80152671755725,24.580152671755727,0.0
13.040000915527344,-7.321468676757812,-6.888118176269531,-8.511386901855468,87.89312977099236,-212.5801526717557,19.923664122137403,-8.415618835449218,-0.105344873046875,-1.2904746948242187,-51.099236641221374,87.25190839694656,28.091603053435115,0.0
13.050000667572021,-6.380547424316406,-5.2073886108398435,-5.453991381835937,104.87022900763358,-180.67175572519085,6.229007633587786,-12.404358801269531,-3.6463691284179687,0.6392518432617187,-53.908396946564885,99.14503816793894,32.534351145038165,0.0
13.060000658035278,-6.279990954589843,-1.9393033447265624,-4.211400720214844,119.43511450381679,-146.44274809160305,-0.9770992366412213,-10.232817895507813,-5.571307263183593,1.2210428466796874,-41.51145038167939,97.20610687022901,29.69465648854962,0.0
13.070000648498535,-8.923189587402343,1.6472107421875,-2.269703173828125,122.99236641221374,-112.91603053435115,-6.076335877862595,-10.402806213378906,-4.398148449707031,1.0630255371093749,-23.389312977099237,88.90076335877863,25.52671755725191,0.0
13.080000638961792,-9.677363110351562,3.5673604736328124,0.430956298828125,123.06870229007633,-90.62595419847328,-3.450381679389313,-9.030928662109375,-2.9448680419921875,0.0143652099609375,-10.83969465648855,75.78625954198473,20.458015267175572,0.0
13.090000629425049,-12.351686364746094,7.721300354003906,3.3399113159179685,102.85496183206106,-72.19847328244275,0.015267175572519083,-10.654197387695312,-2.3367408203125,0.8858546142578124,-19.206106870229007,83.48091603053435,23.374045801526716,0.0
13.100000619888306,-10.98699141845703,7.884106066894531,3.2249896362304686,59.45038167938932,-73.6030534351145,10.854961832061068,-4.924872814941406,1.7238251953125,-3.0262708984374997,-27.923664122137403,67.0381679389313,16.091603053435115,0.0
13.110000610351562,-10.690110412597656,7.582436657714843,3.0406361083984375,12.961832061068701,-66.91603053435115,13.358778625954198,-8.930372192382812,0.8188169677734375,-0.9265560424804687,-58.732824427480914,82.82442748091603,22.213740458015266,0.0
13.12000060081482,-6.641515405273437,5.1331683593749995,-0.4285620971679687,-21.786259541984734,-72.35114503816794,19.31297709923664,-8.875305554199219,-1.0390835205078124,0.33518823242187495,-60.82442748091603,88.18320610687023,23.84732824427481,0.0
13.130001068115234,-6.5505357421875,2.1308394775390624,-1.6136919189453125,-42.732824427480914,-61.9236641221374,20.35114503816794,-10.345345373535155,-2.43250888671875,1.7788918334960937,-61.57251908396947,91.45038167938931,26.763358778625953,0.0
13.140000581741333,-3.5793314819335937,-0.7015010864257812,-2.6384102294921874,-41.61832061068702,-55.06870229007634,21.72519083969466,-7.850587243652344,-2.3582886352539063,-0.2442085693359375,-41.3587786259542,73.17557251908397,21.61832061068702,0.0
13.150000810623169,-3.1579519897460937,-1.6352397338867186,-2.6599580444335937,-29.633587786259543,-36.458015267175576,17.61832061068702,-10.230423693847655,-4.6830584472656245,1.158793603515625,-33.55725190839695,72.68702290076335,23.450381679389313,0.0
13.160000324249268,-1.4939818359375,-2.4109610717773435,-4.139574670410156,-22.595419847328245,-30.65648854961832,14.793893129770993,-9.18655177001953,-2.636016027832031,0.5722141967773438,-15.282442748091603,63.00763358778626,20.793893129770993,0.0
13.170001029968262,-3.418919970703125,0.39743747558593745,-2.1452046874999997,-17.69465648854962,-8.396946564885496,9.48091603053435,-10.149020837402343,-4.1946413085937495,1.5298948608398437,-3.7251908396946565,59.43511450381679,21.984732824427482,0.0
13.180000305175781,-2.3822306518554686,0.5027823486328125,-2.9185318237304685,-17.923664122137403,-0.8396946564885496,10.534351145038167,-12.366051574707031,-5.777208605957031,3.4835634155273434,24.82442748091603,58.35114503816794,23.49618320610687,0.0
13.190000534057617,-0.7589619262695312,-0.3136404174804687,-3.421314172363281,-16.045801526717558,15.587786259541986,14.030534351145038,-10.491391674804687,-2.5330653564453125,1.2521674682617188,42.458015267175576,40.10687022900763,18.061068702290076,0.0
13.200000286102295,-0.086191259765625,0.5889736083984375,-3.258508459472656,-23.068702290076335,32.274809160305345,10.641221374045802,-10.419565624999999,0.12449848632812499,-0.22026655273437498,40.19847328244275,37.93893129770992,14.763358778625955,0.0
13.21000051498413,-2.3367408203125,1.867477294921875,-1.3527239379882812,-39.6793893129771,49.267175572519086,7.8320610687022905,-9.68454571533203,-0.24181436767578124,-0.028730419921875,33.7557251908397,41.64885496183206,15.938931297709924,0.0
13.220000505447388,-1.2569558715820313,1.5562310791015623,-1.2521674682617188,-54.412213740458014,57.7557251908397,7.114503816793893,-10.778695874023438,-0.4644751220703125,0.7445967163085937,36.030534351145036,44.656488549618324,18.80916030534351,0.0
13.230000495910645,-1.9967641845703124,0.6296750366210937,1.1875240234375,-64.8854961832061,72.25954198473282,4.519083969465649,-9.708487731933593,-0.5793968017578125,0.33758243408203126,27.786259541984734,43.52671755725191,18.916030534351144,0.0
13.24000072479248,-3.4739866088867184,-0.5434837768554687,3.5386300537109374,-72.8854961832061,80.4885496183206,-0.4732824427480916,-11.7603185546875,-3.9145197143554684,2.123656872558594,34.88549618320611,47.52671755725191,20.977099236641223,0.0
13.250000476837158,-3.7134067749023436,-2.042254016113281,5.1523219726562495,-67.29770992366412,85.08396946564885,-4.442748091603053,-10.472238061523436,-2.2960393920898436,1.1731588134765625,46.152671755725194,34.13740458015267,16.229007633587788,0.0
13.260000944137573,-3.842693664550781,-1.9680337646484374,6.311115576171875,-45.267175572519086,92.62595419847328,-4.809160305343512,-11.554417211914062,-2.4253262817382812,2.288856787109375,41.19083969465649,36.85496183206107,15.34351145038168,0.0
13.270000457763672,-4.604049792480469,-1.8243816650390623,9.888052856445311,-19.480916030534353,102.12213740458016,-0.732824427480916,-9.057264880371093,-0.08858546142578125,0.26336218261718747,36.19847328244275,26.519083969465647,10.15267175572519,0.0
13.280000686645508,-5.9376201171875,0.27293898925781246,13.723563916015625,10.717557251908397,104.76335877862596,2.50381679389313,-7.81467421875,1.879448303222656,-0.47884033203125,13.465648854961833,27.862595419847327,8.458015267175572,0.0
13.290000677108765,-7.225700610351562,3.6942531616210936,14.654908361816405,32.62595419847328,94.99236641221374,9.389312977099237,-11.5304751953125,-0.7445967163085937,2.6408044311523438,12.320610687022901,43.404580152671755,15.541984732824428,0.0
13.3000009059906,-9.631873278808593,5.087678527832031,15.00925020751953,21.923664122137403,83.92366412213741,9.709923664122137,-10.998962426757812,-2.205059729003906,4.469974499511719,19.053435114503817,42.030534351145036,15.251908396946565,0.0
13.310000658035278,-9.18655177001953,0.4572925170898437,15.136142895507811,19.908396946564885,71.78625954198473,7.267175572519084,-8.078036401367187,1.0175357055664063,2.3774422485351563,21.221374045801525,28.16793893129771,7.114503816793893,0.0
13.320000410079956,-8.980650427246093,-0.0383072265625,14.171279626464843,25.419847328244273,57.89312977099237,0.6106870229007634,-10.328585961914062,0.8906430175781249,4.192247106933594,7.526717557251908,33.19083969465649,8.549618320610687,0.0
13.330000638961792,-10.71884083251953,1.0773907470703123,13.589488623046874,34.61068702290076,46.56488549618321,-3.1297709923664123,-9.739612353515625,2.042254016113281,3.689464758300781,-1.7099236641221374,24.946564885496183,10.305343511450381,0.0
13.340000629425049,-11.245565197753905,0.8930372192382812,12.452242834472656,53.81679389312977,33.93893129770992,1.083969465648855,-11.058817468261719,2.863465185546875,3.7397429931640622,-29.64885496183206,22.442748091603054,16.870229007633586,0.0
13.350000619888306,-16.768988427734374,3.0142998901367184,10.79545528564453,77.32824427480917,27.770992366412212,8.51908396946565,-15.052345837402342,-0.9193734375,5.571307263183593,-30.48854961832061,25.709923664122137,30.259541984732824,0.0
13.360000610351562,-23.671471813964843,4.944026428222656,7.247248425292969,67.45038167938931,22.091603053435115,15.251908396946565,-13.407529296875,-0.6512228515624999,2.712630480957031,-41.87786259541985,0.21374045801526717,29.374045801526716,0.0
13.37000060081482,-26.733655737304687,3.1866824096679687,5.058948107910156,49.23664122137404,9.007633587786259,28.33587786259542,-13.76426534423828,-1.005564697265625,2.47081611328125,-67.14503816793894,-6.213740458015267,28.702290076335878,0.0
13.380000829696655,-27.15742943115234,-3.8283284545898435,6.679822631835937,19.740458015267176,-0.3053435114503817,29.083969465648856,-15.854403393554687,-5.817910034179687,4.714183068847656,-70.73282442748092,-8.961832061068701,31.480916030534353,0.0
13.390001058578491,-25.112781213378906,-6.519411120605469,7.285555651855469,-17.480916030534353,-28.50381679389313,5.038167938931298,-16.74504641113281,-5.736507177734374,4.3622354248046875,-49.00763358778626,-34.99236641221374,26.427480916030536,0.0
13.40000057220459,-9.533711010742186,-7.558494641113281,-2.157175695800781,36.33587786259542,-26.519083969465647,9.404580152671755,-14.635754748535156,-2.4684219116210935,1.6519991455078125,-38.58015267175573,-64.21374045801527,18.30534351145038,0.0
13.410000801086426,-4.611232397460937,0.3327940307617187,-8.580818749999999,93.2824427480916,12.732824427480915,13.954198473282442,-18.689138159179688,-3.3590649291992185,2.6431986328124997,-19.19083969465649,-73.31297709923665,16.870229007633586,0.0
13.420000553131104,0.814028564453125,2.2577321655273437,-10.496180078124999,93.58778625954199,27.801526717557252,7.4961832061068705,-18.428170178222654,-2.6623522460937497,1.2904746948242187,0.13740458015267176,-93.93893129770993,11.557251908396946,0.0
13.43000078201294,0.18914193115234373,1.3120225097656248,-6.277596752929687,63.48091603053435,42.274809160305345,-7.374045801526718,-18.38028614501953,-0.076614453125,-0.7230489013671875,20.595419847328245,-114.6412213740458,0.9312977099236641,0.0
13.440000295639038,1.6927005737304686,0.47165772705078124,-6.864176159667968,46.79389312977099,53.87786259541985,-18.717557251908396,-18.658013537597654,-0.8786720092773437,-1.407790576171875,36.68702290076336,-124.65648854961832,-2.6106870229007635,0.0
13.450000286102295,-2.0470424194335934,3.4452561889648434,-7.831433630371094,29.053435114503817,82.97709923664122,-29.938931297709924,-16.187197424316405,4.062960217285156,-2.501940734863281,37.63358778625954,-133.75572519083968,-7.9541984732824424,0.0
13.46000075340271,-5.635950708007812,6.706158850097656,-7.175422375488281,-4.137404580152672,97.0381679389313,-35.12977099236641,-14.132972399902343,5.157110375976562,-4.2137949218749995,18.259541984732824,-136.33587786259542,-12.748091603053435,0.0
13.470000505447388,-9.595960253906249,6.586448767089843,-5.209782812499999,-29.297709923664122,110.99236641221374,-31.419847328244273,-11.85608662109375,3.095702746582031,-4.113238452148437,-9.679389312977099,-129.6793893129771,-8.83969465648855,0.0
13.480000495910645,-12.586318127441405,5.858611462402344,-0.5410895751953124,-54.62595419847328,120.3206106870229,-25.374045801526716,-9.095572106933593,5.231330627441406,-5.652710119628906,-34.61068702290076,-124.94656488549619,-11.709923664122137,0.0
13.490000486373901,-13.232752575683593,2.0446482177734375,0.7733271362304687,-65.86259541984732,116.76335877862596,-18.702290076335878,-10.493785876464843,2.1978771240234374,-2.882618798828125,-47.083969465648856,-109.58778625954199,-6.6106870229007635,0.0
13.500000476837158,-12.50730947265625,-0.4285620971679687,2.2385785522460937,-66.19847328244275,115.00763358778626,-16.68702290076336,-9.588777648925781,0.6679822631835937,-2.104503259277344,-44.74809160305343,-108.22900763358778,-6.259541984732825,0.0
13.510000467300415,-11.200075366210937,-1.2473790649414063,2.952050646972656,-59.66412213740458,110.16793893129771,-21.297709923664122,-9.816226806640625,-0.47644613037109373,-1.1635820068359375,-40.0763358778626,-105.87786259541984,-10.15267175572519,0.0
13.52000093460083,-12.27746611328125,0.2920926025390625,4.197035510253906,-59.038167938931295,102.74809160305344,-25.435114503816795,-9.04050546875,0.8858546142578124,-1.9105729248046874,-31.755725190839694,-104.83969465648855,-14.854961832061068,0.0
13.530000686645508,-11.444283935546874,0.6871358764648438,3.5817256835937497,-69.45038167938931,84.56488549618321,-23.96946564885496,-9.478644372558593,1.0917559570312498,-2.0733786376953125,-21.81679389312977,-100.03053435114504,-16.99236641221374,0.0
13.540000915527344,-11.441889733886718,1.2330138549804688,3.208230224609375,-71.16030534351145,74.51908396946565,-20.47328244274809,-9.380482104492186,1.649604943847656,-1.438915197753906,-18.229007633587788,-92.29007633587786,-13.068702290076336,0.0
13.5500009059906,-8.465897070312499,-1.2425906616210938,1.5418658691406248,-70.93129770992367,56.10687022900763,-12.83969465648855,-8.667010009765624,3.7900212280273435,-3.318363500976562,-12.458015267175572,-90.2442748091603,-16.625954198473284,0.0
13.5600004196167,-7.575254052734374,-1.6017209106445311,1.8507178833007811,-42.274809160305345,56.47328244274809,-10.366412213740459,-9.579200842285156,2.6479870361328124,-2.0302830078125,-17.83206106870229,-77.08396946564885,-12.473282442748092,0.0
13.570000886917114,-10.498574279785156,0.21308394775390624,3.1507693847656246,-22.48854961832061,56.97709923664122,-12.366412213740459,-7.915230688476562,2.1547814941406247,-2.8036101440429686,-19.053435114503817,-67.49618320610686,-14.381679389312977,0.0
13.580000638961792,-12.004527124023436,2.4516625,3.8953661010742184,-26.53435114503817,46.68702290076336,-13.48091603053435,-8.499415893554687,0.20829554443359374,-1.6304513305664061,-11.664122137404581,-55.45038167938932,-13.32824427480916,0.0
13.590000629425049,-10.481814868164061,0.9864110839843749,2.8467057739257813,-17.435114503816795,40.13740458015267,-9.206106870229007,-7.958326318359375,0.5363011718749999,-1.8507178833007811,-7.236641221374046,-56.0,-14.702290076335878,0.0
13.600000619888306,-9.02135185546875,0.5099649536132812,2.2649147705078123,-3.312977099236641,36.213740458015266,-5.022900763358779,-7.587225061035156,0.6105214233398437,-0.55545478515625,-11.526717557251908,-44.396946564885496,-14.595419847328245,0.0
13.610000610351562,-11.37006368408203,3.0741549316406247,3.3686417358398435,-10.625954198473282,29.419847328244273,-5.282442748091603,-10.809820495605468,-2.3439234252929686,1.0702081420898437,3.0229007633587788,-31.862595419847327,-12.030534351145038,0.0
13.620000839233398,-12.512097875976561,2.703053674316406,3.859453076171875,-9.740458015267176,25.46564885496183,-2.7938931297709924,-10.333374365234375,-1.7980454467773437,1.1156979736328125,23.358778625954198,-45.87786259541985,-16.33587786259542,0.0
13.630000352859497,-11.413159313964844,1.1875240234375,3.1076737548828124,6.595419847328245,22.595419847328245,2.732824427480916,-8.001421948242188,0.28969840087890625,0.40222587890625,20.580152671755727,-48.74809160305343,-24.427480916030536,0.0
13.640000343322754,-9.718064538574218,-0.6488286499023437,1.4772224243164063,19.96946564885496,20.3206106870229,5.603053435114504,-9.181763366699219,-1.0199299072265624,0.2753331909179687,22.9618320610687,-40.534351145038165,-24.793893129770993,0.0
13.650000810623169,-11.552023010253906,2.080561242675781,2.829946362304687,23.450381679389313,26.53435114503817,-1.450381679389313,-10.213664282226562,-2.1164742675781247,0.4860229370117187,35.37404580152672,-48.47328244274809,-23.709923664122137,0.0
13.660000801086426,-11.67652149658203,5.238513232421875,2.8107927490234372,-7.633587786259542,13.145038167938932,-8.15267175572519,-9.406818322753905,0.1149216796875,1.0893617553710937,36.12213740458015,-48.900763358778626,-27.129770992366414,0.0
13.670000791549683,-11.202469567871093,4.139574670410156,1.7621324218749999,-28.80916030534351,0.42748091603053434,-3.450381679389313,-10.206481677246094,-0.5674257934570313,1.66636435546875,37.06870229007634,-46.732824427480914,-26.244274809160306,0.0
13.680000305175781,-12.801796276855468,4.73094248046875,2.602497204589844,-36.13740458015267,2.4122137404580153,-0.8244274809160306,-9.33978067626953,1.0606313354492187,0.7565677246093749,36.88549618320611,-53.86259541984733,-28.427480916030536,0.0
13.690000534057617,-10.500968481445312,4.876988781738281,1.388636962890625,-51.87786259541985,-6.473282442748092,2.183206106870229,-9.409212524414063,1.0630255371093749,1.3287819213867187,31.755725190839694,-48.091603053435115,-30.549618320610687,0.0
13.700000286102295,-8.9255837890625,2.0781670410156248,0.062249243164062495,-50.778625954198475,-8.045801526717558,8.717557251908397,-10.144232434082031,-1.1109095703125,1.9895815795898437,34.47328244274809,-47.74045801526717,-28.091603053435115,0.0
13.71000051498413,-7.584830859375,0.296881005859375,-0.33518823242187495,-32.916030534351144,1.5267175572519085,9.267175572519085,-8.710105639648438,-0.36391865234375,1.9105729248046874,36.3206106870229,-57.083969465648856,-32.12213740458015,0.0
13.720000505447388,-6.849810949707031,-0.181959326171875,-0.7517793212890624,-15.206106870229007,10.50381679389313,4.748091603053435,-8.846575134277343,-0.34237083740234375,2.50912333984375,38.47328244274809,-51.49618320610687,-35.16030534351145,0.0
13.730000257492065,-9.548076220703125,2.327164013671875,0.7110778930664062,-21.16030534351145,17.083969465648856,-1.3282442748091603,-9.469067565917967,-0.9026140258789062,2.473210314941406,39.587786259541986,-53.66412213740458,-35.83206106870229,0.0
13.740000247955322,-9.406818322753905,1.8315642700195311,0.9074024291992187,-26.33587786259542,16.366412213740457,-1.3282442748091603,-7.896077075195312,0.27293898925781246,2.1811177124023438,33.267175572519086,-51.63358778625954,-38.045801526717554,0.0
13.750000476837158,-9.047688073730468,0.5219359619140624,0.6416460449218749,-30.198473282442748,18.0,1.816793893129771,-9.282319836425781,-0.3950432739257812,2.7437551025390623,32.0763358778626,-45.87786259541985,-34.717557251908396,0.0
13.760001182556152,-9.916783276367187,1.139639990234375,1.2593500732421874,-29.893129770992367,23.954198473282442,-1.0381679389312977,-8.506598498535157,0.5099649536132812,2.6240450195312497,33.908396946564885,-47.12977099236641,-34.06106870229008,0.0
13.77000093460083,-10.026916552734374,1.1755530151367186,1.0582371337890624,-30.99236641221374,25.770992366412212,-2.351145038167939,-7.989450939941406,1.8195932617187498,1.7453730102539062,27.6793893129771,-41.02290076335878,-34.54961832061068,0.0
13.780000925064087,-8.95670841064453,-0.3184288208007812,-0.0143652099609375,-22.137404580152673,28.916030534351144,-1.6793893129770991,-7.019799267578125,0.9696516723632812,2.7964275390625,19.389312977099237,-32.97709923664122,-30.885496183206108,0.0
13.790000677108765,-8.671798413085938,-0.5889736083984375,0.3591302490234375,-13.893129770992367,36.50381679389313,-4.183206106870229,-5.7508723876953125,2.1930887207031247,1.9608511596679685,15.526717557251908,-32.534351145038165,-28.82442748091603,0.0
13.8000009059906,-9.093177905273437,1.3862427612304686,0.40222587890625,-12.732824427480915,37.89312977099237,-8.610687022900763,-6.720524060058593,1.1109095703125,2.6623522460937497,9.297709923664122,-20.061068702290076,-25.61832061068702,0.0
13.810000658035278,-9.028534460449219,0.7757213378906249,0.4644751220703125,-11.526717557251908,37.541984732824424,-8.473282442748092,-7.692569934082031,0.055066638183593745,2.422932080078125,12.534351145038167,-18.442748091603054,-22.595419847328245,0.0
13.820000410079956,-10.429142431640624,1.2330138549804688,1.5179238525390624,-6.5038167938931295,41.86259541984733,-10.305343511450381,-6.5385647338867185,0.4572925170898437,2.6096798095703124,12.122137404580153,-16.045801526717558,-22.50381679389313,0.0
13.830000400543213,-10.299855541992187,1.3718775512695311,1.3168109130859373,-11.389312977099237,37.282442748091604,-10.564885496183207,-7.280767248535156,0.33518823242187495,2.3343466186523436,14.061068702290076,-12.076335877862595,-21.251908396946565,0.0
13.840000867843628,-10.742782849121093,1.1109095703125,2.094926452636719,-9.877862595419847,37.267175572519086,-10.335877862595419,-6.816292126464844,0.41898529052734373,2.540247961425781,11.908396946564885,-7.755725190839694,-19.31297709923664,0.0
13.850000619888306,-9.93354268798828,0.40222587890625,2.422932080078125,-1.4198473282442747,38.79389312977099,-9.755725190839694,-7.098807922363281,0.6607996582031249,2.6096798095703124,12.564885496183207,-4.458015267175573,-17.022900763358777,0.0
13.860000610351562,-9.758765966796874,0.9217676391601562,3.019088293457031,3.633587786259542,39.587786259541986,-11.511450381679388,-6.404489440917969,1.3431471313476562,2.2098481323242187,9.374045801526718,-3.435114503816794,-16.12213740458015,0.0
13.87000060081482,-9.464279162597656,1.3048399047851562,3.239354846191406,6.183206106870229,38.47328244274809,-12.763358778625955,-5.2433016357421875,2.109291662597656,2.0470424194335934,-2.2595419847328246,4.687022900763359,-14.702290076335878,0.0
13.880000352859497,-9.284714038085937,1.388636962890625,3.4739866088867184,8.473282442748092,36.412213740458014,-12.381679389312977,-7.848193041992187,0.718260498046875,3.4356793823242184,-8.366412213740459,16.870229007633586,-8.778625954198473,0.0
13.890000820159912,-9.9981861328125,2.1404162841796874,3.699041564941406,9.48091603053435,34.900763358778626,-12.290076335877863,-6.4739212890625,0.01915361328125,2.602497204589844,-10.625954198473282,11.770992366412214,-8.290076335877863,0.0
13.90000057220459,-9.885658654785155,2.2290017456054687,4.1563340820312495,6.396946564885496,28.748091603053435,-12.030534351145038,-6.792350109863281,0.8044517578125,3.622427111816406,-10.931297709923664,16.061068702290076,-6.030534351145038,0.0
13.910000801086426,-10.759542260742187,2.013523596191406,5.044582897949218,5.206106870229007,25.66412213740458,-10.687022900763358,-5.343858105468749,0.9888052856445312,1.7357962036132812,-17.14503816793893,17.114503816793892,-5.603053435114504,0.0
13.920000314712524,-8.889670764160156,1.8914193115234375,5.336675500488281,9.267175572519085,18.763358778625953,-8.442748091603054,-5.990292553710937,1.4915876342773438,0.7924807495117187,-19.755725190839694,22.580152671755727,-3.6030534351145036,0.0
13.93000054359436,-11.6837041015625,3.246537451171875,6.804321118164062,6.137404580152672,15.755725190839694,-10.992366412213741,-5.1714755859374995,2.4564509033203126,-0.15562310791015624,-27.328244274809162,28.931297709923665,-2.6717557251908395,0.0
13.940000772476196,-10.618284362792968,2.50912333984375,6.3901242309570305,0.8702290076335878,2.6412213740458017,-7.358778625954199,-5.159504577636718,2.592920397949219,-0.5770026000976562,-37.404580152671755,42.88549618320611,1.3435114503816794,0.0
13.950000524520874,-9.988609326171874,1.1013327636718748,6.038176586914062,5.1603053435114505,-8.122137404580153,-3.633587786259542,-5.980715747070312,0.97683427734375,-1.5370774658203123,-38.656488549618324,53.11450381679389,7.740458015267175,0.0
13.96000051498413,-9.969455712890625,0.5674257934570313,5.877765075683594,12.50381679389313,-15.755725190839694,-4.99236641221374,-5.791573815917968,1.3024457031249999,-3.0023288818359375,-30.18320610687023,58.61068702290076,9.007633587786259,0.0
13.970000505447388,-10.551246716308594,1.6472107421875,6.660669018554687,16.18320610687023,-22.03053435114504,-7.541984732824427,-5.1523219726562495,1.8746598999023436,-3.7038299682617186,-26.061068702290076,72.33587786259542,10.259541984732824,0.0
13.980000257492065,-11.018116040039061,0.9145850341796874,7.278373046874999,20.580152671755727,-29.6793893129771,-7.648854961832061,-7.905653881835937,-0.4477157104492187,-1.2713210815429687,-19.404580152671755,79.98473282442748,15.34351145038168,0.0
13.990000486373901,-12.504915270996094,2.176329309082031,7.536946826171874,21.984732824427482,-42.778625954198475,-10.67175572519084,-9.674968908691406,-2.6479870361328124,0.39264907226562495,-24.0,82.42748091603053,7.893129770992366,0.0
14.000000476837158,-14.085088366699217,3.8762124877929685,8.911218579101561,11.221374045801527,-59.70992366412214,-13.694656488549619,-13.596671228027343,-6.6271501953125,2.051830822753906,-23.282442748091604,89.05343511450381,-1.5114503816793894,0.0
14.010000705718994,-14.93263575439453,3.411737365722656,10.350133776855468,8.183206106870228,-83.14503816793894,-10.65648854961832,-15.473725329589843,-7.199364392089843,3.0693665283203124,-11.679389312977099,84.76335877862596,-5.709923664122138,0.0
14.02000093460083,-15.588647009277343,2.384624853515625,10.68053360595703,25.572519083969464,-100.6412213740458,-7.236641221374046,-17.714698083496092,-6.744466076660156,4.740519287109374,13.435114503816793,75.69465648854961,-9.145038167938932,0.0
14.030000686645508,-17.520767749023438,3.2321722412109373,11.358092675781249,33.282442748091604,-119.37404580152672,-8.106870229007633,-17.946935644531248,-4.410119458007812,5.719747766113281,41.14503816793893,59.908396946564885,-9.541984732824428,0.0
14.040000915527344,-18.97404815673828,3.0454245117187497,12.732364428710937,23.81679389312977,-154.12213740458014,-7.221374045801527,-16.01720910644531,-0.5961562133789062,4.76924970703125,68.0,42.38167938931298,-5.374045801526718,0.0
14.050000429153442,-18.440141186523437,-0.07422025146484375,11.908759057617187,40.33587786259542,-181.9083969465649,5.038167938931298,-11.690886706542969,3.0430303100585934,2.806004345703125,70.51908396946565,31.374045801526716,-0.4732824427480916,0.0
14.060000658035278,-17.90862841796875,-1.3311761230468748,9.849745629882811,56.900763358778626,-197.32824427480915,17.72519083969466,-6.5026517089843745,7.254431030273437,0.4836287353515625,46.045801526717554,34.19847328244275,3.5572519083969465,0.0
14.070000648498535,-16.249446667480466,-2.4516625,5.159504577636718,46.93129770992366,-214.13740458015266,25.267175572519083,-6.818686328125,7.0844427124023435,-0.9265560424804687,17.801526717557252,48.01526717557252,12.793893129770993,0.0
14.080000638961792,-15.081076257324218,-2.8323405639648436,-0.35194764404296874,28.12213740458015,-226.76335877862596,23.709923664122137,-5.456385583496093,5.729324572753906,-2.3415292236328122,-16.717557251908396,55.954198473282446,19.572519083969464,0.0
14.090000629425049,-12.057199560546874,-2.9664158569335934,-5.377376928710937,17.572519083969464,-230.15267175572518,17.52671755725191,-7.656656909179687,3.038241906738281,-1.8076222534179687,-46.213740458015266,73.58778625954199,25.633587786259543,0.0
14.100000619888306,-8.614337573242187,-4.668693237304687,-5.990292553710937,25.770992366412212,-219.1908396946565,12.564885496183207,-8.647856396484375,0.3327940307617187,-2.8227637573242186,-57.969465648854964,77.08396946564885,28.946564885496183,0.0
14.110000848770142,-7.805097412109374,-6.926425402832031,-5.130774157714844,58.76335877862596,-186.68702290076337,8.687022900763358,-12.00213292236328,-3.5865140869140624,-0.5506663818359374,-64.38167938931298,92.25954198473282,33.89312977099237,0.0
14.12000060081482,-8.884882360839843,-5.84185205078125,-5.382165332031249,79.14503816793894,-165.84732824427482,-0.6870229007633588,-12.30859073486328,-6.375759020996093,1.7525556152343749,-45.66412213740458,95.08396946564885,34.595419847328245,0.0
14.130000352859497,-9.485826977539062,-4.276044165039062,-3.0813375366210938,96.82442748091603,-143.81679389312978,-12.305343511450381,-11.054029064941405,-5.176263989257812,0.36631285400390623,-19.954198473282442,77.23664122137404,24.625954198473284,0.0
14.140000343322754,-10.357316381835936,-2.262520568847656,-1.3359645263671873,115.43511450381679,-116.97709923664122,-19.862595419847327,-9.926360083007811,-2.9951462768554684,-0.033518823242187495,-11.954198473282442,74.61068702290076,17.83206106870229,0.0
14.150000810623169,-12.20085166015625,1.1372457885742187,1.254561669921875,119.34351145038168,-100.7175572519084,-22.580152671755727,-8.767566479492187,-2.8993782104492185,-0.5602431884765625,-7.190839694656488,73.63358778625954,17.801526717557252,0.0
14.160000562667847,-12.287042919921875,4.766855505371093,3.0071172851562498,102.35114503816794,-92.83969465648855,-18.458015267175572,-10.299855541992187,-5.204994409179688,0.33758243408203126,-0.33587786259541985,71.61832061068702,21.923664122137403,0.0
14.170000791549683,-10.381258398437499,4.472368701171875,1.8315642700195311,78.68702290076335,-96.3969465648855,-6.763358778625954,-6.629544396972656,-1.1731588134765625,-2.408566870117187,6.305343511450381,53.52671755725191,14.076335877862595,0.0
14.18000054359436,-7.922413293457031,5.542576843261719,1.4245499877929686,51.603053435114504,-85.31297709923665,-0.8549618320610687,-6.457161877441406,2.6096798095703124,-3.2824504760742186,-34.01526717557252,72.19847328244275,13.526717557251908,0.0
14.190000534057617,-8.815450512695312,6.643909606933593,0.5770026000976562,14.183206106870228,-82.74809160305344,1.450381679389313,-8.480262280273436,-0.6105214233398437,-1.5107412475585937,-40.67175572519084,87.58778625954199,21.46564885496183,0.0
14.200000524520874,-6.41646044921875,3.7995980346679685,-0.9744400756835937,-13.267175572519085,-82.09160305343511,8.977099236641221,-10.022128149414062,-2.9831752685546875,-0.6727706665039062,-25.908396946564885,84.4885496183206,27.69465648854962,0.0
14.21000051498413,-3.8043864379882812,0.5099649536132812,-2.839523168945312,-15.19083969465649,-68.16793893129771,13.34351145038168,-10.122684619140625,-2.3678654418945313,0.016759411621093748,-22.595419847328245,89.31297709923665,25.404580152671755,0.0
14.220000505447388,-2.712630480957031,-1.6160861206054686,-3.660734338378906,-8.16793893129771,-54.67175572519084,12.50381679389313,-7.4028715332031245,-0.3112462158203125,-2.0638018310546875,-6.305343511450381,78.8854961832061,18.9618320610687,0.0
14.230000495910645,-2.7078420776367187,-0.1771709228515625,-3.071760729980469,3.2977099236641223,-30.53435114503817,6.106870229007634,-9.91438907470703,-3.6248213134765623,-0.031124621582031248,-1.099236641221374,84.68702290076335,22.137404580152673,0.0
14.240000486373901,-2.583343591308594,1.254561669921875,-3.2058360229492187,-8.442748091603054,-23.770992366412212,1.2671755725190839,-8.798691101074219,-2.023100402832031,0.2705447875976562,15.129770992366412,79.34351145038168,20.38167938931298,0.0
14.250000476837158,-2.4875755249023435,1.7717092285156248,-3.3446997192382812,-15.19083969465649,-10.580152671755725,3.236641221374046,-10.158597644042969,-3.066972326660156,1.5969325073242187,24.916030534351144,71.52671755725191,20.18320610687023,0.0
14.260000944137573,-1.5442600708007812,1.7286135986328124,-3.9815573608398434,-22.290076335877863,3.0229007633587788,6.488549618320611,-10.196904870605469,-0.6464344482421874,0.8810662109374999,32.83969465648855,61.83206106870229,16.83969465648855,0.0
14.270000696182251,-0.3950432739257812,1.6328455322265625,-3.7804444213867185,-24.763358778625953,25.206106870229007,8.488549618320612,-10.115502014160155,-0.967257470703125,1.8914193115234375,25.862595419847327,62.2442748091603,17.786259541984734,0.0
14.280000925064087,-1.3431471313476562,1.1875240234375,-2.959233251953125,-36.778625954198475,43.603053435114504,7.587786259541985,-9.382876306152344,-1.5682020874023437,1.350329736328125,41.61832061068702,52.82442748091603,17.83206106870229,0.0
14.290000677108765,-1.9871873779296874,0.93852705078125,-1.3239935180664062,-48.50381679389313,58.732824427480914,4.595419847328245,-9.22485899658203,-0.011971008300781249,0.14125789794921875,46.44274809160305,42.274809160305345,16.47328244274809,0.0
14.3000009059906,-2.7174188842773437,0.9624690673828125,0.28969840087890625,-57.343511450381676,72.0,2.381679389312977,-9.3852705078125,1.1061211669921875,0.26336218261718747,33.05343511450382,41.80152671755725,14.396946564885496,0.0
14.310000658035278,-2.7748797241210936,0.06703764648437499,2.8227637573242186,-56.25954198473283,81.93893129770993,1.4351145038167938,-13.407529296875,-1.4317325927734375,3.785232824707031,32.778625954198475,49.267175572519086,18.259541984732824,0.0
14.320000410079956,-3.21780703125,-0.6823474731445313,5.157110375976562,-43.74045801526717,92.59541984732824,3.6030534351145036,-11.487379565429686,-1.5322890624999999,3.6272155151367187,30.27480916030534,43.969465648854964,18.12213740458015,0.0
14.330000638961792,-3.957615344238281,0.36391865234375,7.50821640625,-21.129770992366414,100.38167938931298,6.809160305343512,-10.764330664062498,0.40222587890625,2.01112939453125,24.18320610687023,37.86259541984733,16.15267175572519,0.0
14.340000629425049,-5.334281298828125,1.2473790649414063,11.054029064941405,5.847328244274809,103.12977099236642,11.679389312977099,-13.034033837890624,-2.612074011230469,5.418078356933593,21.053435114503817,49.64885496183206,22.106870229007633,0.0
14.350000619888306,-7.45075556640625,2.8754361938476563,14.793772058105468,24.259541984732824,94.30534351145039,18.12213740458015,-9.708487731933593,-3.385401147460937,2.6240450195312497,53.541984732824424,25.297709923664122,16.732824427480917,0.0
14.360000610351562,-10.345345373535155,5.3199160888671875,17.61414161376953,28.748091603053435,80.22900763358778,20.793893129770993,-11.355698474121093,-4.309562988281249,4.012681982421875,66.53435114503817,18.916030534351144,15.267175572519085,0.0
14.37000060081482,-6.773196496582031,3.27526787109375,14.666879370117186,9.541984732824428,46.396946564885496,22.015267175572518,-8.049305981445311,0.74699091796875,1.0893617553710937,66.99236641221374,6.351145038167939,3.114503816793893,0.0
14.380000829696655,-9.658209497070311,5.7317187744140625,14.982913989257812,-26.946564885496183,26.38167938931298,12.595419847328245,-7.867346655273437,4.568136767578125,0.967257470703125,26.793893129770993,15.007633587786259,0.5038167938931297,0.0
14.390000820159912,-8.971073620605468,3.440467785644531,12.914323754882812,-56.961832061068705,-0.549618320610687,8.80916030534351,-10.000580334472655,5.501875415039062,1.3910311645507811,4.2748091603053435,31.068702290076335,7.816793893129771,0.0
14.40000033378601,-7.5465236328125,-1.5251064575195312,12.152967626953124,-35.770992366412216,-7.297709923664122,13.404580152671755,-11.5304751953125,5.279214660644531,1.3431471313476562,-10.82442748091603,29.755725190839694,18.931297709923665,0.0
14.410000801086426,-8.480262280273436,-2.7437551025390623,11.8369330078125,7.969465648854962,-12.687022900763358,15.16030534351145,-11.518504187011718,2.214636535644531,3.4356793823242184,-31.908396946564885,37.66412213740458,30.412213740458014,0.0
14.420000553131104,-11.549628808593749,-2.789244934082031,10.560823522949217,52.06106870229008,-18.549618320610687,19.770992366412212,-10.079588989257813,0.01915361328125,2.023100402832031,-47.038167938931295,31.099236641221374,33.05343511450382,0.0
14.43000078201294,-20.604499487304686,0.8714894042968749,8.01818135986328,74.01526717557252,-5.923664122137405,23.267175572519083,-12.76827745361328,-1.0965443603515623,0.8451531860351562,-58.6412213740458,27.557251908396946,35.23664122137404,0.0
14.440000772476196,-26.86054842529297,0.0383072265625,9.121908325195312,73.8473282442748,-11.48091603053435,28.106870229007633,-13.618219042968748,-2.059013427734375,0.8044517578125,-72.85496183206106,27.81679389312977,35.3587786259542,0.0
14.450000524520874,-29.04884874267578,-3.299209887695312,11.487379565429686,69.6793893129771,-16.82442748091603,23.022900763358777,-15.619771630859374,-4.69263525390625,2.152387292480469,-71.66412213740458,24.229007633587788,34.82442748091603,0.0
14.46000051498413,-23.963564416503903,-4.390965844726562,7.168239770507812,76.68702290076335,-26.870229007633586,14.412213740458014,-16.065093139648436,-4.589684582519531,2.849099975585937,-66.29007633587786,6.99236641221374,27.419847328244273,0.0
14.470000505447388,-13.4458365234375,-1.197100830078125,-3.900154504394531,105.86259541984732,-10.961832061068701,21.81679389312977,-17.99003127441406,-2.683900061035156,2.779668127441406,-49.87786259541985,-11.725190839694656,16.977099236641223,0.0
14.480000495910645,-6.406883642578125,1.3359645263671873,-8.86094034423828,95.61832061068702,-5.938931297709924,14.16793893129771,-18.861520678710935,-5.1523219726562495,3.337517114257812,-37.64885496183206,-31.14503816793893,11.801526717557252,0.0
14.490000247955322,0.6703764648437499,-3.337517114257812,-8.0828248046875,74.73282442748092,-6.442748091603053,2.015267175572519,-18.990807568359372,-1.1180921752929687,0.06943184814453125,-27.129770992366414,-65.12977099236642,5.099236641221374,0.0
14.500000476837158,0.2920926025390625,0.3902548706054687,-6.284779357910156,64.93129770992367,9.48091603053435,-17.129770992366414,-17.53752716064453,2.2098481323242187,-1.4317325927734375,-14.229007633587786,-82.97709923664122,5.00763358778626,0.0
14.510000705718994,-2.5953145996093747,5.418078356933593,-7.184999182128906,29.541984732824428,21.236641221374047,-33.770992366412216,-16.546327673339842,2.35589443359375,-1.7453730102539062,7.66412213740458,-95.5114503816794,7.877862595419847,0.0
14.52000093460083,0.9313444458007812,-0.5195417602539062,-11.710040319824218,14.82442748091603,36.56488549618321,-28.47328244274809,-13.242329382324218,4.127603662109375,-2.288856787109375,5.465648854961832,-109.08396946564885,5.1603053435114505,0.0
14.530000686645508,-4.2305543334960936,0.5913678100585937,-9.926360083007811,26.290076335877863,81.96946564885496,-32.88549618320611,-9.440337145996093,2.722207287597656,-3.5290532470703124,16.625954198473284,-131.54198473282443,-1.099236641221374,0.0
14.540000915527344,-7.278373046874999,2.6312276245117188,-7.5537062377929685,23.69465648854962,108.4885496183206,-41.00763358778626,-13.271059802246093,0.4860229370117187,-1.6232687255859375,8.625954198473282,-120.01526717557252,1.0229007633587786,0.0
14.550000667572021,-12.421118212890624,4.189852905273438,-2.2361843505859373,12.473282442748092,131.9083969465649,-42.44274809160305,-8.712499841308594,2.0638018310546875,-2.133233679199219,-8.274809160305344,-117.43511450381679,-3.145038167938931,0.0
14.560001134872437,-13.524845178222655,4.3454760131835934,0.7015010864257812,-7.694656488549619,138.15267175572518,-39.43511450381679,-7.762001782226562,3.3255461059570313,-3.3399113159179685,-23.587786259541986,-113.78625954198473,-7.679389312977099,0.0
14.570000648498535,-13.426682910156249,4.8123453369140625,2.980781066894531,-30.03053435114504,138.9618320610687,-39.17557251908397,-8.647856396484375,1.2282254516601563,-2.31758720703125,-33.49618320610687,-107.61832061068702,-5.312977099236641,0.0
14.580000400543213,-12.789825268554686,4.271255761718749,3.574543078613281,-67.20610687022901,123.00763358778626,-37.66412213740458,-8.20971749267578,3.3255461059570313,-2.710236279296875,-40.412213740458014,-107.46564885496183,-6.183206106870229,0.0
14.590000867843628,-10.175357055664062,1.2473790649414063,2.2361843505859373,-82.51908396946565,108.33587786259542,-32.29007633587786,-10.474632263183594,1.946485949707031,-1.2473790649414063,-49.541984732824424,-94.25954198473282,-0.48854961832061067,0.0
14.600000858306885,-8.971073620605468,-1.0079588989257813,1.6543933471679686,-75.80152671755725,103.57251908396947,-27.129770992366414,-10.000580334472655,1.8219874633789062,-2.0781670410156248,-45.221374045801525,-95.26717557251908,1.5419847328244274,0.0
14.610000610351562,-7.943961108398437,-1.0342951171875,1.1133037719726562,-58.88549618320611,99.87786259541984,-27.14503816793893,-9.79946739501953,3.0597897216796874,-2.152387292480469,-48.3206106870229,-92.35114503816794,1.0687022900763359,0.0
14.62000060081482,-9.89523546142578,0.46686932373046874,2.3056161987304686,-49.63358778625954,95.61832061068702,-25.938931297709924,-10.498574279785156,2.1308394775390624,-2.185906115722656,-39.16030534351145,-86.7175572519084,-0.7786259541984732,0.0
14.630000591278076,-8.755595471191405,-0.1388636962890625,1.7669208251953124,-43.954198473282446,84.36641221374046,-21.221374045801525,-10.165780249023436,2.051830822753906,-1.9919757812499999,-37.908396946564885,-85.77099236641222,-2.3969465648854964,0.0
14.640000581741333,-12.246341491699217,2.3223756103515623,3.806780639648437,-43.12977099236641,80.44274809160305,-18.99236641221374,-8.719682446289061,3.69664736328125,-3.201047619628906,-36.961832061068705,-84.06106870229007,-9.34351145038168,0.0
14.650000810623169,-9.670180505371093,1.1252747802734375,3.603273498535156,-50.961832061068705,62.412213740458014,-14.106870229007633,-9.131485131835937,1.9728221679687499,-2.5905261962890624,-35.3587786259542,-75.55725190839695,-9.099236641221374,0.0
14.660000562667847,-8.884882360839843,-1.024718310546875,2.839523168945312,-45.66412213740458,51.70992366412214,-9.618320610687023,-7.017405065917968,2.272097375488281,-2.2481553588867187,-39.083969465648856,-71.29770992366412,-7.984732824427481,0.0
14.670000791549683,-9.6917283203125,-1.1037269653320312,2.8898014038085935,-33.52671755725191,47.603053435114504,-9.938931297709924,-8.645462194824217,-0.2442085693359375,-0.7613561279296874,-34.656488549618324,-58.29007633587786,-6.885496183206107,0.0
14.68000078201294,-9.009380847167968,-1.3192051147460937,2.3630770385742186,-22.702290076335878,43.083969465648856,-12.320610687022901,-8.183381274414062,-0.37828386230468747,-0.1197100830078125,-27.923664122137403,-60.99236641221374,-8.076335877862595,0.0
14.690000534057617,-9.794678991699218,0.4261678955078125,2.786850732421875,-15.19083969465649,41.847328244274806,-14.351145038167939,-8.501810095214843,-1.20667763671875,0.5339069702148437,-18.33587786259542,-57.87786259541985,-12.320610687022901,0.0
14.700000524520874,-11.597512841796874,1.7334020019531249,2.89219560546875,-19.64885496183206,37.48091603053435,-14.274809160305344,-8.595183959960938,-1.139639990234375,0.6512228515624999,-11.572519083969466,-58.85496183206107,-15.694656488549619,0.0
14.71000051498413,-11.159373937988281,2.427720483398437,3.3159692993164063,-12.702290076335878,37.11450381679389,-10.778625954198473,-8.724470849609375,-2.224213342285156,1.199495031738281,-4.091603053435114,-56.961832061068705,-18.50381679389313,0.0
14.720000505447388,-11.84890401611328,3.859453076171875,3.574543078613281,-20.213740458015266,31.450381679389313,-8.106870229007633,-10.036493359375,-1.4939818359375,0.5458779785156249,7.755725190839694,-62.412213740458014,-20.85496183206107,0.0
14.730000495910645,-9.655815295410155,2.109291662597656,1.3239935180664062,-27.557251908396946,20.091603053435115,-3.4198473282442747,-9.785102185058593,0.21308394775390624,0.8714894042968749,6.870229007633588,-61.14503816793893,-24.259541984732824,0.0
14.740000247955322,-11.623849060058593,3.758896606445312,2.291250988769531,-33.89312977099237,19.541984732824428,0.3511450381679389,-9.849745629882811,-0.7038952880859375,0.7134720947265625,9.572519083969466,-59.3587786259542,-24.778625954198475,0.0
14.750000476837158,-7.860164050292968,1.62805712890625,0.22026655273437498,-39.099236641221374,16.671755725190838,0.8396946564885496,-9.866505041503906,0.45010991210937495,0.45968671875,10.16793893129771,-66.36641221374046,-28.076335877862597,0.0
14.760000944137573,-10.491391674804687,4.6830584472656245,1.7357962036132812,-47.6793893129771,20.35114503816794,-2.366412213740458,-10.381258398437499,-0.603338818359375,1.2114660400390624,11.725190839694656,-60.48854961832061,-30.076335877862597,0.0
14.770000696182251,-10.613495959472656,4.474762902832031,0.814028564453125,-67.09923664122137,13.618320610687023,-1.6488549618320612,-10.338162768554687,0.201112939453125,0.6536170532226562,15.34351145038168,-68.27480916030534,-33.14503816793893,0.0
14.780000925064087,-9.006986645507812,3.162740393066406,-0.44053310546874996,-69.16030534351145,11.511450381679388,2.9770992366412212,-9.873687646484374,0.36391865234375,1.0510545288085937,10.244274809160306,-62.6412213740458,-36.61068702290076,0.0
