timestamp,Thigh_L_Acc_X,Thigh_L_Acc_Y,Thigh_L_Acc_Z,Thigh_L_Gyr_X,Thigh_L_Gyr_Y,Thigh_L_Gyr_Z,Thigh_R_Acc_X,Thigh_R_Acc_Y,Thigh_R_Acc_Z,Thigh_R_Gyr_X,Thigh_R_Gyr_Y,Thigh_R_Gyr_Z,gpio_output
10.000000715255737,-8.547299926757812,0.6296750366210937,0.8762778076171874,-2.0,51.64885496183206,-11.221374045801527,-9.179369165039063,2.35589443359375,1.3168109130859373,-13.603053435114504,46.74809160305343,26.061068702290076,0.0
10.010000944137573,-10.51533369140625,1.0869675537109373,1.5011644409179687,-0.15267175572519084,50.900763358778626,-13.86259541984733,-9.598354455566406,0.7398083129882812,1.4173673828125,-12.961832061068701,44.67175572519084,28.99236641221374,1.0
10.020000696182251,-9.866505041503906,1.5682020874023437,1.4963760375976562,-0.9312977099236641,43.969465648854964,-13.221374045801527,-10.534487304687499,-0.9337386474609375,2.7054478759765623,-5.343511450381679,40.88549618320611,31.954198473282442,1.0
10.030000925064087,-10.115502014160155,2.205059729003906,2.0302830078125,-2.8091603053435112,40.82442748091603,-12.763358778625955,-8.889670764160156,0.5123591552734374,1.2473790649414063,-2.3053435114503817,28.244274809160306,26.091603053435115,1.0
10.040000438690186,-10.307038146972655,3.1292215698242187,2.6001030029296874,-4.702290076335878,41.20610687022901,-13.129770992366412,-8.686163623046875,0.9457096557617187,1.3958195678710936,-15.526717557251908,28.946564885496183,25.358778625954198,1.0
10.0500009059906,-9.414000927734374,2.5546131713867184,2.2840683837890623,-13.404580152671755,36.152671755725194,-9.587786259541986,-8.63827958984375,0.7398083129882812,1.1875240234375,-25.374045801526716,27.404580152671755,25.480916030534353,1.0
10.060000658035278,-9.76116016845703,2.664746447753906,2.5163059448242184,-19.19083969465649,33.954198473282446,-9.206106870229007,-9.777919580078125,-0.46208092041015625,1.7094599853515624,-28.259541984732824,24.80916030534351,26.366412213740457,1.0
10.070000648498535,-9.751583361816406,2.4133552734375,2.5163059448242184,-22.885496183206108,31.572519083969464,-8.305343511450381,-9.643844287109374,-1.1444283935546875,1.8459294799804686,-31.34351145038168,20.27480916030534,24.47328244274809,1.0
10.080000638961792,-10.40041201171875,2.597708801269531,2.4253262817382812,-27.709923664122137,28.778625954198475,-7.511450381679389,-9.995791931152343,-1.8171990600585937,1.9776105712890624,-30.27480916030534,16.549618320610687,21.96946564885496,1.0
10.090000629425049,-9.868899243164062,2.1715409057617188,1.9201497314453124,-27.709923664122137,26.977099236641223,-5.7251908396946565,-9.928754284667969,-1.9847931762695312,1.889025109863281,-28.65648854961832,12.412213740458014,19.282442748091604,1.0
10.100000381469727,-10.326191760253906,2.731784094238281,1.5849614990234373,-30.916030534351144,25.206106870229007,-5.557251908396947,-10.599130749511717,-2.5857377929687497,2.118868469238281,-24.610687022900763,10.687022900763358,16.80916030534351,1.0
10.110000610351562,-10.08677159423828,1.9943699829101562,1.3934253662109375,-31.603053435114504,22.366412213740457,-4.137404580152672,-11.238382592773437,-3.5242648437499997,2.6862942626953124,-14.061068702290076,6.412213740458015,14.854961832061068,1.0
10.12000060081482,-10.187328063964843,2.090138049316406,1.4101847778320311,-30.65648854961832,21.389312977099237,-3.7251908396946565,-12.150573425292968,-2.511517541503906,2.6719290527343746,-6.3816793893129775,1.0381679389312977,11.358778625954198,1.0
10.130000591278076,-10.172962854003906,2.212242333984375,1.7836802368164062,-30.65648854961832,19.51145038167939,-2.6412213740458017,-9.507374792480467,-1.5251064575195312,2.4684219116210935,-9.16030534351145,-5.6183206106870225,5.3893129770992365,1.0
10.140000820159912,-10.603919152832031,2.9735984619140625,2.104503259277344,-36.534351145038165,16.16793893129771,-1.4809160305343512,-11.0707884765625,-0.6440402465820312,2.1404162841796874,-13.465648854961833,-4.8396946564885495,4.213740458015267,1.0
10.15000057220459,-9.715670336914062,0.9002198242187499,1.7022773803710936,-32.47328244274809,15.923664122137405,0.9465648854961832,-11.611878051757811,-1.62805712890625,2.8802245971679685,-13.557251908396946,-3.0839694656488548,6.061068702290076,1.0
10.160000801086426,-9.591171850585937,0.8355763793945312,1.8339584716796873,-26.50381679389313,16.427480916030536,0.4122137404580153,-10.321403356933594,-2.1715409057617188,1.9393033447265624,-9.34351145038168,-11.19083969465649,2.50381679389313,1.0
10.170000314712524,-10.156203442382813,2.346317626953125,2.147598889160156,-26.53435114503817,14.778625954198473,-0.5038167938931297,-10.647014782714843,-1.5610194824218748,1.8339584716796873,-0.9770992366412213,-15.435114503816793,0.22900763358778625,1.0
10.18000078201294,-9.988609326171874,3.028665100097656,2.1404162841796874,-34.12213740458015,8.65648854961832,1.7557251908396947,-10.685322009277343,-0.5410895751953124,2.2026655273437497,5.282442748091603,-16.595419847328245,0.21374045801526717,1.0
10.190000295639038,-10.826579907226561,2.01112939453125,2.013523596191406,-40.80916030534351,4.793893129770993,4.122137404580153,-9.469067565917967,0.63206923828125,1.1540052001953125,-5.480916030534351,-18.580152671755727,-2.3206106870229006,1.0
10.200000286102295,-10.352527978515624,1.2521674682617188,1.6448165405273436,-40.18320610687023,2.3053435114503817,5.450381679389313,-10.66137999267578,1.3455413330078123,1.8531120849609375,-15.740458015267176,-10.213740458015268,0.9770992366412213,1.0
10.21000051498413,-9.888052856445311,0.296881005859375,1.5490484741210937,-34.12213740458015,3.816793893129771,5.557251908396947,-10.443507641601562,0.373495458984375,2.0063409912109376,-21.83206106870229,-8.351145038167939,3.6946564885496183,0.0
10.220000505447388,-9.1554271484375,-0.6775590698242188,0.0383072265625,-24.3206106870229,2.885496183206107,6.106870229007634,-11.386823095703125,-0.7517793212890624,2.5139117431640625,-14.51908396946565,-7.297709923664122,6.152671755725191,0.0
10.230000495910645,-8.968679418945312,-0.0430956298828125,0.05746083984375,-11.969465648854962,8.931297709923664,2.2900763358778624,-9.131485131835937,-1.5586252807617187,2.6623522460937497,-10.305343511450381,-12.67175572519084,3.7099236641221376,0.0
10.240000486373901,-10.144232434082031,1.9009961181640624,0.39743747558593745,-14.80916030534351,10.061068702290076,-0.04580152671755725,-8.978256225585938,-0.8595183959960937,2.0566192260742184,-7.099236641221374,-14.854961832061068,1.1755725190839694,0.0
10.250000953674316,-9.277531433105468,1.0366893188476562,0.0909796630859375,-14.763358778625955,9.282442748091603,1.7557251908396947,-8.990227233886719,-0.3136404174804687,1.6448165405273436,-8.198473282442748,-14.351145038167939,0.4580152671755725,0.0
10.260000705718994,-9.430760339355468,1.2521674682617188,0.6105214233398437,-16.47328244274809,11.98473282442748,1.5877862595419847,-8.070853796386718,0.9983820922851562,1.0319009155273438,-18.702290076335878,-15.786259541984732,0.5190839694656488,0.0
10.27000093460083,-9.4618849609375,1.5682020874023437,1.0726023437499999,-17.480916030534353,13.786259541984732,1.083969465648855,-8.33182177734375,2.1021090576171875,1.1611878051757811,-31.755725190839694,-8.900763358778626,3.5877862595419847,0.0
10.280000448226929,-9.45470235595703,1.5251064575195312,1.0845733520507812,-19.129770992366414,14.290076335877863,2.6564885496183206,-9.1554271484375,0.8499415893554687,1.2593500732421874,-38.396946564885496,-4.977099236641221,8.900763358778626,0.0
10.290000915527344,-9.49300958251953,1.3287819213867187,0.8882488159179687,-20.244274809160306,14.610687022900763,2.1526717557251906,-9.804255798339844,-0.0909796630859375,1.218648645019531,-37.404580152671755,-4.519083969465649,10.763358778625955,0.0
10.300000667572021,-9.588777648925781,1.3766659545898436,0.7278373046875,-21.14503816793893,14.16793893129771,1.099236641221374,-9.521740002441407,-0.040701428222656245,1.0462661254882812,-35.282442748091604,-4.366412213740458,9.404580152671755,0.0
10.310000658035278,-9.727641345214844,0.9600748657226562,0.7110778930664062,-20.870229007633586,14.67175572519084,0.3053435114503817,-9.543287817382812,-0.18914193115234373,1.1420341918945311,-33.267175572519086,-2.351145038167939,9.49618320610687,0.0
10.320000410079956,-9.605537060546874,0.9241618408203125,0.8451531860351562,-19.129770992366414,15.435114503816793,-0.549618320610687,-9.334992272949219,-0.055066638183593745,0.8906430175781249,-33.43511450381679,-1.9236641221374047,9.17557251908397,0.0
10.330000638961792,-9.5384994140625,1.8555062866210936,0.852335791015625,-20.65648854961832,14.305343511450381,-1.5877862595419847,-9.504980590820312,-0.20350714111328125,0.8307879760742187,-32.35114503816794,-0.9618320610687023,9.404580152671755,0.0
10.34000039100647,-10.149020837402343,1.6639701538085936,1.3958195678710936,-23.389312977099237,14.488549618320612,-1.083969465648855,-9.34696328125,-0.27293898925781246,0.45968671875,-33.83206106870229,0.04580152671755725,8.82442748091603,0.0
10.350000619888306,-9.30147344970703,0.26336218261718747,0.9050082275390624,-18.427480916030536,15.099236641221374,0.0916030534351145,-9.643844287109374,-0.8451531860351562,0.6272808349609375,-33.57251908396947,3.801526717557252,8.580152671755725,0.0
10.360000610351562,-8.94473740234375,1.3910311645507811,0.7852981445312499,-17.862595419847327,14.946564885496183,-2.3969465648854964,-10.534487304687499,-1.6639701538085936,0.6488286499023437,-24.900763358778626,3.786259541984733,7.801526717557252,0.0
10.37000060081482,-10.098742602539062,2.0350714111328125,1.1228805786132812,-23.435114503816795,13.954198473282442,-5.374045801526718,-10.019733947753906,-1.4963760375976562,0.70868369140625,-19.31297709923664,2.4122137404580153,3.877862595419847,0.0
10.380000829696655,-9.591171850585937,1.6232687255859375,0.7709329345703124,-23.541984732824428,14.458015267175572,-4.625954198473282,-10.481814868164061,-1.5969325073242187,1.1109095703125,-14.198473282442748,3.5114503816793894,2.595419847328244,0.0
10.390000820159912,-9.291896643066405,1.5203180541992187,0.7134720947265625,-23.389312977099237,15.877862595419847,-5.847328244274809,-10.867281335449219,-1.5394716674804687,1.5897499023437498,-9.099236641221374,3.633587786259542,0.6106870229007634,0.0
10.400001049041748,-9.943119494628906,2.2840683837890623,0.8858546142578124,-24.061068702290076,17.480916030534353,-5.938931297709924,-9.694122521972655,-0.4165910888671875,1.4508862060546874,-10.106870229007633,0.030534351145038167,-3.5419847328244276,0.0
10.410000324249268,-9.775525378417969,3.1411925781249996,0.7733271362304687,-24.732824427480917,19.267175572519083,-4.442748091603053,-8.729259252929687,-0.1292868896484375,2.2744915771484373,-20.595419847328245,4.427480916030534,-3.9236641221374047,0.0
10.420000553131104,-10.43153663330078,3.2800562744140622,0.622492431640625,-31.755725190839694,17.954198473282442,-1.816793893129771,-11.200075366210937,-0.9026140258789062,2.530671154785156,-17.450381679389313,6.549618320610687,-0.4580152671755725,0.0
10.43000078201294,-9.943119494628906,2.7365724975585937,0.2561795776367187,-34.19847328244275,17.908396946564885,-0.183206106870229,-11.329362255859374,-1.3814543579101561,2.8227637573242186,-14.549618320610687,4.396946564885496,-1.1145038167938932,0.0
10.440000534057617,-10.333374365234375,2.138022082519531,0.2346317626953125,-38.274809160305345,18.091603053435115,1.251908396946565,-10.730811840820312,-1.9776105712890624,3.2537200561523436,-9.786259541984732,-0.24427480916030533,-2.7786259541984735,0.0
10.450000524520874,-9.988609326171874,1.2521674682617188,0.35673604736328124,-37.02290076335878,18.564885496183205,2.0610687022900764,-9.80665,-0.8379705810546875,2.750937707519531,-4.0458015267175576,-8.83969465648855,-5.7251908396946565,0.0
10.46000051498413,-9.672574707031249,0.9409212524414062,0.41419688720703124,-35.083969465648856,19.00763358778626,1.297709923664122,-9.387664709472656,-0.16998831787109375,2.9376854370117185,-8.870229007633588,-9.786259541984732,-6.534351145038168,0.0
10.470000505447388,-10.273519323730468,1.1324573852539062,0.7302315063476562,-38.0763358778626,18.763358778625953,1.0229007633587786,-9.406818322753905,0.2753331909179687,2.7150246826171873,-14.427480916030534,-10.335877862595419,-5.740458015267175,0.0
10.480000495910645,-10.618284362792968,1.0893617553710937,1.2425906616210938,-38.6412213740458,16.85496183206107,0.3816793893129771,-9.011775048828124,0.6847416748046875,1.8291700683593748,-16.83969465648855,-14.900763358778626,-5.145038167938932,0.0
10.490000486373901,-10.211270080566406,0.833182177734375,1.4413093994140624,-35.81679389312977,15.435114503816793,0.015267175572519083,-9.373299499511718,0.718260498046875,2.5570073730468748,-17.297709923664122,-16.30534351145038,-4.427480916030534,0.0
10.500000238418579,-10.615890161132812,0.5746083984375,1.6615759521484375,-33.89312977099237,13.816793893129772,-0.0,-9.126696728515624,0.0526724365234375,2.932897033691406,-22.198473282442748,-15.587786259541986,-1.9083969465648856,0.0
10.510000705718994,-10.532093103027343,0.0383072265625,1.7334020019531249,-29.0381679389313,11.053435114503817,0.6564885496183206,-9.011775048828124,-1.1228805786132812,2.6240450195312497,-14.030534351145038,-20.50381679389313,-0.549618320610687,0.0
10.520000696182251,-10.206481677246094,0.06464344482421874,1.4532804077148436,-21.251908396946565,8.244274809160306,-0.061068702290076333,-10.026916552734374,-0.45968671875,2.85388837890625,-5.938931297709924,-22.3206106870229,-0.9312977099236641,0.0
10.530000925064087,-9.842563024902343,0.3806780639648437,1.2330138549804688,-14.65648854961832,6.259541984732825,-0.44274809160305345,-8.808267907714843,0.4261678955078125,2.540247961425781,-10.427480916030534,-23.053435114503817,-2.9770992366412212,0.0
10.540000677108765,-9.919177478027343,0.7134720947265625,1.3192051147460937,-10.83969465648855,4.67175572519084,-0.8702290076335878,-8.643067993164061,0.488417138671875,1.5729904907226562,-20.16793893129771,-20.625954198473284,-1.9236641221374047,0.0
10.550000667572021,-9.576806640625,1.1013327636718748,1.139639990234375,-7.938931297709924,3.435114503816794,-0.9312977099236641,-8.82263311767578,-0.8020575561523438,2.01112939453125,-25.541984732824428,-13.679389312977099,1.5267175572519085,0.0
10.560000658035278,-10.089165795898436,0.47165772705078124,1.1013327636718748,-5.679389312977099,1.6946564885496183,-0.5190839694656488,-8.796296899414061,-2.1116858642578125,2.0063409912109376,-18.50381679389313,-13.786259541984732,0.1984732824427481,0.0
10.570000886917114,-9.670180505371093,0.031124621582031248,0.7733271362304687,-0.9312977099236641,-0.6106870229007634,-0.8854961832061069,-8.640673791503906,-3.047818713378906,1.8770541015625,-6.99236641221374,-16.717557251908396,-3.3435114503816794,0.0
10.580000400543213,-9.536105212402344,0.34237083740234375,0.4740519287109375,3.801526717557252,0.061068702290076333,-2.2900763358778624,-10.778695874023438,-3.6463691284179687,2.2601263671875,10.763358778625955,-15.129770992366412,-5.236641221374046,0.0
10.590000629425049,-9.56962403564453,1.1109095703125,0.6440402465820312,5.282442748091603,0.366412213740458,-3.969465648854962,-9.83777462158203,-3.277662072753906,1.93451494140625,23.00763358778626,-18.68702290076336,-10.045801526717558,0.0
10.600000619888306,-10.857704528808593,2.7078420776367187,0.9720458740234375,-2.4732824427480917,-1.83206106870229,-4.183206106870229,-9.258377819824219,-2.1811177124023438,1.7166425903320313,28.18320610687023,-19.83206106870229,-13.419847328244275,0.0
10.610000610351562,-10.991779821777342,2.5641899780273434,1.005564697265625,-4.305343511450381,-2.9923664122137406,-1.633587786259542,-7.9463553100585935,-1.2330138549804688,1.3024457031249999,24.442748091603054,-17.267175572519083,-14.534351145038167,0.0
10.62000060081482,-10.66856259765625,2.528276953125,1.2761094848632812,-3.236641221374046,-1.0229007633587786,-0.8549618320610687,-7.750030773925781,-0.3112462158203125,1.4437036010742186,14.50381679389313,-9.648854961832061,-14.366412213740459,0.0
10.630000591278076,-9.102754711914063,0.4644751220703125,0.49320554199218747,4.99236641221374,-0.9618320610687023,0.8396946564885496,-8.437166650390624,-1.6543933471679686,1.5298948608398437,15.84732824427481,-5.587786259541985,-12.992366412213741,0.0
10.640000820159912,-9.117119921875,1.0103531005859374,0.7015010864257812,7.587786259541985,1.099236641221374,-0.8854961832061069,-8.396465222167969,-2.3726538452148436,1.7645266235351562,16.9618320610687,-2.122137404580153,-15.129770992366412,0.0
10.65000033378601,-9.70369932861328,1.2234370483398436,1.1755530151367186,6.778625954198473,-1.3435114503816794,-2.3969465648854964,-8.221688500976562,-2.482787121582031,1.8028338500976562,24.671755725190838,-0.2748091603053435,-18.47328244274809,0.0
10.660000801086426,-9.516951599121093,0.612915625,1.16837041015625,8.610687022900763,-3.49618320610687,-2.9923664122137406,-8.36294639892578,-2.7341782958984373,2.0278888061523435,29.770992366412212,1.099236641221374,-21.083969465648856,0.0
10.670000553131104,-9.356540087890625,0.5027823486328125,1.429338391113281,11.679389312977099,-5.66412213740458,-5.068702290076335,-8.243236315917969,-2.3367408203125,2.0781670410156248,32.82442748091603,2.885496183206107,-23.893129770992367,0.0
10.68000078201294,-9.411606726074218,0.8810662109374999,1.8938135131835936,13.419847328244275,-7.3893129770992365,-7.068702290076335,-8.106766821289062,-1.8914193115234375,2.300827795410156,33.43511450381679,4.0458015267175576,-25.480916030534353,0.0
10.690000295639038,-9.751583361816406,0.9337386474609375,2.3822306518554686,16.778625954198475,-10.488549618320612,-7.9541984732824424,-8.092401611328125,-1.6065093139648436,2.437297290039062,34.274809160305345,5.480916030534351,-25.984732824427482,0.0
10.700000524520874,-9.72285294189453,0.8092401611328125,2.5546131713867184,19.83206106870229,-14.16793893129771,-7.251908396946565,-8.164227661132813,-1.177947216796875,2.607285607910156,36.58015267175573,5.786259541984733,-25.81679389312977,0.0
10.71000051498413,-9.696516723632811,0.6871358764648438,2.750937707519531,24.80916030534351,-16.35114503816794,-6.687022900763359,-8.269572534179687,-0.9265560424804687,2.8658593872070313,38.62595419847328,5.557251908396947,-25.16030534351145,0.0
10.720000267028809,-9.588777648925781,0.5506663818359374,2.9951462768554684,29.16030534351145,-18.427480916030536,-6.564885496183206,-8.322244970703125,-0.6440402465820312,3.2704794677734372,41.23664122137404,4.916030534351145,-23.923664122137403,0.0
10.730000257492065,-10.723629235839843,2.2074539306640624,3.9432501342773434,25.435114503816795,-21.633587786259543,-8.641221374045802,-8.322244970703125,-0.5386953735351562,3.268085266113281,41.89312977099237,4.198473282442748,-22.778625954198475,0.0
10.740000247955322,-10.457872851562499,2.1164742675781247,4.067748620605468,20.717557251908396,-28.68702290076336,-8.259541984732824,-8.176198669433592,-0.0143652099609375,3.0334535034179684,39.20610687022901,3.053435114503817,-21.923664122137403,0.0
10.750000476837158,-10.290278735351562,0.06464344482421874,3.6296097167968746,25.419847328244273,-36.83969465648855,-5.755725190839694,-8.12113203125,0.05746083984375,2.521094348144531,33.20610687022901,3.1297709923664123,-21.221374045801525,0.0
10.760000467300415,-9.576806640625,-1.0342951171875,4.6447512207031245,32.50381679389313,-38.87022900763359,-7.938931297709924,-7.879317663574218,0.12210428466796874,2.094926452636719,26.33587786259542,2.8244274809160306,-21.480916030534353,0.0
10.77000093460083,-9.366116894531249,-1.1611878051757811,5.607220288085937,42.961832061068705,-47.221374045801525,-10.183206106870228,-7.955932116699218,0.0383072265625,1.656787548828125,23.709923664122137,4.305343511450381,-21.31297709923664,0.0
10.780000686645508,-9.497797985839844,-1.5370774658203123,6.265625744628906,55.465648854961835,-57.49618320610687,-12.83969465648855,-7.702146740722656,0.5339069702148437,1.3096283081054687,22.106870229007633,4.290076335877862,-20.15267175572519,0.0
10.790000915527344,-6.998251452636718,-4.687846850585937,5.700594152832031,82.54961832061069,-71.5114503816794,-12.580152671755725,-7.129932543945312,0.9792284790039062,0.8762778076171874,19.6793893129771,4.67175572519084,-19.267175572519083,0.0
10.800000667572021,-7.9846625366210935,-4.350264416503906,7.204152795410156,118.09160305343511,-70.59541984732824,-22.53435114503817,-8.473079675292968,-0.6512228515624999,3.318363500976562,18.3206106870229,7.862595419847328,-20.442748091603054,0.0
10.810000658035278,-8.195352282714843,-1.7214309936523438,7.60398447265625,128.19847328244273,-84.83969465648855,-28.53435114503817,-8.537723120117187,-3.0430303100585934,4.829104748535156,16.885496183206108,5.908396946564886,-26.38167938931298,0.0
10.820000648498535,-11.949460485839843,2.3391350219726563,8.911218579101561,118.13740458015268,-102.01526717557252,-29.14503816793893,-6.1626750732421876,-2.5067291381835934,1.0127473022460938,14.396946564885496,2.5801526717557253,-25.572519083969464,0.0
10.830000638961792,-13.594277026367187,5.389347937011719,7.922413293457031,102.87022900763358,-125.20610687022901,-20.18320610687023,-6.354211206054687,0.8068459594726562,-3.153163586425781,13.98473282442748,13.572519083969466,-22.16793893129771,0.0
10.840000629425049,-13.843273999023436,5.042188696289062,5.786785412597656,81.00763358778626,-150.35114503816794,-12.580152671755725,-13.268665600585937,-2.039859814453125,-0.24660277099609373,18.198473282442748,34.091603053435115,-25.64885496183206,0.0
10.850000619888306,-14.374786767578124,3.2561142578125,4.546588952636719,65.45038167938931,-166.8854961832061,-8.01526717557252,-18.07382833251953,-3.1747114013671873,2.205059729003906,22.9618320610687,31.52671755725191,-33.282442748091604,0.0
10.860000371932983,-13.046004846191405,-0.6847416748046875,2.308010400390625,70.80916030534351,-173.0229007633588,0.061068702290076333,-19.615694201660155,0.5770026000976562,3.957615344238281,49.11450381679389,21.770992366412212,-30.702290076335878,0.0
10.87000060081482,-12.464213842773436,-3.0071172851562498,0.06464344482421874,83.34351145038168,-166.42748091603053,3.267175572519084,-11.350910070800781,2.04943662109375,3.881000891113281,36.56488549618321,8.122137404580153,-19.114503816793892,0.0
10.880000352859497,-11.334150659179686,-3.6104561035156246,-2.29843359375,99.34351145038168,-157.55725190839695,2.7480916030534353,-9.931148486328125,1.5155296508789062,1.9895815795898437,39.282442748091604,8.396946564885496,4.137404580152672,0.0
10.890000581741333,-11.573570825195311,-2.710236279296875,-2.806004345703125,103.02290076335878,-146.5801526717557,-4.122137404580153,-10.189722265624999,1.4030021728515625,0.7589619262695312,30.213740458015266,9.603053435114504,10.51908396946565,0.0
10.900000810623169,-10.175357055664062,-3.6104561035156246,-4.398148449707031,112.45801526717557,-135.6030534351145,-6.793893129770993,-8.810662109374999,1.8626888916015625,-0.6081272216796875,4.076335877862595,12.641221374045802,4.977099236641221,0.0
10.910000562667847,-9.859322436523437,-1.4053963745117186,-4.2137949218749995,110.42748091603053,-114.97709923664122,-14.763358778625955,-8.851363537597656,-2.2840683837890623,-0.0143652099609375,-11.969465648854962,20.641221374045802,3.099236641221374,0.0
10.920000553131104,-10.156203442382813,0.05746083984375,-3.4644098022460934,100.80916030534351,-95.83206106870229,-22.137404580152673,-10.347739575195313,-6.174646081542968,0.23223756103515625,0.8396946564885496,20.137404580152673,0.32061068702290074,0.0
10.93000054359436,-10.31661495361328,1.8267758666992187,-2.5809493896484375,92.03053435114504,-78.53435114503817,-23.480916030534353,-10.876858142089842,-7.369352709960937,0.718260498046875,25.61832061068702,14.778625954198473,-3.7251908396946565,0.0
10.940000534057617,-10.046070166015625,2.5953145996093747,-1.8818425048828125,80.25954198473282,-62.229007633587784,-20.625954198473284,-10.577582934570312,-6.438008264160156,1.139639990234375,36.58015267175573,12.870229007633588,-8.0,0.0
10.950000524520874,-9.91438907470703,4.881777185058594,-0.7206546997070312,60.030534351145036,-47.63358778625954,-17.61832061068702,-10.407594616699217,-4.65432802734375,-0.13168109130859373,39.63358778625954,8.366412213740459,-11.923664122137405,0.0
10.960000276565552,-10.68053360595703,5.4013189453125,0.19871873779296872,31.099236641221374,-37.43511450381679,-13.557251908396946,-11.884817041015625,-3.31357509765625,0.7398083129882812,38.732824427480914,12.595419847328245,-11.511450381679388,0.0
10.970000267028809,-9.052476477050782,3.7612908081054686,-0.9959878906249999,12.366412213740459,-30.366412213740457,-6.351145038167939,-9.986215124511718,-1.838746875,0.23223756103515625,39.099236641221374,6.549618320610687,-13.541984732824428,0.0
10.980000495910645,-8.128314636230469,4.513070129394531,-0.06703764648437499,-7.6183206106870225,-15.954198473282442,-5.343511450381679,-8.058882788085937,-0.39743747558593745,-0.6177040283203125,28.519083969465647,2.8702290076335877,-15.755725190839694,0.0
10.990000486373901,-7.673416320800781,4.141968872070312,-0.14125789794921875,-29.66412213740458,-12.290076335877863,-1.83206106870229,-9.904812268066406,-2.3032219970703123,0.7158662963867187,23.236641221374047,15.053435114503817,-7.419847328244275,0.0
11.000000238418579,-7.220912207031249,2.7246014892578123,-0.37828386230468747,-46.61068702290076,-8.65648854961832,2.8091603053435112,-9.981426721191406,-2.6671406494140624,0.8978256225585937,27.51145038167939,13.816793893129772,-6.015267175572519,0.0
11.010000705718994,-6.476315490722656,1.848323681640625,-0.7015010864257812,-54.717557251908396,-4.076335877862595,4.641221374045801,-9.473855969238281,-1.6472107421875,0.6943184814453125,30.9618320610687,11.49618320610687,-7.603053435114504,0.0
11.020000696182251,-5.738901379394531,0.7733271362304687,-1.1133037719726562,-59.41984732824427,3.404580152671756,7.587786259541985,-8.966285217285156,-0.8188169677734375,0.8690952026367187,29.81679389312977,12.946564885496183,-6.534351145038168,0.0
11.030000686645508,-5.214571215820312,-0.016759411621093748,-1.16837041015625,-61.725190839694655,10.305343511450381,8.213740458015268,-8.767566479492187,-0.3806780639648437,1.0582371337890624,25.862595419847327,15.32824427480916,-4.33587786259542,0.0
11.040000677108765,-5.45877978515625,-0.2705447875976562,-0.6177040283203125,-64.03053435114504,18.671755725190838,7.099236641221374,-8.949525805664061,-0.21068974609375,1.2904746948242187,19.66412213740458,16.83969465648855,-1.83206106870229,0.0
11.050000667572021,-4.903325,-1.235408056640625,-0.4477157104492187,-63.587786259541986,24.30534351145038,7.114503816793893,-9.311050256347656,-0.3327940307617187,1.707065783691406,14.763358778625955,17.893129770992367,0.07633587786259542,0.0
11.060000896453857,-5.2624552490234375,-1.3718775512695311,0.737414111328125,-62.412213740458014,32.0,5.908396946564886,-9.476250170898437,-0.3112462158203125,1.879448303222656,11.297709923664122,16.244274809160306,1.6030534351145038,0.0
11.070000648498535,-4.934449621582031,-2.176329309082031,1.1731588134765625,-57.404580152671755,36.48854961832061,4.427480916030534,-9.5384994140625,-0.5410895751953124,2.157175695800781,7.755725190839694,13.84732824427481,3.2061068702290076,0.0
11.080000638961792,-6.768408093261718,-2.1116858642578125,3.105279553222656,-47.725190839694655,48.30534351145038,0.5190839694656488,-9.452308154296874,-0.7900865478515624,2.4851813232421875,3.7709923664122136,11.603053435114504,4.442748091603053,0.0
11.090000629425049,-4.771643908691406,-2.7437551025390623,2.0638018310546875,-43.57251908396947,43.20610687022901,-1.099236641221374,-9.344569079589844,-1.1037269653320312,2.7653029174804686,1.450381679389313,8.50381679389313,5.801526717557252,0.0
11.100000381469727,-3.9743747558593747,-4.235342736816406,2.1308394775390624,-15.877862595419847,55.725190839694655,-1.4809160305343512,-8.769960681152343,-1.2234370483398436,2.8323405639648436,-1.5419847328244274,6.183206106870229,6.870229007633588,0.0
11.110000610351562,-5.116408947753906,-2.3295582153320313,3.0071172851562498,-1.0076335877862594,68.1526717557252,-11.206106870229007,-8.863334545898438,-1.7094599853515624,3.0023288818359375,-1.6946564885496183,4.091603053435114,6.106870229007634,0.0
11.12000060081482,-5.3199160888671875,-3.4261025756835934,2.6671406494140624,10.50381679389313,71.23664122137404,-14.870229007633588,-9.105148913574219,-2.4205378784179685,3.191470812988281,-0.5190839694656488,1.0381679389312977,5.267175572519084,0.0
11.130000591278076,-4.924872814941406,-2.8467057739257813,2.825157958984375,38.48854961832061,84.3206106870229,-17.435114503816795,-9.184157568359375,-2.626439221191406,3.2609026611328122,-0.366412213740458,-2.4885496183206106,4.351145038167939,0.0
11.140000820159912,-7.594407666015624,0.09576806640624999,4.572925170898437,43.69465648854962,90.51908396946565,-24.68702290076336,-9.105148913574219,-1.9895815795898437,2.980781066894531,-0.4122137404580153,-6.977099236641221,1.8625954198473282,0.0
11.15000057220459,-9.198522778320312,2.0470424194335934,5.942408520507812,37.31297709923664,88.27480916030534,-24.38167938931298,-8.825027319335938,-1.2401964599609374,2.779668127441406,-1.251908396946565,-10.305343511450381,2.2442748091603053,0.0
11.160000562667847,-9.397241516113281,2.0446482177734375,6.629544396972656,36.48854961832061,82.07633587786259,-20.33587786259542,-8.451531860351562,-0.7445967163085937,2.4253262817382812,-2.8244274809160306,-12.580152671755725,3.618320610687023,0.0
11.170000791549683,-9.993397729492187,3.5817256835937497,8.123526232910155,34.732824427480914,73.31297709923665,-17.87786259541985,-8.0062103515625,-0.3806780639648437,2.2194249389648437,-8.458015267175572,-14.83969465648855,4.5038167938931295,0.0
11.18000078201294,-10.781090075683593,4.809951135253906,8.8489693359375,24.106870229007633,59.954198473282446,-15.297709923664122,-7.192181787109375,-0.2705447875976562,2.128445275878906,-15.49618320610687,-15.450381679389313,6.351145038167939,0.0
11.190000534057617,-9.512163195800781,3.7038299682617186,7.625532287597656,16.47328244274809,44.534351145038165,-7.923664122137405,-6.667851623535156,-0.5410895751953124,2.422932080078125,-20.16793893129771,-16.564885496183205,9.282442748091603,0.0
11.200000524520874,-10.127473022460936,3.0885201416015624,6.974309436035155,15.664122137404581,37.83206106870229,-0.8549618320610687,-6.864176159667968,-1.4221557861328125,3.0813375366210938,-25.251908396946565,-16.549618320610687,12.16793893129771,0.0
11.21000051498413,-10.007762939453125,2.81558115234375,7.125144140624999,11.679389312977099,27.206106870229007,5.557251908396947,-8.580818749999999,-3.5697546752929687,4.141968872070312,-21.709923664122137,-16.916030534351144,14.412213740458014,0.0
11.220000505447388,-11.401188305664062,2.767697119140625,7.584830859375,6.885496183206107,16.610687022900763,13.740458015267176,-10.371681591796875,-4.347870214843749,4.759672900390624,-19.206106870229007,-20.076335877862597,11.969465648854962,0.0
11.230000495910645,-11.475408557128906,3.9887399658203124,6.191405493164062,9.664122137404581,9.557251908396946,25.480916030534353,-11.312602844238281,-4.204218115234375,3.69664736328125,-12.641221374045802,-29.358778625954198,9.938931297709924,0.0
11.240000247955322,-12.799402075195312,4.898536596679687,4.563348364257812,4.0458015267175576,9.679389312977099,35.89312977099237,-9.804255798339844,-4.005499377441406,3.4548329956054684,-4.900763358778626,-37.31297709923664,12.687022900763358,0.0
11.250000238418579,-12.904746948242186,1.216254443359375,4.273649963378906,-7.908396946564886,6.442748091603053,41.099236641221374,-8.911218579101561,-2.7198130859375,2.0278888061523435,2.8244274809160306,-45.32824427480916,16.564885496183205,0.0
11.260000705718994,-15.74905852050781,-1.3383587280273437,8.099584216308592,-19.34351145038168,1.6030534351145038,37.969465648854964,-8.353369592285155,-1.1707646118164061,0.842758984375,-2.900763358778626,-44.19847328244275,18.137404580152673,0.0
11.27000117301941,-17.791312536621092,-2.3032219970703123,10.658985791015624,-19.236641221374047,-11.038167938931299,32.18320610687023,-9.53131680908203,-0.32561142578124996,-0.7015010864257812,-5.893129770992366,-37.69465648854962,20.198473282442748,0.0
11.280000686645508,-17.922993627929685,-0.14604630126953125,9.004592443847656,-7.175572519083969,-21.14503816793893,28.885496183206108,-9.198522778320312,-0.70868369140625,-0.967257470703125,-15.32824427480916,-30.671755725190838,22.35114503816794,0.0
11.290000677108765,-15.969325073242187,3.5984850952148437,3.9049429077148434,12.641221374045802,-20.763358778625953,33.083969465648856,-9.588777648925781,-1.4628572143554686,-1.2521674682617188,-19.84732824427481,-22.83969465648855,22.549618320610687,0.0
11.300000667572021,-14.348450549316405,7.3669585083007805,0.0526724365234375,-4.412213740458015,-26.35114503816794,36.10687022900763,-12.27028350830078,-2.779668127441406,-1.0989385620117187,-19.114503816793892,-14.595419847328245,21.31297709923664,0.0
11.310000658035278,-10.242394702148436,1.637633935546875,-1.2808978881835937,-21.862595419847327,-31.755725190839694,39.31297709923664,-15.229516760253905,-4.043806604003906,-0.39983167724609375,-14.320610687022901,-6.748091603053435,15.618320610687023,0.0
11.320000648498535,-6.811503723144531,-4.491522314453125,-0.5746083984375,-17.14503816793893,-22.763358778625953,35.23664122137404,-16.314090112304687,-3.660734338378906,-0.02154781494140625,-7.877862595419847,-4.3816793893129775,7.511450381679389,0.0
11.330000638961792,-5.011064074707031,-5.5641246582031245,-1.3072341064453123,-1.099236641221374,-10.687022900763358,19.801526717557252,-16.371550952148436,-2.269703173828125,0.04548983154296875,4.1679389312977095,-1.7251908396946565,3.816793893129771,0.0
11.340000867843628,-4.821922143554687,-3.3782185424804685,-2.9448680419921875,9.251908396946565,0.030534351145038167,5.038167938931298,-15.495273144531248,-0.9576806640625,0.0047884033203125,12.748091603053435,0.1984732824427481,4.488549618320611,0.0
11.350000619888306,-5.494692810058593,0.2920926025390625,-4.584896179199219,7.8320610687022905,9.435114503816793,-5.465648854961832,-14.343662145996094,0.1197100830078125,-0.0047884033203125,17.72519083969466,1.618320610687023,7.236641221374046,0.0
11.36000108718872,-7.362170104980469,3.296815686035156,-3.9624037475585934,-1.7251908396946565,19.022900763358777,-8.51908396946565,-12.291831323242187,2.128445275878906,-0.5626373901367188,13.541984732824428,3.786259541984733,8.717557251908397,0.0
11.370000839233398,-8.128314636230469,2.0087351928710935,-2.7724855224609373,1.3587786259541985,35.12977099236641,-3.8931297709923665,-11.389217297363281,1.8531120849609375,-0.36391865234375,9.099236641221374,11.557251908396946,15.267175572519085,0.0
11.380000352859497,-8.339004382324218,1.2234370483398436,-1.85790048828125,6.427480916030534,46.16793893129771,-2.8091603053435112,-10.405200415039062,1.3263877197265623,0.09576806640624999,12.458015267175572,13.633587786259541,19.068702290076335,0.0
11.390000581741333,-10.43871923828125,2.6096798095703124,-0.5865794067382812,0.7175572519083969,53.48091603053435,-7.312977099236641,-9.050082275390624,1.7357962036132812,0.02154781494140625,8.442748091603054,16.396946564885496,19.862595419847327,0.0
11.400000810623169,-10.721235034179687,1.484405029296875,-0.4333505004882812,-7.603053435114504,54.29007633587786,-6.885496183206107,-7.4220251464843745,1.8842367065429686,0.488417138671875,2.6412213740458017,20.85496183206107,20.244274809160306,0.0
11.410000562667847,-10.87925234375,0.6679822631835937,0.5123591552734374,-13.557251908396946,55.61832061068702,-7.083969465648855,-8.949525805664061,2.094926452636719,0.1149216796875,-3.618320610687023,24.610687022900763,22.702290076335878,0.0
11.420000791549683,-10.809820495605468,0.6105214233398437,1.4532804077148436,-16.33587786259542,56.0,-8.122137404580153,-9.016563452148437,2.1308394775390624,0.51714755859375,-10.091603053435115,29.00763358778626,23.633587786259543,0.0
11.43000054359436,-10.723629235839843,2.0183119995117185,2.0278888061523435,-19.709923664122137,51.57251908396947,-8.290076335877863,-9.397241516113281,1.7669208251953124,0.9409212524414062,-15.17557251908397,35.221374045801525,26.290076335877863,0.0
11.440000295639038,-10.670956799316405,1.350329736328125,1.4724340209960938,-21.022900763358777,47.37404580152672,-6.916030534351145,-10.156203442382813,-0.42377369384765623,1.448492004394531,-10.473282442748092,34.458015267175576,29.358778625954198,0.0
11.450000286102295,-10.711658227539061,2.04943662109375,1.8124106567382812,-21.068702290076335,44.778625954198475,-6.8396946564885495,-10.345345373535155,-0.7733271362304687,2.2744915771484373,-2.900763358778626,32.70229007633588,29.557251908396946,0.0
11.46000051498413,-10.493785876464843,1.9847931762695312,0.8714894042968749,-20.916030534351144,39.06870229007634,-5.740458015267175,-8.985438830566405,0.9504980590820312,0.9696516723632812,2.3206106870229006,21.587786259541986,25.221374045801525,0.0
11.470000505447388,-10.165780249023436,2.8993782104492185,1.2330138549804688,-20.778625954198475,40.396946564885496,-5.893129770992366,-9.634267480468749,1.2617442749023438,1.0773907470703123,-4.427480916030534,21.19083969465649,25.66412213740458,0.0
11.480000495910645,-8.781931689453124,1.8435352783203125,0.59376201171875,-24.213740458015266,34.916030534351144,-2.931297709923664,-9.469067565917967,1.0390835205078124,1.189918225097656,-11.16030534351145,21.61832061068702,27.404580152671755,0.0
11.490000486373901,-9.162609753417968,1.6352397338867186,0.8667010009765624,-26.427480916030536,33.63358778625954,-1.5572519083969465,-10.062829577636718,0.55545478515625,1.5011644409179687,-14.229007633587786,19.083969465648856,28.702290076335878,0.0
11.500000715255737,-9.689334118652344,1.656787548828125,1.3766659545898436,-28.732824427480917,32.97709923664122,-1.3435114503816794,-9.907206469726562,0.02154781494140625,1.4820108276367188,-16.244274809160306,16.82442748091603,28.35114503816794,0.0
11.510000944137573,-10.213664282226562,1.5131354492187499,1.687912170410156,-29.938931297709924,31.358778625954198,-0.183206106870229,-9.957484704589843,-0.6727706665039062,1.7573440185546874,-15.19083969465649,14.51908396946565,28.091603053435115,0.0
11.520000696182251,-10.213664282226562,1.2497732666015624,1.7621324218749999,-29.61832061068702,29.0381679389313,1.0381679389312977,-10.007762939453125,-0.5243301635742187,1.7501614135742187,-15.679389312977099,12.244274809160306,25.938931297709924,0.0
11.530000925064087,-10.254365710449218,1.350329736328125,1.4915876342773438,-29.282442748091604,26.106870229007633,1.7251908396946565,-9.821015209960937,-0.6416460449218749,1.7357962036132812,-16.702290076335878,9.83206106870229,23.603053435114504,0.0
11.540000438690186,-10.134655627441406,1.2976572998046874,1.429338391113281,-28.885496183206108,23.587786259541986,1.633587786259542,-9.641450085449218,-0.9409212524414062,1.7549498168945312,-18.625954198473284,8.305343511450381,19.923664122137403,0.0
11.550000429153442,-10.060435375976562,0.97683427734375,1.22583125,-28.47328244274809,20.610687022900763,0.6717557251908397,-10.426748229980468,-0.7733271362304687,1.8315642700195311,-17.938931297709924,7.450381679389313,19.099236641221374,0.0
11.560000658035278,-9.986215124511718,0.8738836059570312,1.24498486328125,-25.17557251908397,19.114503816793892,0.3511450381679389,-10.228029492187499,-0.967257470703125,1.9752163696289062,-16.610687022900763,4.427480916030534,17.068702290076335,0.0
11.570000648498535,-10.20169327392578,0.8212111694335937,1.1276689819335937,-21.572519083969464,17.557251908396946,0.2595419847328244,-11.79862578125,-1.5658078857421873,2.0973206542968748,-5.862595419847328,0.9465648854961832,16.519083969465647,0.0
11.580000638961792,-9.83777462158203,0.7015010864257812,1.2210428466796874,-16.549618320610687,17.00763358778626,-0.44274809160305345,-9.062053283691405,-0.4644751220703125,1.1061211669921875,-7.038167938931298,-8.458015267175572,10.15267175572519,0.0
11.590000629425049,-9.751583361816406,1.2330138549804688,1.197100830078125,-14.458015267175572,16.442748091603054,-0.2595419847328244,-8.793902697753905,1.0678139404296874,0.7517793212890624,-15.022900763358779,-6.763358778625954,6.900763358778626,0.0
11.600000381469727,-9.904812268066406,1.438915197753906,1.4724340209960938,-14.351145038167939,16.3206106870229,0.15267175572519084,-10.333374365234375,0.06943184814453125,1.1348515869140625,-15.923664122137405,-3.1603053435114505,10.244274809160306,0.0
11.610000610351562,-9.60793126220703,1.37906015625,1.24498486328125,-13.312977099236642,15.786259541984732,0.5648854961832062,-10.237606298828124,0.4740519287109375,1.0630255371093749,-21.572519083969464,-3.3587786259541983,9.526717557251908,0.0
11.620001077651978,-9.60793126220703,1.5083470458984374,1.0103531005859374,-12.80916030534351,14.80916030534351,1.618320610687023,-10.115502014160155,0.2825157958984375,1.024718310546875,-20.12213740458015,-2.9160305343511452,8.82442748091603,0.0
11.630000591278076,-10.089165795898436,1.5586252807617187,1.0366893188476562,-13.679389312977099,14.01526717557252,1.3740458015267176,-10.172962854003906,0.011971008300781249,1.1276689819335937,-18.35114503816794,-3.3740458015267176,8.473282442748092,0.0
11.640000820159912,-10.165780249023436,1.5370774658203123,1.0749965454101562,-12.198473282442748,13.908396946564885,1.1908396946564885,-10.108319409179687,0.2346317626953125,1.350329736328125,-16.27480916030534,-2.4122137404580153,7.633587786259542,0.0
11.65000057220459,-10.287884533691406,1.5921441040039062,1.0079588989257813,-13.893129770992367,12.01526717557252,1.282442748091603,-9.801861596679688,0.033518823242187495,1.369483349609375,-16.045801526717558,-2.4885496183206106,6.564885496183206,0.0
11.660001039505005,-10.237606298828124,1.4987702392578124,1.0989385620117187,-14.305343511450381,11.389312977099237,1.9083969465648856,-9.773131176757811,-0.0143652099609375,1.4700398193359374,-15.86259541984733,-1.7404580152671756,6.396946564885496,0.0
11.670000553131104,-10.271125122070313,1.199495031738281,1.0271125122070313,-14.488549618320612,10.931297709923664,2.4580152671755724,-10.266336718749999,-0.6057330200195312,1.6208745239257811,-10.641221374045802,-2.1068702290076335,7.633587786259542,0.0
11.680001020431519,-9.74200655517578,1.1611878051757811,0.7422025146484375,-13.129770992366412,11.038167938931299,2.2595419847328246,-9.07163009033203,0.7972691528320313,1.2114660400390624,-15.511450381679388,-4.809160305343512,4.290076335877862,0.0
11.690000295639038,-9.804255798339844,1.5825672973632812,0.6703764648437499,-14.885496183206106,11.923664122137405,2.015267175572519,-8.923189587402343,1.0630255371093749,0.8379705810546875,-22.18320610687023,-1.450381679389313,5.038167938931298,0.0
11.700000762939453,-9.696516723632811,1.6543933471679686,0.5506663818359374,-17.954198473282442,12.442748091603054,1.8931297709923665,-9.445125549316407,0.28490999755859375,0.8283937744140625,-24.106870229007633,1.1297709923664123,6.732824427480916,0.0
11.71000051498413,-9.639055883789062,1.4125789794921875,0.5913678100585937,-20.99236641221374,12.16793893129771,1.2671755725190839,-9.397241516113281,0.4477157104492187,0.7829039428710937,-25.14503816793893,0.549618320610687,6.351145038167939,0.0
11.720000505447388,-9.65342109375,1.2832920898437499,0.7565677246093749,-22.0,12.442748091603054,0.7633587786259542,-9.418789331054686,0.45489831542968745,0.9313444458007812,-25.053435114503817,1.2366412213740459,6.763358778625954,0.0
11.730000495910645,-9.725247143554688,1.2569558715820313,0.9959878906249999,-22.213740458015266,12.931297709923664,0.42748091603053434,-9.342174877929686,0.47165772705078124,0.5985504150390625,-26.0,1.7099236641221374,7.0534351145038165,0.0
11.740000486373901,-9.677363110351562,1.3072341064453123,1.1013327636718748,-20.15267175572519,14.244274809160306,0.6412213740458015,-9.423577734375,0.316034619140625,0.6057330200195312,-26.549618320610687,2.3206106870229006,7.480916030534351,0.0
11.750000476837158,-9.9215716796875,1.7860744384765623,1.2521674682617188,-19.954198473282442,14.83969465648855,0.9923664122137404,-9.10993731689453,0.6464344482421874,0.26336218261718747,-29.52671755725191,2.854961832061069,6.396946564885496,0.0
11.760000944137573,-9.900023864746093,1.9967641845703124,1.1061211669921875,-19.770992366412212,15.022900763358779,1.1603053435114503,-9.888052856445311,-0.36152445068359373,0.5961562133789062,-28.641221374045802,6.8396946564885495,7.00763358778626,0.0
11.77000093460083,-9.904812268066406,2.109291662597656,0.9026140258789062,-22.442748091603054,13.435114503816793,1.3893129770992367,-9.514557397460937,-0.41419688720703124,0.26336218261718747,-27.770992366412212,5.847328244274809,4.961832061068702,0.0
11.780000925064087,-10.046070166015625,2.1715409057617188,0.7876923461914062,-25.786259541984734,13.007633587786259,1.3129770992366412,-9.79946739501953,-0.3495534423828125,0.24660277099609373,-23.893129770992367,6.427480916030534,4.183206106870229,0.0
11.790000915527344,-10.034099157714843,1.7262193969726563,0.93852705078125,-28.30534351145038,12.549618320610687,1.2213740458015268,-9.634267480468749,-0.612915625,0.28730419921875,-22.564885496183205,6.152671755725191,2.9618320610687023,0.0
11.800000429153442,-9.828197814941406,1.2665326782226562,0.9576806640625,-27.46564885496183,12.229007633587786,1.7709923664122138,-10.01015714111328,-0.7661445312499999,0.46686932373046874,-19.61832061068702,6.763358778625954,1.4351145038167938,0.0
11.810000658035278,-9.660603698730467,0.9265560424804687,0.8643067993164062,-26.580152671755727,12.564885496183207,1.7557251908396947,-9.967061511230469,-0.5817910034179687,0.6512228515624999,-17.633587786259543,6.152671755725191,-0.7633587786259542,0.0
11.820000648498535,-9.476250170898437,0.82360537109375,0.6631938598632812,-24.732824427480917,12.534351145038167,0.7480916030534351,-10.187328063964843,-0.5219359619140624,1.1444283935546875,-14.992366412213741,5.969465648854962,-1.7099236641221374,0.0
11.830000400543213,-9.373299499511718,0.8547299926757812,0.44532150878906246,-23.236641221374047,13.34351145038168,-0.3511450381679389,-10.120290417480469,-0.3711012573242187,1.3239935180664062,-14.061068702290076,4.824427480916031,-3.0839694656488548,0.0
11.840000629425049,-9.294290844726563,0.9337386474609375,0.469263525390625,-23.129770992366414,13.816793893129772,-1.3587786259541985,-10.175357055664062,-0.12210428466796874,1.6735469604492186,-12.702290076335878,3.877862595419847,-4.519083969465649,0.0
11.850000619888306,-9.311050256347656,0.9528922607421875,0.5770026000976562,-22.290076335877863,14.534351145038167,-1.8473282442748091,-9.926360083007811,0.00718260498046875,1.9033903198242186,-13.557251908396946,2.213740458015267,-5.480916030534351,0.0
11.860000610351562,-9.141061938476563,0.7398083129882812,0.5363011718749999,-21.49618320610687,14.977099236641221,-2.1068702290076335,-10.381258398437499,-0.11731588134765625,2.2840683837890623,-11.374045801526718,0.8244274809160306,-5.267175572519084,0.0
11.87000060081482,-9.323021264648437,0.7876923461914062,0.6153098266601562,-17.786259541984734,16.519083969465647,-2.931297709923664,-10.014945544433592,-0.028730419921875,2.5258827514648434,-12.82442748091603,-1.465648854961832,-5.877862595419847,0.0
11.880000829696655,-11.429918725585937,2.7557261108398436,1.209071838378906,-21.770992366412212,16.885496183206108,-4.442748091603053,-10.077194787597655,-0.18435352783203124,2.7150246826171873,-11.618320610687023,-3.572519083969466,-5.847328244274809,0.0
11.890000581741333,-10.572794531249999,2.597708801269531,0.9074024291992187,-26.3206106870229,12.625954198473282,-2.519083969465649,-9.87608184814453,0.086191259765625,2.7653029174804686,-12.045801526717558,-5.786259541984733,-5.1603053435114505,0.0
11.900000810623169,-10.838550915527343,1.8746598999023436,1.1468225952148436,-22.68702290076336,15.49618320610687,-1.3587786259541985,-10.050858569335936,0.1580173095703125,2.7150246826171873,-7.3893129770992365,-8.13740458015267,-3.66412213740458,0.0
11.910000562667847,-10.534487304687499,2.0302830078125,0.8571241943359375,-28.061068702290076,12.931297709923664,-1.1755725190839694,-9.880870251464843,0.3016694091796875,2.418143676757812,-6.870229007633588,-12.381679389312977,-4.427480916030534,0.0
11.920000791549683,-10.01015714111328,1.3670891479492187,0.5003881469726562,-26.870229007633586,10.717557251908397,0.6870229007633588,-9.5001921875,0.7422025146484375,2.5953145996093747,-10.442748091603054,-10.977099236641221,-3.801526717557252,0.0
11.93000078201294,-9.861716638183593,0.8379705810546875,0.3112462158203125,-26.106870229007633,9.893129770992367,1.7404580152671756,-9.318232861328125,0.7852981445312499,2.482787121582031,-13.435114503816793,-11.068702290076336,-2.6106870229007635,0.0
11.940000534057617,-9.81862100830078,0.8212111694335937,0.30885201416015623,-23.81679389312977,9.755725190839694,1.4351145038167938,-9.440337145996093,0.36152445068359373,2.3822306518554686,-14.305343511450381,-10.854961832061068,-1.3587786259541985,0.0
11.950000524520874,-9.981426721191406,0.6488286499023437,0.3902548706054687,-22.27480916030534,9.221374045801527,0.7175572519083969,-9.507374792480467,-0.1867477294921875,2.427720483398437,-12.412213740458014,-10.961832061068701,0.07633587786259542,0.0
11.960000276565552,-10.005368737792969,0.4261678955078125,0.5195417602539062,-19.129770992366414,8.67175572519084,-0.07633587786259542,-10.196904870605469,-0.8834604125976562,2.375048046875,-2.8396946564885495,-14.0,0.4580152671755725,0.0
11.970000267028809,-10.029310754394531,0.16519991455078123,0.5674257934570313,-14.335877862595419,7.404580152671755,-1.3435114503816794,-9.469067565917967,-1.2569558715820313,2.559401574707031,6.427480916030534,-19.282442748091604,-1.0381679389312977,0.0
11.980000734329224,-9.9215716796875,0.1197100830078125,0.7517793212890624,-8.305343511450381,8.01526717557252,-3.099236641221374,-9.227253198242186,-0.55545478515625,2.080561242675781,13.16030534351145,-22.748091603053435,-2.9923664122137406,0.0
11.990000486373901,-10.141838232421874,0.3711012573242187,1.005564697265625,-5.541984732824427,7.694656488549619,-4.259541984732825,-9.129090930175781,0.02633621826171875,2.0183119995117185,13.221374045801527,-23.587786259541986,-3.984732824427481,0.0
12.000000476837158,-9.816226806640625,0.8906430175781249,1.0941501586914062,-0.5038167938931297,7.435114503816794,-5.282442748091603,-8.70771143798828,0.82360537109375,1.3934253662109375,3.618320610687023,-20.366412213740457,-4.1679389312977095,0.0
12.010001182556152,-9.78031378173828,1.0462661254882812,1.197100830078125,-0.04580152671755725,6.748091603053435,-4.656488549618321,-9.859322436523437,1.5490484741210937,1.3239935180664062,-3.2061068702290076,-14.82442748091603,-2.900763358778626,0.0
12.020000696182251,-9.897629663085937,1.3048399047851562,1.4939818359375,1.8015267175572518,5.480916030534351,-4.885496183206107,-7.630320690917968,1.2210428466796874,0.8906430175781249,-19.419847328244273,-11.801526717557252,-3.435114503816794,0.0
12.030000686645508,-10.359710583496094,1.4101847778320311,1.467645617675781,2.213740458015267,2.732824427480916,-4.015267175572519,-9.203311181640624,-0.5219359619140624,1.1947066284179686,-16.641221374045802,-6.106870229007634,-0.7480916030534351,0.0
12.040000677108765,-10.103531005859374,1.4628572143554686,1.0917559570312498,5.847328244274809,0.8091603053435115,-3.6946564885496183,-9.665392102050781,-1.3192051147460937,1.6041151123046875,-10.0,-6.015267175572519,-2.213740458015267,0.0
12.050000667572021,-10.371681591796875,1.936909143066406,0.8403647827148437,6.427480916030534,-0.5190839694656488,-3.435114503816794,-9.464279162597656,-1.4891934326171874,1.6232687255859375,-3.49618320610687,-5.740458015267175,-4.870229007633588,0.0
12.060000658035278,-9.363722692871093,1.4149731811523436,0.1484405029296875,9.450381679389313,-1.1908396946564885,-2.564885496183206,-9.306261853027344,-1.5586252807617187,1.687912170410156,1.7709923664122138,-4.824427480916031,-6.717557251908397,0.0
12.070000410079956,-9.557653027343749,1.6017209106445311,0.10773907470703124,9.099236641221374,-0.4580152671755725,-2.595419847328244,-9.165003955078124,-1.2976572998046874,1.5394716674804687,5.633587786259542,-3.984732824427481,-8.610687022900763,0.0
12.080000638961792,-9.560047229003906,1.438915197753906,0.201112939453125,7.862595419847328,0.183206106870229,-3.267175572519084,-9.205705383300781,-1.2808978881835937,1.5322890624999999,9.129770992366412,-3.450381679389313,-9.740458015267176,0.0
12.090000629425049,-9.490615380859374,1.16837041015625,0.28730419921875,6.229007633587786,0.2748091603053435,-3.282442748091603,-9.270348828125,-1.3718775512695311,1.4101847778320311,12.51908396946565,-3.5114503816793894,-10.961832061068701,0.0
12.100000619888306,-9.476250170898437,1.0175357055664063,0.39743747558593745,5.969465648854962,0.6717557251908397,-4.519083969465649,-9.655815295410155,-2.499546533203125,1.917755529785156,19.068702290076335,-2.122137404580153,-10.900763358778626,0.0
12.110000610351562,-9.72285294189453,0.9457096557617187,0.4070142822265625,6.534351145038168,0.5954198473282443,-5.557251908396947,-10.618284362792968,-2.9927520751953125,2.616862414550781,36.030534351145036,-5.206106870229007,-12.961832061068701,0.0
12.12000060081482,-9.598354455566406,0.8858546142578124,0.33518823242187495,9.114503816793894,1.0229007633587786,-6.9465648854961835,-9.610325463867188,-2.7150246826171873,2.3151930053710936,45.603053435114504,-12.427480916030534,-17.49618320610687,0.0
12.130000591278076,-10.108319409179687,1.8052280517578123,0.6943184814453125,7.8320610687022905,0.9770992366412213,-8.198473282442748,-9.665392102050781,-1.3072341064453123,1.9536685546875,52.18320610687023,-14.076335877862595,-20.83969465648855,0.0
12.140000820159912,-11.092336291503905,3.478775012207031,1.70467158203125,-2.2595419847328246,-1.5267175572519085,-9.511450381679388,-8.305485559082031,1.0462661254882812,1.3718775512695311,45.038167938931295,-14.641221374045802,-24.748091603053435,0.0
12.15000057220459,-11.257536206054686,3.0980969482421874,2.3415292236328122,-5.511450381679389,-3.5419847328244276,-8.351145038167939,-8.734047656249999,1.4724340209960938,1.3623007446289062,35.587786259541986,-10.045801526717558,-23.81679389312977,0.0
12.160000562667847,-10.417171423339843,1.7477672119140624,1.7693150268554687,-5.893129770992366,-8.67175572519084,-4.900763358778626,-5.868188269042968,1.5921441040039062,0.842758984375,16.30534351145038,-7.114503816793893,-24.85496183206107,0.0
12.170000553131104,-9.612719665527344,0.8738836059570312,1.3263877197265623,-3.49618320610687,-13.099236641221374,-3.5114503816793894,-8.085219006347655,0.28969840087890625,1.6519991455078125,9.923664122137405,0.8244274809160306,-20.015267175572518,0.0
12.18000078201294,-9.105148913574219,-0.11252747802734374,0.7613561279296874,2.4122137404580153,-14.351145038167939,-3.3587786259541983,-9.188945971679686,-0.7445967163085937,2.176329309082031,14.946564885496183,3.0229007633587788,-18.717557251908396,0.0
12.190000534057617,-9.93354268798828,1.5059528442382812,1.6400281372070311,9.98473282442748,-9.511450381679388,-7.740458015267175,-8.741230261230468,-0.8882488159179687,2.3822306518554686,20.671755725190838,1.6488549618320612,-20.82442748091603,0.0
12.200000524520874,-9.272743029785156,1.1228805786132812,1.4006079711914061,8.045801526717558,-13.312977099236642,-7.32824427480916,-8.59997236328125,-0.6248866333007812,2.4061726684570313,25.633587786259543,0.8396946564885496,-21.83206106870229,0.0
12.21000051498413,-9.145850341796875,1.2210428466796874,1.209071838378906,8.122137404580153,-17.14503816793893,-5.893129770992366,-8.643067993164061,-0.6847416748046875,2.5474305664062498,27.404580152671755,1.5419847328244274,-21.419847328244273,0.0
12.220000505447388,-9.050082275390624,1.5131354492187499,1.8004396484374998,3.1755725190839694,-18.625954198473284,-6.198473282442748,-8.530540515136718,-0.09816226806640624,1.9776105712890624,28.259541984732824,-0.6564885496183206,-22.50381679389313,0.0
12.230000495910645,-10.639832177734375,1.0726023437499999,2.5354595581054684,1.5877862595419847,-18.946564885496183,-8.0,-8.214505895996094,0.33518823242187495,2.0757728393554684,21.0381679389313,2.519083969465649,-22.68702290076336,0.0
12.240000486373901,-10.472238061523436,0.5961562133789062,2.389413256835937,5.541984732824427,-19.114503816793892,-9.389312977099237,-8.015787158203125,0.3232172241210937,1.6136919189453125,17.419847328244273,3.7099236641221376,-21.709923664122137,0.0
12.250000476837158,-8.973467822265624,-1.0438719238281249,2.3511060302734372,18.595419847328245,-19.0381679389313,-11.450381679389313,-7.848193041992187,0.22505495605468748,1.4867992309570313,15.877862595419847,4.412213740458015,-20.65648854961832,0.0
12.260000705718994,-9.636661682128906,-0.13646949462890623,3.239354846191406,22.549618320610687,-19.267175572519083,-15.664122137404581,-7.580042456054687,0.28730419921875,1.0941501586914062,14.580152671755725,5.221374045801527,-19.450381679389313,0.0
12.270000696182251,-9.651026892089844,-0.5315127685546874,3.6750995483398436,27.404580152671755,-23.862595419847327,-17.66412213740458,-7.1035963256835934,0.4836287353515625,1.0606313354492187,13.786259541984732,6.488549618320611,-18.0,0.0
12.280000686645508,-10.996568225097656,1.0749965454101562,5.2816088623046875,30.458015267175572,-25.52671755725191,-20.48854961832061,-7.113173132324218,0.9074024291992187,0.8690952026367187,10.351145038167939,7.816793893129771,-17.022900763358777,0.0
12.290000915527344,-10.793061083984375,1.0845733520507812,6.172251879882812,32.412213740458014,-33.61832061068702,-20.625954198473284,-8.585607153320312,-0.833182177734375,2.3678654418945313,5.312977099236641,12.244274809160306,-16.763358778625953,0.0
12.300000667572021,-11.051634863281249,1.388636962890625,6.730100866699218,34.54961832061068,-43.587786259541986,-18.763358778625953,-9.562441430664062,-2.195482922363281,2.5641899780273434,7.251908396946565,6.442748091603053,-21.206106870229007,0.0
12.310000658035278,-11.767501159667969,2.3343466186523436,8.003816149902343,40.38167938931298,-52.83969465648855,-18.045801526717558,-8.63827958984375,-0.6847416748046875,2.806004345703125,-1.8473282442748091,2.9160305343511452,-29.34351145038168,0.0
12.320000648498535,-12.682086193847656,3.835511059570312,8.908824377441405,42.045801526717554,-65.37404580152672,-15.297709923664122,-8.061276989746093,-2.5330653564453125,0.5746083984375,-12.16793893129771,14.122137404580153,-30.198473282442748,0.0
12.330000638961792,-12.428300817871094,3.4668040039062498,9.3852705078125,44.54961832061068,-82.27480916030534,-8.65648854961832,-12.052411157226562,-5.257666845703125,-1.678335363769531,-7.221374045801527,28.244274809160306,-34.58015267175573,0.0
12.340000629425049,-12.097900988769531,3.6583401367187496,10.098742602539062,48.93129770992366,-98.90076335877863,-3.282442748091603,-13.778630554199218,-4.108450048828125,-0.49799394531249996,18.80916030534351,31.206106870229007,-37.80152671755725,0.0
12.350000619888306,-11.525686791992188,2.231395947265625,9.734823950195311,43.05343511450382,-124.68702290076335,3.4198473282442747,-15.370774658203125,-0.8403647827148437,1.599326708984375,45.23664122137404,26.580152671755727,-34.229007633587784,0.0
12.360000610351562,-11.17852755126953,-1.1635820068359375,9.014169250488282,37.954198473282446,-146.94656488549617,9.816793893129772,-13.551181396484374,3.3590649291992185,2.142810485839844,44.3206106870229,22.213740458015266,-25.587786259541986,0.0
12.37000036239624,-9.332598071289063,-7.264007836914062,5.671863732910156,60.93129770992366,-153.06870229007635,11.618320610687023,-12.061987963867187,3.749319799804687,2.3487118286132813,44.13740458015267,21.923664122137403,-7.190839694656488,0.0
12.380000829696655,-10.060435375976562,-6.76122548828125,0.2657563842773437,59.63358778625954,-160.38167938931298,0.22900763358778625,-11.458649145507811,3.1794998046874996,1.4867992309570313,41.64885496183206,19.404580152671755,5.404580152671755,0.0
12.390000581741333,-11.099518896484375,-5.820304235839844,-4.2137949218749995,63.083969465648856,-163.6793893129771,-12.030534351145038,-10.527304699707031,3.2824504760742186,0.6464344482421874,29.938931297709924,20.16793893129771,7.099236641221374,0.0
12.400000810623169,-9.34696328125,-6.124367846679687,-6.981492041015625,94.87022900763358,-148.24427480916032,-14.870229007633588,-9.402029919433593,1.2306196533203124,1.2737152832031249,6.99236641221374,30.47328244274809,6.595419847328245,0.0
12.410000801086426,-9.512163195800781,-5.456385583496093,-7.716511950683593,105.89312977099236,-129.87786259541986,-17.572519083969464,-9.811438403320311,-2.3487118286132813,0.6368576416015624,1.5114503816793894,26.229007633587788,2.8244274809160306,0.0
12.420000791549683,-8.94473740234375,-5.540182641601562,-7.936778503417968,132.70229007633588,-103.81679389312977,-17.49618320610687,-9.421183532714844,-3.9312791259765625,0.8930372192382812,-5.770992366412214,25.587786259541986,0.061068702290076333,0.0
12.430000305175781,-8.001421948242188,-3.4859576171874997,-8.451531860351562,138.5801526717557,-74.47328244274809,-29.129770992366414,-6.888118176269531,-3.4907460205078125,0.4908113403320312,-12.198473282442748,22.641221374045802,-5.0534351145038165,0.0
12.440000534057617,-9.267954626464844,1.668758557128906,-5.928043310546875,122.4885496183206,-48.412213740458014,-41.083969465648856,-9.248801013183593,-4.8314989501953125,1.209071838378906,-10.961832061068701,33.083969465648856,-1.282442748091603,0.0
12.450000524520874,-10.809820495605468,4.5968671875,-3.1699229980468746,103.93893129770993,-27.786259541984734,-41.98473282442748,-10.740388647460938,-6.41646044921875,1.3910311645507811,1.3740458015267176,29.46564885496183,-0.6106870229007634,0.0
12.46000051498413,-11.279084020996093,7.4699091796875,-0.9265560424804687,81.64885496183206,-13.587786259541986,-37.16030534351145,-10.429142431640624,-6.497863305664062,2.059013427734375,16.229007633587788,21.282442748091604,-4.702290076335878,0.0
12.470000267028809,-11.188104357910156,8.935160595703124,0.46208092041015625,44.62595419847328,-13.49618320610687,-22.82442748091603,-10.019733947753906,-5.003881469726562,1.5849614990234373,29.236641221374047,12.076335877862595,-9.709923664122137,0.0
12.480000495910645,-9.521740002441407,8.398859423828124,0.6200982299804687,13.297709923664122,-11.755725190839694,-7.068702290076335,-9.418789331054686,-3.478775012207031,1.7166425903320313,30.27480916030534,8.83969465648855,-11.419847328244275,0.0
12.490000486373901,-8.080430603027343,7.192181787109375,0.39264907226562495,-16.641221374045802,-9.389312977099237,4.290076335877862,-8.877699755859375,-2.221819140625,1.70467158203125,27.84732824427481,8.641221374045802,-10.01526717557252,0.0
12.500000476837158,-6.83783994140625,5.257666845703125,-0.09576806640624999,-44.12213740458015,-7.129770992366412,11.633587786259541,-8.911218579101561,-1.7381904052734374,1.5275006591796874,26.137404580152673,6.625954198473282,-7.374045801526718,0.0
12.510000944137573,-5.805939025878906,3.5506010620117183,-0.679953271484375,-59.41984732824427,-2.564885496183206,14.854961832061068,-8.28633194580078,-0.5674257934570313,1.1276689819335937,20.50381679389313,4.198473282442748,-6.137404580152672,0.0
12.520000696182251,-5.8083332275390624,2.403778466796875,-0.7996633544921875,-70.0,2.564885496183206,18.137404580152673,-9.428366137695312,-1.7884686401367187,1.6112977172851561,22.80916030534351,4.6106870229007635,-3.3435114503816794,0.0
12.530000925064087,-4.991910461425781,0.47644613037109373,-0.9193734375,-73.05343511450381,9.511450381679388,21.083969465648856,-9.244012609863281,-1.2856862915039062,1.5466542724609373,24.625954198473284,0.8091603053435115,-5.541984732824427,0.0
12.540000677108765,-5.011064074707031,-0.2059013427734375,-0.5410895751953124,-71.87786259541984,16.18320610687023,21.709923664122137,-8.667010009765624,0.076614453125,1.7932570434570312,21.129770992366414,-1.3282442748091603,-7.572519083969466,0.0
12.550000429153442,-3.900154504394531,-2.454056701660156,-0.5243301635742187,-66.51908396946565,21.17557251908397,22.427480916030536,-7.850587243652344,1.0917559570312498,1.9105729248046874,11.664122137404581,-1.8778625954198473,-8.183206106870228,0.0
12.560000658035278,-4.062960217285156,-2.9041666137695312,0.5458779785156249,-59.61832061068702,31.022900763358777,17.0381679389313,-7.3549875,2.300827795410156,1.7118541870117185,-3.4198473282442747,-0.061068702290076333,-6.9465648854961835,0.0
12.570000648498535,-3.5529952636718747,-2.6048914062499997,1.2785036865234374,-58.62595419847328,35.770992366412216,10.687022900763358,-5.386953735351562,2.1404162841796874,1.5705962890624998,-19.709923664122137,-0.12213740458015267,-5.694656488549619,0.0
12.580000638961792,-4.7764323120117185,-2.3774422485351563,3.375824340820312,-54.900763358778626,41.61832061068702,8.259541984732824,-7.6279264892578125,0.8595183959960937,1.235408056640625,-32.06106870229008,5.465648854961832,-2.0,0.0
12.590000867843628,-5.542576843261719,-1.2282254516601563,4.69263525390625,-45.45038167938932,43.786259541984734,8.061068702290076,-9.030928662109375,-2.157175695800781,2.3965958618164063,-31.541984732824428,7.358778625954199,1.450381679389313,0.0
12.600000619888306,-3.5338416503906247,-2.834734765625,3.758896606445312,-11.267175572519085,49.23664122137404,11.282442748091603,-8.585607153320312,-4.802768530273437,2.2194249389648437,-13.32824427480916,-3.435114503816794,0.7022900763358778,0.0
12.610000371932983,-5.3199160888671875,-1.6424223388671875,4.601655590820312,8.50381679389313,56.10687022900763,7.343511450381679,-9.734823950195311,-4.438849877929687,1.936909143066406,3.6793893129770994,-12.65648854961832,-3.404580152671756,0.0
12.62000036239624,-6.476315490722656,-0.36391865234375,4.967968444824218,26.549618320610687,59.541984732824424,5.374045801526718,-9.473855969238281,-2.5761609863281247,1.9632453613281249,5.435114503816794,-16.259541984732824,-6.1679389312977095,0.0
12.630000591278076,-7.110778930664062,-0.0047884033203125,5.351040710449219,35.465648854961835,60.25954198473283,4.473282442748092,-10.493785876464843,-2.77727392578125,2.2290017456054687,8.900763358778626,-16.916030534351144,-2.4732824427480917,0.0
12.640000820159912,-7.898471276855468,-0.23223756103515625,6.150704064941406,41.02290076335878,56.44274809160305,3.5267175572519083,-9.947907897949218,-2.205059729003906,2.4588451049804685,21.87786259541985,-30.198473282442748,-2.0763358778625953,0.0
12.65000057220459,-7.917624890136718,-0.718260498046875,6.816292126464844,55.52671755725191,52.94656488549618,3.282442748091603,-8.827421520996094,0.5458779785156249,2.3151930053710936,16.045801526717558,-36.80916030534351,-4.137404580152672,0.0
12.660000801086426,-8.851363537597656,0.13646949462890623,8.020575561523437,61.770992366412216,47.465648854961835,1.9236641221374047,-7.362170104980469,0.6967126831054687,1.8938135131835936,13.206106870229007,-38.74809160305343,-0.7633587786259542,0.0
12.670000553131104,-9.859322436523437,0.02633621826171875,8.82981572265625,52.61068702290076,35.3587786259542,-2.366412213740458,-7.362170104980469,0.28730419921875,2.5809493896484375,16.106870229007633,-40.58015267175573,6.641221374045801,0.0
12.68000078201294,-11.396399902343749,0.5674257934570313,10.043675964355469,48.97709923664122,24.259541984732824,-3.435114503816794,-6.210559106445312,1.6208745239257811,1.1109095703125,2.7938931297709924,-44.51908396946565,5.4961832061068705,0.0
12.690000534057617,-12.612654345703124,2.0087351928710935,9.847351428222655,42.656488549618324,13.969465648854962,2.3053435114503817,-5.4779333984375,1.8842367065429686,0.35194764404296874,-23.96946564885496,-37.083969465648856,6.702290076335878,0.0
12.700000524520874,-15.33486163330078,6.737283471679687,7.625532287597656,25.31297709923664,6.442748091603053,12.320610687022901,-7.48906279296875,-1.13006318359375,1.3192051147460937,-37.64885496183206,-30.519083969465647,11.86259541984733,0.0
12.71000051498413,-17.539921362304685,8.688557824707031,4.843469958496094,3.5419847328244276,-0.8549618320610687,26.48854961832061,-11.288660827636718,-3.778050219726562,2.403778466796875,-34.19847328244275,-25.83206106870229,15.816793893129772,0.0
12.720000267028809,-19.87905638427734,6.548141540527343,5.125985754394531,-20.15267175572519,-4.152671755725191,41.038167938931295,-11.228805786132812,-3.3351229125976563,1.3551181396484375,-34.916030534351144,-29.954198473282442,13.908396946564885,0.0
12.730000495910645,-18.54069765625,-0.11013327636718749,5.032611889648437,-30.38167938931298,-10.01526717557252,46.76335877862596,-12.514492077636717,-4.072537023925781,0.8379705810546875,-30.213740458015266,-23.083969465648856,18.916030534351144,0.0
12.740000486373901,-17.523161950683594,0.11013327636718749,5.142745166015625,-21.541984732824428,-10.625954198473282,39.37404580152672,-11.719617126464843,-3.3542765258789062,-0.28969840087890625,-23.908396946564885,-23.267175572519083,21.633587786259543,0.0
12.750000476837158,-15.883133813476562,1.3910311645507811,3.201047619628906,-9.694656488549619,-14.641221374045802,34.38167938931298,-12.607865942382812,-2.6791116577148437,-1.3120225097656248,-17.862595419847327,-18.137404580152673,22.106870229007633,0.0
12.760000705718994,-12.172121240234373,1.8842367065429686,0.9840168823242187,-7.816793893129771,-13.49618320610687,34.47328244274809,-12.9095353515625,-2.243366955566406,-1.838746875,-20.412213740458014,-11.816793893129772,19.84732824427481,0.0
12.77000093460083,-9.521740002441407,0.18435352783203124,1.0127473022460938,-22.99236641221374,-12.13740458015267,27.404580152671755,-13.223175769042967,-2.8658593872070313,-2.2026655273437497,-21.541984732824428,-6.33587786259542,14.534351145038167,0.0
12.780000686645508,-7.242460021972656,-2.3127988037109373,0.1149216796875,-29.69465648854962,-15.022900763358779,19.61832061068702,-15.205574743652344,-3.076549133300781,-0.9361328491210937,-7.038167938931298,2.5343511450381677,13.297709923664122,0.0
12.790000915527344,-4.963180041503906,-3.7804444213867185,-1.2928688964843749,-21.66412213740458,-10.687022900763358,11.954198473282442,-14.207192651367187,-1.5634136840820312,-0.9816226806640624,0.9312977099236641,2.8702290076335877,10.916030534351146,0.0
12.800000429153442,-4.817133740234374,-2.9041666137695312,-2.626439221191406,-12.16793893129771,-0.33587786259541985,3.8473282442748094,-13.352462658691405,-0.40462008056640625,-0.9983820922851562,4.8396946564885495,6.1679389312977095,11.770992366412214,0.0
12.810000658035278,-5.700594152832031,-0.28969840087890625,-3.9552211425781247,-10.458015267175572,9.923664122137405,-3.1908396946564888,-12.253524096679687,1.2018892333984375,-1.2904746948242187,3.7404580152671754,8.534351145038167,14.061068702290076,0.0
12.820000410079956,-7.323862878417969,2.3870190551757813,-3.4452561889648434,-14.977099236641221,22.48854961832061,-4.809160305343512,-11.875240234375,2.8945898071289062,-1.01514150390625,-4.2748091603053435,15.557251908396946,18.549618320610687,0.0
12.830000638961792,-8.580818749999999,2.4492682983398435,-2.4133552734375,-20.53435114503817,30.68702290076336,0.030534351145038167,-9.787496386718749,2.7581203125,-1.120486376953125,-14.763358778625955,21.083969465648856,23.770992366412212,0.0
12.840000629425049,-8.537723120117187,-0.13168109130859373,-1.7621324218749999,-9.557251908396946,45.02290076335878,3.480916030534351,-9.191340173339842,1.197100830078125,-0.3902548706054687,-19.328244274809162,26.366412213740457,28.290076335877863,0.0
12.850000619888306,-9.296685046386719,-0.5482721801757812,-1.6903063720703124,0.10687022900763359,57.221374045801525,-0.6564885496183206,-9.87608184814453,-0.6153098266601562,0.8858546142578124,-10.198473282442748,31.16030534351145,31.450381679389313,0.0
12.860000610351562,-9.911994873046874,0.6655880615234374,-1.2880804931640624,2.7022900763358777,62.97709923664122,-7.190839694656488,-9.557653027343749,-1.3359645263671873,1.5945383056640625,4.977099236641221,29.34351145038168,28.442748091603054,0.0
12.87000060081482,-10.606313354492187,1.0606313354492187,-0.35673604736328124,1.2366412213740459,67.3587786259542,-10.473282442748092,-10.613495959472656,-0.6775590698242188,1.7286135986328124,9.801526717557252,28.458015267175572,25.022900763358777,0.0
12.880000829696655,-10.919953771972656,2.039859814453125,0.5674257934570313,-7.4961832061068705,66.0,-11.267175572519085,-9.469067565917967,0.49799394531249996,1.5490484741210937,6.320610687022901,26.33587786259542,21.068702290076335,0.0
12.890000581741333,-11.389217297363281,3.0142998901367184,1.675941162109375,-20.442748091603054,61.23664122137404,-11.541984732824428,-9.756371765136718,1.2593500732421874,1.1851298217773436,2.213740458015267,21.984732824427482,19.34351145038168,0.0
12.900000810623169,-10.627861169433594,2.5426421630859375,2.080561242675781,-28.99236641221374,56.61068702290076,-10.564885496183207,-9.861716638183593,1.608903515625,1.120486376953125,-8.931297709923664,19.64885496183206,19.801526717557252,0.0
12.910000801086426,-11.020510241699219,2.7246014892578123,2.4971523315429685,-39.11450381679389,51.3587786259542,-10.0,-10.886434948730468,1.2976572998046874,1.3048399047851562,-15.236641221374045,18.229007633587788,22.610687022900763,0.0
12.920000791549683,-10.424354028320312,1.6831237670898436,1.8602946899414061,-41.41984732824427,42.38167938931298,-8.198473282442748,-10.505756884765624,1.0103531005859374,1.2761094848632812,-22.213740458015266,14.564885496183207,24.03053435114504,0.0
12.93000054359436,-10.869675537109375,3.2704794677734372,2.090138049316406,-44.12213740458015,38.33587786259542,-7.572519083969466,-11.235988391113281,0.13168109130859373,1.7573440185546874,-21.923664122137403,13.511450381679388,27.49618320610687,0.0
12.940000534057617,-9.414000927734374,1.2737152832031249,1.0821791503906248,-41.80152671755725,30.53435114503817,-3.2519083969465647,-9.866505041503906,0.689530078125,1.1923124267578125,-28.412213740458014,7.984732824427481,25.603053435114504,0.0
12.950000524520874,-9.555258825683593,1.2665326782226562,0.9959878906249999,-35.81679389312977,29.251908396946565,-0.6106870229007634,-10.103531005859374,0.05985504150390625,1.4700398193359374,-28.33587786259542,7.480916030534351,26.290076335877863,0.0
12.96000051498413,-9.892841259765625,1.637633935546875,1.465251416015625,-31.923664122137403,28.82442748091603,-0.13740458015267176,-9.753977563476562,-0.46208092041015625,1.7357962036132812,-27.114503816793892,5.129770992366412,25.00763358778626,0.0
12.970000267028809,-10.31661495361328,1.7788918334960937,1.656787548828125,-30.717557251908396,25.755725190839694,1.7709923664122138,-11.034875451660156,-1.0534487304687499,2.128445275878906,-16.549618320610687,1.9083969465648856,24.38167938931298,0.0
12.980000495910645,-9.993397729492187,1.2976572998046874,1.3383587280273437,-28.458015267175572,23.17557251908397,2.9618320610687023,-10.388441003417968,-0.507570751953125,1.656787548828125,-12.549618320610687,-5.358778625954199,20.610687022900763,0.0
12.990000486373901,-10.019733947753906,1.4053963745117186,1.0989385620117187,-28.50381679389313,21.923664122137403,3.0381679389312977,-9.995791931152343,-0.17238251953125,2.6384102294921874,-13.954198473282442,-5.083969465648855,18.229007633587788,0.0
13.000000476837158,-9.617508068847656,1.1013327636718748,0.8020575561523438,-28.03053435114504,21.297709923664122,3.053435114503817,-9.986215124511718,1.0749965454101562,1.1851298217773436,-18.977099236641223,-8.946564885496183,15.251908396946565,0.0
13.010000705718994,-9.756371765136718,1.13006318359375,0.6703764648437499,-28.15267175572519,20.18320610687023,2.4580152671755724,-10.46984385986328,1.0534487304687499,1.2689268798828124,-24.80916030534351,-8.992366412213741,16.244274809160306,0.0
13.020000696182251,-9.732429748535155,0.8786720092773437,0.7685387329101562,-27.206106870229007,19.709923664122137,2.1068702290076335,-10.364498986816406,0.6560112548828124,1.6448165405273436,-32.42748091603053,-8.717557251908397,18.198473282442748,0.0
13.030001163482666,-9.868899243164062,0.5578489868164063,0.8643067993164062,-26.198473282442748,19.419847328244273,2.6717557251908395,-9.770736975097655,1.1635820068359375,0.9050082275390624,-39.69465648854962,-9.618320610687023,16.83969465648855,0.0
13.040000677108765,-10.046070166015625,0.6751648681640625,1.0103531005859374,-23.984732824427482,19.66412213740458,2.9160305343511452,-9.708487731933593,0.7422025146484375,0.9193734375,-43.63358778625954,-8.702290076335878,17.389312977099237,0.0
13.050000667572021,-10.168174450683592,0.7302315063476562,1.1013327636718748,-23.72519083969466,18.061068702290076,1.83206106870229,-10.225635290527343,-0.6368576416015624,1.1156979736328125,-41.02290076335878,-6.916030534351145,18.045801526717558,0.0
13.060000658035278,-10.014945544433592,0.4070142822265625,0.9026140258789062,-22.137404580152673,16.259541984732824,0.0916030534351145,-9.325415466308593,-1.0438719238281249,0.3112462158203125,-32.48854961832061,-14.076335877862595,13.419847328244275,0.0
13.070000410079956,-10.335768566894531,0.5195417602539062,1.0007762939453124,-20.50381679389313,15.19083969465649,-2.33587786259542,-11.712434521484374,-0.41898529052734373,1.0582371337890624,-22.763358778625953,-11.587786259541986,13.389312977099237,0.0
13.080000638961792,-10.13226142578125,0.7326257080078125,0.9097966308593749,-16.15267175572519,16.15267175572519,-3.2213740458015265,-10.407594616699217,-0.6081272216796875,1.3000515014648437,-18.610687022900763,-12.610687022900763,11.221374045801527,0.0
13.090000629425049,-10.002974536132811,1.2282254516601563,0.6081272216796875,-14.67175572519084,16.458015267175572,-3.7557251908396947,-10.036493359375,-0.7805097412109374,0.3112462158203125,-15.450381679389313,-16.9618320610687,8.213740458015268,0.0
13.100000619888306,-9.708487731933593,1.7477672119140624,0.4429273071289062,-13.816793893129772,16.03053435114504,-3.1603053435114505,-9.153032946777342,1.0965443603515623,-0.30885201416015623,-17.282442748091604,-17.633587786259543,4.702290076335878,0.0
13.110000610351562,-9.464279162597656,2.24097275390625,0.3687070556640625,-16.53435114503817,16.38167938931298,-2.7022900763358777,-8.494627490234375,0.9050082275390624,0.3327940307617187,-30.091603053435115,-9.969465648854962,3.5267175572519083,0.0
13.12000060081482,-9.406818322753905,2.4684219116210935,0.4908113403320312,-20.27480916030534,17.068702290076335,-2.213740458015267,-8.817844714355468,0.5985504150390625,0.3711012573242187,-39.51145038167939,-3.954198473282443,4.106870229007634,0.0
13.130000591278076,-9.765948571777344,2.530671154785156,0.3495534423828125,-25.16030534351145,15.648854961832061,-0.32061068702290074,-10.096348400878906,-1.0917559570312498,0.7254431030273437,-34.13740458015267,-2.16793893129771,5.435114503816794,0.0
13.140000343322754,-9.76116016845703,2.39420166015625,0.076614453125,-26.717557251908396,15.954198473282442,0.7175572519083969,-10.31661495361328,-1.3862427612304686,1.218648645019531,-27.740458015267176,-3.5419847328244276,3.099236641221374,0.0
13.15000057220459,-9.97184991455078,2.0159177978515626,0.023942016601562498,-29.69465648854962,16.015267175572518,2.4122137404580153,-9.648632690429688,-0.948103857421875,1.5346832641601562,-22.53435114503817,-4.198473282442748,0.2748091603053435,0.0
13.160000801086426,-10.029310754394531,1.9297265380859374,-0.023942016601562498,-32.412213740458014,17.00763358778626,2.885496183206107,-9.689334118652344,-0.82360537109375,2.0159177978515626,-18.885496183206108,-4.824427480916031,-0.916030534351145,0.0
13.170000553131104,-10.153809240722655,1.6927005737304686,0.1292868896484375,-37.221374045801525,16.3206106870229,2.6259541984732824,-9.349357482910156,-0.718260498046875,1.9105729248046874,-19.251908396946565,-6.580152671755725,-2.946564885496183,0.0
13.18000078201294,-10.065223779296874,1.3646949462890625,0.2753331909179687,-39.52671755725191,16.732824427480917,1.8931297709923665,-9.548076220703125,-0.4644751220703125,1.867477294921875,-18.549618320610687,-7.358778625954199,-3.7099236641221376,0.0
13.190000295639038,-10.345345373535155,1.16837041015625,0.6584054565429687,-41.725190839694655,16.641221374045802,1.9236641221374047,-9.689334118652344,-0.5363011718749999,2.042254016113281,-19.16030534351145,-8.427480916030534,-4.870229007633588,0.0
13.200000524520874,-9.986215124511718,0.7278373046875,0.8451531860351562,-38.229007633587784,16.35114503816794,1.4198473282442747,-9.97184991455078,-0.9241618408203125,2.3535002319335936,-16.625954198473284,-9.450381679389313,-4.854961832061068,0.0
13.21000051498413,-9.988609326171874,0.4070142822265625,0.7517793212890624,-35.19083969465649,14.793893129770993,1.816793893129771,-10.556035119628906,-1.4245499877929686,2.0781670410156248,-3.4198473282442747,-16.641221374045802,-5.9541984732824424,0.0
13.220000267028809,-9.753977563476562,0.2154781494140625,0.5602431884765625,-28.732824427480917,14.748091603053435,0.8091603053435115,-11.056423266601563,-1.9129671264648436,3.6655227416992187,9.17557251908397,-18.33587786259542,-4.961832061068702,0.0
13.230000495910645,-9.56962403564453,0.00239420166015625,0.42377369384765623,-22.18320610687023,15.099236641221374,0.13740458015267176,-9.871293444824218,-1.3623007446289062,2.5139117431640625,17.129770992366414,-27.206106870229007,-8.931297709923664,0.0
13.240000247955322,-9.483432775878907,0.05985504150390625,0.6009446166992187,-18.442748091603054,15.954198473282442,-1.2366412213740459,-9.028534460449219,-0.6727706665039062,2.118868469238281,17.862595419847327,-31.221374045801525,-11.114503816793894,0.0
13.250000476837158,-9.05965908203125,0.316034619140625,0.5626373901367188,-13.541984732824428,16.53435114503817,-1.9389312977099236,-8.449137658691406,0.8978256225585937,1.889025109863281,13.816793893129772,-31.374045801526716,-12.65648854961832,0.0
13.260000705718994,-9.672574707031249,1.2808978881835937,0.9050082275390624,-14.778625954198473,16.702290076335878,-3.0076335877862594,-8.877699755859375,2.1164742675781247,1.3335703247070312,-2.0610687022900764,-25.84732824427481,-11.893129770992367,0.0
13.27000117301941,-9.718064538574218,1.22583125,0.7852981445312499,-14.534351145038167,15.419847328244275,-0.9618320610687023,-9.018957653808593,0.9576806640625,1.675941162109375,-9.557251908396946,-20.076335877862597,-7.786259541984733,0.0
13.280000686645508,-9.89523546142578,1.5035586425781249,1.4173673828125,-7.312977099236641,20.65648854961832,-2.6106870229007635,-8.858546142578124,0.38786066894531246,1.8770541015625,-13.664122137404581,-16.137404580152673,-6.748091603053435,0.0
13.290000677108765,-10.450690246582031,1.8770541015625,1.0462661254882812,-11.404580152671755,15.251908396946565,-1.83206106870229,-9.239224206542968,-0.239420166015625,1.8770541015625,-9.740458015267176,-14.702290076335878,-6.6106870229007635,0.0
13.300000429153442,-10.144232434082031,1.1540052001953125,0.5434837768554687,-9.49618320610687,11.19083969465649,0.21374045801526717,-9.504980590820312,-1.3479355346679687,1.8531120849609375,0.916030534351145,-14.595419847328245,-5.9541984732824424,0.0
13.310000658035278,-9.854534033203125,0.5626373901367188,0.5386953735351562,-5.068702290076335,10.412213740458014,0.6259541984732825,-8.901641772460938,-1.5203180541992187,1.924938134765625,11.099236641221374,-17.068702290076335,-9.297709923664122,0.0
13.320000648498535,-9.698910925292969,0.30885201416015623,0.689530078125,-0.24427480916030533,10.106870229007633,-1.083969465648855,-9.641450085449218,-2.2840683837890623,2.3918074584960936,19.099236641221374,-14.67175572519084,-9.679389312977099,0.0
13.330000400543213,-9.356540087890625,-0.055066638183593745,0.59376201171875,3.7404580152671754,9.770992366412214,-2.5801526717557253,-10.091559997558592,-1.3670891479492187,1.6998831787109374,26.625954198473284,-17.404580152671755,-12.549618320610687,0.0
13.340000629425049,-8.087613208007811,-1.2138602416992186,-0.0143652099609375,15.32824427480916,11.664122137404581,-4.137404580152672,-8.781931689453124,0.06943184814453125,1.4987702392578124,24.091603053435115,-18.16793893129771,-14.916030534351146,0.0
13.350000381469727,-8.042123376464843,0.507570751953125,0.39264907226562495,19.358778625954198,15.618320610687023,-7.4961832061068705,-8.200140686035155,0.49320554199218747,1.0606313354492187,14.748091603053435,-14.290076335877863,-15.969465648854962,0.0
13.360000610351562,-9.3852705078125,1.8555062866210936,0.9121908325195311,11.312977099236642,12.13740458015267,-7.770992366412214,-8.003816149902343,1.2330138549804688,0.6512228515624999,5.022900763358779,-9.068702290076336,-16.717557251908396,0.0
13.37000060081482,-11.02529864501953,3.227383837890625,1.9393033447265624,7.877862595419847,12.290076335877863,-7.862595419847328,-9.404424121093749,-0.3806780639648437,2.0638018310546875,3.435114503816794,0.8244274809160306,-12.778625954198473,0.0
13.380000829696655,-10.548852514648438,2.7461493041992187,2.3487118286132813,7.801526717557252,11.251908396946565,-7.175572519083969,-9.627084875488281,-0.8858546142578124,1.5634136840820312,5.022900763358779,-1.4809160305343512,-16.50381679389313,0.0
13.390000820159912,-10.781090075683593,2.6767174560546874,1.8052280517578123,0.9465648854961832,3.267175572519084,-4.0,-10.261548315429687,-1.3263877197265623,2.061407629394531,10.351145038167939,-0.3816793893129771,-18.290076335877863,0.0
13.40000057220459,-9.852139831542969,1.158793603515625,1.3359645263671873,10.427480916030534,2.9923664122137406,-1.2213740458015268,-9.279925634765624,-0.8978256225585937,2.1452046874999997,11.648854961832061,1.0534351145038168,-21.16030534351145,0.0
13.410000801086426,-9.710881933593749,1.3718775512695311,1.0989385620117187,12.229007633587786,3.618320610687023,-2.045801526717557,-9.181763366699219,-0.5817910034179687,2.138022082519531,12.198473282442748,1.282442748091603,-23.328244274809162,0.0
13.420000791549683,-9.904812268066406,1.9105729248046874,1.0295067138671874,12.366412213740459,3.0229007633587788,-4.427480916030534,-9.167398156738281,-0.584185205078125,2.1930887207031247,11.893129770992367,2.5801526717557253,-23.64885496183206,0.0
13.43000054359436,-10.000580334472655,2.1116858642578125,0.9792284790039062,9.221374045801527,1.251908396946565,-5.190839694656488,-9.22485899658203,-0.5267243652343749,2.1547814941406247,10.83969465648855,2.2900763358778624,-23.72519083969466,0.0
13.440000295639038,-9.660603698730467,1.66636435546875,1.0582371337890624,7.709923664122138,-0.15267175572519084,-5.4961832061068705,-9.160215551757812,-0.51714755859375,2.04943662109375,12.290076335877863,2.4122137404580153,-23.34351145038168,0.0
13.450000524520874,-10.141838232421874,2.1308394775390624,1.7166425903320313,3.49618320610687,-2.0763358778625953,-6.0,-8.927977990722656,-0.4955997436523437,2.0302830078125,13.541984732824428,1.633587786259542,-23.709923664122137,0.0
13.46000051498413,-9.79946739501953,2.142810485839844,1.8124106567382812,2.122137404580153,-4.259541984732825,-5.770992366412214,-8.88009395751953,-0.33039982910156246,1.917755529785156,15.17557251908397,1.9541984732824427,-23.297709923664122,0.0
13.470000267028809,-10.137049829101562,2.327164013671875,1.9297265380859374,-4.473282442748092,-10.045801526717558,-3.83206106870229,-8.736441857910156,-0.2753331909179687,1.8076222534179687,14.610687022900763,3.0229007633587788,-23.053435114503817,0.0
13.480000495910645,-8.827421520996094,1.5777788940429687,1.3407529296874998,-4.656488549618321,-16.53435114503817,-0.6106870229007634,-8.530540515136718,-0.3112462158203125,1.7405846069335937,14.183206106870228,4.5038167938931295,-23.129770992366414,0.0
13.490000486373901,-9.524134204101562,2.176329309082031,2.39420166015625,-5.526717557251908,-14.854961832061068,-1.9694656488549618,-8.226476904296874,-0.5602431884765625,1.656787548828125,13.282442748091603,5.221374045801527,-22.458015267175572,0.0
13.500000476837158,-10.290278735351562,1.1180921752929687,2.020706201171875,-6.687022900763359,-18.396946564885496,-2.5801526717557253,-8.173804467773436,-0.7015010864257812,1.7980454467773437,13.419847328244275,6.809160305343512,-22.85496183206107,0.0
13.510001182556152,-9.287108239746093,1.879448303222656,2.370259643554687,-5.1603053435114505,-19.96946564885496,-3.633587786259542,-8.116343627929687,-0.8403647827148437,1.8531120849609375,13.49618320610687,7.679389312977099,-22.3206106870229,0.0
13.520000696182251,-9.832986218261718,1.1420341918945311,2.147598889160156,-7.32824427480916,-25.374045801526716,-3.5877862595419847,-8.202534887695313,-0.7757213378906249,1.89620771484375,14.458015267175572,8.702290076335878,-22.412213740458014,0.0
13.530000925064087,-10.836156713867187,1.0295067138671874,3.356670727539062,-6.595419847328245,-24.3206106870229,-4.641221374045801,-7.862558251953125,-0.6009446166992187,1.89620771484375,14.442748091603054,9.297709923664122,-22.38167938931298,0.0
13.540000677108765,-9.452308154296874,0.612915625,3.418919970703125,-3.312977099236641,-28.793893129770993,-4.625954198473282,-7.881711865234375,-0.3232172241210937,1.5801730957031248,15.068702290076336,9.038167938931299,-21.81679389312977,0.0
13.550000429153442,-9.394847314453125,0.9959878906249999,3.4835634155273434,-1.1755725190839694,-34.67175572519084,-5.969465648854962,-7.953537915039062,-0.086191259765625,1.5801730957031248,14.458015267175572,10.259541984732824,-20.80916030534351,0.0
13.560000896453857,-9.883264453125,0.49799394531249996,4.311957189941406,-0.030534351145038167,-40.87022900763359,-7.221374045801527,-7.812280017089844,0.1580173095703125,1.6017209106445311,13.221374045801527,10.549618320610687,-20.076335877862597,0.0
13.570000886917114,-9.552864624023437,0.4429273071289062,5.176263989257812,7.022900763358779,-48.229007633587784,-7.801526717557252,-7.407659936523437,0.16998831787109375,1.2378022583007813,10.732824427480915,11.938931297709924,-18.946564885496183,0.0
13.580000638961792,-10.026916552734374,1.2521674682617188,6.047753393554687,11.954198473282442,-55.86259541984733,-9.312977099236642,-6.766013891601562,0.7278373046875,0.6607996582031249,6.67175572519084,14.549618320610687,-18.396946564885496,0.0
13.590000629425049,-10.199299072265624,0.2657563842773437,6.4092778442382805,15.32824427480916,-65.80152671755725,-8.610687022900763,-6.5409589355468745,0.07422025146484375,0.9720458740234375,10.748091603053435,15.893129770992367,-16.366412213740457,0.0
13.600000619888306,-11.477802758789062,1.1468225952148436,7.845798840332031,23.068702290076335,-74.9618320610687,-9.48091603053435,-6.212953308105468,-1.5825672973632812,1.7812860351562498,12.534351145038167,14.030534351145038,-18.12213740458015,0.0
13.610000371932983,-11.786654772949218,-0.34715924072265625,8.75320126953125,30.65648854961832,-89.93893129770993,-7.312977099236641,-5.566518859863281,-2.6695348510742187,1.0438719238281249,3.8931297709923665,15.679389312977099,-22.793893129770993,0.0
13.62000060081482,-12.94065997314453,-0.5027823486328125,10.414777221679687,47.847328244274806,-101.23664122137404,-2.6259541984732824,-6.974309436035155,-1.4221557861328125,-0.35194764404296874,3.282442748091603,25.81679389312977,-19.984732824427482,0.0
13.630000591278076,-11.437101330566406,-2.607285607910156,9.038111267089842,67.95419847328245,-114.77862595419847,4.6106870229007635,-11.585541833496093,-0.9145850341796874,-0.016759411621093748,9.969465648854962,38.717557251908396,-22.65648854961832,0.0
13.640000820159912,-10.984597216796875,-3.086125939941406,6.208164904785156,78.19847328244275,-125.8473282442748,2.9923664122137406,-15.600618017578125,-2.1906945190429687,2.3151930053710936,17.16030534351145,47.6793893129771,-28.65648854961832,0.0
13.65000057220459,-9.56962403564453,-5.008669873046875,1.6328455322265625,89.02290076335878,-137.72519083969465,-1.9236641221374047,-16.49126103515625,-0.8164227661132812,4.690241052246093,24.610687022900763,50.30534351145038,-29.862595419847327,0.0
13.660000801086426,-9.4618849609375,-3.5865140869140624,-2.2457611572265623,104.41221374045801,-139.206106870229,-7.129770992366412,-15.540762976074218,-1.7645266235351562,4.50109912109375,46.48854961832061,38.79389312977099,-16.061068702290076,0.0
13.670000314712524,-8.798691101074219,-3.3207577026367185,-5.1882349975585935,112.41221374045801,-137.1145038167939,-11.114503816793894,-12.90235274658203,-0.1580173095703125,3.1364041748046874,59.603053435114504,25.328244274809162,-2.0610687022900764,0.0
13.68000054359436,-9.737218151855469,-3.287238879394531,-5.8226984375,125.08396946564885,-123.29770992366412,-12.366412213740459,-11.046846459960937,-0.229843359375,2.0925322509765625,61.908396946564885,24.885496183206108,9.358778625954198,0.0
13.690000534057617,-9.670180505371093,-2.8036101440429686,-6.105214233398437,128.9770992366412,-114.73282442748092,-14.244274809160306,-9.473855969238281,0.6296750366210937,0.17477672119140625,55.16030534351145,21.587786259541986,10.045801526717558,0.0
13.700000286102295,-10.769119067382812,-0.8188169677734375,-4.7022120605468745,137.26717557251908,-96.07633587786259,-16.48854961832061,-8.295908752441406,0.4644751220703125,-0.9361328491210937,30.091603053435115,27.16030534351145,6.595419847328245,0.0
13.71000051498413,-10.919953771972656,0.842758984375,-3.749319799804687,130.2290076335878,-84.41221374045801,-16.641221374045802,-7.943961108398437,-1.4867992309570313,-0.40462008056640625,9.694656488549619,37.11450381679389,5.251908396946565,0.0
13.720000505447388,-11.82975040283203,2.6240450195312497,-2.5641899780273434,118.33587786259542,-67.14503816793894,-17.129770992366414,-9.651026892089844,-5.1714755859374995,0.17956512451171874,9.877862595419847,41.770992366412216,6.229007633587786,0.0
13.730000495910645,-11.324573852539062,3.7995980346679685,-2.4444798950195312,103.69465648854961,-51.45038167938932,-14.427480916030534,-10.110713610839843,-5.875370874023437,0.24660277099609373,22.458015267175572,37.43511450381679,1.7557251908396947,0.0
13.740000486373901,-11.204863769531249,5.5090580200195305,-1.867477294921875,85.40458015267176,-37.17557251908397,-9.572519083969466,-8.633491186523438,-4.429273071289062,0.5027823486328125,27.52671755725191,33.49618320610687,-3.801526717557252,0.0
13.750000476837158,-10.395623608398436,5.944802722167968,-1.8555062866210936,59.20610687022901,-27.374045801526716,-3.6793893129770994,-8.719682446289061,-2.7150246826171873,0.38786066894531246,24.519083969465647,33.74045801526717,-5.404580152671755,0.0
13.760000705718994,-8.303091357421874,5.511452221679687,-2.0350714111328125,28.15267175572519,-19.572519083969464,3.5877862595419847,-10.314220751953124,-3.1699229980468746,0.8762778076171874,22.396946564885496,35.06870229007634,-1.786259541984733,0.0
13.77000093460083,-8.463502868652343,5.659892724609374,-0.45010991210937495,-1.0229007633587786,-8.564885496183207,5.0534351145038165,-10.419565624999999,-3.833116857910156,1.9129671264648436,33.86259541984733,27.374045801526716,0.7480916030534351,0.0
13.780000686645508,-7.086836914062499,3.366247534179687,-0.5722141967773438,-22.091603053435115,-6.091603053435114,7.343511450381679,-11.130643518066405,-2.722207287597656,2.051830822753906,44.33587786259542,24.198473282442748,-0.7938931297709924,0.0
13.790001153945923,-6.373364819335937,2.4444798950195312,0.1388636962890625,-40.50381679389313,1.6793893129770991,7.526717557251908,-8.109161022949218,-0.5363011718749999,1.0917559570312498,40.42748091603053,17.450381679389313,-5.603053435114504,0.0
13.800000667572021,-4.939238024902344,1.0678139404296874,-0.0047884033203125,-52.18320610687023,5.847328244274809,6.473282442748092,-7.333439685058593,0.612915625,1.2138602416992186,29.358778625954198,16.870229007633586,-5.221374045801527,0.0
13.8100004196167,-5.951985327148437,0.7134720947265625,1.0175357055664063,-69.96946564885496,10.961832061068701,3.49618320610687,-8.12113203125,1.1348515869140625,0.8738836059570312,21.114503816793892,15.251908396946565,-3.3435114503816794,0.0
13.820000410079956,-5.080495922851562,-0.5913678100585937,1.1252747802734375,-81.87786259541984,11.648854961832061,1.6030534351145038,-7.6231380859375,1.0103531005859374,1.0103531005859374,8.702290076335878,12.01526717557252,-2.427480916030534,0.0
13.830000638961792,-4.242525341796875,-1.8914193115234375,0.9409212524414062,-80.01526717557252,15.786259541984732,1.3893129770992367,-8.300697155761718,0.316034619140625,1.9488801513671874,1.786259541984733,13.98473282442748,0.22900763358778625,0.0
13.840000867843628,-2.6479870361328124,-4.687846850585937,0.603338818359375,-65.95419847328245,23.053435114503817,-0.21374045801526717,-9.588777648925781,-0.3016694091796875,2.5163059448242184,-3.282442748091603,15.206106870229007,2.351145038167939,0.0
13.850000619888306,-3.8139632446289062,-4.946420629882812,2.013523596191406,-46.36641221374046,36.030534351145036,-6.625954198473282,-10.395623608398436,-1.7525556152343749,2.6312276245117188,-4.213740458015267,13.236641221374045,2.8244274809160306,0.0
13.860000371932983,-4.735730883789063,-3.938461730957031,2.7557261108398436,-23.64885496183206,44.213740458015266,-13.206106870229007,-9.13627353515625,-1.3335703247070312,2.473210314941406,-6.2748091603053435,5.9541984732824424,-1.3129770992366412,0.0
13.87000060081482,-6.387730029296875,-1.4101847778320311,4.134786267089844,-8.320610687022901,47.11450381679389,-17.221374045801525,-9.828197814941406,-2.2457611572265623,2.7964275390625,-6.305343511450381,0.9465648854961832,-2.0763358778625953,0.0
13.880000352859497,-7.939172705078125,-2.2361843505859373,5.427655163574219,13.038167938931299,55.02290076335878,-16.702290076335878,-9.871293444824218,-2.0350714111328125,2.8227637573242186,-5.893129770992366,-2.885496183206107,-0.04580152671755725,0.0
13.890030145645142,-5.279214660644531,-1.7429788085937499,3.7038299682617186,41.14503816793893,56.2442748091603,-15.98473282442748,-8.968679418945312,-1.8507178833007811,2.2960393920898436,-6.580152671755725,-10.290076335877863,-0.6106870229007634,0.0
13.90000057220459,-6.902483386230468,0.40940848388671874,4.618415002441406,52.18320610687023,59.404580152671755,-19.81679389312977,-8.973467822265624,-1.678335363769531,2.133233679199219,-5.587786259541985,-15.083969465648854,0.7480916030534351,0.0
13.910000562667847,-7.1586629638671875,0.9720458740234375,4.570530969238281,59.29770992366412,57.404580152671755,-18.641221374045802,-9.588777648925781,-3.6439749267578123,3.1411925781249996,1.3740458015267176,-17.633587786259543,3.8625954198473282,0.0
13.920000791549683,-7.522581616210937,1.2569558715820313,4.7955859252929685,64.99236641221374,53.45038167938932,-15.969465648854962,-9.4618849609375,-4.187458703613281,3.3255461059570313,22.702290076335878,-27.96946564885496,2.6717557251908395,0.0
13.930000305175781,-7.592013464355468,1.0941501586914062,5.303156677246093,67.8473282442748,47.32824427480916,-14.83969465648855,-9.466673364257812,-3.84987626953125,3.555389465332031,36.44274809160305,-39.404580152671755,-2.8091603053435112,0.0
13.940000772476196,-8.621520178222656,2.789244934082031,6.404489440917969,71.8473282442748,43.49618320610687,-14.13740458015267,-8.240842114257813,-1.369483349609375,2.8036101440429686,37.20610687022901,-47.57251908396947,-8.778625954198473,0.0
13.950000524520874,-8.532934716796875,4.9416322265625,7.278373046874999,58.56488549618321,31.893129770992367,-12.961832061068701,-6.940790612792968,1.388636962890625,2.1212626708984375,17.557251908396946,-47.17557251908397,-11.083969465648854,0.0
13.960000276565552,-9.572018237304688,6.011840368652344,8.262389929199218,37.31297709923664,20.03053435114504,-8.82442748091603,-7.278373046874999,1.5227122558593749,2.521094348144531,4.122137404580153,-44.36641221374046,-4.824427480916031,0.0
13.970000267028809,-9.291896643066405,5.664681127929687,8.698134631347656,21.267175572519083,5.404580152671755,-0.8854961832061069,-6.68461103515625,1.5897499023437498,2.3965958618164063,-3.8473282442748094,-51.17557251908397,1.1297709923664123,0.0
13.980000495910645,-10.685322009277343,5.142745166015625,8.930372192382812,4.564885496183206,-11.099236641221374,11.587786259541986,-5.480327600097656,2.511517541503906,1.5729904907226562,-23.114503816793892,-50.83969465648855,6.732824427480916,0.0
13.990000247955322,-9.564835632324218,2.5641899780273434,6.426037255859375,13.511450381679388,-14.427480916030534,26.427480916030536,-5.078101721191406,2.0542250244140625,2.2098481323242187,-36.091603053435115,-44.80916030534351,16.519083969465647,0.0
14.000000238418579,-11.731588134765625,3.77326181640625,4.99909306640625,6.67175572519084,-14.458015267175572,34.93129770992366,-5.595249279785156,0.4070142822265625,2.185906115722656,-45.55725190839695,-44.38167938931298,21.572519083969464,0.0
14.010000944137573,-15.978901879882812,5.4013189453125,5.137956762695312,-9.679389312977099,-15.404580152671755,42.56488549618321,-7.601590270996093,-2.4875755249023435,2.31758720703125,-35.3587786259542,-45.20610687022901,28.85496183206107,0.0
14.020000457763672,-17.80088934326172,4.113238452148437,5.442020373535156,-28.412213740458014,-18.82442748091603,50.85496183206107,-9.509768994140625,-3.689464758300781,1.707065783691406,-28.580152671755727,-45.81679389312977,30.778625954198475,0.0
14.030000925064087,-19.608511596679687,3.469198205566406,5.906495495605468,-47.908396946564885,-28.137404580152673,52.412213740458014,-10.09395419921875,-3.153163586425781,0.239420166015625,-31.0381679389313,-44.12213740458015,26.80916030534351,0.0
14.040000677108765,-18.978836560058593,4.074931225585937,3.545812658691406,-49.87786259541985,-34.6412213740458,53.02290076335878,-11.595118640136718,-2.767697119140625,-1.5945383056640625,-39.083969465648856,-37.038167938931295,21.96946564885496,0.0
14.050000429153442,-14.180856433105468,4.144363073730468,-0.9935936889648437,-43.00763358778626,-32.76335877862596,58.48854961832061,-14.202404248046873,-3.0454245117187497,-2.806004345703125,-42.229007633587784,-28.198473282442748,19.52671755725191,0.0
14.060000658035278,-10.204087475585936,0.833182177734375,-1.3215993164062498,-41.7557251908397,-27.267175572519083,57.3587786259542,-16.83363187255859,-3.67749375,-3.0454245117187497,-38.12213740458015,-20.15267175572519,17.419847328244273,0.0
14.070000410079956,-7.340622290039062,-5.9974751586914055,1.2234370483398436,-32.93129770992366,-19.541984732824428,45.603053435114504,-18.057068920898438,-4.000710974121094,-2.8993782104492185,-25.251908396946565,-15.541984732824428,13.053435114503817,0.0
14.080000400543213,-7.3837179199218745,-7.529764221191406,2.93050283203125,-11.206106870229007,-11.145038167938932,23.31297709923664,-18.100164550781248,-3.727771984863281,-2.2170307373046874,-10.51908396946565,-10.366412213740459,7.297709923664122,0.0
14.090000629425049,-6.313509777832031,-4.862623571777344,-1.1228805786132812,1.8473282442748091,-11.98473282442748,5.068702290076335,-16.929399938964842,-2.2170307373046874,-2.0733786376953125,2.519083969465649,-5.7251908396946565,1.251908396946565,0.0
14.100000381469727,-7.096413720703125,-1.5322890624999999,-3.84987626953125,3.8625954198473282,-3.267175572519084,-7.7251908396946565,-15.418658691406248,-1.2234370483398436,-1.8602946899414061,6.091603053435114,1.6488549618320612,-2.030534351145038,0.0
14.110000610351562,-8.030152368164062,-0.30885201416015623,-4.474762902832031,-0.0916030534351145,7.877862595419847,-13.954198473282442,-13.539210388183593,-1.1061211669921875,-1.2617442749023438,16.732824427480917,5.374045801526718,-2.3969465648854964,0.0
14.12000060081482,-8.044517578125,0.51714755859375,-3.83072265625,12.82442748091603,25.893129770992367,-17.17557251908397,-10.579977136230468,0.48123453369140623,-0.9792284790039062,13.099236641221374,10.977099236641221,-3.5572519083969465,0.0
14.130000352859497,-9.567229833984374,2.4301146850585935,-2.3343466186523436,17.938931297709924,39.81679389312977,-19.19083969465649,-10.575188732910156,1.5083470458984374,-0.13168109130859373,15.16030534351145,21.66412213740458,0.7175572519083969,0.0
14.140000820159912,-10.20887587890625,3.7325603881835936,-1.678335363769531,13.17557251908397,47.12977099236641,-18.03053435114504,-9.282319836425781,0.6248866333007812,-0.15562310791015624,19.72519083969466,22.27480916030534,5.4961832061068705,0.0
14.15000033378601,-10.453084448242187,3.7014357666015623,-1.446097802734375,4.030534351145038,52.44274809160305,-14.610687022900763,-10.697293017578124,0.8858546142578124,1.3311761230468748,26.80916030534351,31.129770992366414,9.801526717557252,0.0
14.160000562667847,-9.952696301269532,3.366247534179687,-1.7286135986328124,-5.8320610687022905,54.3206106870229,-12.82442748091603,-10.632649572753905,1.6831237670898436,1.0462661254882812,27.0381679389313,30.763358778625953,10.305343511450381,0.0
14.170000553131104,-10.12507882080078,3.77326181640625,-1.0989385620117187,-20.625954198473284,55.465648854961835,-10.580152671755725,-10.24000050048828,2.3056161987304686,0.6823474731445313,23.14503816793893,30.80916030534351,11.84732824427481,0.0
14.18000078201294,-10.912771166992187,2.6886884643554687,0.047884033203124995,-32.33587786259542,56.12213740458015,-8.67175572519084,-10.058041174316406,1.9225439331054686,1.218648645019531,23.6793893129771,29.404580152671755,15.557251908396946,0.0
14.190000534057617,-10.64222637939453,1.0342951171875,0.5219359619140624,-36.87022900763359,55.083969465648856,-7.557251908396947,-9.2320416015625,3.299209887695312,0.9145850341796874,12.992366412213741,27.404580152671755,15.648854961832061,0.0
14.200000524520874,-10.376469995117187,0.9217676391601562,1.3407529296874998,-35.847328244274806,55.64885496183206,-8.51908396946565,-9.509768994140625,3.1459809814453124,0.9888052856445312,-0.4580152671755725,28.9618320610687,19.099236641221374,0.0
14.210000276565552,-8.93755479736328,0.2346317626953125,0.833182177734375,-29.96946564885496,53.404580152671755,-9.633587786259541,-9.054870678710937,2.770091320800781,1.6041151123046875,-16.27480916030534,31.206106870229007,21.96946564885496,0.0
14.220000505447388,-8.59278975830078,0.8643067993164062,1.2425906616210938,-28.732824427480917,53.404580152671755,-11.86259541984733,-9.093177905273437,1.9512743530273435,1.656787548828125,-24.580152671755727,28.80916030534351,24.16793893129771,0.0
14.230000734329224,-10.943895788574219,1.8531120849609375,2.2481553588867187,-33.69465648854962,48.56488549618321,-14.01526717557252,-9.550470422363281,2.2601263671875,1.3120225097656248,-27.862595419847327,23.541984732824428,24.885496183206108,0.0
14.240000486373901,-10.419565624999999,1.7932570434570312,1.7836802368164062,-32.48854961832061,43.87786259541985,-12.335877862595419,-10.32379755859375,1.6807295654296874,1.946485949707031,-36.76335877862596,22.48854961832061,27.87786259541985,0.0
14.250000238418579,-10.941501586914061,2.920926025390625,2.1835119140624997,-38.916030534351144,40.916030534351144,-10.625954198473282,-10.690110412597656,-0.4955997436523437,2.7629087158203123,-38.0763358778626,21.389312977099237,31.72519083969466,0.0
14.260000467300415,-9.686939916992188,1.180341418457031,1.7381904052734374,-35.52671755725191,38.30534351145038,-8.366412213740459,-9.275137231445312,0.3280056274414062,1.4987702392578124,-35.63358778625954,10.13740458015267,27.480916030534353,0.0
14.270000696182251,-9.943119494628906,1.7429788085937499,1.9009961181640624,-37.74045801526717,34.48854961832061,-6.412213740458015,-9.988609326171874,-0.18914193115234373,1.7956512451171873,-37.52671755725191,8.198473282442748,27.908396946564885,0.0
14.280000686645508,-9.200916979980468,0.603338818359375,1.3000515014648437,-34.229007633587784,30.641221374045802,-3.66412213740458,-9.200916979980468,0.016759411621093748,1.649604943847656,-41.541984732824424,5.312977099236641,26.519083969465647,0.0
14.290001153945923,-10.800243688964843,2.5234885498046875,2.4109610717773435,-35.66412213740458,29.0381679389313,-4.641221374045801,-9.888052856445311,-0.5458779785156249,1.5921441040039062,-41.786259541984734,3.6793893129770994,25.64885496183206,0.0
14.300000429153442,-10.31661495361328,1.8555062866210936,1.8938135131835936,-33.81679389312977,23.267175572519083,-2.7022900763358777,-9.619902270507811,-0.4836287353515625,1.455674609375,-42.2442748091603,0.3053435114503817,23.954198473282442,0.0
14.310000658035278,-10.031704956054687,1.1468225952148436,1.656787548828125,-29.893129770992367,18.9618320610687,0.07633587786259542,-10.137049829101562,-1.3910311645507811,1.4820108276367188,-39.29770992366412,-1.4809160305343512,23.633587786259543,0.0
14.320000410079956,-10.180145458984374,1.0773907470703123,1.687912170410156,-25.282442748091604,16.641221374045802,0.5954198473282443,-11.030087048339842,-2.114080065917969,1.7190367919921874,-27.66412213740458,-4.229007633587786,22.65648854961832,0.0
14.330000638961792,-9.988609326171874,0.7062894897460937,1.5897499023437498,-19.31297709923664,14.427480916030534,1.0687022900763359,-10.283096130371094,-2.327164013671875,0.9624690673828125,-19.87786259541985,-13.450381679389313,17.541984732824428,0.0
14.340000629425049,-10.462661254882812,0.9720458740234375,1.8626888916015625,-15.541984732824428,13.053435114503817,1.3740458015267176,-11.559205615234374,-2.0087351928710935,1.6519991455078125,-11.450381679389313,-12.442748091603054,16.16793893129771,0.0
14.350000619888306,-9.217676391601563,0.258573779296875,1.2832920898437499,-11.312977099236642,12.442748091603054,1.9389312977099236,-10.517727893066406,-1.3455413330078123,1.3383587280273437,-8.992366412213741,-20.30534351145038,11.221374045801527,0.0
14.360000610351562,-8.959102612304687,0.6751648681640625,0.842758984375,-10.351145038167939,12.641221374045802,0.32061068702290074,-9.392453112792968,0.3136404174804687,0.277727392578125,-16.16793893129771,-24.27480916030534,6.152671755725191,0.0
14.37000060081482,-9.87608184814453,2.090138049316406,1.1516109985351561,-14.274809160305344,13.48091603053435,-1.3282442748091603,-10.596736547851561,1.446097802734375,0.46208092041015625,-24.931297709923665,-18.702290076335878,6.564885496183206,0.0
14.380000352859497,-9.428366137695312,2.4157494750976563,0.7733271362304687,-16.900763358778626,13.618320610687023,-0.33587786259541985,-9.976638317871092,0.7278373046875,-0.105344873046875,-30.213740458015266,-18.717557251908396,5.984732824427481,0.0
14.390000581741333,-9.727641345214844,2.7198130859375,0.5410895751953124,-20.610687022900763,12.51908396946565,0.48854961832061067,-10.682927807617187,-0.9792284790039062,0.8403647827148437,-30.290076335877863,-14.50381679389313,7.8320610687022905,0.0
14.40000057220459,-9.689334118652344,2.243366955566406,0.28730419921875,-23.114503816793892,12.412213740458014,3.068702290076336,-9.91438907470703,-0.565031591796875,0.63206923828125,-26.12213740458015,-14.732824427480915,4.488549618320611,0.0
14.410000562667847,-10.618284362792968,2.0183119995117185,0.40222587890625,-25.297709923664122,12.51908396946565,3.4656488549618323,-11.350910070800781,-1.369483349609375,0.9911994873046874,-13.267175572519085,-13.740458015267176,4.458015267175573,0.0
14.420000791549683,-9.95987890625,1.01514150390625,0.24899697265624998,-24.137404580152673,13.083969465648854,2.946564885496183,-8.913612780761719,-1.848323681640625,0.9145850341796874,-8.65648854961832,-18.12213740458015,0.2748091603053435,0.0
14.430000305175781,-10.141838232421874,0.9074024291992187,0.181959326171875,-25.358778625954198,12.65648854961832,2.2290076335877864,-9.560047229003906,-0.74699091796875,0.30885201416015623,-4.5038167938931295,-17.49618320610687,-3.2213740458015265,0.0
14.440000534057617,-10.084377392578125,1.0510545288085937,0.5339069702148437,-26.198473282442748,13.32824427480916,0.8244274809160306,-9.239224206542968,-0.5123591552734374,0.6536170532226562,-6.152671755725191,-17.00763358778626,-4.091603053435114,0.0
14.450000524520874,-10.067617980957031,1.3000515014648437,0.9528922607421875,-28.65648854961832,12.687022900763358,-0.1984732824427481,-8.054094384765625,0.6296750366210937,-0.19632453613281248,-15.755725190839694,-15.633587786259541,-6.977099236641221,0.0
14.46000051498413,-9.95987890625,1.68551796875,1.458068811035156,-31.404580152671755,12.244274809160306,-0.1984732824427481,-8.379705810546875,1.2473790649414063,-0.32561142578124996,-27.587786259541986,-7.221374045801527,-5.9541984732824424,0.0
14.470000267028809,-9.955090502929687,1.6615759521484375,1.3072341064453123,-33.32824427480916,11.32824427480916,0.6870229007633588,-10.014945544433592,-0.4836287353515625,0.39983167724609375,-25.740458015267176,-1.7404580152671756,-2.4122137404580153,0.0
14.480000495910645,-9.916783276367187,1.5131354492187499,1.0486603271484374,-33.69465648854962,9.603053435114504,1.4198473282442747,-10.187328063964843,-1.5370774658203123,0.7637503295898437,-19.328244274809162,-1.6793893129770991,-3.2061068702290076,0.0
14.490000486373901,-9.849745629882811,1.0773907470703123,0.45968671875,-30.68702290076336,8.473282442748092,2.4122137404580153,-9.854534033203125,-0.8954314208984374,0.9696516723632812,-13.801526717557252,-2.1374045801526718,-6.763358778625954,0.0
14.500000476837158,-9.521740002441407,0.7876923461914062,-0.0143652099609375,-28.580152671755727,9.709923664122137,2.1374045801526718,-9.751583361816406,-0.8379705810546875,1.1324573852539062,-10.702290076335878,-2.366412213740458,-8.793893129770993,0.0
14.510000944137573,-9.859322436523437,1.1372457885742187,0.08858546142578125,-29.0381679389313,11.404580152671755,0.7175572519083969,-9.64623848876953,-0.5506663818359374,1.180341418457031,-10.061068702290076,-2.9160305343511452,-10.51908396946565,0.0
14.520000457763672,-9.667786303710937,0.5363011718749999,0.13646949462890623,-28.33587786259542,11.86259541984733,0.04580152671755725,-9.588777648925781,-0.699106884765625,1.4628572143554686,-8.854961832061068,-3.877862595419847,-11.389312977099237,0.0
14.530000925064087,-9.624690673828125,0.23702596435546874,0.4525041137695312,-27.786259541984734,11.618320610687023,-0.32061068702290074,-9.5384994140625,-0.6272808349609375,1.5107412475585937,-8.183206106870228,-6.091603053435114,-12.13740458015267,0.0
14.540000677108765,-9.87608184814453,0.16998831787109375,1.0726023437499999,-25.206106870229007,12.259541984732824,-2.183206106870229,-10.381258398437499,-1.6927005737304686,2.4061726684570313,-0.9465648854961832,-6.122137404580153,-10.793893129770993,0.0
14.550000429153442,-9.732429748535155,-0.21068974609375,1.3120225097656248,-20.061068702290076,11.32824427480916,-3.5114503816793894,-10.778695874023438,-1.4796166259765624,2.6384102294921874,5.984732824427481,-9.770992366412214,-12.13740458015267,0.0
14.560000658035278,-9.665392102050781,0.26336218261718747,1.458068811035156,-13.618320610687023,10.442748091603054,-4.732824427480916,-11.159373937988281,-0.584185205078125,2.7078420776367187,8.50381679389313,-11.34351145038168,-13.022900763358779,0.0
14.570000648498535,-9.782707983398437,0.8643067993164062,1.2306196533203124,-9.404580152671755,9.557251908396946,-4.717557251908397,-9.935936889648437,-1.369483349609375,2.887407202148437,15.86259541984733,-18.564885496183205,-13.48091603053435,0.0
14.580000400543213,-9.97903251953125,1.1372457885742187,1.2641384765625,-7.145038167938932,8.732824427480915,-5.1603053435114505,-9.581595043945311,-1.3192051147460937,2.50912333984375,23.221374045801525,-26.290076335877863,-15.511450381679388,0.0
14.590000629425049,-9.976638317871092,1.6017209106445311,1.0319009155273438,-4.900763358778626,9.068702290076336,-4.1679389312977095,-9.8449572265625,0.181959326171875,2.8131869506835936,23.908396946564885,-28.03053435114504,-16.427480916030536,0.0
14.600000619888306,-10.081983190917969,2.454056701660156,0.82360537109375,-6.854961832061068,9.541984732824428,-3.282442748091603,-9.102754711914063,1.16837041015625,2.4971523315429685,10.916030534351146,-28.16793893129771,-16.549618320610687,0.0
14.610247373580933,-10.08677159423828,3.1771056030273437,0.48123453369140623,-14.473282442748092,8.65648854961832,-1.3893129770992367,-9.10993731689453,2.29843359375,1.3862427612304686,-6.396946564885496,-24.061068702290076,-15.145038167938932,0.0
14.62000060081482,-9.852139831542969,2.81558115234375,0.2753331909179687,-21.908396946564885,7.404580152671755,0.8549618320610687,-10.235212097167969,0.201112939453125,2.5474305664062498,-17.87786259541985,-14.13740458015267,-8.183206106870228,0.0
14.630000829696655,-9.402029919433593,1.2832920898437499,0.1197100830078125,-26.3206106870229,6.5038167938931295,3.1908396946564888,-10.01733974609375,-0.21068974609375,2.592920397949219,-14.595419847328245,-16.50381679389313,-7.526717557251908,0.0
14.640000820159912,-9.476250170898437,0.30406361083984373,0.239420166015625,-21.72519083969466,8.564885496183207,2.931297709923664,-9.976638317871092,-0.18914193115234373,2.6240450195312497,-10.748091603053435,-18.33587786259542,-7.984732824427481,0.0
14.65000057220459,-9.380482104492186,0.7709329345703124,0.8762778076171874,-24.106870229007633,8.595419847328245,2.8091603053435112,-9.289502441406249,-0.09337386474609374,2.5737667846679684,-9.740458015267176,-18.27480916030534,-7.679389312977099,0.0
14.660000562667847,-9.507374792480467,0.7254431030273437,0.43574470214843747,-22.977099236641223,7.114503816793893,3.282442748091603,-8.911218579101561,0.38307226562499996,2.250549560546875,-6.961832061068702,-20.717557251908396,-7.465648854961832,0.0
14.670000553131104,-7.931990100097655,-0.7613561279296874,-0.35194764404296874,-15.587786259541986,6.1679389312977095,3.435114503816794,-8.961496813964843,0.5578489868164063,2.4109610717773435,-9.282442748091603,-18.885496183206108,-5.755725190839694,0.0
14.68000078201294,-10.16338604736328,1.5921441040039062,1.2832920898437499,-21.786259541984734,10.778625954198473,-0.8396946564885496,-8.305485559082031,1.0989385620117187,1.4987702392578124,-17.603053435114504,-17.755725190839694,-5.908396946564886,0.0
14.690000534057617,-10.177751257324218,1.4508862060546874,1.13006318359375,-23.893129770992367,8.183206106870228,-1.1908396946564885,-9.133879333496093,0.30406361083984373,1.7980454467773437,-19.61832061068702,-13.099236641221374,-2.16793893129771,0.0
14.700000524520874,-12.387599389648436,4.6830584472656245,2.6240450195312497,-35.70992366412214,8.213740458015268,-3.0839694656488548,-9.540893615722656,-0.36631285400390623,1.9033903198242186,-19.099236641221374,-11.954198473282442,-0.07633587786259542,0.0
14.710000276565552,-11.947066284179687,4.948814831542968,2.0566192260742184,-60.61068702290076,-6.977099236641221,1.5267175572519085,-10.570400329589843,-1.149216796875,1.9991583862304687,-7.862595419847328,-13.877862595419847,0.9770992366412213,0.0
14.720000505447388,-10.539275708007812,0.8595183959960937,0.7015010864257812,-57.038167938931295,-13.358778625954198,10.778625954198473,-9.466673364257812,-1.7118541870117185,1.649604943847656,-1.9694656488549618,-17.709923664122137,-0.0,0.0
14.730000495910645,-8.789114294433594,-1.7788918334960937,-0.16998831787109375,-40.30534351145038,-8.213740458015268,12.885496183206106,-9.830592016601562,-1.9776105712890624,1.9201497314453124,8.198473282442748,-19.053435114503817,-1.1297709923664123,0.0
14.740000486373901,-8.422801440429687,-2.93050283203125,-0.5123591552734374,-27.862595419847327,-0.6259541984732825,4.931297709923665,-8.961496813964843,-1.6304513305664061,1.9632453613281249,15.648854961832061,-20.27480916030534,-4.0,0.0
14.750000476837158,-8.149862451171874,-2.001552587890625,-0.05746083984375,-10.946564885496183,8.183206106870228,-2.7480916030534353,-8.858546142578124,-0.5961562133789062,1.7022773803710936,14.045801526717558,-18.580152671755727,-6.2748091603053435,0.0
14.760000467300415,-7.668627917480468,-1.5059528442382812,-0.09816226806640624,1.9389312977099236,13.526717557251908,-6.961832061068702,-8.09479581298828,-0.047884033203124995,1.6352397338867186,3.282442748091603,-11.114503816793894,-7.236641221374046,0.0
14.77000093460083,-10.189722265624999,2.27927998046875,1.5275006591796874,-5.801526717557252,15.16030534351145,-11.007633587786259,-8.671798413085938,-0.7278373046875,1.7980454467773437,-6.33587786259542,-3.7099236641221376,-6.091603053435114,0.0
