timestamp,Thigh_L_Acc_X,Thigh_L_Acc_Y,Thigh_L_Acc_Z,Thigh_L_Gyr_X,Thigh_L_Gyr_Y,Thigh_L_Gyr_Z,Thigh_R_Acc_X,Thigh_R_Acc_Y,Thigh_R_Acc_Z,Thigh_R_Gyr_X,Thigh_R_Gyr_Y,Thigh_R_Gyr_Z,gpio_output
10.000000238418579,-10.429142431640624,3.4620156005859375,2.47081611328125,-36.3206106870229,57.74045801526717,-7.190839694656488,-11.066000073242186,-0.02154781494140625,2.272097375488281,21.984732824427482,51.29770992366412,22.229007633587788,0.0
10.010000705718994,-11.176133349609374,2.2840683837890623,2.5330653564453125,-45.038167938931295,51.38931297709924,-4.183206106870229,-9.473855969238281,1.7932570434570312,2.104503259277344,19.51145038167939,39.725190839694655,20.580152671755727,1.0
10.020000457763672,-9.765948571777344,1.889025109863281,2.2385785522460937,-48.0763358778626,45.06870229007634,-1.816793893129771,-8.655039001464843,3.430890979003906,1.6543933471679686,5.114503816793893,39.587786259541986,21.114503816793892,1.0
10.030000686645508,-11.109095703125,1.4820108276367188,2.8610709838867185,-50.778625954198475,43.14503816793893,-0.6106870229007634,-9.804255798339844,2.4133552734375,2.195482922363281,-1.8931297709923665,40.83969465648855,26.366412213740457,1.0
10.040000677108765,-11.731588134765625,2.032677209472656,2.96881005859375,-51.83206106870229,38.76335877862596,-0.916030534351145,-10.694898815917968,-0.2657563842773437,3.8379052612304685,3.145038167938931,38.36641221374046,29.221374045801525,1.0
10.050000667572021,-9.964667309570311,0.21308394775390624,1.8315642700195311,-51.69465648854962,27.114503816793892,3.648854961832061,-9.488221179199218,1.7118541870117185,2.887407202148437,6.687022900763359,23.984732824427482,25.053435114503817,1.0
10.060000896453857,-10.108319409179687,-0.5698199951171875,1.7286135986328124,-36.94656488549618,26.213740458015266,6.824427480916031,-9.215282189941405,1.7022773803710936,2.8467057739257813,-4.732824427480916,22.68702290076336,26.580152671755727,1.0
10.070000648498535,-9.720458740234374,-0.5315127685546874,2.0925322509765625,-28.625954198473284,26.061068702290076,7.114503816793893,-8.602366564941406,2.1619640991210938,1.7836802368164062,-8.01526717557252,16.885496183206108,25.450381679389313,1.0
10.080000877380371,-10.488997473144531,0.17477672119140625,2.243366955566406,-23.022900763358777,23.96946564885496,6.412213740458015,-9.82580361328125,1.2785036865234374,2.0278888061523435,-13.221374045801527,15.98473282442748,27.206106870229007,1.0
10.090000629425049,-9.868899243164062,0.5339069702148437,1.7381904052734374,-19.0381679389313,21.603053435114504,7.6183206106870225,-10.153809240722655,0.45489831542968745,2.051830822753906,-17.404580152671755,13.664122137404581,28.16793893129771,1.0
10.100000381469727,-9.842563024902343,0.689530078125,1.37906015625,-17.450381679389313,19.96946564885496,7.4961832061068705,-10.31661495361328,-0.04548983154296875,1.946485949707031,-17.84732824427481,10.091603053435115,27.954198473282442,1.0
10.110000610351562,-9.332598071289063,0.6464344482421874,1.1444283935546875,-13.374045801526718,19.572519083969464,6.473282442748092,-10.333374365234375,-0.296881005859375,1.8219874633789062,-18.916030534351144,6.564885496183206,27.251908396946565,1.0
10.12000036239624,-9.634267480468749,0.9528922607421875,0.63206923828125,-11.648854961832061,17.740458015267176,4.900763358778626,-10.601524951171875,-0.4285620971679687,1.5753846923828123,-18.519083969465647,4.106870229007634,25.908396946564885,1.0
10.130000591278076,-9.852139831542969,1.5753846923828123,0.469263525390625,-11.954198473282442,16.870229007633586,4.259541984732825,-10.254365710449218,-0.40940848388671874,1.369483349609375,-20.091603053435115,1.5572519083969465,24.580152671755727,1.0
10.140000343322754,-10.156203442382813,1.4221557861328125,0.5530605834960938,-12.50381679389313,16.045801526717558,4.396946564885496,-10.321403356933594,-0.1484405029296875,1.13006318359375,-20.702290076335878,-0.3053435114503817,22.53435114503817,1.0
10.15000057220459,-10.742782849121093,1.8076222534179687,0.507570751953125,-15.129770992366412,15.450381679389313,4.763358778625954,-10.735600244140624,-0.39983167724609375,1.16837041015625,-20.53435114503817,-0.9770992366412213,20.442748091603054,1.0
10.160000562667847,-10.381258398437499,1.879448303222656,0.8547299926757812,-15.32824427480916,15.145038167938932,5.32824427480916,-10.74517705078125,-0.2705447875976562,1.0223241088867188,-19.419847328244273,-2.595419847328244,18.18320610687023,1.0
10.170000553131104,-10.1131078125,1.7836802368164062,0.8882488159179687,-16.229007633587788,14.549618320610687,5.435114503816794,-10.735600244140624,-0.02633621826171875,0.833182177734375,-18.763358778625953,-3.435114503816794,16.137404580152673,1.0
10.18000078201294,-10.417171423339843,1.9225439331054686,0.8595183959960937,-18.9618320610687,11.84732824427481,5.557251908396947,-10.89840595703125,-0.4572925170898437,0.9792284790039062,-15.32824427480916,-3.3282442748091605,14.641221374045802,1.0
10.190000772476196,-10.149020837402343,1.4939818359375,0.9840168823242187,-17.81679389312977,12.106870229007633,6.122137404580153,-10.402806213378906,0.2059013427734375,0.8212111694335937,-12.51908396946565,-5.694656488549619,13.282442748091603,1.0
10.200000286102295,-10.256759912109374,1.4221557861328125,1.1252747802734375,-18.80916030534351,11.038167938931299,6.656488549618321,-10.620678564453124,-0.43574470214843747,1.1420341918945311,-8.442748091603054,-4.809160305343512,11.893129770992367,1.0
10.21000075340271,-10.005368737792969,0.7541735229492187,0.9959878906249999,-15.664122137404581,10.335877862595419,6.99236641221374,-10.967837805175781,-0.5865794067382812,0.7350199096679687,3.145038167938931,-12.198473282442748,8.106870229007633,0.0
10.220000505447388,-9.485826977539062,0.6631938598632812,0.6392518432617187,-12.83969465648855,9.770992366412214,6.183206106870229,-8.959102612304687,1.7645266235351562,0.3399766357421875,-0.44274809160305345,-16.061068702290076,5.66412213740458,0.0
10.230000495910645,-9.813832604980469,1.3168109130859373,0.6536170532226562,-12.13740458015267,10.732824427480915,4.961832061068702,-9.141061938476563,2.0973206542968748,-0.3280056274414062,-4.656488549618321,-15.465648854961833,4.961832061068702,0.0
10.240000486373901,-9.775525378417969,1.5107412475585937,0.5482721801757812,-13.969465648854962,11.633587786259541,4.305343511450381,-10.876858142089842,0.70868369140625,0.9600748657226562,-7.236641221374046,-10.244274809160306,8.106870229007633,0.0
10.250000476837158,-9.5384994140625,1.4125789794921875,0.33518823242187495,-16.35114503816794,11.450381679389313,4.961832061068702,-9.976638317871092,1.886630908203125,1.158793603515625,-14.83969465648855,-9.801526717557252,8.885496183206106,0.0
10.260000705718994,-9.90241806640625,1.3072341064453123,0.34237083740234375,-18.793893129770993,11.801526717557252,5.0534351145038165,-9.342174877929686,1.7764976318359373,0.59376201171875,-16.244274809160306,-9.236641221374045,7.251908396946565,0.0
10.270000696182251,-9.533711010742186,0.9121908325195311,0.22744915771484372,-18.671755725190838,13.206106870229007,5.190839694656488,-9.816226806640625,1.0773907470703123,0.8068459594726562,-19.450381679389313,-9.114503816793894,7.969465648854962,0.0
10.280000686645508,-9.504980590820312,0.6823474731445313,0.14125789794921875,-18.396946564885496,13.908396946564885,4.33587786259542,-10.263942517089843,0.7541735229492187,1.3407529296874998,-19.938931297709924,-8.351145038167939,8.50381679389313,0.0
10.290000677108765,-9.572018237304688,0.8116343627929687,0.0143652099609375,-17.16030534351145,15.129770992366412,3.267175572519084,-10.589553942871094,-1.2425906616210938,2.3582886352539063,-14.763358778625955,-9.114503816793894,8.748091603053435,0.0
10.3000009059906,-9.847351428222655,0.6775590698242188,0.055066638183593745,-16.83969465648855,15.709923664122137,2.33587786259542,-10.632649572753905,-0.622492431640625,1.9488801513671874,-9.297709923664122,-18.33587786259542,5.129770992366412,0.0
10.3100004196167,-9.991003527832031,0.5482721801757812,0.19393033447265623,-15.526717557251908,16.83969465648855,0.8091603053435115,-11.03248125,-0.7134720947265625,2.1643583007812497,-5.129770992366412,-22.045801526717558,3.618320610687023,0.0
10.320000886917114,-10.168174450683592,0.5027823486328125,0.5746083984375,-15.511450381679388,17.801526717557252,-0.7938931297709924,-10.627861169433594,0.17238251953125,1.4700398193359374,-0.061068702290076333,-29.389312977099237,1.3435114503816794,0.0
10.330000638961792,-9.931148486328125,0.8858546142578124,0.8259995727539062,-12.687022900763358,18.763358778625953,-2.595419847328244,-9.816226806640625,2.877830395507812,0.4572925170898437,-9.053435114503817,-32.56488549618321,-1.9389312977099236,0.0
10.340000867843628,-10.1131078125,1.9991583862304687,0.9935936889648437,-14.870229007633588,19.022900763358777,-3.236641221374046,-9.054870678710937,3.268085266113281,0.09816226806640624,-26.244274809160306,-25.374045801526716,0.04580152671755725,0.0
10.350000619888306,-10.424354028320312,2.4109610717773435,0.9624690673828125,-21.51145038167939,16.610687022900763,-2.8396946564885495,-9.718064538574218,1.3838485595703125,0.13646949462890623,-29.893129770992367,-21.14503816793893,1.9083969465648856,0.0
10.360000610351562,-10.299855541992187,1.8124106567382812,0.737414111328125,-24.3206106870229,13.816793893129772,-1.816793893129771,-10.845733520507812,-0.1771709228515625,0.8643067993164062,-23.19083969465649,-23.16030534351145,1.1603053435114503,0.0
10.37000060081482,-10.050858569335936,1.1635820068359375,0.47644613037109373,-24.47328244274809,12.992366412213741,-1.450381679389313,-10.292672937011718,1.2976572998046874,0.1580173095703125,-23.068702290076335,-25.64885496183206,-2.4427480916030535,0.0
10.380000591278076,-9.86411083984375,0.8164227661132812,0.488417138671875,-20.9618320610687,14.061068702290076,-1.5267175572519085,-8.743624462890624,3.095702746582031,-0.7781155395507812,-30.229007633587788,-22.900763358778626,-3.7251908396946565,0.0
10.390000581741333,-9.727641345214844,1.2018892333984375,0.39264907226562495,-19.786259541984734,13.786259541984732,-1.083969465648855,-7.582436657714843,1.5729904907226562,-0.9911994873046874,-39.12977099236641,-18.061068702290076,-2.6259541984732824,0.0
10.40000057220459,-10.014945544433592,1.62805712890625,0.41419688720703124,-20.137404580152673,13.312977099236642,-0.07633587786259542,-9.157821350097656,-0.2657563842773437,-0.02154781494140625,-35.969465648854964,-10.610687022900763,-1.3435114503816794,0.0
10.410000562667847,-10.149020837402343,1.209071838378906,0.37828386230468747,-18.946564885496183,11.358778625954198,0.4122137404580153,-11.350910070800781,-0.6775590698242188,0.63206923828125,-18.916030534351144,-10.305343511450381,-3.786259541984733,0.0
10.420000553131104,-9.986215124511718,0.46208092041015625,0.277727392578125,-14.122137404580153,10.488549618320612,0.32061068702290074,-10.297461340332031,-0.5003881469726562,0.7206546997070312,-7.419847328244275,-14.763358778625955,-8.412213740458014,0.0
10.430000305175781,-9.588777648925781,-0.2154781494140625,0.0909796630859375,-8.412213740458014,10.396946564885496,-1.251908396946565,-10.536881506347656,-0.8978256225585937,1.4053963745117186,-0.12213740458015267,-16.290076335877863,-12.122137404580153,0.0
10.440000534057617,-9.349357482910156,-0.16519991455078123,-0.047884033203124995,-3.0381679389312977,11.603053435114504,-4.351145038167939,-9.425971936035156,0.948103857421875,0.3064578125,-5.343511450381679,-18.53435114503817,-15.511450381679388,0.0
10.450000762939453,-9.708487731933593,0.7445967163085937,0.38307226562499996,-2.381679389312977,13.282442748091603,-6.244274809160306,-10.979808813476561,0.5219359619140624,1.388636962890625,-9.374045801526718,-7.755725190839694,-12.045801526717558,0.0
10.46000051498413,-9.775525378417969,1.9823989746093749,0.7709329345703124,-5.267175572519084,12.534351145038167,-6.625954198473282,-10.697293017578124,-0.1484405029296875,1.9704279663085937,-10.641221374045802,-4.900763358778626,-9.450381679389313,0.0
10.470000743865967,-8.93755479736328,1.0007762939453124,-0.16280571289062498,-11.49618320610687,4.931297709923665,-2.6412213740458017,-9.586383447265625,-0.15322890625,1.8435352783203125,-7.786259541984733,-8.274809160305344,-10.946564885496183,0.0
10.480000495910645,-9.519345800781249,0.3112462158203125,-0.28012159423828126,-4.778625954198473,3.7404580152671754,-1.1450381679389312,-9.227253198242186,-0.9217676391601562,1.2569558715820313,1.3740458015267176,-15.358778625954198,-14.778625954198473,0.0
10.490000486373901,-10.998962426757812,2.1356278808593747,0.6105214233398437,-4.030534351145038,5.114503816793893,-3.1755725190839694,-11.487379565429686,-1.3838485595703125,2.8323405639648436,14.900763358778626,-12.702290076335878,-15.572519083969466,0.0
10.500000476837158,-10.139444030761718,2.2385785522460937,-0.48123453369140623,-7.969465648854962,-2.946564885496183,-3.1297709923664123,-10.369287390136718,-0.9576806640625,2.9640216552734375,23.0381679389313,-20.53435114503817,-18.30534351145038,0.0
10.510000467300415,-10.596736547851561,0.02633621826171875,-0.05027823486328125,-4.702290076335878,-0.12213740458015267,-2.6564885496183206,-8.767566479492187,0.6105214233398437,2.0638018310546875,21.66412213740458,-26.290076335877863,-20.47328244274809,0.0
10.52000093460083,-7.841010437011718,-1.1228805786132812,-1.0702081420898437,6.809160305343512,1.1908396946564885,-1.8473282442748091,-9.344569079589844,1.419761584472656,1.8914193115234375,15.068702290076336,-20.48854961832061,-17.954198473282442,0.0
10.530000686645508,-8.152256652832031,-0.8451531860351562,-0.7924807495117187,12.13740458015267,5.770992366412214,-4.870229007633588,-10.13226142578125,0.09337386474609374,2.6599580444335937,14.732824427480915,-14.870229007633588,-15.709923664122137,0.0
10.540000677108765,-9.509768994140625,0.7206546997070312,0.20829554443359374,18.106870229007633,11.587786259541986,-8.488549618320612,-10.558429321289061,-0.7924807495117187,3.0813375366210938,21.72519083969466,-16.045801526717558,-15.770992366412214,0.0
10.550000667572021,-9.911994873046874,1.5682020874023437,0.44532150878906246,13.374045801526718,10.274809160305344,-9.053435114503817,-10.299855541992187,-1.0079588989257813,2.712630480957031,28.137404580152673,-22.396946564885496,-18.870229007633586,0.0
10.560000896453857,-10.175357055664062,1.8531120849609375,0.5626373901367188,13.267175572519085,9.251908396946565,-7.770992366412214,-8.537723120117187,1.426944189453125,1.4149731811523436,27.00763358778626,-28.061068702290076,-21.96946564885496,0.0
10.570000648498535,-9.552864624023437,1.7238251953125,0.5027823486328125,13.86259541984733,10.778625954198473,-6.488549618320611,-7.323862878417969,1.668758557128906,1.4508862060546874,12.900763358778626,-17.114503816793892,-19.755725190839694,0.0
10.580000877380371,-9.72285294189453,1.9608511596679685,0.6105214233398437,7.923664122137405,10.763358778625955,-6.0,-7.687781530761718,1.5298948608398437,0.6847416748046875,6.488549618320611,-12.50381679389313,-16.793893129770993,0.0
10.59000039100647,-9.907206469726562,2.1930887207031247,0.8403647827148437,4.549618320610687,9.83206106870229,-6.320610687022901,-9.612719665527344,-0.08379705810546874,1.5514426757812498,8.290076335877863,-5.786259541984733,-13.022900763358779,0.0
10.600000381469727,-9.701305126953125,1.419761584472656,0.7900865478515624,3.145038167938931,7.755725190839694,-5.251908396946565,-9.440337145996093,-0.37828386230468747,1.9776105712890624,16.198473282442748,-6.6106870229007635,-12.977099236641221,0.0
10.610000610351562,-10.024522351074218,1.2904746948242187,0.833182177734375,5.709923664122138,7.526717557251908,-5.6183206106870225,-9.351751684570312,-0.6679822631835937,2.528276953125,20.931297709923665,-5.068702290076335,-13.603053435114504,0.0
10.62000060081482,-10.335768566894531,1.0989385620117187,0.6560112548828124,5.969465648854962,6.137404580152672,-5.251908396946565,-7.9655089233398435,-0.6536170532226562,1.9895815795898437,30.80916030534351,-10.51908396946565,-15.419847328244275,0.0
10.630000829696655,-10.218452685546874,0.9888052856445312,0.82360537109375,10.106870229007633,6.213740458015267,-6.8396946564885495,-9.696516723632811,-0.8738836059570312,2.3630770385742186,36.68702290076336,-8.931297709923664,-14.01526717557252,0.0
10.640000343322754,-10.175357055664062,0.7541735229492187,0.9983820922851562,11.389312977099237,6.1679389312977095,-7.312977099236641,-9.375693701171874,-0.9193734375,2.0446482177734375,40.94656488549618,-10.122137404580153,-15.572519083969466,0.0
10.650000810623169,-9.861716638183593,0.622492431640625,1.1827356201171875,12.67175572519084,5.862595419847328,-7.740458015267175,-9.210493786621093,-0.46208092041015625,1.407790576171875,41.282442748091604,-10.992366412213741,-18.33587786259542,0.0
10.660000324249268,-10.781090075683593,2.789244934082031,1.9752163696289062,5.083969465648855,4.33587786259542,-9.450381679389313,-8.403647827148436,0.46686932373046874,1.1085153686523437,36.70229007633588,-10.641221374045802,-20.580152671755727,0.0
10.670000314712524,-11.75313594970703,2.6958710693359373,2.6312276245117188,-2.4732824427480917,2.183206106870229,-9.312977099236642,-6.356605407714843,2.1739351074218747,-0.14604630126953125,21.14503816793893,-7.114503816793893,-22.82442748091603,0.0
10.68000054359436,-9.210493786621093,1.448492004394531,1.2210428466796874,-2.9923664122137406,-5.236641221374046,-3.6793893129770994,-6.758831286621094,2.166752502441406,-0.3136404174804687,4.320610687022901,5.435114503816794,-20.03053435114504,0.0
10.690000772476196,-10.141838232421874,0.13646949462890623,2.195482922363281,3.404580152671756,-1.5419847328244274,-4.183206106870229,-8.688557824707031,-0.38786066894531246,0.86191259765625,2.6717557251908395,12.854961832061068,-15.954198473282442,0.0
10.700000762939453,-9.919177478027343,0.105344873046875,1.9728221679687499,11.877862595419847,-1.4961832061068703,-5.770992366412214,-8.470685473632813,-0.5386953735351562,1.5131354492187499,10.564885496183207,13.541984732824428,-17.31297709923664,0.0
10.71000051498413,-10.433930834960936,1.0486603271484374,2.0781670410156248,16.35114503816794,-1.1908396946564885,-8.580152671755725,-8.82263311767578,-0.8882488159179687,1.8315642700195311,19.129770992366414,13.618320610687023,-18.290076335877863,0.0
10.720000267028809,-9.672574707031249,1.2497732666015624,2.0733786376953125,24.30534351145038,0.2900763358778626,-10.687022900763358,-8.700528833007812,-0.8403647827148437,2.042254016113281,23.435114503816795,13.740458015267176,-19.17557251908397,0.0
10.730000734329224,-9.081206896972656,0.5865794067382812,1.3048399047851562,25.129770992366414,-2.0916030534351147,-10.320610687022901,-8.59278975830078,-0.7493851196289062,1.848323681640625,28.85496183206107,12.961832061068701,-20.12213740458015,0.0
10.740000247955322,-10.180145458984374,2.578555187988281,1.7238251953125,27.16030534351145,0.6564885496183206,-11.954198473282442,-8.966285217285156,-1.0821791503906248,2.109291662597656,32.0763358778626,13.374045801526718,-19.603053435114504,0.0
10.750000476837158,-9.928754284667969,3.1579519897460937,2.2481553588867187,20.732824427480917,-0.549618320610687,-12.106870229007633,-9.05965908203125,-1.0127473022460938,2.4444798950195312,33.847328244274806,12.778625954198473,-20.625954198473284,0.0
10.760000705718994,-10.065223779296874,2.8706477905273435,1.7549498168945312,12.427480916030534,-4.320610687022901,-9.877862595419847,-8.827421520996094,-0.6344634399414062,2.2601263671875,33.38931297709924,12.091603053435115,-21.404580152671755,0.0
10.770000696182251,-10.218452685546874,2.39420166015625,2.3582886352539063,7.633587786259542,-5.786259541984733,-9.068702290076336,-8.93755479736328,-0.8283937744140625,2.5905261962890624,32.717557251908396,11.236641221374045,-21.84732824427481,0.0
10.780000686645508,-10.108319409179687,2.3127988037109373,2.712630480957031,4.961832061068702,-8.961832061068701,-9.16030534351145,-8.643067993164061,-0.3280056274414062,2.767697119140625,30.595419847328245,9.98473282442748,-22.076335877862597,0.0
10.790000677108765,-10.192116467285155,1.7118541870117185,3.3638533325195312,3.648854961832061,-12.778625954198473,-9.709923664122137,-8.32463917236328,0.009576806640625,2.798821740722656,26.9618320610687,8.82442748091603,-21.908396946564885,0.0
10.8000009059906,-10.85291612548828,1.944091748046875,4.493916516113281,2.549618320610687,-18.366412213740457,-10.198473282442748,-8.109161022949218,-0.033518823242187495,2.789244934082031,22.30534351145038,8.274809160305344,-21.52671755725191,0.0
10.810000658035278,-12.157756030273436,3.189076611328125,6.081272216796875,-8.595419847328245,-30.671755725190838,-9.954198473282442,-7.656656909179687,0.4213794921875,2.4851813232421875,15.816793893129772,6.931297709923665,-21.053435114503817,0.0
10.820000886917114,-12.011709729003906,2.492363928222656,7.429207751464843,-14.916030534351146,-45.98473282442748,-6.213740458015267,-7.127538342285156,1.369483349609375,1.9823989746093749,6.549618320610687,6.396946564885496,-20.259541984732824,0.0
10.830000638961792,-11.508927380371093,2.0757728393554684,8.05648858642578,-13.099236641221374,-60.534351145038165,-2.8702290076335877,-8.061276989746093,0.4381389038085937,2.6240450195312497,-2.6259541984732824,11.893129770992367,-16.366412213740457,0.0
10.840000867843628,-11.226411584472656,1.4700398193359374,9.114725720214842,-13.083969465648854,-74.35114503816794,-2.7022900763358777,-8.489839086914062,-0.9720458740234375,4.283226770019531,-7.1603053435114505,12.992366412213741,-15.419847328244275,0.0
10.850000619888306,-11.420341918945311,1.1324573852539062,9.442731347656249,-8.045801526717558,-94.47328244274809,-3.4656488549618323,-8.769960681152343,-1.89620771484375,4.527435339355469,-4.091603053435114,1.8931297709923665,-17.572519083969464,0.0
10.860000610351562,-11.767501159667969,0.4261678955078125,10.230423693847655,2.8091603053435112,-111.32824427480917,-4.366412213740458,-8.264784130859374,-1.1707646118164061,2.655169641113281,-7.740458015267175,-0.9465648854961832,-21.206106870229007,0.0
10.87000060081482,-12.746729638671875,-0.06943184814453125,10.402806213378906,13.114503816793894,-132.67175572519085,-7.450381679389313,-9.327809667968749,-1.0319009155273438,0.699106884765625,-4.137404580152672,7.099236641221374,-25.282442748091604,0.0
10.880000591278076,-12.907141149902342,-0.7254431030273437,10.225635290527343,18.977099236641223,-152.50381679389312,-11.267175572519085,-12.931083166503905,-0.05027823486328125,1.350329736328125,4.259541984732825,11.511450381679388,-29.64885496183206,0.0
10.890000581741333,-11.662156286621093,-1.9416975463867185,9.018957653808593,30.366412213740457,-171.0229007633588,-13.099236641221374,-15.145719702148437,1.0917559570312498,3.2441432495117186,13.068702290076336,5.8320610687022905,-33.083969465648856,0.0
10.90000057220459,-11.037269653320312,-4.359841223144531,8.532934716796875,50.76335877862596,-184.18320610687022,-11.129770992366412,-17.19276212158203,2.212242333984375,5.164292980957031,28.442748091603054,3.66412213740458,-26.03053435114504,0.0
10.910000562667847,-9.282319836425781,-7.333439685058593,6.131550451660156,84.36641221374046,-191.06870229007635,-6.412213740458015,-15.406687683105467,3.0502129150390624,4.560954162597656,39.51145038167939,-8.702290076335878,-16.610687022900763,0.0
10.920000553131104,-8.815450512695312,-9.277531433105468,-0.49799394531249996,118.45801526717557,-187.96946564885496,-3.801526717557252,-11.336544860839844,5.011064074707031,1.9752163696289062,38.50381679389313,-15.083969465648854,-6.290076335877862,0.0
10.930000305175781,-8.731653454589843,-7.264007836914062,-5.6574985229492185,141.72519083969465,-177.48091603053436,-7.068702290076335,-10.541669909667968,3.9552211425781247,0.0909796630859375,31.72519083969466,-8.885496183206106,3.5267175572519083,0.0
10.940000534057617,-10.319009155273436,-5.154716174316406,-7.570465649414062,161.26717557251908,-159.84732824427482,-13.282442748091603,-9.313444458007812,1.944091748046875,-1.35990654296875,12.641221374045802,-3.7099236641221376,5.251908396946565,0.0
10.950000524520874,-9.311050256347656,-3.31357509765625,-8.113949426269532,180.73282442748092,-142.44274809160305,-15.877862595419847,-7.8721350585937495,0.612915625,-1.9009961181640624,-6.8396946564885495,0.5648854961832062,-2.2900763358778624,0.0
10.960000276565552,-9.976638317871092,-0.6440402465820312,-7.304709265136719,190.793893129771,-118.3969465648855,-20.213740458015266,-3.9743747558593747,0.7230489013671875,-3.88818349609375,-36.62595419847328,5.6183206106870225,-10.595419847328245,0.0
10.970000743865967,-12.452242834472656,3.833116857910156,-6.4356140625,158.27480916030535,-97.80152671755725,-29.358778625954198,-6.87614716796875,-4.771643908691406,-0.8379705810546875,-52.62595419847328,27.480916030534353,-4.824427480916031,0.0
10.980000495910645,-11.384428894042967,4.541800549316406,-5.6766521362304685,121.16030534351145,-86.13740458015268,-29.83206106870229,-9.519345800781249,-8.815450512695312,1.0749965454101562,-33.603053435114504,19.083969465648856,-1.1297709923664123,0.0
10.990000486373901,-11.121066711425781,6.327874987792969,-2.7581203125,99.43511450381679,-61.083969465648856,-26.045801526717558,-9.91438907470703,-6.610390783691406,1.0175357055664063,-21.099236641221374,13.19083969465649,-7.709923664122138,0.0
11.000000476837158,-12.773065856933593,9.246406811523437,0.0909796630859375,68.10687022900764,-42.030534351145036,-18.519083969465647,-9.821015209960937,-5.219359619140625,1.1827356201171875,-15.145038167938932,14.274809160305344,-10.916030534351146,0.0
11.010000467300415,-10.97502041015625,8.219294299316406,-0.16041151123046873,30.977099236641223,-32.80916030534351,0.015267175572519083,-10.874463940429687,-5.734112976074218,0.6440402465820312,0.8702290076335878,3.3893129770992365,-8.977099236641221,0.0
11.020000696182251,-10.350133776855468,8.413224633789062,0.41898529052734373,-5.343511450381679,-22.80916030534351,13.511450381679388,-10.486603271484375,-3.6655227416992187,0.22266075439453123,21.16030534351145,-7.374045801526718,-10.320610687022901,0.0
11.030000686645508,-8.621520178222656,6.093243225097656,-0.6847416748046875,-38.778625954198475,-21.251908396946565,23.603053435114504,-9.370905297851563,-0.7302315063476562,0.06464344482421874,23.022900763358777,-6.916030534351145,-11.603053435114504,0.0
11.040000677108765,-6.524199523925781,3.404554760742187,-1.6735469604492186,-62.35114503816794,-11.221374045801527,30.48854961832061,-9.014169250488282,-0.7206546997070312,-0.19393033447265623,21.17557251908397,-9.236641221374045,-9.969465648854962,0.0
11.050000429153442,-5.398924743652343,1.5562310791015623,-2.2290017456054687,-79.19083969465649,-3.954198473282443,29.6793893129771,-9.552864624023437,-0.14125789794921875,0.5913678100585937,16.12213740458015,-8.396946564885496,-7.297709923664122,0.0
11.0600004196167,-4.477157104492187,0.239420166015625,-2.7269956909179687,-85.55725190839695,5.404580152671755,27.17557251908397,-9.023746057128905,0.8355763793945312,0.7709329345703124,7.297709923664122,-6.229007633587786,-7.190839694656488,0.0
11.070000648498535,-3.9336733276367184,-1.1133037719726562,-2.9735984619140625,-89.90839694656489,13.603053435114504,25.389312977099237,-8.765172277832031,0.9576806640625,0.7422025146484375,-1.7099236641221374,-3.49618320610687,-5.862595419847328,0.0
11.080000877380371,-4.170699291992188,-2.384624853515625,-2.3151930053710936,-83.80152671755725,29.206106870229007,22.412213740458014,-8.482656481933594,1.1324573852539062,0.737414111328125,-12.50381679389313,-1.282442748091603,-4.320610687022901,0.0
11.090000867843628,-3.009511486816406,-2.961627453613281,-2.085349645996094,-76.74809160305344,43.49618320610687,17.206106870229007,-9.440337145996093,-0.20350714111328125,1.8076222534179687,-20.16793893129771,5.1603053435114505,-1.4198473282442747,0.0
11.100000381469727,-3.2609026611328122,-2.7461493041992187,-1.350329736328125,-75.69465648854961,55.7557251908397,9.877862595419847,-10.09395419921875,-1.93451494140625,3.4093431640625,-20.27480916030534,10.030534351145038,1.297709923664122,0.0
11.110000848770142,-3.785232824707031,-2.844311572265625,-0.277727392578125,-75.29770992366412,64.62595419847328,4.366412213740458,-8.609549169921875,-1.0630255371093749,2.932897033691406,-17.31297709923664,1.984732824427481,-1.5725190839694656,0.0
11.12000036239624,-4.589684582519531,-2.8275521606445313,1.1348515869140625,-75.86259541984732,71.5114503816794,-0.7633587786259542,-9.464279162597656,-2.1883003173828124,3.2704794677734372,-17.81679389312977,-0.7480916030534351,-2.0,0.0
11.130000591278076,-5.317521887207031,-2.6575638427734374,1.5682020874023437,-73.86259541984732,77.6793893129771,-3.282442748091603,-8.875305554199219,-0.948103857421875,3.414131567382812,-15.17557251908397,-6.396946564885496,-3.9389312977099236,0.0
11.140000343322754,-6.129156249999999,-1.4173673828125,3.423708374023437,-70.06106870229007,80.9618320610687,-4.961832061068702,-8.482656481933594,-0.5506663818359374,3.394977954101562,-18.412213740458014,-11.450381679389313,-3.282442748091603,0.0
11.15000057220459,-6.4834980957031245,-1.0319009155273438,3.9360675292968748,-59.81679389312977,83.72519083969466,-2.4427480916030535,-8.59997236328125,-0.3711012573242187,3.706224169921875,-24.717557251908396,-14.244274809160306,-0.6870229007633588,0.0
11.160000324249268,-6.279990954589843,-0.2753331909179687,4.496310717773437,-38.88549618320611,89.16030534351145,0.8396946564885496,-8.683769421386717,-0.9888052856445312,3.4668040039062498,-31.16030534351145,-17.984732824427482,1.786259541984733,0.0
11.170000314712524,-6.675034228515624,0.8499415893554687,4.838681555175781,-18.900763358778626,91.58778625954199,5.755725190839694,-8.870517150878905,-1.4915876342773438,3.450044592285156,-31.34351145038168,-22.18320610687023,3.6793893129770994,0.0
11.18000054359436,-7.168239770507812,0.1005564697265625,5.456385583496093,8.473282442748092,95.93893129770993,13.938931297709924,-9.5001921875,-3.220201232910156,4.192247106933594,-25.282442748091604,-27.17557251908397,6.122137404580153,0.0
11.190000295639038,-8.12113203125,-1.388636962890625,7.4770917846679685,31.770992366412212,96.73282442748092,19.053435114503817,-10.280701928710936,-2.9927520751953125,3.1387983764648437,-18.50381679389313,-31.81679389312977,5.709923664122138,0.0
11.200000524520874,-10.345345373535155,-0.7110778930664062,10.213664282226562,41.267175572519086,90.36641221374046,15.114503816793894,-6.624755993652343,-1.8746598999023436,2.118868469238281,-18.076335877862597,-38.274809160305345,0.4732824427480916,0.0
11.21000075340271,-12.366051574707031,2.4779987182617185,11.765106958007811,30.50381679389313,74.62595419847328,6.9465648854961835,-9.102754711914063,-0.11252747802734374,1.9895815795898437,-18.885496183206108,-29.603053435114504,0.5190839694656488,0.0
11.220000267028809,-12.751518041992187,1.6304513305664061,11.774683764648437,4.259541984732825,49.267175572519086,2.885496183206107,-7.352593298339843,0.833182177734375,1.254561669921875,-27.419847328244273,-25.083969465648856,1.297709923664122,0.0
11.230000734329224,-12.638990563964843,2.04943662109375,11.398794104003905,1.3282442748091603,28.793893129770993,7.038167938931298,-6.528987927246093,1.0175357055664063,0.9193734375,-31.404580152671755,-21.893129770992367,3.49618320610687,0.0
11.240000486373901,-12.86404552001953,0.9050082275390624,10.77630167236328,-18.137404580152673,4.870229007633588,5.7251908396946565,-8.204929089355469,-0.6153098266601562,2.039859814453125,-36.44274809160305,-17.786259541984734,7.969465648854962,0.0
11.250000238418579,-12.445060229492187,-1.429338391113281,9.430760339355468,-17.770992366412212,-14.687022900763358,6.259541984732825,-9.160215551757812,-2.4971523315429685,2.8562825805664063,-35.57251908396947,-15.17557251908397,11.236641221374045,0.0
11.260000944137573,-11.930306872558592,-3.9887399658203124,8.1594392578125,10.977099236641221,-20.244274809160306,9.145038167938932,-9.167398156738281,-3.430890979003906,2.195482922363281,-27.770992366412212,-16.229007633587788,15.007633587786259,0.0
11.270000696182251,-12.57674132080078,-2.291250988769531,7.230489013671875,40.25954198473283,-20.702290076335878,11.419847328244275,-10.496180078124999,-4.8123453369140625,2.5450363647460934,-16.641221374045802,-16.763358778625953,17.938931297709924,0.0
11.280000448226929,-12.636596362304687,0.2154781494140625,1.8171990600585937,58.99236641221374,-20.03053435114504,15.786259541984732,-10.026916552734374,-4.134786267089844,1.9608511596679685,-6.656488549618321,-18.396946564885496,16.931297709923665,0.0
11.290000438690186,-12.35408056640625,-1.2785036865234374,2.138022082519531,54.2442748091603,-12.50381679389313,18.427480916030536,-9.7683427734375,-2.887407202148437,0.7900865478515624,0.6259541984732825,-16.580152671755727,16.229007633587788,0.0
11.3000009059906,-15.002067602539062,-0.8451531860351562,6.4667386840820305,35.98473282442748,-15.48091603053435,11.17557251908397,-9.955090502929687,-3.1004911499023438,0.0526724365234375,3.3893129770992365,-12.290076335877863,17.251908396946565,0.0
11.310000658035278,-15.310919616699218,-1.924938134765625,7.302315063476562,31.541984732824428,-24.946564885496183,5.267175572519084,-10.73799444580078,-3.0741549316406247,-0.469263525390625,10.83969465648855,-9.068702290076336,17.923664122137403,0.0
11.320000886917114,-16.651672546386717,3.289633081054687,4.783614916992187,45.7557251908397,-26.80916030534351,6.412213740458015,-11.587936035156249,-3.5146880371093747,-1.637633935546875,14.931297709923664,-6.244274809160306,18.458015267175572,0.0
11.330000877380371,-16.75941162109375,9.734823950195311,0.7709329345703124,50.85496183206107,-21.404580152671755,15.48091603053435,-12.612654345703124,-3.883395092773437,-2.109291662597656,23.0381679389313,-1.1603053435114503,18.82442748091603,0.0
11.340000867843628,-12.222399475097655,8.628702783203124,-3.124433166503906,34.88549618320611,-20.625954198473284,27.603053435114504,-14.121001391601562,-3.6343981201171873,-1.7310078002929687,33.11450381679389,4.0,16.80916030534351,0.0
11.350000381469727,-8.322244970703125,1.3838485595703125,-3.3590649291992185,25.81679389312977,-7.526717557251908,28.442748091603054,-14.62617794189453,-2.2002713256835937,-1.9105729248046874,43.41984732824427,10.13740458015267,8.778625954198473,0.0
11.360000848770142,-5.209782812499999,-1.22583125,-2.9185318237304685,16.9618320610687,4.198473282442748,19.908396946564885,-14.513650463867187,-1.01514150390625,-2.3439234252929686,53.55725190839695,17.221374045801525,-0.030534351145038167,0.0
11.37000036239624,-4.568136767578125,-0.8068459594726562,-2.8802245971679685,8.870229007633588,13.557251908396946,6.534351145038168,-13.795389965820311,0.8403647827148437,-2.327164013671875,54.33587786259542,27.34351145038168,-4.473282442748092,0.0
11.380000591278076,-4.053383410644531,-0.8044517578125,-3.9504327392578125,2.7938931297709924,24.458015267175572,-2.3969465648854964,-14.76025323486328,1.7118541870117185,-1.9225439331054686,52.961832061068705,37.00763358778626,-2.366412213740458,0.0
11.390000581741333,-5.324704492187499,-0.9457096557617187,-3.909731311035156,8.320610687022901,42.091603053435115,-8.442748091603054,-14.714763403320312,0.584185205078125,-1.0773907470703123,55.00763358778626,38.93129770992366,-0.6259541984732825,0.0
11.40000057220459,-7.362170104980469,0.33039982910156246,-3.2249896362304686,10.763358778625955,55.083969465648856,-15.32824427480916,-12.064382165527343,2.5330653564453125,-0.18435352783203124,50.68702290076336,39.06870229007634,-2.7938931297709924,0.0
11.410000562667847,-9.050082275390624,1.5921441040039062,-1.9704279663085937,5.251908396946565,62.0,-17.480916030534353,-11.154585534667968,4.338293408203125,-0.011971008300781249,38.94656488549618,45.38931297709924,-2.9618320610687023,0.0
11.420000553131104,-10.309432348632813,2.8610709838867185,-0.48123453369140623,-4.351145038167939,68.16793893129771,-18.198473282442748,-10.419565624999999,4.146757275390625,0.565031591796875,19.709923664122137,49.23664122137404,0.7786259541984732,0.0
11.43000078201294,-11.116278308105468,3.725377783203125,1.1923124267578125,-19.34351145038168,67.3587786259542,-18.290076335877863,-11.37006368408203,2.032677209472656,1.9297265380859374,15.435114503816793,51.19083969465649,5.435114503816794,0.0
11.440000534057617,-10.972626208496093,2.7820623291015623,1.5538368774414062,-30.885496183206108,62.76335877862596,-16.15267175572519,-11.037269653320312,1.8219874633789062,2.4109610717773435,19.267175572519083,44.36641221374046,6.519083969465649,0.0
11.450000524520874,-10.297461340332031,1.3072341064453123,1.407790576171875,-32.916030534351144,57.89312977099237,-12.473282442748092,-10.441113439941406,3.0526071166992184,2.602497204589844,13.83206106870229,37.23664122137404,7.526717557251908,0.0
11.46000051498413,-10.675745202636719,1.9847931762695312,1.66636435546875,-37.48091603053435,54.62595419847328,-10.977099236641221,-9.066841687011719,3.5865140869140624,2.5665841796874997,3.114503816793893,33.41984732824427,10.778625954198473,0.0
11.470000743865967,-11.362881079101562,1.6256629272460936,1.4437036010742186,-46.61068702290076,49.17557251908397,-9.49618320610687,-9.708487731933593,2.6240450195312497,3.1292215698242187,0.3053435114503817,31.87786259541985,15.465648854961833,0.0
11.480000495910645,-9.713276135253906,0.469263525390625,1.3862427612304686,-46.091603053435115,45.282442748091604,-8.473282442748092,-10.160991845703125,1.7286135986328124,3.6008792968749996,-4.6106870229007635,27.206106870229007,20.412213740458014,0.0
11.49000072479248,-10.836156713867187,-0.12449848632812499,1.9225439331054686,-40.42748091603053,45.02290076335878,-9.16030534351145,-10.115502014160155,1.4891934326171874,3.9695863525390624,-2.8244274809160306,24.244274809160306,22.442748091603054,0.0
11.500000476837158,-10.85291612548828,0.1292868896484375,2.0638018310546875,-34.54961832061068,40.916030534351144,-9.282442748091603,-9.270348828125,1.7166425903320313,3.5721488769531247,-8.763358778625955,18.519083969465647,24.427480916030536,0.0
11.510000705718994,-8.595183959960938,-1.35990654296875,1.4341267944335936,-19.251908396946565,37.69465648854962,-7.1603053435114505,-9.215282189941405,1.4796166259765624,3.246537451171875,-12.65648854961832,14.641221374045802,26.244274809160306,0.0
11.520000696182251,-8.307879760742187,-0.5698199951171875,1.1923124267578125,-7.908396946564886,36.38167938931298,-6.763358778625954,-9.131485131835937,1.2497732666015624,2.664746447753906,-18.03053435114504,9.816793893129772,27.801526717557252,0.0
11.530000686645508,-9.375693701171874,0.584185205078125,1.3407529296874998,-9.389312977099237,29.587786259541986,-6.687022900763359,-9.6917283203125,0.7852981445312499,2.6886884643554687,-21.603053435114504,8.717557251908397,29.938931297709924,0.0
11.540000438690186,-10.709264025878905,1.4508862060546874,1.9991583862304687,-5.083969465648855,26.793893129770993,-5.32824427480916,-9.514557397460937,0.5267243652343749,2.3918074584960936,-26.229007633587788,5.038167938931298,30.763358778625953,0.0
11.550000667572021,-11.288660827636718,3.1387983764648437,3.337517114257812,-4.961832061068702,25.6793893129771,-5.7251908396946565,-9.988609326171874,0.01915361328125,2.1811177124023438,-28.396946564885496,2.564885496183206,29.770992366412212,0.0
11.560000896453857,-11.085153686523437,2.808398547363281,3.0909143432617188,-11.877862595419847,15.923664122137405,-2.0610687022900764,-10.32379755859375,-0.3854664672851562,2.2266075439453124,-30.229007633587788,-0.030534351145038167,29.0381679389313,0.0
11.570000648498535,-10.374075793457031,1.465251416015625,2.7748797241210936,-5.022900763358779,9.770992366412214,2.6106870229007635,-10.070012182617187,-0.8116343627929687,2.1787235107421874,-30.47328244274809,-2.2442748091603053,27.19083969465649,0.0
11.580000877380371,-9.97184991455078,0.9193734375,2.7365724975585937,4.519083969465649,7.511450381679389,4.33587786259542,-10.007762939453125,-1.1420341918945311,1.697488977050781,-30.15267175572519,-5.862595419847328,24.27480916030534,0.0
11.590000629425049,-10.182539660644531,1.6136919189453125,2.6695348510742187,11.32824427480916,4.580152671755725,5.419847328244275,-9.80665,-1.1252747802734375,1.5107412475585937,-28.045801526717558,-7.740458015267175,21.49618320610687,0.0
11.600000619888306,-10.366893188476562,2.2457611572265623,2.3630770385742186,12.687022900763358,1.0076335877862594,6.6106870229007635,-10.0748005859375,-1.6065093139648436,1.5562310791015623,-25.17557251908397,-8.351145038167939,19.099236641221374,0.0
11.610000610351562,-9.8449572265625,1.8746598999023436,1.7932570434570312,11.816793893129772,-2.1068702290076335,8.427480916030534,-9.555258825683593,-0.5865794067382812,0.8762778076171874,-21.282442748091604,-13.16030534351145,14.473282442748092,0.0
11.62000060081482,-9.583989245605467,1.62805712890625,1.5945383056640625,10.16793893129771,-2.885496183206107,8.076335877862595,-10.127473022460936,-0.8930372192382812,1.0271125122070313,-17.64885496183206,-13.603053435114504,12.15267175572519,0.0
11.630000591278076,-10.01733974609375,1.9584569580078124,1.2880804931640624,5.00763358778626,-4.061068702290076,7.175572519083969,-10.82179150390625,-0.5722141967773438,1.2713210815429687,-9.84732824427481,-14.67175572519084,10.091603053435115,0.0
11.640000581741333,-9.447519750976562,2.4588451049804685,0.7254431030273437,0.5954198473282443,-2.763358778625954,6.213740458015267,-9.662997900390625,0.43574470214843747,0.9888052856445312,-20.412213740458014,-14.946564885496183,8.427480916030534,0.0
11.65000057220459,-10.520122094726561,3.5003228271484375,0.4525041137695312,-17.419847328244273,-5.4961832061068705,7.00763358778626,-10.28549033203125,-0.105344873046875,0.8164227661132812,-18.625954198473284,-12.305343511450381,6.916030534351145,0.0
11.660000562667847,-10.378864196777343,2.7078420776367187,0.04548983154296875,-28.641221374045802,-6.9465648854961835,7.8320610687022905,-10.175357055664062,-0.08379705810546874,0.63206923828125,-20.885496183206108,-14.076335877862595,5.893129770992366,0.0
11.670000553131104,-8.559270935058594,0.9241618408203125,-0.8451531860351562,-30.18320610687023,-5.404580152671755,9.022900763358779,-10.242394702148436,0.2154781494140625,0.928950244140625,-23.328244274809162,-11.694656488549619,5.450381679389313,0.0
11.68000054359436,-8.231265307617187,0.5458779785156249,-0.9648632690429687,-32.6412213740458,-3.618320610687023,8.183206106870228,-10.225635290527343,-1.2306196533203124,1.3766659545898436,-19.00763358778626,-9.893129770992367,4.549618320610687,0.0
11.690000772476196,-8.183381274414062,-0.9145850341796874,-0.9313444458007812,-28.33587786259542,0.2595419847328244,7.297709923664122,-10.505756884765624,-0.5434837768554687,1.3623007446289062,-15.725190839694656,-12.396946564885496,2.717557251908397,0.0
11.700000286102295,-9.13627353515625,-0.8499415893554687,-0.2609679809570312,-17.72519083969466,8.900763358778626,4.2748091603053435,-10.66856259765625,-0.6536170532226562,1.2569558715820313,-0.04580152671755725,-15.129770992366412,-1.9389312977099236,0.0
11.71000051498413,-10.359710583496094,0.8738836059570312,0.8092401611328125,-17.87786259541985,11.816793893129772,-0.5038167938931297,-10.189722265624999,0.373495458984375,1.180341418457031,3.099236641221374,-22.229007633587788,-4.580152671755725,0.0
11.720000267028809,-9.897629663085937,1.0606313354492187,0.6919242797851562,-17.786259541984734,12.061068702290076,-0.9465648854961832,-8.226476904296874,2.0566192260742184,0.24181436767578124,-6.091603053435114,-25.6793893129771,-7.4961832061068705,0.0
11.730000734329224,-9.964667309570311,2.980781066894531,1.1755530151367186,-22.717557251908396,14.396946564885496,-1.251908396946565,-8.12113203125,3.450044592285156,-0.5817910034179687,-26.47328244274809,-20.366412213740457,-5.9541984732824424,0.0
11.740000486373901,-9.126696728515624,2.4779987182617185,0.4955997436523437,-37.20610687022901,8.030534351145038,2.1068702290076335,-8.219294299316406,3.265691064453125,-0.737414111328125,-37.099236641221374,-13.267175572519085,-1.0687022900763359,0.0
11.750000238418579,-9.160215551757812,1.8148048583984373,0.45489831542968745,-34.70229007633588,11.648854961832061,4.015267175572519,-9.3086560546875,1.8411410766601561,-0.488417138671875,-40.458015267175576,-10.274809160305344,3.1908396946564888,0.0
11.760000705718994,-9.560047229003906,2.3822306518554686,0.7996633544921875,-38.51908396946565,14.396946564885496,3.0839694656488548,-9.89523546142578,0.74699091796875,0.40462008056640625,-45.87786259541985,-2.366412213740458,3.7557251908396947,0.0
11.770000696182251,-9.581595043945311,0.9840168823242187,0.3327940307617187,-42.12213740458015,12.992366412213741,4.213740458015267,-11.279084020996093,-2.868253588867187,1.6472107421875,-36.35114503816794,1.6488549618320612,3.801526717557252,0.0
11.780000686645508,-9.706093530273437,0.3112462158203125,0.6440402465820312,-38.717557251908396,15.053435114503817,3.1297709923664123,-10.283096130371094,-2.224213342285156,0.6560112548828124,-22.244274809160306,-11.679389312977099,-2.0763358778625953,0.0
11.790000677108765,-10.129867224121092,0.296881005859375,1.199495031738281,-35.57251908396947,16.748091603053435,-0.9465648854961832,-11.034875451660156,-0.967257470703125,1.4628572143554686,-10.381679389312977,-14.854961832061068,-5.236641221374046,0.0
11.800000429153442,-9.622296472167967,-0.16041151123046873,1.3670891479492187,-31.84732824427481,17.297709923664122,-2.7022900763358777,-9.572018237304688,0.38786066894531246,0.74699091796875,-6.67175572519084,-22.641221374045802,-9.83206106870229,0.0
11.8100004196167,-9.701305126953125,0.814028564453125,1.7429788085937499,-29.31297709923664,18.27480916030534,-5.511450381679389,-9.7683427734375,2.3056161987304686,0.28730419921875,-17.572519083969464,-18.366412213740457,-10.274809160305344,0.0
11.820000648498535,-9.878476049804688,1.9416975463867185,1.9800047729492187,-31.46564885496183,17.450381679389313,-6.152671755725191,-11.362881079101562,0.4165910888671875,1.139639990234375,-23.572519083969464,-11.603053435114504,-8.0,0.0
11.830000877380371,-10.180145458984374,2.5354595581054684,2.1643583007812497,-34.67175572519084,15.801526717557252,-4.351145038167939,-12.674903588867187,-1.7525556152343749,2.8850130004882812,-14.198473282442748,-15.83206106870229,-5.633587786259542,0.0
11.840000629425049,-9.83777462158203,2.1116858642578125,1.6256629272460936,-33.98473282442748,13.129770992366412,-1.8931297709923665,-10.556035119628906,0.10773907470703124,2.5905261962890624,-5.419847328244275,-25.328244274809162,-9.297709923664122,0.0
11.850000619888306,-9.605537060546874,2.003946789550781,1.2425906616210938,-30.83969465648855,12.51908396946565,-0.2748091603053435,-9.76116016845703,1.608903515625,2.3678654418945313,-11.022900763358779,-25.251908396946565,-11.786259541984732,0.0
11.860000610351562,-9.744400756835937,2.825157958984375,1.2761094848632812,-35.587786259541986,11.816793893129772,0.2748091603053435,-8.923189587402343,1.2761094848632812,2.4133552734375,-18.48854961832061,-22.641221374045802,-8.900763358778626,0.0
11.87000060081482,-10.62307276611328,3.4931402221679684,0.9911994873046874,-51.587786259541986,4.595419847328245,2.4885496183206106,-9.344569079589844,-0.4860229370117187,2.6815058593749996,-19.0381679389313,-25.480916030534353,-4.916030534351145,0.0
11.880000591278076,-9.169792358398437,1.6065093139648436,-0.21068974609375,-54.12213740458015,0.07633587786259542,7.145038167938932,-9.861716638183593,-0.181959326171875,2.741360900878906,-10.13740458015267,-30.16793893129771,-3.633587786259542,0.0
11.890000343322754,-7.896077075195312,0.36152445068359373,-0.7110778930664062,-50.83969465648855,3.801526717557252,8.732824427480915,-9.660603698730467,0.1484405029296875,3.0909143432617188,-7.450381679389313,-33.05343511450382,-6.152671755725191,0.0
11.900000810623169,-8.303091357421874,-0.1388636962890625,-0.5626373901367188,-46.76335877862596,8.366412213740459,5.526717557251908,-9.133879333496093,1.3455413330078123,2.6862942626953124,-13.374045801526718,-33.17557251908397,-8.259541984732824,0.0
11.910000562667847,-7.730877160644531,-1.2689268798828124,-1.0989385620117187,-41.45038167938932,11.236641221374045,4.244274809160306,-8.916006982421875,1.695094775390625,2.6791116577148437,-24.30534351145038,-25.34351145038168,-5.343511450381679,0.0
11.920000791549683,-8.678981018066406,-0.49799394531249996,-0.34715924072265625,-34.94656488549618,18.290076335877863,0.4122137404580153,-9.081206896972656,-0.6727706665039062,2.549824768066406,-25.709923664122137,-28.27480916030534,-2.8244274809160306,0.0
11.93000078201294,-9.203311181640624,0.2825157958984375,0.016759411621093748,-36.33587786259542,18.091603053435115,-2.5801526717557253,-9.947907897949218,-0.6775590698242188,2.8562825805664063,-16.885496183206108,-32.229007633587784,-3.66412213740458,0.0
11.940000534057617,-8.86094034423828,1.0510545288085937,-0.5267243652343749,-37.48091603053435,15.694656488549619,-2.030534351145038,-8.755595471191405,0.7422025146484375,2.1260510742187497,-15.404580152671755,-34.82442748091603,-7.00763358778626,0.0
11.950000762939453,-9.6917283203125,1.917755529785156,0.201112939453125,-41.70992366412214,15.450381679389313,-1.5725190839694656,-7.884106066894531,1.3862427612304686,2.3678654418945313,-23.984732824427482,-32.717557251908396,-7.755725190839694,0.0
11.96000051498413,-9.945513696289062,1.8914193115234375,0.4908113403320312,-42.79389312977099,16.68702290076336,-0.24427480916030533,-7.331045483398437,2.3032219970703123,1.1348515869140625,-39.31297709923664,-26.48854961832061,-5.083969465648855,0.0
11.970000743865967,-10.263942517089843,1.9321207397460936,0.8068459594726562,-45.404580152671755,17.541984732824428,0.6412213740458015,-8.643067993164061,0.8355763793945312,1.5514426757812498,-50.25954198473283,-15.358778625954198,0.15267175572519084,0.0
11.980000495910645,-10.105925207519531,1.608903515625,0.565031591796875,-46.85496183206107,16.50381679389313,1.2061068702290076,-9.765948571777344,-0.18435352783203124,2.4684219116210935,-46.80916030534351,-10.717557251908397,2.213740458015267,0.0
11.990000247955322,-9.904812268066406,0.8930372192382812,0.16519991455078123,-45.63358778625954,15.16030534351145,1.9389312977099236,-9.160215551757812,-0.3112462158203125,2.5234885498046875,-42.595419847328245,-11.740458015267176,0.061068702290076333,0.0
12.000000238418579,-9.787496386718749,0.488417138671875,-0.02154781494140625,-41.343511450381676,15.511450381679388,1.7099236641221374,-9.085995300292968,-0.6631938598632812,2.636016027832031,-39.55725190839695,-8.595419847328245,-1.8625954198473282,0.0
12.010000705718994,-9.888052856445311,0.33758243408203126,-0.02633621826171875,-38.152671755725194,16.259541984732824,1.1603053435114503,-9.495403784179686,-1.7741034301757812,2.932897033691406,-32.2442748091603,-8.351145038167939,-1.0534351145038168,0.0
12.020000696182251,-9.720458740234374,0.21787235107421873,-0.0909796630859375,-34.229007633587784,16.519083969465647,0.07633587786259542,-8.391676818847655,-0.21787235107421873,2.27927998046875,-29.755725190839694,-10.625954198473282,-3.236641221374046,0.0
12.030000686645508,-10.153809240722655,0.6919242797851562,0.32561142578124996,-31.81679389312977,17.404580152671755,-1.2366412213740459,-8.702923034667968,-0.9720458740234375,2.176329309082031,-30.610687022900763,-6.748091603053435,-2.549618320610687,0.0
12.040000438690186,-9.753977563476562,0.0718260498046875,0.5698199951171875,-30.3206106870229,17.114503816793892,-1.9083969465648856,-8.611943371582031,-1.4963760375976562,2.157175695800781,-22.748091603053435,-8.122137404580153,-3.6030534351145036,0.0
12.050000667572021,-9.574412438964844,-0.016759411621093748,0.7805097412109374,-25.328244274809162,17.099236641221374,-3.83206106870229,-8.145074047851562,-2.013523596191406,2.1643583007812497,-13.129770992366412,-12.030534351145038,-6.351145038167939,0.0
12.060000896453857,-10.08677159423828,-0.13407529296874998,1.120486376953125,-21.755725190839694,16.48854961832061,-6.0458015267175576,-9.662997900390625,-1.6160861206054686,1.9776105712890624,-2.854961832061069,-13.84732824427481,-7.419847328244275,0.0
12.070000648498535,-9.792284790039062,0.11731588134765625,1.2808978881835937,-14.67175572519084,17.450381679389313,-8.091603053435115,-8.693346228027343,-0.9504980590820312,2.2481553588867187,2.50381679389313,-15.145038167938932,-9.84732824427481,0.0
12.080000877380371,-9.639055883789062,0.6177040283203125,1.4221557861328125,-9.572519083969466,17.068702290076335,-9.770992366412214,-8.264784130859374,-0.229843359375,2.1164742675781247,2.6564885496183206,-13.16030534351145,-10.274809160305344,0.0
12.09000039100647,-9.794678991699218,1.3383587280273437,1.6304513305664061,-8.473282442748092,15.679389312977099,-10.0,-6.193799694824218,0.7493851196289062,0.9959878906249999,-6.030534351145038,-10.992366412213741,-10.946564885496183,0.0
12.100000619888306,-10.012551342773437,1.7932570434570312,2.032677209472656,-8.366412213740459,14.50381679389313,-9.068702290076336,-7.845798840332031,-0.12449848632812499,1.3646949462890625,-9.48091603053435,-0.6106870229007634,-7.66412213740458,0.0
12.110000371932983,-9.720458740234374,1.5562310791015623,2.1452046874999997,-9.17557251908397,11.053435114503817,-7.297709923664122,-8.55448253173828,-1.3766659545898436,1.944091748046875,-6.473282442748092,5.190839694656488,-5.572519083969466,0.0
12.12000060081482,-9.698910925292969,1.1563994018554686,2.0757728393554684,-6.030534351145038,9.572519083969466,-6.3816793893129775,-8.463502868652343,-1.85790048828125,2.059013427734375,3.801526717557252,5.038167938931298,-7.511450381679389,0.0
12.130000591278076,-9.81862100830078,0.8475473876953125,2.0470424194335934,-1.9694656488549618,8.106870229007633,-6.519083969465649,-8.06367119140625,-1.7190367919921874,1.9823989746093749,9.969465648854962,6.67175572519084,-9.893129770992367,0.0
12.140000581741333,-9.969455712890625,0.6416460449218749,1.678335363769531,1.5877862595419847,5.221374045801527,-6.885496183206107,-7.987056738281249,-1.6400281372070311,1.7932570434570312,15.557251908396946,8.977099236641221,-11.282442748091603,0.0
12.15000057220459,-9.943119494628906,0.5793968017578125,1.8626888916015625,5.068702290076335,4.229007633587786,-8.183206106870228,-8.176198669433592,-2.080561242675781,1.9967641845703124,21.51145038167939,12.244274809160306,-12.244274809160306,0.0
12.160000562667847,-10.103531005859374,0.7517793212890624,2.1978771240234374,5.282442748091603,2.183206106870229,-9.786259541984732,-7.999027746582031,-1.656787548828125,1.695094775390625,25.51145038167939,12.549618320610687,-14.793893129770993,0.0
12.170000553131104,-9.955090502929687,0.6703764648437499,2.375048046875,7.740458015267175,-0.6106870229007634,-11.877862595419847,-7.6997525390625,-0.7996633544921875,1.668758557128906,25.297709923664122,15.053435114503817,-16.85496183206107,0.0
12.18000054359436,-9.782707983398437,0.6488286499023437,2.8419173706054686,8.67175572519084,-3.068702290076336,-13.32824427480916,-8.202534887695313,-0.37828386230468747,2.109291662597656,20.091603053435115,22.137404580152673,-16.061068702290076,0.0
12.190000772476196,-9.76116016845703,0.8547299926757812,3.1842882080078123,9.34351145038168,-7.038167938931298,-14.274809160305344,-8.176198669433592,-0.5626373901367188,2.770091320800781,16.12213740458015,27.053435114503817,-14.16793893129771,0.0
12.200000524520874,-9.801861596679688,0.7852981445312499,3.6343981201171873,11.114503816793894,-11.923664122137405,-15.84732824427481,-7.48906279296875,-0.6823474731445313,3.679887951660156,19.557251908396946,26.061068702290076,-10.687022900763358,0.0
12.21000051498413,-10.587159741210938,0.4572925170898437,4.513070129394531,14.198473282442748,-18.076335877862597,-17.603053435114504,-8.616731774902343,0.19871873779296872,3.892971899414062,22.65648854961832,24.641221374045802,-7.282442748091603,0.0
12.220000267028809,-10.192116467285155,-0.201112939453125,5.327098693847656,19.083969465648856,-25.358778625954198,-18.80916030534351,-7.283161450195312,2.1835119140624997,3.347093920898437,18.198473282442748,21.51145038167939,-4.351145038167939,0.0
12.230000495910645,-9.974244116210937,-0.2537853759765625,6.811503723144531,24.27480916030534,-34.732824427480914,-20.366412213740457,-5.825092639160156,3.2154128295898436,4.675875842285156,6.366412213740458,21.022900763358777,-0.04580152671755725,0.0
12.240000486373901,-10.503362683105468,0.39264907226562495,8.240842114257813,27.267175572519083,-45.89312977099237,-23.893129770992367,-5.511452221679687,3.0837317382812497,4.144363073730468,-23.053435114503817,21.328244274809162,2.4732824427480917,0.0
12.250000238418579,-11.633425866699218,2.2385785522460937,9.94072529296875,16.50381679389313,-64.58015267175573,-24.259541984732824,-6.234501123046875,-0.8379705810546875,0.37828386230468747,-47.847328244274806,33.63358778625954,2.8091603053435112,0.0
12.260000705718994,-12.696451403808593,1.9656395629882812,10.31661495361328,8.091603053435115,-90.50381679389314,-21.862595419847327,-9.763554370117188,-4.510675927734375,-2.39420166015625,-36.06106870229008,46.19847328244275,-3.2061068702290076,0.0
12.270000696182251,-12.148179223632813,1.2976572998046874,9.6151138671875,11.816793893129772,-113.2824427480916,-18.85496183206107,-13.019668627929686,-2.6910826660156246,0.5051765502929687,-23.49618320610687,41.49618320610687,-18.366412213740457,0.0
12.280000686645508,-11.767501159667969,0.833182177734375,8.441955053710936,20.213740458015266,-129.81679389312978,-17.404580152671755,-15.167267517089844,-0.03591302490234375,5.295974072265625,-21.938931297709924,40.30534351145038,-27.938931297709924,0.0
12.290000677108765,-11.276689819335937,-0.6631938598632812,6.789955908203124,30.82442748091603,-142.45801526717557,-15.877862595419847,-16.09382355957031,-3.6535517333984373,7.7596075805664055,-8.65648854961832,28.83969465648855,-23.328244274809162,0.0
12.3000009059906,-11.616666455078125,-2.748543505859375,4.383783239746093,51.19083969465649,-151.4198473282443,-12.793893129770993,-17.164031701660154,-4.0988732421875,5.863399865722656,21.69465648854962,10.564885496183207,-15.633587786259541,0.0
12.310000658035278,-12.172121240234373,-3.9839515624999997,1.707065783691406,72.99236641221374,-152.67175572519085,-9.053435114503817,-15.385139868164062,-2.3965958618164063,5.4707507934570305,53.51145038167939,-5.099236641221374,-4.580152671755725,0.0
12.320000886917114,-11.4538607421875,-6.593631372070312,-1.9776105712890624,90.53435114503817,-150.01526717557252,-5.755725190839694,-8.913612780761719,3.5506010620117183,2.3965958618164063,47.099236641221374,-19.51145038167939,-3.053435114503817,0.0
12.330000638961792,-11.777077966308592,-5.753266589355468,-3.191470812988281,108.8854961832061,-136.70229007633588,-9.679389312977099,-8.767566479492187,3.873818286132812,0.97683427734375,23.114503816793892,-8.366412213740459,1.984732824427481,0.0
12.340000867843628,-10.505756884765624,-6.133944653320312,-4.697423657226563,123.37404580152672,-123.22137404580153,-12.01526717557252,-7.448361364746093,3.1268273681640624,-0.7661445312499999,2.5343511450381677,-5.0534351145038165,3.5114503816793894,0.0
12.350000619888306,-10.065223779296874,-4.185064501953125,-5.051765502929687,134.0763358778626,-104.54961832061069,-15.801526717557252,-7.082048510742187,1.9847931762695312,-1.3527239379882812,-17.893129770992367,8.641221374045802,2.4885496183206106,0.0
12.360000371932983,-8.961496813964843,-2.3630770385742186,-5.032611889648437,132.10687022900763,-86.56488549618321,-18.625954198473284,-6.488286499023437,1.8938135131835936,-3.5960908935546874,-31.068702290076335,17.068702290076335,0.04580152671755725,0.0
12.37000060081482,-8.75320126953125,1.0175357055664063,-4.062960217285156,119.5114503816794,-68.6412213740458,-23.17557251908397,-9.145850341796875,-3.0166940917968748,-1.9416975463867185,-50.29007633587786,34.82442748091603,6.427480916030534,0.0
12.380000591278076,-9.76116016845703,2.300827795410156,-2.5857377929687497,96.01526717557252,-57.61832061068702,-23.923664122137403,-12.318167541503906,-8.085219006347655,0.7709329345703124,-20.671755725190838,35.51145038167939,13.801526717557252,0.0
12.390000581741333,-7.915230688476562,2.4588451049804685,-2.5330653564453125,88.29007633587786,-49.86259541984733,-22.732824427480917,-10.414777221679687,-4.5968671875,0.11731588134765625,-0.9770992366412213,19.0381679389313,3.068702290076336,0.0
12.40000057220459,-7.838616235351562,3.4620156005859375,-1.678335363769531,80.6412213740458,-33.87786259541985,-21.129770992366414,-11.350910070800781,-4.1946413085937495,0.9457096557617187,2.0,26.48854961832061,-0.549618320610687,0.0
12.410000562667847,-10.091559997558592,6.021417175292968,-0.3136404174804687,48.595419847328245,-28.442748091603054,-18.68702290076336,-11.724405529785155,-5.825092639160156,1.6807295654296874,24.641221374045802,19.31297709923664,0.24427480916030533,0.0
12.420000553131104,-10.096348400878906,5.578489868164062,-0.24181436767578124,23.72519083969466,-26.412213740458014,-12.931297709923664,-10.51533369140625,-4.240131140136718,1.0223241088867188,43.00763358778626,4.534351145038168,-2.4427480916030535,0.0
12.43000078201294,-7.805097412109374,3.782838623046875,-0.8834604125976562,6.564885496183206,-21.053435114503817,-3.49618320610687,-7.3932947265625,0.27293898925781246,-0.0430956298828125,39.343511450381676,3.0381679389312977,-7.969465648854962,0.0
12.440000772476196,-7.304709265136719,3.5625720703124997,-0.8882488159179687,-12.15267175572519,-14.946564885496183,1.1908396946564885,-7.8362220336914055,0.737414111328125,-0.35194764404296874,28.870229007633586,8.458015267175572,-4.015267175572519,0.0
12.450001001358032,-7.067683300781249,3.308786694335937,-0.5027823486328125,-30.549618320610687,-9.557251908396946,3.7557251908396947,-10.79545528564453,-0.17238251953125,1.0319009155273438,18.442748091603054,15.404580152671755,3.6793893129770994,0.0
12.460000276565552,-6.833051538085937,2.844311572265625,-0.5722141967773438,-43.31297709923664,-5.022900763358779,8.854961832061068,-8.884882360839843,0.143652099609375,0.6344634399414062,10.458015267175572,12.610687022900763,3.0839694656488548,0.0
12.470000743865967,-5.91846650390625,1.5945383056640625,-1.0103531005859374,-48.274809160305345,0.8396946564885496,14.030534351145038,-8.406042028808594,1.1133037719726562,1.1635820068359375,0.1984732824427481,15.114503816793894,3.7099236641221376,0.0
12.480000495910645,-5.9376201171875,1.0534487304687499,-0.7062894897460937,-55.02290076335878,8.274809160305344,16.778625954198475,-10.026916552734374,-0.7685387329101562,2.7940333374023436,-8.763358778625955,23.00763358778626,6.67175572519084,0.0
12.490000486373901,-5.250484240722656,-1.2808978881835937,-1.3000515014648437,-55.86259541984733,12.259541984732824,20.045801526717558,-10.503362683105468,-3.191470812988281,3.758896606445312,-1.0687022900763359,14.977099236641221,6.122137404580153,0.0
12.500000476837158,-4.860229370117187,-3.229778039550781,-1.4700398193359374,-42.88549618320611,22.412213740458014,20.015267175572518,-9.883264453125,-2.578555187988281,4.88417138671875,8.83969465648855,7.282442748091603,1.5419847328244274,0.0
12.510000705718994,-4.9416322265625,-2.4396914916992185,-0.46208092041015625,-34.229007633587784,34.030534351145036,14.458015267175572,-7.005434057617187,0.7757213378906249,2.779668127441406,6.717557251908397,-4.198473282442748,-5.938931297709924,0.0
12.520000696182251,-4.99909306640625,-1.9225439331054686,0.2059013427734375,-34.19847328244275,41.3587786259542,10.213740458015268,-7.3932947265625,1.1133037719726562,2.2864625854492187,-8.82442748091603,-5.251908396946565,-3.145038167938931,0.0
12.530000686645508,-5.5258174316406246,-1.5586252807617187,1.3000515014648437,-37.587786259541986,49.465648854961835,7.572519083969466,-7.977479931640625,0.28730419921875,2.2481553588867187,-17.389312977099237,-6.931297709923665,1.83206106870229,0.0
12.540000677108765,-6.414066247558593,-1.2114660400390624,3.0310593017578125,-42.045801526717554,51.725190839694655,4.137404580152672,-9.023746057128905,-1.4867992309570313,2.501940734863281,-17.66412213740458,-8.51908396946565,4.183206106870229,0.0
12.550000667572021,-5.889736083984375,-1.9656395629882812,3.162740393066406,-33.80152671755725,52.58015267175573,4.702290076335878,-10.66856259765625,-1.8124106567382812,2.5043349365234375,-3.4656488549618323,-14.076335877862595,2.6412213740458017,0.0
12.5600004196167,-6.3709706176757805,-1.4508862060546874,4.388571643066406,-22.717557251908396,58.16793893129771,2.4122137404580153,-8.86094034423828,-0.967257470703125,2.310404602050781,-5.297709923664122,-21.328244274809162,-0.4580152671755725,0.0
12.570000410079956,-6.694187841796874,-0.5506663818359374,5.1882349975585935,-16.564885496183205,57.267175572519086,0.44274809160305345,-8.465897070312499,0.36391865234375,0.699106884765625,-14.595419847328245,-25.435114503816795,-3.0076335877862594,0.0
12.580000877380371,-7.697358337402343,0.22026655273437498,6.315903979492187,-6.366412213740458,57.00763358778626,2.9618320610687023,-8.520963708496094,-0.26815058593749996,0.507570751953125,-19.51145038167939,-25.893129770992367,0.549618320610687,0.0
12.590000629425049,-7.900865478515625,0.13407529296874998,7.089231115722656,10.595419847328245,56.13740458015267,8.0,-9.792284790039062,-1.2952630981445312,1.6735469604492186,-16.15267175572519,-23.923664122137403,4.33587786259542,0.0
12.600000619888306,-8.243236315917969,0.02154781494140625,7.735665563964844,26.80916030534351,53.63358778625954,12.213740458015268,-7.6614453125,0.8858546142578124,1.4963760375976562,-18.50381679389313,-21.908396946564885,3.786259541984733,0.0
12.610000371932983,-9.260772021484375,0.488417138671875,8.288726147460936,32.74809160305343,43.89312977099237,13.816793893129772,-7.445967163085937,-0.105344873046875,1.5753846923828123,-17.52671755725191,-18.793893129770993,6.748091603053435,0.0
12.62000060081482,-9.555258825683593,0.6655880615234374,8.930372192382812,29.251908396946565,33.49618320610687,11.526717557251908,-8.374917407226562,-0.07422025146484375,1.6136919189453125,-17.755725190839694,-20.65648854961832,9.419847328244275,0.0
12.630000591278076,-10.73799444580078,0.6607996582031249,8.992621435546875,14.351145038167939,16.83969465648855,7.511450381679389,-7.860164050292968,-0.4333505004882812,2.607285607910156,-23.419847328244273,-21.923664122137403,9.19083969465649,0.0
12.640000343322754,-8.772354882812499,-0.7158662963867187,7.845798840332031,16.671755725190838,3.4198473282442747,5.770992366412214,-9.284714038085937,-2.540247961425781,3.801992236328125,-32.16793893129771,-26.48854961832061,8.854961832061068,0.0
12.65000057220459,-10.134655627441406,-0.40462008056640625,9.167398156738281,18.946564885496183,-7.022900763358779,3.3740458015267176,-12.19366905517578,-2.29843359375,3.4428619873046875,-29.236641221374047,-28.290076335877863,8.763358778625955,0.0
12.660000562667847,-10.455478649902343,-0.5003881469726562,8.307879760742187,33.6793893129771,-16.366412213740457,5.114503816793893,-12.734758630371093,-3.071760729980469,3.7397429931640622,-22.137404580152673,-28.80916030534351,12.854961832061068,0.0
12.670000553131104,-11.645396875,1.3575123413085937,4.6830584472656245,37.32824427480916,-14.351145038167939,10.183206106870228,-12.610260144042968,-1.599326708984375,1.8555062866210936,-17.221374045801525,-34.030534351145036,14.16793893129771,0.0
12.68000054359436,-13.0627642578125,2.070984436035156,0.59376201171875,24.045801526717558,-16.442748091603054,17.480916030534353,-10.572794531249999,-0.6751648681640625,0.842758984375,-20.671755725190838,-27.419847328244273,18.3206106870229,0.0
12.690000295639038,-16.021997509765622,0.2825157958984375,2.480392919921875,17.923664122137403,-7.435114503816794,21.96946564885496,-9.488221179199218,-1.9656395629882812,0.1005564697265625,-13.34351145038168,-23.14503816793893,22.244274809160306,0.0
12.700000286102295,-18.06664572753906,-1.6448165405273436,5.647921716308593,-4.351145038167939,-11.572519083969466,17.541984732824428,-9.758765966796874,-1.6519991455078125,-0.3854664672851562,-9.17557251908397,-19.52671755725191,23.893129770992367,0.0
12.71000051498413,-19.57259857177734,-3.1771056030273437,6.792350109863281,-8.778625954198473,-17.64885496183206,9.282442748091603,-9.121908325195312,-1.254561669921875,-1.6112977172851561,-11.603053435114504,-12.992366412213741,24.671755725190838,0.0
12.720000267028809,-19.31163059082031,-0.4955997436523437,4.979939453125,4.290076335877862,-19.984732824427482,6.6106870229007635,-10.524910498046875,-2.446874096679687,-2.750937707519531,-6.3816793893129775,-4.290076335877862,26.48854961832061,0.0
12.730000734329224,-17.089811450195313,4.879382983398437,1.4796166259765624,11.526717557251908,-15.908396946564885,11.435114503816793,-11.666944689941406,-3.5817256835937497,-2.29843359375,1.282442748091603,3.8931297709923665,27.114503816793892,0.0
12.740000486373901,-11.365275280761718,5.03740029296875,-2.4013842651367185,10.50381679389313,-12.15267175572519,22.03053435114504,-14.058752148437499,-3.4835634155273434,-1.3287819213867187,9.786259541984732,11.587786259541986,23.786259541984734,0.0
12.750000238418579,-7.3837179199218745,3.976768957519531,-2.1691467041015624,3.5877862595419847,-4.259541984732825,21.69465648854962,-15.339650036621093,-2.8898014038085935,-1.1133037719726562,19.068702290076335,17.923664122137403,16.48854961832061,0.0
12.760000705718994,-6.79953271484375,1.3096283081054687,-0.7015010864257812,-10.80916030534351,3.816793893129771,14.045801526717558,-16.151284399414063,-1.9943699829101562,-1.20667763671875,31.480916030534353,23.801526717557252,7.511450381679389,0.0
12.770000457763672,-3.737348791503906,-0.6847416748046875,-1.9704279663085937,-6.183206106870229,8.51908396946565,10.961832061068701,-15.631742639160155,-0.3327940307617187,-0.737414111328125,36.44274809160305,28.931297709923665,4.152671755725191,0.0
12.780000686645508,-3.749319799804687,-1.5155296508789062,-2.480392919921875,-2.9770992366412212,19.099236641221374,5.938931297709924,-15.598223815917969,-1.24498486328125,0.5506663818359374,41.43511450381679,37.57251908396947,6.656488549618321,0.0
12.790000677108765,-5.027823486328125,-0.38786066894531246,-2.849099975585937,3.8625954198473282,31.389312977099237,-0.015267175572519083,-13.47696114501953,1.139639990234375,-0.23223756103515625,43.93893129770992,34.778625954198475,5.297709923664122,0.0
12.800000429153442,-6.924031201171875,2.592920397949219,-2.4899697265625,-6.106870229007634,36.0,-4.259541984732825,-11.67652149658203,2.8658593872070313,-0.09576806640624999,41.267175572519086,40.51908396946565,3.633587786259542,0.0
12.810000658035278,-8.530540515136718,2.7557261108398436,-0.8283937744140625,-17.84732824427481,39.87786259541985,-2.4122137404580153,-10.445901843261717,2.4779987182617185,0.28490999755859375,34.82442748091603,41.83206106870229,4.595419847328245,0.0
12.820001125335693,-8.817844714355468,1.8076222534179687,-0.22026655273437498,-22.793893129770993,42.80916030534351,1.618320610687023,-9.038111267089842,3.5960908935546874,0.469263525390625,24.045801526717558,42.29007633587786,6.519083969465649,0.0
12.830000877380371,-10.091559997558592,1.7932570434570312,0.5578489868164063,-24.47328244274809,46.70229007633588,2.4122137404580153,-8.358157995605469,2.70065947265625,1.7453730102539062,15.908396946564885,50.58015267175573,12.442748091603054,0.0
12.840000867843628,-10.244788903808594,0.7972691528320313,0.7302315063476562,-26.15267175572519,48.152671755725194,2.8396946564885495,-8.731653454589843,0.28730419921875,2.39420166015625,21.19083969465649,48.62595419847328,16.748091603053435,0.0
12.850000619888306,-10.575188732910156,-0.06464344482421874,0.8786720092773437,-25.770992366412212,49.19083969465649,1.4351145038167938,-8.671798413085938,1.6639701538085936,2.3726538452148436,28.9618320610687,42.83969465648855,15.511450381679388,0.0
12.860000371932983,-9.624690673828125,-0.5195417602539062,0.4070142822265625,-21.96946564885496,49.099236641221374,0.8396946564885496,-7.481880187988281,3.1747114013671873,1.9752163696289062,20.18320610687023,38.80916030534351,14.65648854961832,0.0
12.87000060081482,-10.455478649902343,-0.1149216796875,1.1540052001953125,-24.0,51.908396946564885,-0.061068702290076333,-7.606378674316406,2.806004345703125,2.403778466796875,7.648854961832061,41.17557251908397,19.954198473282442,0.0
12.880000591278076,-10.110713610839843,0.0047884033203125,0.8451531860351562,-25.129770992366414,50.030534351145036,-0.6564885496183206,-9.481038574218749,0.22744915771484372,3.670311145019531,9.236641221374045,39.74045801526717,25.053435114503817,0.0
12.890000343322754,-9.600748657226562,-0.5386953735351562,1.2713210815429687,-24.580152671755727,47.69465648854962,-0.6870229007633588,-9.270348828125,0.4477157104492187,3.7205893798828122,16.045801526717558,29.938931297709924,24.213740458015266,0.0
12.90000057220459,-10.156203442382813,-0.5123591552734374,1.5777788940429687,-18.015267175572518,47.343511450381676,-2.1526717557251906,-9.533711010742186,1.5251064575195312,2.91134921875,15.770992366412214,19.84732824427481,21.14503816793893,0.0
12.910000324249268,-10.139444030761718,0.44053310546874996,1.93451494140625,-17.69465648854962,46.54961832061068,-3.5114503816793894,-9.87608184814453,1.8602946899414061,3.0430303100585934,3.1755725190839694,17.389312977099237,22.0,0.0
12.920000314712524,-9.279925634765624,0.8259995727539062,1.5777788940429687,-16.85496183206107,41.465648854961835,-3.633587786259542,-10.256759912109374,1.7741034301757812,2.750937707519531,-4.748091603053435,14.793893129770993,23.34351145038168,0.0
12.93000078201294,-10.589553942871094,1.0079588989257813,2.473210314941406,-16.671755725190838,41.9236641221374,-5.0534351145038165,-10.505756884765624,1.2832920898437499,2.6695348510742187,-10.625954198473282,10.625954198473282,25.083969465648856,0.0
12.940000534057617,-10.065223779296874,1.1276689819335937,1.2473790649414063,-15.358778625954198,33.69465648854962,-3.450381679389313,-11.080365283203124,0.7134720947265625,2.9951462768554684,-13.725190839694656,8.320610687022901,25.786259541984734,0.0
12.950000524520874,-10.242394702148436,1.7357962036132812,1.0773907470703123,-18.35114503816794,28.38167938931298,-1.0687022900763359,-10.62307276611328,0.35673604736328124,2.858676782226562,-18.18320610687023,4.793893129770993,25.328244274809162,0.0
12.96000051498413,-11.343727465820312,3.2632968627929686,1.695094775390625,-23.00763358778626,25.358778625954198,1.465648854961832,-10.963049401855468,-0.6488286499023437,3.1603461914062496,-18.106870229007633,2.763358778625954,24.610687022900763,0.0
12.970000743865967,-10.149020837402343,1.649604943847656,0.7254431030273437,-22.671755725190838,21.755725190839694,6.33587786259542,-10.129867224121092,-0.040701428222656245,2.4061726684570313,-20.27480916030534,-3.0229007633587788,22.0,0.0
12.980000734329224,-10.218452685546874,0.9576806640625,0.4285620971679687,-20.885496183206108,21.0381679389313,7.938931297709924,-10.721235034179687,-2.272097375488281,3.0909143432617188,-18.229007633587788,-1.9083969465648856,21.435114503816795,0.0
12.990000486373901,-10.304643945312499,1.0127473022460938,0.5889736083984375,-19.893129770992367,19.770992366412212,6.244274809160306,-9.215282189941405,-1.6352397338867186,2.1021090576171875,-6.8396946564885495,-14.198473282442748,15.465648854961833,0.0
13.000000476837158,-10.625466967773438,1.0821791503906248,0.8092401611328125,-18.916030534351144,17.755725190839694,3.9389312977099236,-11.621454858398437,-0.4429273071289062,2.4899697265625,-7.633587786259542,-13.969465648854962,13.007633587786259,0.0
13.010000467300415,-10.378864196777343,0.9217676391601562,1.0821791503906248,-19.923664122137403,15.923664122137405,4.687022900763359,-10.582371337890624,0.5698199951171875,1.254561669921875,-13.007633587786259,-17.96946564885496,9.86259541984733,0.0
13.020000696182251,-10.27830772705078,1.5753846923828123,1.1180921752929687,-21.068702290076335,14.412213740458014,4.412213740458015,-10.9941740234375,-1.1635820068359375,2.31758720703125,-15.954198473282442,-11.816793893129772,11.969465648854962,0.0
13.030000686645508,-9.964667309570311,0.6631938598632812,1.120486376953125,-20.564885496183205,13.129770992366412,5.847328244274809,-11.049240661621093,-1.5705962890624998,2.8131869506835936,-4.473282442748092,-14.564885496183207,9.114503816793894,0.0
13.040000677108765,-10.053252770996092,0.603338818359375,1.005564697265625,-15.618320610687023,13.145038167938932,6.3816793893129775,-12.023680737304687,-0.5793968017578125,2.7174188842773437,1.7099236641221374,-16.35114503816794,6.213740458015267,0.0
13.050000667572021,-9.457096557617186,-0.21308394775390624,0.49320554199218747,-11.648854961832061,13.572519083969466,6.931297709923665,-9.861716638183593,-0.24660277099609373,2.4588451049804685,7.8320610687022905,-23.51145038167939,2.16793893129771,0.0
13.060000896453857,-8.568847741699217,-1.917755529785156,-0.05746083984375,1.9083969465648856,15.694656488549619,5.786259541984733,-10.290278735351562,-0.17956512451171874,1.9608511596679685,11.755725190839694,-28.519083969465647,-1.083969465648855,0.0
13.070000648498535,-9.60793126220703,0.028730419921875,0.2442085693359375,5.755725190839694,18.625954198473284,0.9770992366412213,-8.966285217285156,1.7573440185546874,1.4245499877929686,8.83969465648855,-32.213740458015266,-4.534351145038168,0.0
13.080000877380371,-9.868899243164062,1.0079588989257813,0.7302315063476562,5.1603053435114505,20.091603053435115,-1.8931297709923665,-9.682151513671874,3.450044592285156,1.0438719238281249,-7.603053435114504,-21.81679389312977,-2.366412213740458,0.0
13.090000629425049,-9.883264453125,1.7884686401367187,0.5985504150390625,-4.900763358778626,15.007633587786259,0.15267175572519084,-8.590395556640624,1.0606313354492187,1.6735469604492186,-15.038167938931299,-16.396946564885496,1.251908396946565,0.0
13.100000619888306,-10.079588989257813,1.649604943847656,0.3950432739257812,-5.419847328244275,14.122137404580153,1.4045801526717556,-8.980650427246093,-0.033518823242187495,1.1180921752929687,-11.969465648854962,-21.236641221374047,0.732824427480916,0.0
13.110000371932983,-9.770736975097655,0.9074024291992187,0.16041151123046873,-1.6641221374045803,14.01526717557252,2.717557251908397,-9.363722692871093,0.5147533569335937,1.0319009155273438,-4.3816793893129775,-21.221374045801525,-0.6412213740458015,0.0
13.12000060081482,-9.945513696289062,0.612915625,0.2561795776367187,1.1145038167938932,14.091603053435115,1.5725190839694656,-9.358934289550781,1.8555062866210936,0.3447650390625,-5.877862595419847,-18.48854961832061,-2.015267175572519,0.0
13.130000352859497,-10.012551342773437,0.7326257080078125,0.6560112548828124,2.564885496183206,14.564885496183207,0.5801526717557252,-8.269572534179687,2.1356278808593747,-0.74699091796875,-17.49618320610687,-16.885496183206108,-2.4885496183206106,0.0
13.140000343322754,-10.160991845703125,1.4604630126953124,1.1659762084960936,1.6946564885496183,14.198473282442748,-0.061068702290076333,-9.14824454345703,1.5490484741210937,-0.6631938598632812,-30.27480916030534,-3.450381679389313,0.8396946564885496,0.0
13.15000057220459,-10.263942517089843,2.1212626708984375,1.1611878051757811,-2.2748091603053435,12.51908396946565,1.0381679389312977,-10.345345373535155,-1.0486603271484374,-0.02633621826171875,-24.18320610687023,1.6946564885496183,2.3053435114503817,0.0
13.160000562667847,-10.189722265624999,2.1811177124023438,0.9816226806640624,-4.015267175572519,10.83969465648855,1.9541984732824427,-10.869675537109375,-1.20667763671875,0.6200982299804687,-12.244274809160306,-1.1145038167938932,-1.2213740458015268,0.0
13.170000314712524,-9.900023864746093,1.7477672119140624,0.6200982299804687,-2.763358778625954,11.557251908396946,2.946564885496183,-10.386046801757812,-0.852335791015625,1.3239935180664062,-5.145038167938932,-1.7404580152671756,-5.755725190839694,0.0
13.18000054359436,-9.830592016601562,1.5849614990234373,0.40462008056640625,-3.969465648854962,11.541984732824428,2.8091603053435112,-10.290278735351562,-0.928950244140625,1.5514426757812498,-0.2748091603053435,-1.282442748091603,-7.4961832061068705,0.0
13.190001010894775,-9.85692823486328,1.6208745239257811,0.27293898925781246,-5.1603053435114505,11.282442748091603,1.5572519083969465,-11.3772462890625,-1.8459294799804686,2.6886884643554687,11.038167938931299,-1.6030534351145038,-7.709923664122138,0.0
13.200000524520874,-9.804255798339844,1.5035586425781249,0.22026655273437498,-6.549618320610687,11.129770992366412,0.8702290076335878,-11.142614526367186,-0.19871873779296872,2.602497204589844,13.34351145038168,-6.6106870229007635,-11.282442748091603,0.0
13.21000075340271,-9.916783276367187,1.6112977172851561,0.33518823242187495,-6.793893129770993,12.091603053435115,0.7633587786259542,-10.984597216796875,-0.20829554443359374,2.214636535644531,11.877862595419847,-7.297709923664122,-13.84732824427481,0.0
13.220000505447388,-10.101136804199218,1.1947066284179686,0.6464344482421874,-9.236641221374045,12.50381679389313,0.0916030534351145,-11.470620153808593,-1.1109095703125,2.6527754394531247,17.0381679389313,-9.34351145038168,-15.19083969465649,0.0
13.230000495910645,-9.866505041503906,0.6488286499023437,0.47644613037109373,-6.67175572519084,12.732824427480915,-1.0229007633587786,-10.474632263183594,-0.7422025146484375,2.43250888671875,19.954198473282442,-19.61832061068702,-19.389312977099237,0.0
13.240000486373901,-9.464279162597656,0.296881005859375,0.44053310546874996,-4.732824427480916,13.236641221374045,-2.3206106870229006,-8.576030346679687,0.9600748657226562,1.4006079711914061,13.389312977099237,-23.908396946564885,-23.87786259541985,0.0
13.250000476837158,-9.428366137695312,0.9576806640625,0.852335791015625,-4.885496183206107,14.106870229007633,-3.8931297709923665,-7.6279264892578125,1.2904746948242187,1.3311761230468748,-0.16793893129770993,-21.022900763358777,-22.885496183206108,0.0
13.260000467300415,-9.919177478027343,1.678335363769531,1.2473790649414063,-8.320610687022901,12.916030534351146,-3.404580152671756,-8.097190014648437,1.1635820068359375,1.1444283935546875,-3.8473282442748094,-18.33587786259542,-20.916030534351144,0.0
13.270000696182251,-10.005368737792969,1.917755529785156,1.3335703247070312,-9.083969465648854,10.65648854961832,-2.0916030534351147,-10.338162768554687,-0.26336218261718747,2.3127988037109373,1.618320610687023,-13.17557251908397,-18.0,0.0
13.280000686645508,-9.658209497070311,1.0702081420898437,1.1707646118164061,-7.755725190839694,7.755725190839694,-0.42748091603053434,-9.70369932861328,-0.7829039428710937,3.1124621582031247,6.3816793893129775,-14.641221374045802,-19.541984732824428,0.0
13.290000438690186,-9.737218151855469,0.3950432739257812,0.9074024291992187,-1.7099236641221374,6.580152671755725,0.3969465648854962,-8.801085302734375,-0.9169792358398436,2.9927520751953125,14.748091603053435,-19.297709923664122,-22.35114503816794,0.0
13.300000429153442,-9.641450085449218,0.09816226806640624,0.8020575561523438,5.236641221374046,7.00763358778626,-0.5648854961832062,-9.888052856445311,-0.8667010009765624,2.6815058593749996,22.702290076335878,-22.442748091603054,-22.778625954198475,0.0
13.310000658035278,-9.68454571533203,0.1484405029296875,0.5003881469726562,11.19083969465649,6.961832061068702,-1.6793893129770991,-10.20169327392578,-0.9217676391601562,2.9472622436523435,28.33587786259542,-24.076335877862597,-22.12213740458015,0.0
13.320000886917114,-9.636661682128906,0.4477157104492187,0.2346317626953125,14.82442748091603,7.343511450381679,-2.4885496183206106,-8.281543542480469,1.6998831787109374,1.7477672119140624,25.801526717557252,-29.61832061068702,-24.106870229007633,0.0
13.330000400543213,-9.957484704589843,1.7812860351562498,0.32561142578124996,13.49618320610687,8.946564885496183,-3.3893129770992365,-7.134720947265625,2.3295582153320313,1.649604943847656,10.687022900763358,-19.541984732824428,-21.34351145038168,0.0
13.340000867843628,-10.244788903808594,1.2497732666015624,0.42377369384765623,6.305343511450381,9.099236641221374,-2.3969465648854964,-7.659051110839843,1.8076222534179687,1.0366893188476562,2.213740458015267,-16.793893129770993,-17.786259541984734,0.0
13.350000619888306,-9.87608184814453,2.437297290039062,0.4908113403320312,5.8320610687022905,9.145038167938932,-2.2290076335877864,-9.758765966796874,0.1005564697265625,1.8842367065429686,3.9083969465648853,-10.763358778625955,-13.648854961832061,0.0
13.360000610351562,-10.187328063964843,1.9967641845703124,0.8714894042968749,-0.7175572519083969,6.564885496183206,-1.5114503816793894,-9.560047229003906,0.36391865234375,2.243366955566406,6.33587786259542,-10.412213740458014,-14.366412213740459,0.0
13.37000036239624,-9.9215716796875,1.0510545288085937,0.7900865478515624,3.0381679389312977,6.412213740458015,-0.366412213740458,-9.428366137695312,0.277727392578125,2.2361843505859373,8.213740458015268,-9.679389312977099,-14.870229007633588,0.0
13.380000352859497,-9.662997900390625,0.6081272216796875,0.74699091796875,6.6106870229007635,6.473282442748092,-0.5801526717557252,-9.34696328125,0.1388636962890625,2.1739351074218747,9.389312977099237,-8.274809160305344,-14.15267175572519,0.0
13.390000581741333,-9.868899243164062,1.0079588989257813,0.8116343627929687,10.687022900763358,6.3816793893129775,-1.5877862595419847,-9.265560424804686,-0.0047884033203125,2.2553379638671873,11.145038167938932,-7.267175572519084,-13.34351145038168,0.0
13.40000033378601,-9.993397729492187,1.3144167114257812,0.7254431030273437,11.740458015267176,6.2748091603053435,-2.4732824427480917,-9.380482104492186,-0.34237083740234375,2.463633508300781,13.374045801526718,-6.916030534351145,-12.916030534351146,0.0
13.410000562667847,-9.885658654785155,1.4867992309570313,0.5410895751953124,12.549618320610687,6.351145038167939,-2.900763358778626,-9.090783703613281,-0.6823474731445313,2.480392919921875,17.51145038167939,-8.320610687022901,-13.786259541984732,0.0
13.420000553131104,-10.04846436767578,1.6136919189453125,0.5985504150390625,11.358778625954198,6.3816793893129775,-3.3893129770992365,-9.184157568359375,-0.7350199096679687,2.722207287597656,19.893129770992367,-7.190839694656488,-13.633587786259541,0.0
13.43000078201294,-9.832986218261718,1.4173673828125,0.5722141967773438,10.595419847328245,6.687022900763359,-3.312977099236641,-9.720458740234374,-1.4317325927734375,2.7940333374023436,27.49618320610687,-7.740458015267175,-12.595419847328245,0.0
13.440000534057617,-9.667786303710937,1.0630255371093749,0.6272808349609375,9.648854961832061,6.702290076335878,-3.801526717557252,-9.414000927734374,-0.23702596435546874,1.9967641845703124,32.2442748091603,-11.435114503816793,-14.290076335877863,0.0
13.450000762939453,-9.502586389160156,1.2425906616210938,0.6512228515624999,11.740458015267176,8.259541984732824,-4.061068702290076,-8.300697155761718,-0.33758243408203126,1.9033903198242186,34.961832061068705,-11.557251908396946,-14.778625954198473,0.0
13.46000051498413,-9.536105212402344,1.4006079711914061,0.6344634399414062,11.022900763358779,9.465648854961833,-4.091603053435114,-8.398859423828124,0.20350714111328125,1.0989385620117187,34.12213740458015,-12.106870229007633,-15.419847328244275,0.0
13.470000743865967,-9.265560424804686,1.908178723144531,0.55545478515625,10.549618320610687,10.534351145038167,-4.564885496183206,-7.563283044433593,0.8643067993164062,1.5682020874023437,29.068702290076335,-5.526717557251908,-15.007633587786259,0.0
13.480000257492065,-9.854534033203125,2.4779987182617185,0.7062894897460937,5.32824427480916,10.213740458015268,-4.3816793893129775,-7.433996154785156,0.8978256225585937,0.63206923828125,25.236641221374047,-3.877862595419847,-15.358778625954198,0.0
13.490000486373901,-9.674968908691406,2.6408044311523438,0.9433154541015625,1.7099236641221374,11.541984732824428,-4.213740458015267,-8.386888415527343,-0.201112939453125,1.7118541870117185,18.916030534351144,5.526717557251908,-12.473282442748092,0.0
13.500000238418579,-9.6917283203125,2.1164742675781247,1.0031704956054688,-2.7786259541984735,9.694656488549619,-3.5419847328244276,-8.556876733398436,-0.8690952026367187,1.656787548828125,24.137404580152673,5.022900763358779,-13.877862595419847,0.0
13.510000705718994,-9.710881933593749,1.7836802368164062,1.180341418457031,-2.763358778625954,9.007633587786259,-3.7557251908396947,-8.901641772460938,-0.8571241943359375,2.051830822753906,28.091603053435115,6.244274809160306,-15.49618320610687,0.0
13.520000696182251,-9.861716638183593,1.5969325073242187,1.6160861206054686,-3.404580152671756,8.992366412213741,-4.030534351145038,-8.635885388183594,-0.86191259765625,2.4133552734375,27.984732824427482,7.6183206106870225,-17.267175572519083,0.0
13.530000448226929,-9.816226806640625,1.1276689819335937,1.8722656982421875,-2.7786259541984735,6.8396946564885495,-4.580152671755725,-8.458714465332031,-0.8547299926757812,2.384624853515625,28.68702290076336,7.480916030534351,-18.778625954198475,0.0
13.540000438690186,-9.8449572265625,0.4165910888671875,2.1212626708984375,2.6106870229007635,6.015267175572519,-4.961832061068702,-8.226476904296874,-0.6512228515624999,2.3487118286132813,28.702290076335878,7.465648854961832,-19.267175572519083,0.0
13.550000667572021,-10.714052429199219,1.5418658691406248,3.347093920898437,9.099236641221374,8.335877862595419,-8.396946564885496,-8.001421948242188,-0.3687070556640625,2.2290017456054687,28.931297709923665,7.435114503816794,-18.99236641221374,0.0
13.560000896453857,-10.304643945312499,1.7884686401367187,3.8139632446289062,10.916030534351146,4.580152671755725,-9.893129770992367,-7.8529814453124995,0.41419688720703124,2.1835119140624997,28.885496183206108,7.083969465648855,-18.290076335877863,0.0
13.570000648498535,-10.632649572753905,2.24097275390625,3.825934252929687,2.6564885496183206,-5.877862595419847,-7.511450381679389,-7.843404638671874,0.7398083129882812,2.1787235107421874,26.061068702290076,6.870229007633588,-14.83969465648855,0.0
13.58000111579895,-10.644620581054687,1.5538368774414062,4.074931225585937,7.145038167938932,-12.335877862595419,-5.770992366412214,-7.1395093505859375,1.1228805786132812,1.85790048828125,20.931297709923665,7.4961832061068705,-12.67175572519084,0.0
13.59000039100647,-9.885658654785155,0.239420166015625,4.04141240234375,15.725190839694656,-15.068702290076336,-4.717557251908397,-7.029376074218749,1.0941501586914062,1.4891934326171874,16.47328244274809,9.068702290076336,-9.145038167938932,0.0
13.600000619888306,-9.679757312011718,0.6248866333007812,4.2521021484374995,18.80916030534351,-19.251908396946565,-6.351145038167939,-6.926425402832031,1.3120225097656248,1.1611878051757811,15.34351145038168,10.0,-6.290076335877862,0.0
13.610000610351562,-9.64623848876953,0.6464344482421874,4.673481640625,21.083969465648856,-24.580152671755727,-7.893129770992366,-4.841075756835937,2.77727392578125,0.7062894897460937,4.702290076335878,12.198473282442748,-3.7099236641221376,0.0
13.62000060081482,-10.120290417480469,0.7493851196289062,5.130774157714844,21.893129770992367,-30.091603053435115,-8.442748091603054,-5.492298608398437,2.2266075439453124,0.055066638183593745,-5.068702290076335,17.404580152671755,1.297709923664122,0.0
13.630000352859497,-9.854534033203125,0.6392518432617187,5.6958057495117185,21.14503816793893,-37.81679389312977,-9.923664122137405,-7.0461354858398435,1.697488977050781,2.310404602050781,-10.732824427480915,20.442748091603054,2.5801526717557253,0.0
13.640000343322754,-11.245565197753905,2.8898014038085935,7.055712292480468,13.84732824427481,-45.93893129770992,-13.511450381679388,-7.807491613769531,0.5506663818359374,7.015010864257812,-40.88549618320611,20.290076335877863,-2.4122137404580153,0.0
13.65000057220459,-12.454637036132812,2.5450363647460934,8.130708837890625,-0.8549618320610687,-63.17557251908397,-14.274809160305344,-8.40843623046875,-6.2392895263671875,2.6982652709960937,-62.412213740458014,21.740458015267176,-6.549618320610687,0.0
13.660000562667847,-11.518504187011718,1.89620771484375,8.389282617187499,-2.6106870229007635,-82.97709923664122,-12.366412213740459,-9.770736975097655,-4.733336682128906,-1.1707646118164061,-39.83206106870229,25.114503816793892,-13.801526717557252,0.0
13.670000553131104,-10.831368310546875,-0.47644613037109373,8.700528833007812,6.427480916030534,-100.50381679389314,-12.732824427480915,-13.304578625488281,-2.0781670410156248,0.181959326171875,-33.38931297709924,31.19083969465649,-24.442748091603054,0.0
13.68000054359436,-10.572794531249999,-2.281674182128906,8.487444885253906,33.20610687022901,-116.4885496183206,-15.557251908396946,-17.566257580566404,-2.2673089721679687,3.239354846191406,-22.38167938931298,32.70229007633588,-32.51908396946565,0.0
13.690000772476196,-11.386823095703125,-2.7964275390625,6.284779357910156,52.534351145038165,-130.8854961832061,-18.870229007633586,-18.20790362548828,-1.956062756347656,4.627991809082031,-6.030534351145038,16.85496183206107,-34.51908396946565,0.0
13.700000524520874,-12.064382165527343,-3.632003918457031,3.296815686035156,57.7557251908397,-143.22137404580153,-17.96946564885496,-16.443377001953124,-0.4860229370117187,5.197811804199218,18.549618320610687,-0.4732824427480916,-21.00763358778626,0.0
13.71000075340271,-13.448230725097655,-3.2417490478515623,1.5466542724609373,60.961832061068705,-154.3206106870229,-14.977099236641221,-11.200075366210937,0.7685387329101562,2.9089550170898435,39.66412213740458,-14.335877862595419,-5.893129770992366,0.0
13.720000267028809,-13.48414375,-3.488351818847656,-1.139639990234375,77.14503816793894,-160.01526717557252,-9.282442748091603,-10.261548315429687,3.6008792968749996,0.9528922607421875,40.88549618320611,-11.740458015267176,2.9618320610687023,0.0
13.730000734329224,-13.0627642578125,-2.4205378784179685,-3.794809631347656,95.02290076335878,-158.77862595419847,-5.099236641221374,-6.993463049316406,5.042188696289062,-1.158793603515625,16.977099236641223,0.5801526717557252,4.931297709923665,0.0
13.740000247955322,-11.461043347167967,-2.3343466186523436,-3.864241479492187,104.94656488549619,-152.3206106870229,-1.3435114503816794,-7.939172705078125,2.1595698974609374,-1.0558429321289062,-0.9007633587786259,14.610687022900763,7.038167938931298,0.0
13.750000476837158,-11.494562170410155,-4.510675927734375,-5.097255334472656,116.91603053435115,-139.58778625954199,-1.4351145038167938,-9.423577734375,-1.9847931762695312,-0.040701428222656245,-4.366412213740458,21.801526717557252,6.106870229007634,0.0
13.760000705718994,-9.830592016601562,-4.1946413085937495,-6.047753393554687,124.36641221374046,-128.8854961832061,-7.038167938931298,-7.812280017089844,-3.902548706054687,-0.74699091796875,5.0534351145038165,20.198473282442748,-0.3816793893129771,0.0
13.770000696182251,-10.730811840820312,-1.908178723144531,-5.238513232421875,129.06870229007635,-108.25954198473282,-13.648854961832061,-9.842563024902343,-4.218583325195312,-0.3854664672851562,18.412213740458014,28.30534351145038,-2.6259541984732824,0.0
13.780000448226929,-11.367669482421874,1.4053963745117186,-4.434061474609375,118.38167938931298,-89.40458015267176,-18.106870229007633,-11.159373937988281,-4.905719201660156,-0.02633621826171875,24.610687022900763,28.0,-3.633587786259542,0.0
13.790000438690186,-10.388441003417968,2.722207287597656,-4.065354418945312,104.82442748091603,-74.61068702290076,-16.259541984732824,-11.01332763671875,-3.418919970703125,-0.076614453125,23.893129770992367,23.14503816793893,-3.9389312977099236,0.0
13.8000009059906,-8.698134631347656,3.2130186279296873,-3.0980969482421874,94.35114503816794,-54.82442748091603,-11.603053435114504,-10.115502014160155,-1.9823989746093749,0.11731588134765625,15.664122137404581,25.328244274809162,-1.8473282442748091,0.0
13.810000658035278,-7.410054138183593,4.304774584960938,-2.8419173706054686,70.01526717557252,-39.02290076335878,-7.374045801526718,-11.358092675781249,-4.414907861328125,1.0749965454101562,22.137404580152673,22.244274809160306,2.7022900763358777,0.0
13.820000648498535,-7.37414111328125,5.295974072265625,-1.4796166259765624,43.6793893129771,-24.85496183206107,-5.083969465648855,-11.616666455078125,-3.852270471191406,0.7110778930664062,40.48854961832061,8.778625954198473,-1.2366412213740459,0.0
13.830000638961792,-8.935160595703124,7.228094812011718,-0.2154781494140625,7.343511450381679,-21.297709923664122,-1.5114503816793894,-9.988609326171874,-1.1156979736328125,-0.086191259765625,42.732824427480914,2.0610687022900764,-9.709923664122137,0.0
13.840000629425049,-7.115567333984375,4.637568615722656,-0.8906430175781249,-15.435114503816793,-17.206106870229007,8.290076335877863,-10.330980163574218,-1.3359645263671873,0.7110778930664062,36.152671755725194,5.038167938931298,-9.755725190839694,0.0
13.850000619888306,-6.461950280761719,3.6272155151367187,-1.0678139404296874,-38.67175572519084,-11.389312977099237,12.01526717557252,-9.172186560058593,-0.6488286499023437,1.4437036010742186,29.84732824427481,4.778625954198473,-8.992366412213741,0.0
13.860000610351562,-6.517016918945312,2.798821740722656,-1.216254443359375,-52.82442748091603,-4.916030534351145,12.259541984732824,-8.959102612304687,-0.2657563842773437,1.4987702392578124,26.732824427480917,0.5343511450381679,-7.343511450381679,0.0
13.87000060081482,-5.635950708007812,1.2761094848632812,-1.6352397338867186,-64.54961832061069,-0.015267175572519083,14.396946564885496,-8.382100012207031,0.6416460449218749,1.2761094848632812,22.35114503816794,-1.5114503816793894,-6.122137404580153,0.0
13.880000352859497,-4.8889597900390624,-0.1484405029296875,-1.7381904052734374,-69.89312977099236,7.099236641221374,15.17557251908397,-6.792350109863281,2.877830395507812,0.8283937744140625,6.809160305343512,1.3740458015267176,-5.6183206106870225,0.0
13.890000581741333,-4.110844250488281,-2.2768857788085937,-1.9009961181640624,-68.93129770992367,15.236641221374045,16.35114503816794,-6.833051538085937,2.7724855224609373,0.70868369140625,-4.427480916030534,2.519083969465649,-1.0381679389312977,0.0
13.900000810623169,-2.6982652709960937,-3.8043864379882812,-1.7501614135742187,-57.86259541984733,26.870229007633586,14.213740458015268,-8.836998327636719,0.63206923828125,1.7884686401367187,-11.526717557251908,4.885496183206107,3.786259541984733,0.0
13.910000324249268,-3.4620156005859375,-3.7038299682617186,-0.22026655273437498,-50.229007633587784,38.229007633587784,7.404580152671755,-7.685387329101562,1.465251416015625,2.3822306518554686,-17.587786259541986,5.877862595419847,4.030534351145038,0.0
13.920000553131104,-4.429273071289062,-3.0430303100585934,1.0223241088867188,-43.87786259541985,45.267175572519086,2.519083969465649,-8.798691101074219,0.5961562133789062,2.616862414550781,-22.47328244274809,3.099236641221374,3.984732824427481,0.0
13.93000078201294,-4.553771557617187,-2.437297290039062,3.124433166503906,-34.67175572519084,50.045801526717554,-0.6870229007633588,-10.067617980957031,-1.1875240234375,4.1946413085937495,-29.282442748091604,3.1908396946564888,5.694656488549619,0.0
13.940000295639038,-5.547365246582031,-1.1324573852539062,4.493916516113281,-24.702290076335878,50.79389312977099,-2.8091603053435112,-9.947907897949218,-0.8355763793945312,3.5482068603515624,-24.549618320610687,-8.381679389312977,3.099236641221374,0.0
13.950000762939453,-5.236119030761718,-0.5985504150390625,5.181052392578125,-9.664122137404581,52.18320610687023,-2.3053435114503817,-9.988609326171874,-1.0462661254882812,3.1794998046874996,-27.221374045801525,-14.67175572519084,6.061068702290076,0.0
13.96000051498413,-6.217741711425781,0.488417138671875,6.009446166992187,4.656488549618321,53.57251908396947,0.8244274809160306,-8.990227233886719,-0.5410895751953124,2.3822306518554686,-25.00763358778626,-18.717557251908396,8.259541984732824,0.0
13.970000743865967,-7.319074475097656,1.4796166259765624,7.216123803710937,18.061068702290076,53.29770992366412,5.404580152671755,-8.180987072753906,-0.9313444458007812,1.9632453613281249,-24.53435114503817,-22.732824427480917,12.0,0.0
13.980000495910645,-8.645462194824217,1.89620771484375,8.176198669433592,27.786259541984734,48.88549618320611,11.267175572519085,-9.414000927734374,-2.750937707519531,1.695094775390625,-13.816793893129772,-23.221374045801525,13.007633587786259,0.0
13.990000486373901,-9.351751684570312,2.0470424194335934,8.908824377441405,32.12213740458015,41.57251908396947,14.396946564885496,-8.353369592285155,-3.265691064453125,2.2864625854492187,-1.1755725190839694,-31.19083969465649,8.458015267175572,0.0
14.000000238418579,-9.102754711914063,2.4779987182617185,8.954314208984375,26.045801526717558,30.442748091603054,12.442748091603054,-7.802703210449218,-1.5442600708007812,1.1635820068359375,3.8931297709923665,-33.11450381679389,2.900763358778626,0.0
14.010000467300415,-10.029310754394531,2.3247698120117186,9.105148913574219,2.427480916030534,13.221374045801527,9.053435114503817,-6.873752966308594,1.3168109130859373,-0.19393033447265623,1.9236641221374047,-33.770992366412216,0.07633587786259542,0.0
14.020000696182251,-8.63109698486328,2.980781066894531,8.24802471923828,-7.175572519083969,-0.6717557251908397,8.16793893129771,-6.574477758789062,2.300827795410156,0.3806780639648437,-24.16793893129771,-28.427480916030536,3.786259541984733,0.0
14.030000686645508,-8.068459594726562,0.488417138671875,8.197746484375,-8.15267175572519,-12.122137404580153,11.709923664122137,-7.240065820312499,1.7741034301757812,1.1875240234375,-37.587786259541986,-20.80916030534351,9.32824427480916,0.0
14.040000438690186,-9.411606726074218,0.19632453613281248,8.635885388183594,20.076335877862597,-12.13740458015267,15.938931297709924,-9.658209497070311,-1.9991583862304687,2.789244934082031,-40.93129770992366,-21.14503816793893,14.763358778625955,0.0
14.050000667572021,-10.627861169433594,2.4779987182617185,4.331110803222656,26.900763358778626,-10.885496183206106,20.82442748091603,-10.54645831298828,-2.8898014038085935,3.383006945800781,-31.419847328244273,-27.221374045801525,13.526717557251908,0.0
14.060000896453857,-11.738770739746093,1.47482822265625,0.17238251953125,25.480916030534353,-3.5114503816793894,26.48854961832061,-11.360486877441405,-2.50912333984375,2.2768857788085937,-24.061068702290076,-32.50381679389313,12.992366412213741,0.0
14.070000648498535,-15.248670373535155,-0.9648632690429687,3.210624426269531,-0.6106870229007634,-4.0458015267175576,24.18320610687023,-9.593566052246093,-1.5203180541992187,0.4429273071289062,-21.83206106870229,-37.43511450381679,15.19083969465649,0.0
14.080000638961792,-17.853561779785156,-4.089296435546875,7.738059765625,-6.625954198473282,-6.99236641221374,19.633587786259543,-9.471461767578125,-1.3910311645507811,0.3687070556640625,-18.045801526717558,-29.31297709923664,21.81679389312977,0.0
14.090000629425049,-19.869479577636717,-2.4660277099609376,9.330203869628905,2.427480916030534,-12.229007633587786,16.763358778625953,-9.840168823242188,-0.70868369140625,-1.5370774658203123,-21.00763358778626,-30.580152671755727,23.206106870229007,0.0
14.100000381469727,-18.18875001220703,0.8092401611328125,6.5026517089843745,22.38167938931298,-19.0381679389313,16.641221374045802,-12.39238779296875,-0.6655880615234374,-1.6304513305664061,-23.603053435114504,-15.32824427480916,24.290076335877863,0.0
14.110000371932983,-16.670826159667968,5.248090039062499,3.2225954345703123,20.519083969465647,-21.61832061068702,17.31297709923664,-14.037204333496092,-2.446874096679687,-1.9297265380859374,-21.755725190839694,-9.099236641221374,21.374045801526716,0.0
14.12000060081482,-14.255076684570312,7.275978845214843,0.7781155395507812,14.67175572519084,-20.885496183206108,20.580152671755727,-14.350844750976561,-2.779668127441406,-1.8818425048828125,-19.404580152671755,0.2748091603053435,18.671755725190838,0.0
14.130000591278076,-10.441113439941406,5.674257934570313,-2.1356278808593747,5.374045801526718,-18.99236641221374,27.938931297709924,-16.735469604492188,-4.2521021484374995,-1.4173673828125,-0.4122137404580153,4.8396946564885495,14.061068702290076,0.0
14.140000343322754,-7.400477331542969,2.212242333984375,-3.459621398925781,-9.587786259541986,-14.305343511450381,28.198473282442748,-17.408240270996092,-3.284844677734375,-0.13407529296874998,14.274809160305344,9.206106870229007,8.473282442748092,0.0
14.150000810623169,-6.117185241699218,-0.6847416748046875,-3.5721488769531247,-18.702290076335878,-4.0458015267175576,21.022900763358777,-15.780183142089843,-0.39264907226562495,-0.9983820922851562,26.03053435114504,10.030534351145038,0.916030534351145,0.0
14.160000324249268,-5.76523759765625,-1.1468225952148436,-3.9360675292968748,-24.442748091603054,9.450381679389313,8.625954198473282,-15.018827014160156,1.9129671264648436,-1.3000515014648437,28.48854961832061,12.13740458015267,-1.633587786259542,0.0
14.170000314712524,-6.744466076660156,-0.6440402465820312,-4.742913488769531,-30.12213740458015,18.48854961832061,0.6412213740458015,-13.043610644531249,0.6871358764648438,0.46208092041015625,22.641221374045802,16.793893129770993,-0.3511450381679389,0.0
14.18000054359436,-7.094019519042968,-0.3327940307617187,-4.572925170898437,-31.984732824427482,28.625954198473284,-2.9923664122137406,-12.46181964111328,1.4987702392578124,1.0390835205078124,22.213740458015266,14.763358778625955,-1.9694656488549618,0.0
14.190000772476196,-8.518569506835936,0.06703764648437499,-2.6886884643554687,-31.068702290076335,43.00763358778626,-6.5038167938931295,-10.424354028320312,4.015076184082031,0.43574470214843747,10.595419847328245,13.465648854961833,-4.091603053435114,0.0
14.200000524520874,-8.789114294433594,0.201112939453125,-1.3383587280273437,-29.81679389312977,53.969465648854964,-7.923664122137405,-8.904035974121093,2.3319524169921872,1.0965443603515623,1.2061068702290076,17.328244274809162,-0.030534351145038167,0.0
14.21000075340271,-8.863334545898438,0.2609679809570312,-0.8379705810546875,-30.763358778625953,60.29007633587786,-10.458015267175572,-8.875305554199219,1.3527239379882812,1.8770541015625,6.351145038167939,15.725190839694656,4.106870229007634,0.0
14.220000505447388,-9.205705383300781,-0.14125789794921875,-0.23702596435546874,-30.290076335877863,63.37404580152672,-13.389312977099237,-8.875305554199219,1.8411410766601561,1.6807295654296874,10.900763358778626,11.557251908396946,5.343511450381679,0.0
14.230000734329224,-9.4618849609375,-0.6536170532226562,0.2657563842773437,-24.30534351145038,68.51908396946565,-15.145038167938932,-7.8912886718749995,2.4253262817382812,2.205059729003906,5.282442748091603,13.770992366412214,10.045801526717558,0.0
14.240000247955322,-10.43153663330078,0.29927520751953124,0.86191259765625,-26.198473282442748,67.0381679389313,-15.603053435114504,-8.058882788085937,1.7788918334960937,2.068590234375,10.16793893129771,11.709923664122137,12.83969465648855,0.0
14.250000476837158,-11.085153686523437,1.3144167114257812,1.8938135131835936,-31.64885496183206,61.61832061068702,-15.893129770992367,-7.958326318359375,2.6479870361328124,1.905784521484375,7.526717557251908,7.633587786259542,15.98473282442748,0.0
14.260000705718994,-10.254365710449218,0.9145850341796874,1.9871873779296874,-33.43511450381679,53.93893129770992,-12.900763358778626,-8.013392956542969,3.0047230834960934,1.879448303222656,0.9770992366412213,8.748091603053435,19.358778625954198,0.0
14.270000696182251,-9.900023864746093,1.0342951171875,2.7150246826171873,-32.900763358778626,50.62595419847328,-10.320610687022901,-8.125920434570313,2.6886884643554687,1.9488801513671874,-6.595419847328245,10.229007633587786,22.610687022900763,0.0
14.280000686645508,-8.441955053710936,-0.5219359619140624,1.3934253662109375,-29.435114503816795,39.908396946564885,-6.030534351145038,-8.63827958984375,2.2194249389648437,2.1452046874999997,-12.045801526717558,11.923664122137405,25.358778625954198,0.0
14.290000677108765,-8.358157995605469,-0.28490999755859375,1.8938135131835936,-13.099236641221374,44.412213740458014,-5.908396946564886,-8.427589843749999,1.6998831787109374,2.080561242675781,-18.519083969465647,12.213740458015268,27.61832061068702,0.0
14.3000009059906,-8.757989672851561,1.139639990234375,1.6998831787109374,-4.8396946564885495,43.786259541984734,-7.6183206106870225,-8.86094034423828,1.0726023437499999,1.9704279663085937,-21.389312977099237,12.900763358778626,28.35114503816794,0.0
14.310000658035278,-10.43153663330078,1.7477672119140624,2.3151930053710936,-5.66412213740458,42.50381679389313,-7.312977099236641,-9.33978067626953,0.2059013427734375,2.205059729003906,-21.801526717557252,12.381679389312977,29.221374045801525,0.0
14.320000886917114,-9.153032946777342,1.4891934326171874,2.070984436035156,-4.244274809160306,39.02290076335878,-4.229007633587786,-9.22485899658203,-0.13407529296874998,2.224213342285156,-23.328244274809162,10.458015267175572,28.732824427480917,0.0
14.330000638961792,-8.465897070312499,1.1037269653320312,1.1180921752929687,-3.1603053435114505,33.12977099236641,-2.183206106870229,-9.272743029785156,-0.6536170532226562,2.020706201171875,-24.53435114503817,8.687022900763358,27.00763358778626,0.0
14.340000867843628,-10.589553942871094,2.9185318237304685,2.5857377929687497,-10.061068702290076,34.213740458015266,-5.00763358778626,-9.464279162597656,-0.967257470703125,2.0446482177734375,-24.625954198473284,6.900763358778626,24.229007633587788,0.0
14.350000381469727,-11.276689819335937,3.0214824951171875,2.8203695556640622,-16.38167938931298,28.793893129770993,-4.473282442748092,-10.347739575195313,-1.8243816650390623,2.2768857788085937,-22.717557251908396,5.938931297709924,22.12213740458015,0.0
14.360000848770142,-10.376469995117187,2.5809493896484375,2.8658593872070313,-14.198473282442748,26.16793893129771,-2.6717557251908395,-9.854534033203125,-0.718260498046875,1.8914193115234375,-24.091603053435115,1.3129770992366412,17.541984732824428,0.0
14.37000036239624,-10.409988818359375,2.6767174560546874,2.4779987182617185,-20.50381679389313,17.267175572519083,0.549618320610687,-10.115502014160155,-0.9983820922851562,1.5418658691406248,-25.221374045801525,1.0076335877862594,14.274809160305344,0.0
14.380000352859497,-10.196904870605469,2.375048046875,2.43250888671875,-18.625954198473284,12.83969465648855,4.809160305343512,-11.37006368408203,-1.9871873779296874,2.3511060302734372,-19.374045801526716,3.648854961832061,13.389312977099237,0.0
14.390000581741333,-10.177751257324218,1.8339584716796873,2.6288334228515624,-14.595419847328245,11.435114503816793,6.564885496183206,-11.973402502441406,-2.3223756103515623,2.152387292480469,-4.885496183206107,-6.137404580152672,7.221374045801527,0.0
14.4002103805542,-10.292672937011718,1.889025109863281,2.3822306518554686,-11.16030534351145,10.305343511450381,7.099236641221374,-10.570400329589843,-0.8882488159179687,2.2768857788085937,3.3740458015267176,-9.664122137404581,3.3740458015267176,0.0
14.410000562667847,-10.216058483886718,1.8291700683593748,2.0542250244140625,-11.068702290076336,9.48091603053435,8.01526717557252,-8.32463917236328,-0.05027823486328125,1.1276689819335937,-0.0916030534351145,-13.877862595419847,-1.0687022900763359,0.0
14.420000314712524,-9.605537060546874,1.9967641845703124,1.9752163696289062,-13.587786259541986,8.534351145038167,8.473282442748092,-10.570400329589843,0.0383072265625,2.013523596191406,-2.2595419847328246,-7.603053435114504,0.8854961832061069,0.0
14.43000078201294,-9.576806640625,2.2601263671875,1.5682020874023437,-18.610687022900763,8.076335877862595,9.16030534351145,-9.442731347656249,0.5746083984375,1.9632453613281249,-8.763358778625955,-5.00763358778626,1.786259541984733,0.0
14.440000534057617,-9.631873278808593,2.288856787109375,1.209071838378906,-27.0381679389313,6.259541984732825,10.534351145038167,-9.943119494628906,0.3064578125,1.7669208251953124,-5.343511450381679,-3.9083969465648853,3.145038167938931,0.0
14.450000762939453,-9.686939916992188,1.2832920898437499,0.9313444458007812,-31.099236641221374,6.076335877862595,10.580152671755725,-9.689334118652344,0.8882488159179687,1.5538368774414062,-7.435114503816794,-3.7099236641221376,3.2519083969465647,0.0
14.460000276565552,-9.641450085449218,0.7996633544921875,0.7685387329101562,-31.893129770992367,7.557251908396947,10.931297709923664,-9.366116894531249,0.18435352783203124,1.369483349609375,-7.419847328244275,-2.183206106870229,2.7480916030534353,0.0
14.470000743865967,-9.72285294189453,0.2561795776367187,0.7541735229492187,-31.297709923664122,9.145038167938932,9.801526717557252,-9.49300958251953,0.15083470458984374,1.2425906616210938,-6.015267175572519,-1.5114503816793894,3.9389312977099236,0.0
14.480000495910645,-9.89523546142578,0.06703764648437499,0.5434837768554687,-30.870229007633586,9.801526717557252,8.106870229007633,-9.49300958251953,0.3112462158203125,1.3072341064453123,-4.412213740458015,-0.3511450381679389,4.213740458015267,0.0
14.490000486373901,-10.117896215820313,-0.105344873046875,0.7613561279296874,-29.129770992366414,11.145038167938932,6.229007633587786,-9.753977563476562,-1.0007762939453124,1.9728221679687499,-1.3587786259541985,1.0381679389312977,4.67175572519084,0.0
14.500000238418579,-10.134655627441406,-0.3447650390625,0.8403647827148437,-25.00763358778626,12.80916030534351,4.458015267175573,-10.371681591796875,-0.5506663818359374,2.2649147705078123,8.80916030534351,-3.969465648854962,2.1526717557251906,0.0
14.510000705718994,-10.524910498046875,0.201112939453125,0.9121908325195311,-20.412213740458014,13.572519083969466,2.50381679389313,-9.694122521972655,-0.5793968017578125,1.9608511596679685,7.145038167938932,-9.709923664122137,-1.9083969465648856,0.0
14.520000696182251,-9.90241806640625,0.2657563842773437,1.1827356201171875,-16.290076335877863,15.16030534351145,2.045801526717557,-9.763554370117188,0.5434837768554687,1.7980454467773437,5.908396946564886,-12.122137404580153,-2.9160305343511452,0.0
14.530000448226929,-9.811438403320311,0.6368576416015624,1.2952630981445312,-13.297709923664122,16.259541984732824,0.4732824427480916,-9.662997900390625,2.1619640991210938,1.1707646118164061,-3.66412213740458,-7.435114503816794,-3.3435114503816794,0.0
14.540000438690186,-9.804255798339844,1.5059528442382812,1.0079588989257813,-14.580152671755725,16.564885496183205,0.24427480916030533,-9.85692823486328,1.5514426757812498,1.024718310546875,-14.717557251908397,-4.305343511450381,-1.9694656488549618,0.0
14.550000667572021,-9.938331091308592,1.915361328125,1.1947066284179686,-18.0,17.236641221374047,-0.061068702290076333,-10.881646545410156,-0.11252747802734374,2.269703173828125,-21.557251908396946,2.519083969465649,2.045801526717557,0.0
14.5600004196167,-9.639055883789062,1.659181750488281,1.1156979736328125,-20.396946564885496,15.923664122137405,0.9007633587786259,-10.541669909667968,-0.35673604736328124,2.2864625854492187,-19.083969465648856,0.3053435114503817,0.42748091603053434,0.0
14.570000648498535,-9.672574707031249,1.1635820068359375,0.852335791015625,-18.68702290076336,15.16030534351145,0.9923664122137404,-10.005368737792969,-0.05027823486328125,2.1164742675781247,-17.770992366412212,-2.0610687022900764,-3.1297709923664123,0.0
14.580000638961792,-10.038887561035155,1.5011644409179687,0.8667010009765624,-18.83969465648855,15.526717557251908,0.6106870229007634,-9.873687646484374,0.08379705810546874,2.205059729003906,-17.938931297709924,-2.2748091603053435,-4.778625954198473,0.0
14.590000629425049,-10.347739575195313,1.5562310791015623,1.024718310546875,-19.954198473282442,15.954198473282442,-0.07633587786259542,-9.93354268798828,0.033518823242187495,2.360682836914062,-17.938931297709924,-3.3282442748091605,-4.916030534351145,0.0
14.600000619888306,-10.002974536132811,1.4101847778320311,1.0989385620117187,-20.931297709923665,15.17557251908397,0.12213740458015267,-10.04846436767578,-0.6679822631835937,2.808398547363281,-15.679389312977099,-4.6106870229007635,-4.3816793893129775,0.0
14.610000610351562,-10.228029492187499,1.6041151123046875,1.0893617553710937,-21.923664122137403,15.145038167938932,-0.2748091603053435,-9.181763366699219,-0.5865794067382812,2.89219560546875,-9.450381679389313,-10.366412213740459,-6.67175572519084,0.0
14.62000036239624,-9.763554370117188,1.4437036010742186,0.833182177734375,-21.6793893129771,15.740458015267176,-0.9923664122137404,-10.172962854003906,1.2904746948242187,2.952050646972656,-8.793893129770993,-10.854961832061068,-7.877862595419847,0.0
14.630000352859497,-9.804255798339844,1.139639990234375,0.7876923461914062,-23.862595419847327,15.526717557251908,-2.0,-9.327809667968749,0.3447650390625,1.905784521484375,-10.854961832061068,-15.770992366412214,-9.358778625954198,0.0
14.640000581741333,-10.081983190917969,1.1516109985351561,1.0223241088867188,-25.83206106870229,15.404580152671755,-3.480916030534351,-10.297461340332031,0.3327940307617187,2.499546533203125,-7.801526717557252,-19.282442748091604,-7.7251908396946565,0.0
14.65000057220459,-10.031704956054687,1.2473790649414063,1.1731588134765625,-24.35114503816794,15.48091603053435,-4.1679389312977095,-8.832209924316405,2.3032219970703123,1.4700398193359374,-10.259541984732824,-22.290076335877863,-9.145038167938932,0.0
14.660000324249268,-9.698910925292969,1.3646949462890625,0.7852981445312499,-22.83969465648855,15.98473282442748,-3.404580152671756,-7.9463553100585935,2.6886884643554687,1.3431471313476562,-22.80916030534351,-19.19083969465649,-7.1603053435114505,0.0
14.670000553131104,-9.567229833984374,1.6041151123046875,0.8451531860351562,-24.0,16.27480916030534,-2.9923664122137406,-9.437942944335937,2.1978771240234374,0.9169792358398436,-34.3206106870229,-8.854961832061068,-2.381679389312977,0.0
14.680000305175781,-9.081206896972656,0.9074024291992187,0.5626373901367188,-24.076335877862597,16.83969465648855,-1.9083969465648856,-9.083601098632812,1.0582371337890624,0.8164227661132812,-43.02290076335878,-2.7022900763358777,-0.21374045801526717,0.0
14.690000772476196,-10.919953771972656,1.7405846069335937,1.9488801513671874,-23.893129770992367,21.389312977099237,-4.2748091603053435,-9.832986218261718,0.24660277099609373,0.8283937744140625,-35.725190839694655,-1.816793893129771,-0.12213740458015267,0.0
14.700000524520874,-9.255983618164063,1.37906015625,1.1228805786132812,-22.0,16.916030534351144,-2.885496183206107,-9.904812268066406,0.3758896606445312,1.1372457885742187,-29.450381679389313,-1.1450381679389312,-2.687022900763359,0.0
14.71000075340271,-10.036493359375,1.5107412475585937,1.16837041015625,-23.022900763358777,15.282442748091603,-2.0916030534351147,-9.495403784179686,0.08858546142578125,1.2569558715820313,-26.48854961832061,-0.6412213740458015,-4.6106870229007635,0.0
14.720000267028809,-9.662997900390625,1.0917559570312498,0.7278373046875,-20.702290076335878,14.16793893129771,-1.3282442748091603,-9.794678991699218,-0.39983167724609375,1.4437036010742186,-20.671755725190838,-0.42748091603053434,-4.885496183206107,0.0
14.730000734329224,-9.627084875488281,1.0749965454101562,0.7709329345703124,-18.717557251908396,14.045801526717558,-2.015267175572519,-9.801861596679688,-0.06703764648437499,1.7932570434570312,-16.732824427480917,0.3816793893129771,-4.8396946564885495,0.0
14.740000486373901,-9.801861596679688,1.3048399047851562,0.928950244140625,-18.3206106870229,13.34351145038168,-2.519083969465649,-9.258377819824219,0.51714755859375,1.7645266235351562,-15.938931297709924,0.366412213740458,-5.603053435114504,0.0
14.750000238418579,-9.991003527832031,1.350329736328125,1.0726023437499999,-18.3206106870229,12.122137404580153,-3.1908396946564888,-9.076418493652342,0.5315127685546874,1.6735469604492186,-16.137404580152673,0.44274809160305345,-5.8320610687022905,0.0
14.760000467300415,-9.938331091308592,1.199495031738281,1.0702081420898437,-16.50381679389313,10.977099236641221,-3.4656488549618323,-9.763554370117188,0.16998831787109375,1.9943699829101562,-15.801526717557252,1.633587786259542,-6.396946564885496,0.0
14.770000696182251,-9.725247143554688,1.0223241088867188,1.0606313354492187,-13.877862595419847,9.786259541984732,-3.9083969465648853,-9.93354268798828,0.0430956298828125,2.272097375488281,-16.12213740458015,1.7251908396946565,-7.1603053435114505,0.0
