timestamp,Thigh_L_Acc_X,Thigh_L_Acc_Y,Thigh_L_Acc_Z,Thigh_L_Gyr_X,Thigh_L_Gyr_Y,Thigh_L_Gyr_Z,Thigh_R_Acc_X,Thigh_R_Acc_Y,Thigh_R_Acc_Z,Thigh_R_Gyr_X,Thigh_R_Gyr_Y,Thigh_R_Gyr_Z,gpio_output
10.000000476837158,-9.564835632324218,1.6448165405273436,3.0047230834960934,-38.10687022900763,60.35114503816794,-16.85496183206107,-8.810662109374999,1.3096283081054687,-0.5889736083984375,-7.969465648854962,-42.152671755725194,-12.748091603053435,0.0
10.010000467300415,-9.074024291992187,0.23223756103515625,2.896984008789062,-31.52671755725191,56.3206106870229,-15.206106870229007,-9.459490759277344,-1.3096283081054687,0.622492431640625,2.427480916030534,-40.900763358778626,-11.603053435114504,1.0
10.020000696182251,-10.137049829101562,0.689530078125,2.636016027832031,-20.16793893129771,54.76335877862596,-17.251908396946565,-9.526528405761718,-0.4955997436523437,0.6679822631835937,13.526717557251908,-43.404580152671755,-14.061068702290076,1.0
10.030000448226929,-10.766724865722656,0.3495534423828125,3.0430303100585934,-19.923664122137403,50.30534351145038,-16.717557251908396,-7.465120776367187,1.0821791503906248,-0.016759411621093748,15.694656488549619,-45.57251908396947,-18.045801526717558,1.0
10.040000677108765,-9.87608184814453,1.9297265380859374,3.4069489624023435,-14.351145038167939,48.38167938931298,-15.801526717557252,-7.072471704101562,1.5442600708007812,0.201112939453125,2.7480916030534353,-37.587786259541986,-17.17557251908397,1.0
10.0500009059906,-9.282319836425781,1.448492004394531,3.423708374023437,-13.389312977099237,44.916030534351144,-14.702290076335878,-7.800309008789062,0.239420166015625,0.24660277099609373,-1.5725190839694656,-32.19847328244275,-15.969465648854962,1.0
10.060000658035278,-10.93671318359375,1.1611878051757811,2.4253262817382812,-8.625954198473282,42.47328244274809,-14.351145038167939,-8.813056311035156,-0.28490999755859375,1.3120225097656248,5.755725190839694,-33.20610687022901,-14.793893129770993,1.0
10.070001125335693,-10.326191760253906,1.5346832641601562,3.0334535034179684,-5.633587786259542,41.89312977099237,-15.022900763358779,-7.81467421875,0.13407529296874998,1.1444283935546875,10.076335877862595,-37.7557251908397,-17.053435114503817,1.0
10.080000877380371,-12.186486450195313,5.868188269042968,3.8570588745117185,-14.15267175572519,37.31297709923664,-15.938931297709924,-8.262389929199218,1.0127473022460938,1.9009961181640624,7.236641221374046,-33.87786259541985,-17.251908396946565,1.0
10.090000629425049,-9.277531433105468,3.375824340820312,2.3870190551757813,-28.931297709923665,27.251908396946565,-10.305343511450381,-8.540117321777343,1.659181750488281,1.6472107421875,-2.0916030534351147,-29.72519083969466,-17.34351145038168,1.0
10.100000619888306,-10.922347973632812,3.4332851806640625,2.094926452636719,-35.267175572519086,23.81679389312977,-5.923664122137405,-9.986215124511718,0.4333505004882812,2.142810485839844,-9.541984732824428,-23.236641221374047,-14.13740458015267,1.0
10.110000371932983,-9.533711010742186,2.2026655273437497,1.879448303222656,-37.61832061068702,19.755725190839694,-1.6030534351145038,-10.596736547851561,-0.7062894897460937,3.057395520019531,-6.229007633587786,-24.259541984732824,-12.687022900763358,1.0
10.12000060081482,-11.516109985351562,3.318363500976562,2.3127988037109373,-31.557251908396946,21.96946564885496,-0.9007633587786259,-10.084377392578125,-1.458068811035156,2.602497204589844,0.04580152671755725,-32.35114503816794,-14.335877862595419,1.0
10.130000591278076,-11.652579479980469,3.835511059570312,2.6503812377929687,-39.87786259541985,17.389312977099237,-0.6870229007633588,-10.946289990234375,-1.1875240234375,3.373430139160156,15.053435114503817,-38.74809160305343,-15.664122137404581,1.0
10.140000581741333,-9.952696301269532,0.70868369140625,1.3024457031249999,-32.88549618320611,13.267175572519085,4.030534351145038,-8.473079675292968,0.5123591552734374,1.9584569580078124,15.587786259541986,-49.31297709923664,-20.427480916030536,1.0
10.15000033378601,-11.267113012695312,2.166752502441406,2.7748797241210936,-24.061068702290076,21.389312977099237,1.4045801526717556,-8.44674345703125,1.9321207397460936,1.9584569580078124,4.687022900763359,-42.76335877862596,-20.244274809160306,1.0
10.160000801086426,-13.558364001464843,7.000645654296875,3.9264907226562498,-53.83206106870229,13.511450381679388,-2.9618320610687023,-9.72285294189453,0.3711012573242187,2.4349030883789062,-1.3129770992366412,-39.93893129770992,-17.83206106870229,1.0
10.170000553131104,-11.815385192871092,5.085284326171875,2.300827795410156,-84.61068702290076,-4.961832061068702,4.473282442748092,-10.149020837402343,0.5817910034179687,2.8945898071289062,0.6564885496183206,-44.88549618320611,-15.541984732824428,1.0
10.18000078201294,-10.802637890625,1.3096283081054687,1.5538368774414062,-79.41984732824427,-5.557251908396947,13.557251908396946,-10.137049829101562,0.7924807495117187,2.9448680419921875,-0.22900763358778625,-49.48091603053435,-15.038167938931299,1.0
10.190000534057617,-8.683769421386717,-1.0654197387695312,1.005564697265625,-66.27480916030534,-4.122137404580153,14.65648854961832,-9.227253198242186,1.419761584472656,1.8004396484374998,-9.022900763358779,-48.16793893129771,-17.022900763358777,1.0
10.200000524520874,-7.3932947265625,-2.0542250244140625,1.2569558715820313,-36.656488549618324,9.038167938931299,8.366412213740459,-8.097190014648437,1.7094599853515624,2.0542250244140625,-17.84732824427481,-41.87786259541985,-17.389312977099237,1.0
10.21000075340271,-8.595183959960938,-0.8978256225585937,1.0989385620117187,-33.48091603053435,10.381679389312977,2.4122137404580153,-9.962273107910155,-0.16041151123046873,2.4061726684570313,-20.15267175572519,-34.83969465648855,-14.961832061068701,0.0
10.220000267028809,-9.392453112792968,0.2561795776367187,1.66636435546875,-14.13740458015267,19.206106870229007,-0.9007633587786259,-8.111555224609374,-0.28490999755859375,3.066972326660156,-16.763358778625953,-38.68702290076336,-15.84732824427481,0.0
10.230000734329224,-10.529698901367187,0.8451531860351562,1.4772224243164063,-8.854961832061068,23.0381679389313,-3.312977099236641,-9.093177905273437,-0.6967126831054687,3.342305517578125,-14.229007633587786,-33.786259541984734,-17.053435114503817,0.0
10.240000486373901,-9.773131176757811,0.7350199096679687,1.2713210815429687,-4.870229007633588,24.106870229007633,-4.0458015267175576,-9.289502441406249,-0.35673604736328124,3.208230224609375,-10.702290076335878,-32.229007633587784,-18.137404580152673,0.0
10.250000476837158,-9.813832604980469,0.7661445312499999,1.0319009155273438,-3.3282442748091605,27.64885496183206,-5.1603053435114505,-8.973467822265624,-0.01915361328125,2.863465185546875,-14.687022900763358,-28.53435114503817,-18.259541984732824,0.0
10.260000705718994,-9.773131176757811,1.0271125122070313,0.6153098266601562,-5.175572519083969,26.99236641221374,-6.442748091603053,-8.233659509277343,0.7206546997070312,1.7980454467773437,-13.83206106870229,-31.709923664122137,-19.46564885496183,0.0
10.270000696182251,-9.016563452148437,1.216254443359375,0.679953271484375,-3.435114503816794,26.82442748091603,-7.572519083969466,-8.698134631347656,0.4860229370117187,2.5163059448242184,-21.053435114503817,-23.068702290076335,-18.0,0.0
10.280000925064087,-9.672574707031249,1.848323681640625,1.0510545288085937,-5.480916030534351,26.885496183206108,-8.106870229007633,-8.920795385742187,-0.6200982299804687,2.9089550170898435,-18.83969465648855,-21.00763358778626,-16.732824427480917,0.0
10.290000915527344,-9.811438403320311,1.1755530151367186,0.5482721801757812,-8.870229007633588,22.412213740458014,-7.206106870229007,-10.177751257324218,-1.3024457031249999,3.5242648437499997,-13.587786259541986,-18.366412213740457,-15.816793893129772,0.0
10.300000667572021,-10.421959826660157,1.2785036865234374,1.3407529296874998,-4.534351145038168,26.366412213740457,-6.5038167938931295,-9.050082275390624,-0.7565677246093749,3.201047619628906,-14.213740458015268,-19.206106870229007,-17.267175572519083,0.0
10.310000896453857,-10.340556970214843,0.8020575561523438,0.7876923461914062,-2.015267175572519,24.091603053435115,-6.625954198473282,-8.724470849609375,-1.4891934326171874,2.664746447753906,-4.106870229007634,-24.549618320610687,-17.572519083969464,0.0
10.320000886917114,-9.284714038085937,1.2593500732421874,0.8092401611328125,-2.3053435114503817,23.022900763358777,-8.381679389312977,-9.402029919433593,-1.5394716674804687,3.873818286132812,4.625954198473282,-24.412213740458014,-17.419847328244273,0.0
10.330000877380371,-9.481038574218749,1.0893617553710937,0.8379705810546875,-8.396946564885496,18.641221374045802,-8.061068702290076,-7.5537062377929685,-0.5961562133789062,2.9927520751953125,1.7557251908396947,-25.31297709923664,-20.38167938931298,0.0
10.34000039100647,-10.9175595703125,3.086125939941406,1.8363526733398436,-12.091603053435115,19.954198473282442,-9.236641221374045,-8.671798413085938,-1.0103531005859374,3.6176387084960937,1.1145038167938932,-18.38167938931298,-18.641221374045802,0.0
10.350000381469727,-10.206481677246094,2.2744915771484373,1.6256629272460936,-19.00763358778626,15.114503816793894,-6.916030534351145,-10.134655627441406,-2.1547814941406247,4.074931225585937,7.450381679389313,-16.48854961832061,-16.778625954198475,0.0
10.360000371932983,-10.340556970214843,1.4341267944335936,1.5083470458984374,-18.30534351145038,12.778625954198473,-4.870229007633588,-9.64623848876953,-2.844311572265625,4.359841223144531,21.328244274809162,-22.50381679389313,-16.671755725190838,0.0
10.370000839233398,-9.919177478027343,0.4477157104492187,1.3479355346679687,-11.419847328244275,12.82442748091603,-4.763358778625954,-8.951920007324219,-2.1212626708984375,3.7397429931640622,33.66412213740458,-29.450381679389313,-18.48854961832061,0.0
10.380000591278076,-9.720458740234374,0.4836287353515625,1.2641384765625,-6.33587786259542,13.19083969465649,-5.694656488549619,-6.718129858398437,0.16759411621093748,2.0973206542968748,31.770992366412212,-31.206106870229007,-22.870229007633586,0.0
10.390000581741333,-9.361328491210937,1.216254443359375,1.39821376953125,-2.763358778625954,13.679389312977099,-6.229007633587786,-7.378929516601562,0.9552864624023437,2.123656872558594,18.229007633587788,-17.068702290076335,-22.259541984732824,0.0
10.40000033378601,-9.255983618164063,1.68551796875,1.4891934326171874,-5.374045801526718,13.435114503816793,-6.061068702290076,-5.518634826660156,1.8363526733398436,1.0175357055664063,-2.900763358778626,-8.625954198473282,-22.3206106870229,0.0
10.410000562667847,-9.402029919433593,2.0374656127929685,1.6256629272460936,-8.65648854961832,12.045801526717558,-6.0,-6.849810949707031,-1.2689268798828124,2.3822306518554686,-7.206106870229007,2.1068702290076335,-17.96946564885496,0.0
10.420000791549683,-10.101136804199218,1.637633935546875,1.9871873779296874,-9.969465648854962,9.938931297709924,-6.2748091603053435,-7.038952880859375,-1.39821376953125,2.020706201171875,0.8702290076335878,-1.4198473282442747,-18.580152671755727,0.0
10.430000305175781,-9.892841259765625,1.1013327636718748,1.85790048828125,-5.083969465648855,8.473282442748092,-6.412213740458015,-7.101202124023437,-1.8770541015625,2.0446482177734375,6.396946564885496,3.969465648854962,-21.358778625954198,0.0
10.440000534057617,-9.579200842285156,-0.316034619140625,1.656787548828125,3.267175572519084,7.572519083969466,-5.343511450381679,-5.312733483886719,-0.00239420166015625,0.9504980590820312,8.427480916030534,4.0,-25.14503816793893,0.0
10.450000524520874,-9.720458740234374,0.38307226562499996,2.214636535644531,15.450381679389313,12.961832061068701,-9.17557251908397,-5.7149593627929685,0.5243301635742187,1.695094775390625,-6.213740458015267,22.366412213740457,-23.984732824427482,0.0
10.46000075340271,-10.498574279785156,0.5458779785156249,2.1691467041015624,18.213740458015266,12.458015267175572,-12.50381679389313,-7.694964135742187,-2.0087351928710935,3.9336733276367184,-3.9236641221374047,27.083969465648856,-20.18320610687023,0.0
10.470000505447388,-9.727641345214844,1.0007762939453124,2.612074011230469,24.65648854961832,11.32824427480916,-14.274809160305344,-7.64229169921875,-2.1906945190429687,5.130774157714844,-1.4809160305343512,21.206106870229007,-19.69465648854962,0.0
10.480000495910645,-10.867281335449219,0.7517793212890624,2.47081611328125,24.442748091603054,6.183206106870229,-14.51908396946565,-7.050923889160156,-2.1787235107421874,4.572925170898437,3.648854961832061,21.572519083969464,-17.31297709923664,0.0
10.490000247955322,-10.43153663330078,0.028730419921875,3.3973721557617185,29.801526717557252,3.2061068702290076,-14.259541984732824,-6.3973068359375,-2.6623522460937497,2.767697119140625,20.65648854961832,21.267175572519083,-12.778625954198473,0.0
10.500000476837158,-12.306196533203124,0.7685387329101562,4.024652990722656,30.580152671755727,-0.7938931297709924,-18.076335877862597,-4.620809204101562,2.1164742675781247,-1.5705962890624998,31.236641221374047,20.15267175572519,-11.954198473282442,0.0
10.510000705718994,-10.886434948730468,0.3711012573242187,4.13718046875,35.17557251908397,-9.038167938931299,-19.053435114503817,-5.76523759765625,3.9312791259765625,-2.549824768066406,18.33587786259542,39.221374045801525,-9.465648854961833,0.0
10.52000093460083,-10.089165795898436,-0.4572925170898437,3.833116857910156,33.51145038167939,-17.81679389312977,-17.69465648854962,-8.99501563720703,2.3535002319335936,0.06943184814453125,12.412213740458014,53.725190839694655,-3.312977099236641,0.0
10.530000925064087,-10.077194787597655,-0.5386953735351562,4.436455676269531,40.656488549618324,-20.977099236641223,-20.091603053435115,-10.295067138671874,2.4061726684570313,2.3127988037109373,4.534351145038168,59.20610687022901,0.48854961832061067,0.0
10.540000677108765,-10.522516296386717,-0.6751648681640625,5.046977099609375,50.091603053435115,-24.9618320610687,-22.47328244274809,-13.273454003906249,-0.8834604125976562,5.858611462402344,5.282442748091603,62.3206106870229,3.0839694656488548,0.0
10.5500009059906,-11.180921752929686,-1.4820108276367188,5.274426257324219,63.37404580152672,-31.801526717557252,-24.748091603053435,-13.364433666992186,-1.2306196533203124,5.506663818359375,14.778625954198473,54.80916030534351,-0.10687022900763359,0.0
10.560000658035278,-11.322179650878905,-2.0350714111328125,5.449202978515625,82.47328244274809,-37.3587786259542,-26.931297709923665,-11.156979736328124,0.13168109130859373,3.6296097167968746,11.618320610687023,54.61068702290076,-2.0610687022900764,0.0
10.570001125335693,-12.234370483398436,-0.612915625,6.1267620483398435,96.70229007633588,-43.465648854961835,-30.33587786259542,-11.722011328125,-1.0031704956054688,2.3511060302734372,15.435114503816793,52.717557251908396,1.7404580152671756,0.0
10.580000638961792,-14.480131640624998,1.9033903198242186,7.321468676757812,86.22900763358778,-60.48854961832061,-33.74045801526717,-11.805808386230469,-0.5482721801757812,1.5897499023437498,21.328244274809162,44.0,3.099236641221374,0.0
10.590000629425049,-14.647725756835937,3.418919970703125,6.998251452636718,83.86259541984732,-81.23664122137404,-29.129770992366414,-9.91438907470703,1.2808978881835937,1.0031704956054688,15.34351145038168,39.61832061068702,1.4045801526717556,0.0
10.600000619888306,-14.671667773437498,5.310339282226562,6.6510922119140625,74.30534351145039,-96.79389312977099,-21.022900763358777,-6.507440112304687,3.679887951660156,-0.45489831542968745,-4.366412213740458,41.770992366412216,2.4885496183206106,0.0
10.610000371932983,-14.999673400878905,5.971138940429687,6.270414147949219,56.916030534351144,-114.07633587786259,-10.15267175572519,-8.552088330078124,0.2537853759765625,0.8882488159179687,-15.969465648854962,55.45038167938932,12.687022900763358,0.0
10.62000060081482,-15.521609362792967,3.907337109375,4.836287353515624,45.908396946564885,-128.3206106870229,0.9618320610687023,-10.94868419189453,-2.9855694702148434,1.3359645263671873,-1.9083969465648856,52.152671755725194,19.81679389312977,0.0
10.630000352859497,-14.611812731933593,2.090138049316406,4.240131140136718,46.80916030534351,-135.95419847328245,8.442748091603054,-8.547299926757812,0.565031591796875,-1.0941501586914062,-1.816793893129771,45.29770992366412,11.648854961832061,0.0
10.640000343322754,-14.700398193359375,1.3934253662109375,4.062960217285156,52.54961832061068,-139.4351145038168,15.053435114503817,-8.350975390624999,0.5339069702148437,-1.388636962890625,-18.0,58.06106870229008,8.931297709923664,0.0
10.65000057220459,-13.68765089111328,0.4261678955078125,2.916137622070312,54.229007633587784,-142.61068702290078,23.81679389312977,-10.383652600097655,-1.697488977050781,-0.679953271484375,-24.778625954198475,66.94656488549619,14.305343511450381,0.0
10.660001039505005,-12.310984936523436,-0.17238251953125,2.3391350219726563,49.81679389312977,-143.32824427480915,27.709923664122137,-8.95670841064453,-1.407790576171875,-0.814028564453125,-22.48854961832061,63.541984732824424,14.50381679389313,0.0
10.670000791549683,-11.5304751953125,-1.4939818359375,1.695094775390625,35.954198473282446,-144.53435114503816,26.27480916030534,-8.690952026367187,-0.9193734375,-0.3711012573242187,-26.47328244274809,72.7175572519084,15.389312977099237,0.0
10.68000078201294,-10.117896215820313,-2.023100402832031,0.737414111328125,19.557251908396946,-144.82442748091603,21.221374045801525,-8.820238916015624,-0.3950432739257812,-0.9433154541015625,-18.610687022900763,67.57251908396947,18.38167938931298,0.0
10.690000295639038,-9.95987890625,-1.2425906616210938,0.6967126831054687,14.67175572519084,-139.66412213740458,15.725190839694656,-11.477802758789062,-2.645592834472656,0.9409212524414062,-25.480916030534353,78.19847328244275,22.83969465648855,0.0
10.700000762939453,-9.478644372558593,-0.8092401611328125,0.38307226562499996,16.427480916030536,-134.87022900763358,14.427480916030534,-10.005368737792969,-3.6487633300781246,1.20667763671875,-6.595419847328245,69.96946564885496,22.793893129770993,0.0
10.71000051498413,-9.785102185058593,-0.6272808349609375,0.41898529052734373,22.870229007633586,-122.51908396946565,12.732824427480915,-11.968614099121092,-5.461173986816406,1.8507178833007811,17.236641221374047,58.06106870229008,21.114503816793892,0.0
10.720000505447388,-8.71489404296875,-1.9297265380859374,0.26815058593749996,31.81679389312977,-112.82442748091603,12.67175572519084,-11.190498559570312,-3.1316157714843746,1.2880804931640624,33.38931297709924,46.44274809160305,14.900763358778626,0.0
10.730000495910645,-9.138667736816405,-1.3646949462890625,0.5985504150390625,40.213740458015266,-98.03053435114504,11.603053435114504,-11.121066711425781,-1.120486376953125,0.15322890625,37.3587786259542,41.38931297709924,11.770992366412214,0.0
10.740000486373901,-9.634267480468749,0.011971008300781249,1.2378022583007813,35.908396946564885,-90.70229007633588,9.679389312977099,-10.175357055664062,-2.3151930053710936,0.8499415893554687,40.88549618320611,36.83969465648855,12.335877862595419,0.0
10.750000476837158,-10.115502014160155,0.8451531860351562,1.5011644409179687,30.564885496183205,-85.92366412213741,11.297709923664122,-9.409212524414063,-0.45968671875,0.3399766357421875,41.847328244274806,28.80916030534351,11.435114503816793,0.0
10.760000944137573,-9.509768994140625,1.2689268798828124,1.7621324218749999,26.38167938931298,-82.0,13.648854961832061,-9.727641345214844,1.0965443603515623,-0.45968671875,32.38167938931298,27.740458015267176,10.13740458015267,0.0
10.770000696182251,-9.375693701171874,2.1452046874999997,2.2673089721679687,16.748091603053435,-78.01526717557252,14.702290076335878,-9.557653027343749,0.5793968017578125,-0.05746083984375,23.64885496183206,30.717557251908396,11.709923664122137,0.0
10.780000686645508,-9.53131680908203,2.626439221191406,2.741360900878906,1.1908396946564885,-77.77099236641222,15.32824427480916,-9.536105212402344,0.469263525390625,0.21068974609375,16.83969465648855,31.114503816793892,13.709923664122137,0.0
10.790000915527344,-8.032546569824218,1.5322890624999999,2.786850732421875,-7.694656488549619,-79.31297709923665,17.068702290076335,-9.34696328125,0.9648632690429687,-0.4477157104492187,8.335877862595419,32.99236641221374,14.50381679389313,0.0
10.800000667572021,-7.6997525390625,1.1180921752929687,2.7533319091796873,-12.534351145038167,-74.82442748091603,17.69465648854962,-9.730035546875,0.277727392578125,-0.3399766357421875,2.427480916030534,34.2442748091603,15.603053435114504,0.0
10.810000896453857,-7.560888842773437,1.3670891479492187,2.849099975585937,-19.129770992366414,-72.04580152671755,17.404580152671755,-8.078036401367187,-0.9720458740234375,0.2059013427734375,-1.83206106870229,36.83969465648855,17.053435114503817,0.0
10.820000648498535,-6.763619689941406,0.3806780639648437,2.059013427734375,-18.290076335877863,-69.87786259541984,19.66412213740458,-12.818555688476561,-4.848258361816406,2.568978381347656,11.893129770992367,43.52671755725191,22.442748091603054,0.0
10.830000877380371,-6.100425830078125,-0.6153098266601562,1.6304513305664061,-12.534351145038167,-60.79389312977099,19.435114503816795,-9.241618408203124,-1.7741034301757812,0.7876923461914062,22.50381679389313,28.732824427480917,15.83206106870229,0.0
10.84000039100647,-6.488286499023437,0.08379705810546874,1.8100164550781248,-9.251908396946565,-53.587786259541986,17.251908396946565,-11.276689819335937,-1.9536685546875,0.7302315063476562,25.587786259541986,29.00763358778626,13.206106870229007,0.0
10.850000619888306,-6.2009822998046875,0.928950244140625,2.118868469238281,-9.572519083969466,-46.534351145038165,16.80916030534351,-9.677363110351562,-1.8938135131835936,0.7254431030273437,25.267175572519083,28.50381679389313,12.641221374045802,0.0
10.860000371932983,-6.842628344726562,1.905784521484375,2.7174188842773437,-15.541984732824428,-41.6793893129771,16.65648854961832,-7.764395983886718,1.218648645019531,-1.1659762084960936,17.022900763358777,24.106870229007633,10.549618320610687,0.0
10.87000060081482,-5.6383449096679685,1.678335363769531,2.6240450195312497,-21.34351145038168,-36.85496183206107,19.17557251908397,-10.137049829101562,-0.5985504150390625,-0.20829554443359374,14.106870229007633,28.106870229007633,13.48091603053435,0.0
10.880000591278076,-5.595249279785156,1.1085153686523437,3.2800562744140622,-22.427480916030536,-29.389312977099237,20.045801526717558,-11.145008728027342,-1.7956512451171873,1.637633935546875,16.259541984732824,32.85496183206107,16.549618320610687,0.0
10.890000581741333,-6.105214233398437,1.5586252807617187,3.5793314819335937,-26.82442748091603,-26.47328244274809,18.870229007633586,-9.217676391601563,-0.7038952880859375,0.36391865234375,28.229007633587788,18.580152671755727,13.099236641221374,0.0
10.90000033378601,-6.311115576171875,1.697488977050781,3.8666356811523435,-30.458015267175572,-23.099236641221374,18.9618320610687,-8.058882788085937,0.507570751953125,-0.4285620971679687,23.435114503816795,17.72519083969466,11.068702290076336,0.0
10.910000562667847,-4.802768530273437,1.5658078857421873,3.3686417358398435,-31.374045801526716,-20.442748091603054,20.625954198473284,-10.663774194335938,-0.411802685546875,1.5825672973632812,19.603053435114504,28.290076335877863,14.763358778625955,0.0
10.920000314712524,-5.073313317871094,1.6112977172851561,3.6631285400390623,-34.30534351145038,-15.541984732824428,21.633587786259543,-12.088324182128906,-3.0645781249999997,2.214636535644531,38.900763358778626,19.72519083969466,16.702290076335878,0.0
10.93000054359436,-4.975151049804687,1.2689268798828124,4.73094248046875,-28.977099236641223,-5.740458015267175,22.580152671755727,-10.070012182617187,-1.3072341064453123,1.01514150390625,45.57251908396947,7.633587786259542,12.16793893129771,0.0
10.940000772476196,-4.53940634765625,1.7597382202148437,5.03740029296875,-17.221374045801525,4.259541984732825,23.435114503816795,-9.323021264648437,-0.0143652099609375,0.603338818359375,41.55725190839695,9.022900763358779,8.045801526717558,0.0
10.950000762939453,-5.104437939453125,3.6152445068359373,6.042964990234375,-27.72519083969466,4.900763358778626,22.793893129770993,-12.425906616210936,-2.7341782958984373,4.015076184082031,45.43511450381679,18.732824427480917,12.427480916030534,0.0
10.96000075340271,-6.816292126464844,4.402936853027343,6.957550024414062,-40.42748091603053,3.648854961832061,25.572519083969464,-10.151415039062499,-1.5586252807617187,1.89620771484375,52.42748091603053,1.0687022900763359,10.51908396946565,0.0
10.970000505447388,-4.9416322265625,3.1747114013671873,6.296750366210937,-45.57251908396947,-0.7480916030534351,31.0381679389313,-9.56962403564453,0.4955997436523437,0.7948749511718749,43.7557251908397,-2.3053435114503817,6.488549618320611,0.0
10.980000495910645,-4.434061474609375,1.7310078002929687,6.552929943847656,-46.29007633587786,1.7251908396946565,35.37404580152672,-9.909600671386718,0.967257470703125,1.209071838378906,32.229007633587784,3.954198473282443,6.824427480916031,0.0
10.990000486373901,-2.971204260253906,1.3263877197265623,6.6893994384765625,-42.47328244274809,5.816793893129771,38.68702290076336,-7.690175732421874,1.3407529296874998,1.0342951171875,9.114503816793894,8.854961832061068,8.595419847328245,0.0
11.000000476837158,-2.7724855224609373,0.9457096557617187,6.4475850708007805,-36.35114503816794,10.305343511450381,40.717557251908396,-8.674192614746094,2.47081611328125,0.7637503295898437,-7.114503816793893,18.564885496183205,12.885496183206106,0.0
11.010000705718994,-3.9695863525390624,1.675941162109375,6.940790612792968,-34.229007633587784,13.786259541984732,40.94656488549618,-8.951920007324219,1.8195932617187498,0.9504980590820312,-22.366412213740457,21.740458015267176,16.900763358778626,0.0
11.020000696182251,-3.6056677001953124,0.14125789794921875,7.41244833984375,-26.137404580152673,15.679389312977099,42.10687022900763,-8.927977990722656,1.0127473022460938,1.9129671264648436,-29.603053435114504,27.16030534351145,21.022900763358777,0.0
11.030000448226929,-3.9504327392578125,-1.0726023437499999,8.197746484375,-17.66412213740458,16.198473282442748,41.16030534351145,-9.8449572265625,0.15322890625,2.461239306640625,-32.229007633587784,24.702290076335878,21.740458015267176,0.0
11.040000677108765,-3.7397429931640622,-2.0566192260742184,7.381323718261719,-0.0916030534351145,18.519083969465647,40.12213740458015,-10.026916552734374,-0.8571241943359375,2.50912333984375,-32.50381679389313,20.38167938931298,21.587786259541986,0.0
11.0500009059906,-7.252036828613281,-0.8283937744140625,5.310339282226562,17.572519083969464,30.12213740458015,36.93129770992366,-10.457872851562499,-0.26815058593749996,1.1540052001953125,-34.68702290076336,14.977099236641221,21.282442748091604,0.0
11.0600004196167,-10.467449658203124,0.6200982299804687,1.848323681640625,12.122137404580153,38.961832061068705,33.29770992366412,-9.91438907470703,-0.19871873779296872,1.3575123413085937,-37.66412213740458,13.526717557251908,24.27480916030534,0.0
11.070000886917114,-11.48498536376953,-1.2952630981445312,0.19871873779296872,9.969465648854962,42.33587786259542,30.870229007633586,-11.417947717285156,0.5889736083984375,1.6519991455078125,-46.458015267175576,14.82442748091603,28.9618320610687,0.0
11.080000638961792,-12.823344091796875,-0.22505495605468748,4.867411975097656,22.793893129770993,50.717557251908396,23.801526717557252,-9.143456140136719,0.928950244140625,0.11252747802734374,-63.86259541984733,12.0,30.259541984732824,0.0
11.090000629425049,-13.091494677734374,3.3542765258789062,6.552929943847656,19.251908396946565,49.64885496183206,20.27480916030534,-10.31661495361328,-0.22505495605468748,0.21787235107421873,-73.55725190839695,16.229007633587788,32.42748091603053,0.0
11.100000619888306,-10.012551342773437,1.8938135131835936,3.9049429077148434,1.4045801526717556,44.99236641221374,23.893129770992367,-10.637437976074217,-1.5921441040039062,0.36631285400390623,-70.19847328244275,16.366412213740457,31.84732824427481,0.0
11.110000848770142,-8.724470849609375,0.047884033203124995,2.0254946044921875,-9.038167938931299,47.57251908396947,19.908396946564885,-12.176909643554687,-1.8339584716796873,1.4532804077148436,-57.41984732824427,10.381679389312977,27.404580152671755,0.0
11.12000060081482,-6.619967590332031,-1.7501614135742187,1.3311761230468748,-14.854961832061068,44.30534351145038,12.198473282442748,-12.014103930664062,0.201112939453125,0.19393033447265623,-43.12977099236641,-2.7022900763358777,20.99236641221374,0.0
11.130000591278076,-7.314286071777343,-2.710236279296875,1.5586252807617187,-12.122137404580153,52.93129770992366,4.106870229007634,-12.931083166503905,0.8906430175781249,1.0917559570312498,-47.282442748091604,-0.42748091603053434,20.045801526717558,0.0
11.140000581741333,-9.220070593261719,-1.6136919189453125,2.0781670410156248,-9.16030534351145,57.6793893129771,-4.351145038167939,-13.263877197265625,1.2737152832031249,0.9696516723632812,-47.55725190839695,-2.0763358778625953,19.52671755725191,0.0
11.150000810623169,-10.785878479003905,-0.047884033203124995,1.8124106567382812,-3.2977099236641223,58.51908396946565,-8.259541984732824,-13.895946435546874,1.2282254516601563,0.9145850341796874,-48.94656488549618,-4.916030534351145,20.15267175572519,0.0
11.160000801086426,-11.197681164550781,0.6057330200195312,1.7836802368164062,1.7099236641221374,60.67175572519084,-9.083969465648854,-14.216769458007812,0.8882488159179687,1.3670891479492187,-45.7557251908397,-9.099236641221374,20.580152671755727,0.0
11.170000553131104,-9.035717065429687,-1.4317325927734375,1.0654197387695312,14.15267175572519,62.29007633587786,-6.854961832061068,-12.11705460205078,0.36391865234375,1.1468225952148436,-42.35114503816794,-19.374045801526716,20.18320610687023,0.0
11.18000054359436,-6.179434484863281,-2.205059729003906,0.8906430175781249,39.847328244274806,73.87786259541984,-8.396946564885496,-13.57272921142578,0.30406361083984373,2.3415292236328122,-37.404580152671755,-17.83206106870229,20.885496183206108,0.0
11.190000534057617,-7.568071447753906,0.7900865478515624,1.1133037719726562,56.732824427480914,86.85496183206106,-14.595419847328245,-12.840103503417968,-0.6368576416015624,2.8323405639648436,-18.900763358778626,-20.778625954198475,18.793893129770993,0.0
11.200000524520874,-10.079588989257813,5.758054992675781,1.6136919189453125,49.7557251908397,90.04580152671755,-19.16030534351145,-10.941501586914061,0.6057330200195312,1.4891934326171874,-16.702290076335878,-33.31297709923664,13.755725190839694,0.0
11.21000051498413,-8.844180932617187,6.028599780273437,1.1156979736328125,29.404580152671755,84.7175572519084,-13.725190839694656,-11.803414184570311,1.4245499877929686,1.369483349609375,-20.015267175572518,-33.80152671755725,12.15267175572519,0.0
11.220000505447388,-7.663839514160156,2.980781066894531,0.5410895751953124,22.900763358778626,86.30534351145039,-9.099236641221374,-10.946289990234375,-0.3591302490234375,1.5298948608398437,-18.076335877862597,-37.908396946564885,11.038167938931299,0.0
11.230000257492065,-8.243236315917969,3.4859576171874997,1.8938135131835936,23.755725190839694,93.29770992366412,-12.778625954198473,-10.398017810058594,-0.23702596435546874,1.2018892333984375,-17.068702290076335,-43.465648854961835,5.923664122137405,0.0
11.240000486373901,-6.313509777832031,1.6639701538085936,1.7477672119140624,25.6793893129771,90.56488549618321,-11.419847328244275,-9.4618849609375,-1.8411410766601561,-0.08140285644531249,-2.50381679389313,-54.58015267175573,-0.9007633587786259,0.0
11.250000476837158,-8.576030346679687,1.1420341918945311,2.1811177124023438,38.87022900763359,99.06870229007633,-14.290076335877863,-9.727641345214844,0.373495458984375,0.5506663818359374,-9.007633587786259,-51.64885496183206,-4.5038167938931295,0.0
11.260000705718994,-10.149020837402343,4.055777612304687,3.42849677734375,25.480916030534353,94.16793893129771,-19.435114503816795,-9.718064538574218,-0.3950432739257812,0.6248866333007812,-13.007633587786259,-46.595419847328245,-6.641221374045801,0.0
11.270000457763672,-9.811438403320311,3.299209887695312,3.2034418212890623,6.229007633587786,84.07633587786259,-19.938931297709924,-10.54645831298828,-0.9720458740234375,1.448492004394531,-3.816793893129771,-46.80916030534351,-6.458015267175573,0.0
11.280000686645508,-8.346186987304687,0.5482721801757812,2.138022082519531,6.3816793893129775,79.63358778625954,-16.27480916030534,-9.835380419921874,-0.07422025146484375,0.8643067993164062,-4.0,-53.06870229007634,-11.022900763358779,0.0
11.290000915527344,-8.705317236328124,0.612915625,2.710236279296875,13.114503816793894,81.8473282442748,-17.69465648854962,-8.588001354980468,2.5546131713867184,0.18914193115234373,-10.198473282442748,-49.20610687022901,-14.870229007633588,0.0
11.300000667572021,-8.91840118408203,0.3232172241210937,3.1172505615234374,14.961832061068701,76.91603053435115,-20.12213740458015,-7.975085729980468,1.1755530151367186,0.9648632690429687,-16.259541984732824,-39.847328244274806,-11.908396946564885,0.0
11.310001134872437,-10.338162768554687,1.5418658691406248,3.4739866088867184,18.793893129770993,73.87786259541984,-21.83206106870229,-8.872911352539061,1.0462661254882812,0.7781155395507812,-16.244274809160306,-36.595419847328245,-9.923664122137405,0.0
11.320000410079956,-10.500968481445312,1.924938134765625,3.1651345947265623,13.648854961832061,68.41221374045801,-22.30534351145038,-9.423577734375,0.055066638183593745,0.86191259765625,-13.114503816793894,-33.32824427480916,-10.412213740458014,0.0
11.330000877380371,-11.125855114746093,2.722207287597656,3.258508459472656,10.610687022900763,64.25954198473282,-22.595419847328245,-9.251195214843749,-0.00718260498046875,0.718260498046875,-6.778625954198473,-32.44274809160305,-12.213740458015268,0.0
11.34000039100647,-11.815385192871092,4.376600634765625,3.3111808959960936,-2.015267175572519,56.68702290076336,-21.52671755725191,-8.63109698486328,-1.0103531005859374,0.29448680419921874,4.122137404580153,-35.770992366412216,-15.358778625954198,0.0
11.350000858306885,-9.629479077148437,1.5346832641601562,1.6256629272460936,-11.16030534351145,46.93129770992366,-17.16030534351145,-8.674192614746094,-0.7661445312499999,0.2561795776367187,9.145038167938932,-37.55725190839695,-16.625954198473284,0.0
11.360000610351562,-9.787496386718749,0.39264907226562495,2.0566192260742184,-3.969465648854962,49.89312977099237,-15.34351145038168,-7.9272016967773435,0.5458779785156249,-0.32082302246093747,5.587786259541985,-35.63358778625954,-18.30534351145038,0.0
11.37000060081482,-10.828974108886719,3.0837317382812497,2.7629087158203123,-6.6106870229007635,49.12977099236641,-18.549618320610687,-9.184157568359375,0.8714894042968749,0.4955997436523437,1.6946564885496183,-23.49618320610687,-15.465648854961833,0.0
11.380000591278076,-8.734047656249999,2.1116858642578125,2.0063409912109376,-21.328244274809162,36.412213740458014,-16.519083969465647,-8.499415893554687,1.158793603515625,0.4285620971679687,-3.4656488549618323,-19.435114503816795,-14.183206106870228,0.0
11.390000343322754,-9.605537060546874,-0.5315127685546874,1.1923124267578125,-16.702290076335878,35.69465648854962,-13.068702290076336,-9.04050546875,0.7134720947265625,0.7254431030273437,-1.7099236641221374,-16.99236641221374,-12.793893129770993,0.0
11.40000057220459,-10.084377392578125,1.2521674682617188,2.0781670410156248,-3.068702290076336,42.33587786259542,-15.236641221374045,-8.777143286132812,1.180341418457031,0.7110778930664062,-3.6793893129770994,-16.80916030534351,-14.01526717557252,0.0
11.410000562667847,-10.235212097167969,1.3742717529296875,1.5059528442382812,-16.82442748091603,31.480916030534353,-15.541984732824428,-9.131485131835937,0.8164227661132812,0.6631938598632812,-1.816793893129771,-15.129770992366412,-14.564885496183207,0.0
11.420000791549683,-8.774749084472656,0.5722141967773438,0.93852705078125,-10.091603053435115,31.770992366412212,-12.244274809160306,-9.162609753417968,0.689530078125,0.8762778076171874,-2.687022900763359,-14.870229007633588,-13.740458015267176,0.0
11.43000054359436,-11.647791076660155,4.177881896972656,2.568978381347656,-8.320610687022901,38.35114503816794,-15.099236641221374,-9.583989245605467,0.679953271484375,1.13006318359375,-2.1526717557251906,-13.938931297709924,-13.923664122137405,0.0
11.440000772476196,-9.502586389160156,1.889025109863281,0.9600748657226562,-25.633587786259543,27.66412213740458,-13.48091603053435,-9.80665,0.01915361328125,1.0941501586914062,2.4732824427480917,-14.931297709923664,-14.458015267175572,0.0
11.450000524520874,-8.71489404296875,0.20350714111328125,-0.23702596435546874,-15.282442748091603,28.045801526717558,-10.045801526717558,-8.851363537597656,-0.22026655273437498,1.22583125,8.229007633587786,-21.358778625954198,-15.267175572519085,0.0
11.46000075340271,-13.32373223876953,5.4515971801757805,3.2561142578125,-25.328244274809162,33.89312977099237,-16.259541984732824,-11.353304272460937,-0.3902548706054687,1.9919757812499999,17.908396946564885,-20.229007633587788,-15.48091603053435,0.0
11.470000267028809,-10.228029492187499,1.9871873779296874,1.235408056640625,-35.099236641221374,24.442748091603054,-13.34351145038168,-11.465831750488281,-0.36631285400390623,1.9321207397460936,27.053435114503817,-29.374045801526716,-17.954198473282442,0.0
11.480000495910645,-9.643844287109374,1.6017209106445311,0.603338818359375,-25.572519083969464,25.221374045801525,-8.580152671755725,-10.115502014160155,0.3112462158203125,1.9752163696289062,28.290076335877863,-36.274809160305345,-20.106870229007633,0.0
11.490000486373901,-11.274295617675781,3.69664736328125,1.5514426757812498,-30.778625954198475,26.48854961832061,-10.366412213740459,-8.547299926757812,2.157175695800781,0.7565677246093749,19.083969465648856,-38.06106870229008,-22.65648854961832,0.0
11.500000476837158,-10.733206042480468,5.422866760253906,1.5729904907226562,-55.86259541984733,16.641221374045802,-8.854961832061068,-9.363722692871093,1.5634136840820312,1.5059528442382812,7.587786259541985,-29.251908396946565,-19.328244274809162,0.0
11.510000467300415,-10.036493359375,2.770091320800781,0.7541735229492187,-64.13740458015268,11.603053435114504,-1.8473282442748091,-10.931924780273437,0.86191259765625,2.7269956909179687,5.419847328244275,-27.69465648854962,-15.312977099236642,0.0
11.520000457763672,-9.447519750976562,0.22505495605468748,0.7541735229492187,-47.64885496183206,19.587786259541986,2.2290076335877864,-10.704475622558594,0.39264907226562495,1.7262193969726563,5.7251908396946565,-35.98473282442748,-17.297709923664122,0.0
11.530000925064087,-11.834538806152343,3.5721488769531247,2.2840683837890623,-40.70229007633588,26.442748091603054,-3.435114503816794,-9.150638745117186,0.7254431030273437,1.6136919189453125,5.770992366412214,-39.3587786259542,-19.786259541984734,0.0
11.540000915527344,-12.073958972167969,4.50109912109375,1.707065783691406,-57.69465648854962,16.946564885496183,-3.801526717557252,-8.978256225585938,2.1883003173828124,1.7956512451171873,2.8091603053435112,-37.038167938931295,-19.66412213740458,0.0
11.550000667572021,-9.935936889648437,1.9919757812499999,0.24660277099609373,-57.69465648854962,10.320610687022901,4.824427480916031,-9.698910925292969,1.2904746948242187,2.607285607910156,-4.0,-31.709923664122137,-16.061068702290076,0.0
11.560000658035278,-9.916783276367187,0.20350714111328125,1.3000515014648437,-45.11450381679389,19.404580152671755,6.2748091603053435,-9.97184991455078,0.7661445312499999,2.3582886352539063,-2.9160305343511452,-33.81679389312977,-15.068702290076336,0.0
11.570000886917114,-8.427589843749999,-1.5873557006835937,0.5674257934570313,-29.083969465648856,21.862595419847327,3.0381679389312977,-9.97184991455078,0.8595183959960937,2.3415292236328122,2.2595419847328246,-38.97709923664122,-16.38167938931298,0.0
11.580000638961792,-8.410830432128906,-0.15083470458984374,0.6584054565429687,-14.274809160305344,27.938931297709924,-3.068702290076336,-8.930372192382812,0.9313444458007812,2.403778466796875,0.0916030534351145,-40.396946564885496,-18.412213740458014,0.0
11.590000629425049,-9.643844287109374,2.9089550170898435,0.507570751953125,-25.297709923664122,20.702290076335878,-4.824427480916031,-9.150638745117186,2.4899697265625,2.0087351928710935,-10.091603053435115,-33.3587786259542,-18.82442748091603,0.0
11.600000619888306,-10.690110412597656,2.999934680175781,1.1133037719726562,-33.87786259541985,19.129770992366414,-0.9007633587786259,-7.687781530761718,2.020706201171875,1.3934253662109375,-21.908396946564885,-31.862595419847327,-17.786259541984734,0.0
11.610000610351562,-7.939172705078125,-0.9050082275390624,0.19871873779296872,-22.900763358778626,19.389312977099237,5.374045801526718,-9.050082275390624,0.316034619140625,2.602497204589844,-23.358778625954198,-28.290076335877863,-13.770992366412214,0.0
11.62000060081482,-8.99501563720703,-0.3711012573242187,1.668758557128906,-11.374045801526718,27.83206106870229,0.9312977099236641,-9.842563024902343,0.5291185668945312,2.3870190551757813,-19.17557251908397,-29.435114503816795,-13.48091603053435,0.0
11.630000591278076,-9.873687646484374,0.9217676391601562,1.3311761230468748,-8.778625954198473,25.633587786259543,-2.9160305343511452,-8.90643017578125,0.373495458984375,1.8004396484374998,-18.671755725190838,-29.206106870229007,-15.19083969465649,0.0
11.640000343322754,-9.698910925292969,0.8595183959960937,1.5801730957031248,-5.923664122137405,24.48854961832061,-1.3129770992366412,-8.573636145019531,-0.7038952880859375,2.6910826660156246,-14.122137404580153,-30.549618320610687,-14.51908396946565,0.0
11.650000810623169,-10.563217724609375,0.7589619262695312,1.2928688964843749,-5.770992366412214,20.778625954198475,0.0916030534351145,-8.717288244628906,0.8571241943359375,1.1875240234375,-13.145038167938932,-35.083969465648856,-15.786259541984732,0.0
11.660001039505005,-9.414000927734374,1.024718310546875,0.8212111694335937,-4.412213740458015,18.549618320610687,0.6564885496183206,-7.754819177246094,1.8195932617187498,1.2330138549804688,-25.114503816793892,-28.50381679389313,-16.458015267175572,0.0
11.670000553131104,-9.64623848876953,1.407790576171875,0.6368576416015624,-7.511450381679389,18.244274809160306,1.282442748091603,-9.452308154296874,-0.28490999755859375,2.3582886352539063,-31.46564885496183,-18.015267175572518,-12.67175572519084,0.0
11.68000054359436,-10.522516296386717,1.924938134765625,0.9265560424804687,-4.641221374045801,22.27480916030534,-0.3511450381679389,-9.129090930175781,-0.023942016601562498,2.0254946044921875,-30.198473282442748,-22.244274809160306,-13.022900763358779,0.0
11.690000534057617,-10.24718310546875,2.262520568847656,1.0845733520507812,-3.0381679389312977,23.923664122137403,-1.618320610687023,-9.993397729492187,-1.3575123413085937,2.5522189697265625,-23.572519083969464,-20.47328244274809,-13.526717557251908,0.0
11.700000524520874,-9.80665,1.89620771484375,0.5195417602539062,-11.526717557251908,18.259541984732824,0.5648854961832062,-8.166621862792969,-2.5378537597656248,3.303998291015625,-18.900763358778626,-25.61832061068702,-15.572519083969466,0.0
11.71000051498413,-10.08677159423828,1.4939818359375,0.5099649536132812,-9.19083969465649,18.03053435114504,1.1603053435114503,-9.734823950195311,-0.5147533569335937,2.7724855224609373,-16.931297709923665,-20.458015267175572,-17.404580152671755,0.0
11.720000505447388,-9.756371765136718,1.3958195678710936,0.4644751220703125,-9.312977099236642,18.717557251908396,0.7938931297709924,-9.272743029785156,-1.8411410766601561,3.057395520019531,-13.526717557251908,-18.244274809160306,-17.0381679389313,0.0
11.730000495910645,-9.612719665527344,0.9265560424804687,0.3591302490234375,-9.297709923664122,18.65648854961832,-1.1908396946564885,-9.603142858886718,-2.6719290527343746,3.356670727539062,4.977099236641221,-27.099236641221374,-16.900763358778626,0.0
11.740000486373901,-8.451531860351562,-0.32082302246093747,0.08858546142578125,4.763358778625954,22.946564885496183,-1.9694656488549618,-8.963891015625,-1.8148048583984373,2.901772412109375,12.488549618320612,-32.6412213740458,-18.35114503816794,0.0
11.750000476837158,-9.651026892089844,0.4213794921875,0.7996633544921875,9.068702290076336,28.732824427480917,-6.015267175572519,-9.356540087890625,-2.1356278808593747,3.208230224609375,22.50381679389313,-31.72519083969466,-19.251908396946565,0.0
11.760000705718994,-10.771513269042968,0.86191259765625,0.5746083984375,7.679389312977099,28.137404580152673,-9.053435114503817,-9.689334118652344,-2.4349030883789062,3.39018955078125,34.79389312977099,-38.48854961832061,-19.954198473282442,0.0
11.770000696182251,-8.532934716796875,0.6296750366210937,-0.13646949462890623,10.427480916030534,24.702290076335878,-8.305343511450381,-8.889670764160156,-0.6631938598632812,2.602497204589844,36.79389312977099,-43.32824427480916,-23.34351145038168,0.0
11.780000448226929,-10.417171423339843,2.0183119995117185,0.6727706665039062,5.175572519083969,28.50381679389313,-11.053435114503817,-7.0461354858398435,0.8906430175781249,1.5370774658203123,23.251908396946565,-38.51908396946565,-26.65648854961832,0.0
11.790000438690186,-10.149020837402343,2.6336218261718747,0.5458779785156249,-4.244274809160306,25.206106870229007,-10.061068702290076,-8.690952026367187,0.08140285644531249,1.9416975463867185,13.664122137404581,-27.267175572519083,-24.53435114503817,0.0
11.800000429153442,-10.59194814453125,2.6503812377929687,0.8547299926757812,-10.778625954198473,23.709923664122137,-9.755725190839694,-9.60793126220703,-1.235408056640625,2.9472622436523435,16.595419847328245,-25.31297709923664,-23.51145038167939,0.0
11.810000896453857,-10.565611926269531,1.5538368774414062,0.9552864624023437,-7.740458015267175,22.33587786259542,-9.206106870229007,-9.545682019042967,-1.1516109985351561,2.9568390502929685,16.3206106870229,-21.251908396946565,-24.30534351145038,0.0
11.820000648498535,-10.407594616699217,1.216254443359375,0.9624690673828125,-4.534351145038168,21.129770992366414,-8.320610687022901,-9.241618408203124,-2.070984436035156,3.423708374023437,19.557251908396946,-16.259541984732824,-24.213740458015266,0.0
11.830000638961792,-9.49300958251953,1.5514426757812498,1.3072341064453123,2.2748091603053435,21.557251908396946,-8.061068702290076,-7.706935144042968,-0.5267243652343749,2.6048914062499997,22.580152671755727,-17.267175572519083,-26.27480916030534,0.0
11.840000629425049,-11.884817041015625,2.925714428710937,2.3319524169921872,1.4045801526717556,22.30534351145038,-8.473282442748092,-6.715735656738281,0.16519991455078123,1.9225439331054686,20.229007633587788,-13.022900763358779,-26.641221374045802,0.0
11.850000381469727,-12.061987963867187,2.77727392578125,2.0877438476562498,-0.42748091603053434,16.885496183206108,-5.465648854961832,-7.323862878417969,-0.7015010864257812,2.518700146484375,16.85496183206107,-3.6946564885496183,-24.076335877862597,0.0
11.860000610351562,-11.616666455078125,2.3127988037109373,2.147598889160156,1.5725190839694656,12.549618320610687,-3.1603053435114505,-5.889736083984375,0.7829039428710937,1.0295067138671874,19.34351145038168,-9.954198473282442,-25.282442748091604,0.0
11.87000060081482,-10.939107385253905,2.8802245971679685,2.346317626953125,1.5267175572519085,9.206106870229007,-3.83206106870229,-6.270414147949219,1.5801730957031248,1.1013327636718748,2.122137404580153,8.13740458015267,-23.251908396946565,0.0
11.880000352859497,-10.330980163574218,1.7310078002929687,2.094926452636719,-3.7557251908396947,3.282442748091603,-1.6030534351145038,-7.388506323242187,-0.20829554443359374,2.3319524169921872,-2.2748091603053435,16.35114503816794,-18.931297709923665,0.0
11.890000581741333,-9.89523546142578,0.7661445312499999,1.9201497314453124,2.8244274809160306,0.061068702290076333,-0.732824427480916,-7.706935144042968,-0.5913678100585937,2.6503812377929687,0.6106870229007634,19.66412213740458,-17.099236641221374,0.0
11.90000057220459,-9.79946739501953,0.009576806640625,1.9752163696289062,9.740458015267176,-0.916030534351145,-2.4122137404580153,-6.809109521484374,0.6009446166992187,1.5490484741210937,5.251908396946565,18.595419847328245,-16.68702290076336,0.0
11.910000562667847,-9.773131176757811,-0.5291185668945312,1.7932570434570312,16.580152671755727,-2.198473282442748,-4.458015267175573,-6.311115576171875,-0.5602431884765625,2.2673089721679687,8.198473282442748,23.770992366412212,-13.404580152671755,0.0
11.920000791549683,-9.22485899658203,-1.2761094848632812,1.668758557128906,29.755725190839694,-1.4351145038167938,-6.412213740458015,-4.742913488769531,1.2785036865234374,0.4381389038085937,11.938931297709924,21.770992366412212,-12.183206106870228,0.0
11.93000054359436,-9.854534033203125,0.28969840087890625,2.1404162841796874,26.625954198473284,-2.7022900763358777,-10.763358778625955,-4.802768530273437,2.4851813232421875,0.32082302246093747,3.5419847328244276,34.274809160305345,-7.984732824427481,0.0
11.940000772476196,-9.212887988281249,-0.40222587890625,1.7980454467773437,31.14503816793893,-4.244274809160306,-11.541984732824428,-5.700594152832031,1.7788918334960937,0.6847416748046875,-10.030534351145038,48.18320610687023,-4.580152671755725,0.0
11.950000524520874,-10.311826550292968,1.0845733520507812,2.3487118286132813,26.396946564885496,-5.236641221374046,-13.557251908396946,-8.346186987304687,-1.5562310791015623,2.4205378784179685,-7.66412213740458,54.79389312977099,0.42748091603053434,0.0
11.96000075340271,-10.46984385986328,0.05985504150390625,2.1260510742187497,24.83969465648855,-10.122137404580153,-14.702290076335878,-8.762778076171875,-0.3136404174804687,1.8219874633789062,2.717557251908397,46.93129770992366,-0.7633587786259542,0.0
11.970000505447388,-10.568006127929687,0.699106884765625,2.731784094238281,36.44274809160305,-7.3893129770992365,-16.885496183206108,-8.396465222167969,2.5546131713867184,1.218648645019531,-11.114503816793894,58.48854961832061,-1.0687022900763359,0.0
11.980000495910645,-10.172962854003906,0.488417138671875,2.748543505859375,37.404580152671755,-9.129770992366412,-16.82442748091603,-10.893617553710937,0.5626373901367188,3.1555577880859373,-9.786259541984732,66.56488549618321,5.1603053435114505,0.0
11.990000486373901,-11.257536206054686,0.9576806640625,3.414131567382812,30.48854961832061,-15.877862595419847,-16.65648854961832,-12.071564770507813,0.8571241943359375,3.366247534179687,-2.9160305343511452,59.038167938931295,9.786259541984732,0.0
12.000000476837158,-12.382810986328124,0.5482721801757812,4.853046765136718,42.916030534351144,-18.137404580152673,-17.374045801526716,-12.526463085937499,-0.26815058593749996,4.04141240234375,-2.0763358778625953,55.465648854961835,9.648854961832061,0.0
12.010001182556152,-12.409147204589843,-0.08379705810546874,5.303156677246093,41.786259541984734,-30.18320610687023,-17.19083969465649,-12.658144177246093,-0.9169792358398436,4.201823913574218,4.091603053435114,48.06106870229008,7.358778625954199,0.0
12.020000696182251,-12.409147204589843,-1.0175357055664063,6.1626750732421876,58.0763358778626,-39.404580152671755,-18.671755725190838,-10.989385620117186,0.6464344482421874,2.446874096679687,-5.480916030534351,43.14503816793893,4.122137404580153,0.0
12.030000925064087,-12.457031237792968,-1.0079588989257813,7.371746911621093,75.1145038167939,-48.74809160305343,-20.35114503816794,-10.220846887207031,0.16280571289062498,1.5897499023437498,-14.580152671755725,46.213740458015266,7.358778625954199,0.0
12.040000677108765,-14.982913989257812,2.0925322509765625,9.718064538574218,71.69465648854961,-60.961832061068705,-23.72519083969466,-10.73799444580078,-2.070984436035156,0.5961562133789062,-6.290076335877862,43.16030534351145,12.412213740458014,0.0
12.050000667572021,-15.727510705566406,3.7517140014648436,10.24000050048828,57.25190839694657,-88.54961832061069,-22.015267175572518,-10.59194814453125,-2.722207287597656,0.7206546997070312,3.9389312977099236,39.23664122137404,12.274809160305344,0.0
12.060000658035278,-16.385916162109375,4.237736938476562,10.129867224121092,45.29770992366412,-119.74045801526718,-11.954198473282442,-8.86812294921875,-2.4013842651367185,-0.21068974609375,7.419847328244275,35.603053435114504,9.572519083969466,0.0
12.070000886917114,-15.849614990234373,4.225765930175781,9.392453112792968,31.541984732824428,-146.18320610687022,-2.0916030534351147,-7.184999182128906,0.143652099609375,-1.7884686401367187,0.8854961832061069,39.37404580152672,6.916030534351145,0.0
12.080000638961792,-15.557522387695311,4.438849877929687,8.339004382324218,16.38167938931298,-171.3740458015267,4.015267175572519,-8.990227233886719,-0.9840168823242187,-0.10295067138671875,-12.320610687022901,57.37404580152672,12.198473282442748,0.0
12.090000867843628,-15.904681628417968,1.9800047729492187,6.157886669921875,13.664122137404581,-194.59541984732823,12.870229007633588,-11.549628808593749,-3.8474820678710935,0.9265560424804687,3.3587786259541983,57.267175572519086,16.702290076335878,0.0
12.100000381469727,-15.686809277343748,-1.1180921752929687,4.96078583984375,39.06870229007634,-204.4885496183206,19.6793893129771,-9.682151513671874,-2.6288334228515624,0.0047884033203125,9.603053435114504,54.152671755725194,11.816793893129772,0.0
12.110000610351562,-14.324508532714843,-2.4444798950195312,0.42377369384765623,78.07633587786259,-204.04580152671755,30.076335877862597,-11.367669482421874,-2.9281086303710935,1.5227122558593749,13.450381679389313,62.0763358778626,11.16030534351145,0.0
12.12000036239624,-12.15536182861328,-5.463568188476562,-2.540247961425781,69.00763358778626,-195.3740458015267,31.00763358778626,-8.10197841796875,0.29448680419921874,-1.39821376953125,10.549618320610687,56.93129770992366,8.961832061068701,0.0
12.130000829696655,-11.252747802734374,-7.4603323730468745,-2.940079638671875,66.53435114503817,-185.1908396946565,20.244274809160306,-10.335768566894531,0.28969840087890625,0.45010991210937495,1.0381679389312977,67.52671755725191,12.549618320610687,0.0
12.140000581741333,-9.6151138671875,-7.673416320800781,-3.6008792968749996,68.2442748091603,-169.72519083969465,14.305343511450381,-9.057264880371093,1.3455413330078123,-0.354341845703125,-1.8625954198473282,66.2442748091603,15.893129770992367,0.0
12.15000057220459,-8.544905725097657,-4.448426684570312,-3.318363500976562,73.25190839694656,-147.05343511450383,8.610687022900763,-9.89523546142578,0.6177040283203125,0.00239420166015625,-3.0839694656488548,65.25190839694656,18.916030534351144,0.0
12.160000801086426,-8.781931689453124,-0.5291185668945312,-2.5953145996093747,76.67175572519083,-134.5648854961832,2.717557251908397,-11.990161914062499,-3.1483751831054687,2.4061726684570313,3.5267175572519083,68.42748091603053,22.396946564885496,0.0
12.170000314712524,-8.674192614746094,1.149216796875,-1.3072341064453123,82.99236641221374,-121.95419847328245,0.1984732824427481,-10.919953771972656,-5.671863732910156,1.5059528442382812,35.587786259541986,48.35114503816794,19.129770992366414,0.0
12.18000078201294,-7.953537915039062,1.2282254516601563,-0.2825157958984375,90.42748091603053,-109.09923664122137,2.4885496183206106,-9.636661682128906,-2.987963671875,0.4836287353515625,43.81679389312977,36.97709923664122,12.992366412213741,0.0
12.190000295639038,-8.942343200683593,3.756502404785156,0.5482721801757812,81.63358778625954,-97.14503816793894,2.7786259541984735,-11.362881079101562,-0.45489831542968745,-0.7637503295898437,40.76335877862596,34.50381679389313,10.778625954198473,0.0
12.200000762939453,-10.043675964355469,5.961562133789062,1.1037269653320312,53.41984732824427,-95.57251908396947,3.7404580152671754,-9.986215124511718,-1.3431471313476562,0.08858546142578125,32.44274809160305,34.10687022900763,13.419847328244275,0.0
12.210000276565552,-10.864887133789061,5.966350537109375,1.4963760375976562,23.862595419847327,-96.06106870229007,8.82442748091603,-9.047688073730468,-0.612915625,-0.32561142578124996,38.62595419847328,22.427480916030536,12.0,0.0
12.220000743865967,-9.459490759277344,3.0789433349609374,1.37906015625,1.282442748091603,-95.0381679389313,15.053435114503817,-10.39322940673828,0.46208092041015625,-0.076614453125,32.30534351145038,23.69465648854962,10.106870229007633,0.0
12.230000734329224,-9.296685046386719,2.039859814453125,1.7717092285156248,-8.687022900763358,-88.83969465648855,18.427480916030536,-9.050082275390624,0.17238251953125,-0.11252747802734374,22.061068702290076,25.267175572519083,8.625954198473282,0.0
12.24000072479248,-7.934384301757812,1.2593500732421874,1.3551181396484375,-17.14503816793893,-86.58015267175573,21.129770992366414,-11.192892761230468,-0.5817910034179687,1.01514150390625,20.977099236641223,28.47328244274809,10.702290076335878,0.0
12.250000476837158,-7.275978845214843,1.1851298217773436,1.7453730102539062,-18.045801526717558,-78.30534351145039,22.778625954198475,-9.854534033203125,-0.4333505004882812,0.39264907226562495,15.801526717557252,25.129770992366414,10.641221374045802,0.0
12.260000705718994,-6.392518432617187,0.8810662109374999,1.4245499877929686,-18.015267175572518,-73.70992366412214,24.519083969465647,-11.245565197753905,-1.3431471313476562,1.5729904907226562,19.587786259541986,27.435114503816795,11.17557251908397,0.0
12.270000696182251,-6.236895324707031,1.1109095703125,1.8028338500976562,-14.946564885496183,-64.73282442748092,25.49618320610687,-9.842563024902343,-1.1061211669921875,1.3646949462890625,15.17557251908397,28.33587786259542,11.19083969465649,0.0
12.280000686645508,-5.906495495605468,1.0845733520507812,1.867477294921875,-15.465648854961833,-59.38931297709924,26.33587786259542,-11.499350573730467,-2.7820623291015623,1.5849614990234373,23.282442748091604,27.801526717557252,12.061068702290076,0.0
12.290000915527344,-6.548141540527343,1.7214309936523438,2.683900061035156,-17.72519083969466,-52.030534351145036,26.03053435114504,-10.192116467285155,-1.7597382202148437,-0.181959326171875,33.98473282442748,16.045801526717558,10.045801526717558,0.0
12.300000667572021,-6.715735656738281,2.1547814941406247,2.6791116577148437,-25.862595419847327,-50.0763358778626,25.954198473282442,-9.916783276367187,-1.5969325073242187,-0.08858546142578125,35.31297709923664,15.664122137404581,8.67175572519084,0.0
12.310000896453857,-3.967192150878906,-0.1771709228515625,1.6136919189453125,-22.076335877862597,-45.541984732824424,29.19083969465649,-10.919953771972656,-1.659181750488281,0.3950432739257812,42.33587786259542,15.17557251908397,9.236641221374045,0.0
12.320000886917114,-5.444414575195312,1.4221557861328125,2.70065947265625,-27.282442748091604,-35.221374045801525,25.49618320610687,-13.172897534179686,-3.687070556640625,3.1268273681640624,56.045801526717554,15.84732824427481,11.022900763358779,0.0
12.330000638961792,-5.839457849121094,1.6256629272460936,2.96881005859375,-36.79389312977099,-33.9236641221374,24.396946564885496,-9.696516723632811,-0.7445967163085937,0.06943184814453125,67.40458015267176,-3.6946564885496183,4.9465648854961835,0.0
12.340000629425049,-5.2265422241210935,1.3910311645507811,3.488351818847656,-41.81679389312977,-27.69465648854962,24.38167938931298,-10.857704528808593,0.5027823486328125,1.3623007446289062,51.14503816793893,4.931297709923665,5.038167938931298,0.0
12.350000619888306,-5.027823486328125,0.7302315063476562,3.749319799804687,-46.74809160305343,-22.564885496183205,24.564885496183205,-10.0748005859375,-0.07900865478515624,0.7206546997070312,52.97709923664122,-4.137404580152672,5.435114503816794,0.0
12.360000371932983,-4.2305543334960936,0.43574470214843747,4.388571643066406,-45.66412213740458,-16.38167938931298,23.374045801526716,-9.56962403564453,1.7908628417968748,0.3950432739257812,35.770992366412216,-3.267175572519084,5.679389312977099,0.0
12.37000036239624,-3.5529952636718747,0.5339069702148437,4.568136767578125,-39.49618320610687,-10.763358778625955,23.16030534351145,-8.588001354980468,2.389413256835937,0.09337386474609374,17.61832061068702,1.1755725190839694,5.419847328244275,0.0
12.380000591278076,-3.4620156005859375,0.8571241943359375,5.4899044067382805,-32.13740458015267,-0.9465648854961832,23.786259541984734,-9.133879333496093,1.3479355346679687,0.6607996582031249,3.3893129770992365,8.366412213740459,10.13740458015267,0.0
12.390000581741333,-2.518700146484375,1.3024457031249999,6.246472131347656,-22.793893129770993,5.267175572519084,25.52671755725191,-8.312668164062499,1.3958195678710936,0.6703764648437499,-14.259541984732824,15.251908396946565,13.465648854961833,0.0
12.40000057220459,-3.265691064453125,2.2673089721679687,6.945579016113281,-18.778625954198475,11.511450381679388,26.916030534351144,-9.5384994140625,-0.354341845703125,1.43652099609375,-14.83969465648855,21.770992366412212,17.267175572519083,0.0
12.410000562667847,-2.1906945190429687,2.123656872558594,6.476315490722656,-19.87786259541985,12.50381679389313,29.557251908396946,-9.382876306152344,-0.38307226562499996,1.8555062866210936,-17.755725190839694,24.885496183206108,18.793893129770993,0.0
12.420000791549683,-4.972756848144531,3.864241479492187,6.907271789550781,-27.129770992366414,15.816793893129772,28.091603053435115,-11.575965026855467,-2.8610709838867185,1.9656395629882812,-9.893129770992367,21.954198473282442,18.15267175572519,0.0
12.43000054359436,-3.7924154296875,2.882618798828125,6.308721374511719,-24.106870229007633,18.641221374045802,31.282442748091604,-10.309432348632813,-1.8028338500976562,2.384624853515625,-5.358778625954199,20.47328244274809,16.610687022900763,0.0
12.440000772476196,-4.398148449707031,4.472368701171875,6.943184814453125,-16.83969465648855,28.213740458015266,33.3587786259542,-8.497021691894531,0.3495534423828125,2.1021090576171875,-16.732824427480917,24.106870229007633,14.702290076335878,0.0
12.450000286102295,-4.276044165039062,3.8666356811523435,5.693411547851563,-17.404580152671755,28.99236641221374,39.74045801526717,-9.030928662109375,-0.4572925170898437,1.7214309936523438,-27.87786259541985,28.396946564885496,17.66412213740458,0.0
12.46000051498413,-4.144363073730468,-1.3646949462890625,6.148309863281249,-20.50381679389313,34.12213740458015,43.93893129770992,-10.189722265624999,-0.7422025146484375,2.1499930908203124,-33.55725190839695,29.34351145038168,23.480916030534353,0.0
12.470000743865967,-9.22485899658203,-1.1947066284179686,6.461950280761719,-12.549618320610687,47.64885496183206,34.25954198473283,-11.044452258300781,0.5195417602539062,1.4820108276367188,-43.343511450381676,30.671755725190838,26.03053435114504,0.0
12.480000495910645,-8.808267907714843,-3.909731311035156,2.123656872558594,15.49618320610687,58.38167938931298,33.63358778625954,-10.058041174316406,0.086191259765625,1.39821376953125,-59.587786259541986,35.32824427480916,30.458015267175572,0.0
12.490000486373901,-12.820949890136719,0.30885201416015623,1.1061211669921875,29.221374045801525,74.2442748091603,20.900763358778626,-11.360486877441405,-2.73896669921875,1.889025109863281,-58.68702290076336,36.50381679389313,35.20610687022901,0.0
12.500000238418579,-15.497667346191406,4.050989208984375,5.013458276367187,20.076335877862597,70.82442748091603,16.259541984732824,-11.54244620361328,-1.5753846923828123,1.2569558715820313,-56.51908396946565,29.129770992366414,32.534351145038165,0.0
12.510000705718994,-12.485761657714843,2.935291235351562,5.173869787597656,2.8702290076335877,64.79389312977099,23.72519083969466,-11.3006318359375,-1.9752163696289062,2.0183119995117185,-62.62595419847328,30.458015267175572,29.633587786259543,0.0
12.52000093460083,-10.1131078125,1.0749965454101562,4.218583325195312,-11.786259541984732,65.23664122137404,23.709923664122137,-11.990161914062499,-2.5163059448242184,2.9664158569335934,-48.82442748091603,24.610687022900763,25.770992366412212,0.0
12.530000448226929,-9.694122521972655,0.8714894042968749,3.308786694335937,-29.587786259541986,55.541984732824424,15.17557251908397,-11.276689819335937,-0.8978256225585937,2.73896669921875,-43.87786259541985,12.916030534351146,21.81679389312977,0.0
12.540000915527344,-4.572925170898437,-5.971138940429687,0.7829039428710937,-34.778625954198475,45.954198473282446,13.801526717557252,-11.240776794433593,0.1867477294921875,2.47081611328125,-22.931297709923665,-4.152671755725191,18.946564885496183,0.0
12.5500009059906,-5.0757075195312495,-8.394071020507813,1.6998831787109374,-8.045801526717558,59.87786259541985,2.0763358778625953,-11.14022032470703,3.3686417358398435,1.7717092285156248,-39.847328244274806,-11.511450381679388,15.786259541984732,0.0
12.560000658035278,-10.467449658203124,-3.399766357421875,3.0142998901367184,12.488549618320612,67.41984732824427,-15.007633587786259,-11.994950317382811,2.7748797241210936,1.908178723144531,-43.908396946564885,-10.564885496183207,15.694656488549619,0.0
12.570000886917114,-10.13226142578125,-2.2074539306640624,2.3726538452148436,23.51145038167939,65.17557251908397,-18.18320610687023,-13.448230725097655,2.5713725830078125,2.89219560546875,-50.29007633587786,-10.061068702290076,20.27480916030534,0.0
12.580000877380371,-11.130643518066405,-0.7685387329101562,2.3223756103515623,39.404580152671755,71.2824427480916,-21.69465648854962,-13.43865391845703,1.3168109130859373,1.7741034301757812,-60.76335877862596,-17.6793893129771,19.755725190839694,0.0
12.590000629425049,-11.413159313964844,2.8610709838867185,2.3870190551757813,39.908396946564885,71.93893129770993,-25.34351145038168,-13.92467685546875,-0.82360537109375,1.714248388671875,-46.80916030534351,-26.641221374045802,15.618320610687023,0.0
12.600000619888306,-11.168950744628905,5.9974751586914055,1.956062756347656,27.786259541984734,68.3969465648855,-24.0,-13.883975427246092,0.23702596435546874,1.2521674682617188,-39.51145038167939,-34.12213740458015,10.564885496183207,0.0
12.610000610351562,-2.877830395507812,0.47644613037109373,-0.34715924072265625,34.35114503816794,63.06870229007634,-10.442748091603054,-13.122619299316405,0.3327940307617187,0.39743747558593745,-31.587786259541986,-42.6412213740458,5.9541984732824424,0.0
12.62000060081482,-2.8036101440429686,-2.73896669921875,-2.0925322509765625,77.5114503816794,93.72519083969466,-13.038167938931299,-12.04762275390625,0.105344873046875,0.9911994873046874,-31.19083969465649,-40.83969465648855,5.0534351145038165,0.0
12.630000591278076,-8.480262280273436,5.0182466796875,-0.2346317626953125,85.61832061068702,109.77099236641222,-25.908396946564885,-12.095506787109374,-1.4532804077148436,1.2880804931640624,-18.625954198473284,-40.88549618320611,1.8778625954198473,0.0
12.640000581741333,-9.210493786621093,7.826645227050781,-0.33758243408203126,65.66412213740458,104.94656488549619,-23.068702290076335,-12.490550061035156,-2.2002713256835937,2.1068974609374997,-3.8473282442748094,-47.9236641221374,0.04580152671755725,0.0
12.65000057220459,-11.949460485839843,8.729259252929687,0.928950244140625,45.12977099236641,107.7557251908397,-18.229007633587788,-11.324573852539062,-0.3399766357421875,1.5969325073242187,0.5038167938931297,-57.43511450381679,-4.625954198473282,0.0
12.660000801086426,-12.57674132080078,9.8449572265625,2.5905261962890624,-0.5038167938931297,98.12213740458016,-15.755725190839694,-11.066000073242186,2.375048046875,0.16998831787109375,-11.49618320610687,-57.41984732824427,-9.251908396946565,0.0
12.670000553131104,-10.855310327148437,7.201758593749999,2.8012159423828122,-39.847328244274806,82.30534351145039,-10.83969465648855,-9.188945971679686,3.4835634155273434,-1.0606313354492187,-29.053435114503817,-55.83206106870229,-8.977099236641221,0.0
12.68000078201294,-9.196128576660156,2.480392919921875,1.697488977050781,-55.29770992366412,73.43511450381679,-5.694656488549619,-10.613495959472656,1.3048399047851562,0.33039982910156246,-37.63358778625954,-45.87786259541985,-4.427480916030534,0.0
12.690000534057617,-7.510610607910156,-0.7589619262695312,1.2737152832031249,-48.82442748091603,70.33587786259542,-5.312977099236641,-9.866505041503906,0.39264907226562495,0.36152445068359373,-34.33587786259542,-48.99236641221374,-5.877862595419847,0.0
12.700000762939453,-9.512163195800781,0.13646949462890623,2.3343466186523436,-40.61068702290076,71.08396946564885,-9.099236641221374,-9.694122521972655,-0.19632453613281248,0.8212111694335937,-28.549618320610687,-49.83206106870229,-9.923664122137405,0.0
12.71000051498413,-10.292672937011718,-0.3687070556640625,2.5354595581054684,-34.778625954198475,68.8854961832061,-9.419847328244275,-12.224793676757812,-1.5490484741210937,2.2864625854492187,5.450381679389313,-54.595419847328245,-17.0381679389313,0.0
12.720000505447388,-8.360552197265624,-0.5315127685546874,1.9967641845703124,-18.229007633587788,67.5114503816794,-9.145038167938932,-9.89523546142578,0.5099649536132812,0.8786720092773437,9.389312977099237,-72.04580152671755,-25.84732824427481,0.0
12.730000495910645,-9.562441430664062,1.5562310791015623,2.5546131713867184,-19.099236641221374,67.6793893129771,-12.198473282442748,-8.71489404296875,2.1619640991210938,0.9959878906249999,-2.183206106870229,-63.86259541984733,-26.549618320610687,0.0
12.740000486373901,-12.299013928222655,3.2920272827148436,3.852270471191406,-36.717557251908396,63.87786259541985,-16.015267175572518,-9.3086560546875,0.7733271362304687,0.852335791015625,6.6106870229007635,-63.17557251908397,-22.580152671755727,0.0
12.750000715255737,-9.610325463867188,0.59376201171875,2.080561242675781,-41.45038167938932,53.221374045801525,-13.786259541984732,-8.808267907714843,2.7365724975585937,-0.5051765502929687,-2.1068702290076335,-68.80916030534351,-23.893129770992367,0.0
12.760000705718994,-8.748412866210938,-0.4261678955078125,2.3511060302734372,-27.00763358778626,56.42748091603053,-13.419847328244275,-7.295132458496093,2.6815058593749996,-1.1731588134765625,-18.763358778625953,-56.56488549618321,-23.129770992366414,0.0
12.770000696182251,-11.410765112304686,1.675941162109375,2.6719290527343746,-25.17557251908397,58.25954198473283,-19.34351145038168,-9.555258825683593,0.05027823486328125,0.40462008056640625,-11.938931297709924,-46.54961832061068,-18.259541984732824,0.0
12.780000686645508,-11.540052001953125,3.8857892944335934,3.0645781249999997,-38.25954198473283,46.87022900763359,-20.778625954198475,-8.971073620605468,0.10773907470703124,-0.55545478515625,-7.770992366412214,-51.404580152671755,-20.30534351145038,0.0
12.790000915527344,-9.504980590820312,1.8938135131835936,1.7453730102539062,-44.916030534351144,35.16030534351145,-13.145038167938932,-8.125920434570313,2.3535002319335936,-0.26815058593749996,-15.022900763358779,-41.38931297709924,-21.282442748091604,0.0
12.800000667572021,-13.991714501953124,4.335899206542969,2.9759926635742184,-53.38931297709924,34.229007633587784,-11.938931297709924,-9.720458740234374,0.7302315063476562,0.7900865478515624,-19.129770992366414,-27.389312977099237,-16.106870229007633,0.0
12.810000896453857,-10.342951171874999,0.6272808349609375,1.8243816650390623,-46.19847328244275,28.732824427480917,-5.358778625954199,-9.830592016601562,-0.3399766357421875,-0.00718260498046875,-4.9465648854961835,-31.236641221374047,-15.786259541984732,0.0
12.820000648498535,-9.662997900390625,-0.277727392578125,1.7884686401367187,-27.96946564885496,30.412213740458014,-3.1297709923664123,-9.710881933593749,-0.0143652099609375,1.1109095703125,7.282442748091603,-35.61832061068702,-15.541984732824428,0.0
12.830000877380371,-10.165780249023436,-0.3184288208007812,1.484405029296875,-19.709923664122137,29.404580152671755,-5.190839694656488,-9.095572106933593,0.25139117431640623,1.484405029296875,16.412213740458014,-35.64885496183206,-16.748091603053435,0.0
12.840000629425049,-10.979808813476561,1.199495031738281,2.04943662109375,-16.580152671755727,29.84732824427481,-8.122137404580153,-7.582436657714843,2.2457611572265623,0.22744915771484372,10.335877862595419,-36.94656488549618,-18.396946564885496,0.0
12.850000619888306,-8.63109698486328,0.8188169677734375,1.5298948608398437,-13.267175572519085,27.954198473282442,-7.7251908396946565,-7.618349682617187,2.0757728393554684,0.9074024291992187,-3.7099236641221376,-27.251908396946565,-15.511450381679388,0.0
12.860000610351562,-11.326968054199218,2.896984008789062,2.1308394775390624,-25.64885496183206,25.404580152671755,-10.274809160305344,-8.71489404296875,0.4213794921875,1.2018892333984375,-7.267175572519084,-20.885496183206108,-11.297709923664122,0.0
12.87000060081482,-11.793837377929687,3.4955344238281247,2.511517541503906,-37.3587786259542,21.022900763358777,-9.786259541984732,-9.792284790039062,0.3758896606445312,1.917755529785156,1.9083969465648856,-25.129770992366414,-9.34351145038168,0.0
12.880000591278076,-9.497797985839844,0.5458779785156249,1.209071838378906,-23.740458015267176,22.396946564885496,-4.244274809160306,-9.222464794921875,1.43652099609375,1.5227122558593749,0.0,-26.0,-10.488549618320612,0.0
12.890000581741333,-11.738770739746093,3.3877953491210935,2.6048914062499997,-24.870229007633586,27.114503816793892,-7.099236641221374,-9.126696728515624,1.3862427612304686,1.2306196533203124,-7.221374045801527,-21.328244274809162,-10.122137404580153,0.0
12.90000033378601,-13.218387365722656,5.377376928710937,3.3399113159179685,-44.213740458015266,20.83969465648855,-8.045801526717558,-9.631873278808593,1.0869675537109373,1.9416975463867185,-13.389312977099237,-16.412213740458014,-7.8320610687022905,0.0
12.910000324249268,-10.927136376953124,3.0334535034179684,1.8363526733398436,-54.595419847328245,10.931297709923664,0.6412213740458015,-9.05965908203125,0.41898529052734373,1.8363526733398436,-20.68702290076336,-14.977099236641221,-5.419847328244275,0.0
12.920000791549683,-8.801085302734375,0.13407529296874998,0.7493851196289062,-44.229007633587784,10.458015267175572,6.549618320610687,-8.774749084472656,-0.105344873046875,1.7621324218749999,-19.66412213740458,-17.954198473282442,-5.358778625954199,0.0
12.93000054359436,-9.95987890625,0.8499415893554687,2.212242333984375,-29.206106870229007,20.580152671755727,1.618320610687023,-9.368511096191405,-1.7214309936523438,2.896984008789062,-9.49618320610687,-20.16793893129771,-5.801526717557252,0.0
12.940000772476196,-11.034875451660156,1.180341418457031,2.0063409912109376,-32.62595419847328,15.786259541984732,-3.5572519083969465,-10.177751257324218,-2.5665841796874997,3.0071172851562498,5.312977099236641,-27.61832061068702,-8.122137404580153,0.0
12.950000524520874,-10.548852514648438,0.08140285644531249,1.1133037719726562,-24.671755725190838,13.954198473282442,-2.687022900763359,-10.067617980957031,-1.388636962890625,2.844311572265625,17.51145038167939,-35.770992366412216,-11.969465648854962,0.0
12.96000075340271,-9.160215551757812,-1.0319009155273438,1.3479355346679687,-7.465648854961832,21.51145038167939,-3.2519083969465647,-7.211335400390625,0.7852981445312499,1.6017209106445311,7.984732824427481,-38.06106870229008,-16.916030534351144,0.0
12.970000505447388,-9.404424121093749,1.0342951171875,1.2425906616210938,-8.610687022900763,23.19083969465649,-6.213740458015267,-8.271966735839843,0.46208092041015625,2.6623522460937497,-0.13740458015267176,-27.251908396946565,-14.488549618320612,0.0
12.980000257492065,-11.046846459960937,3.1699229980468746,2.281674182128906,-14.50381679389313,25.66412213740458,-9.19083969465649,-9.988609326171874,-0.7254431030273437,3.5410242553710933,2.7022900763358777,-26.015267175572518,-11.297709923664122,0.0
12.990000247955322,-10.726023437499999,2.942473840332031,1.8459294799804686,-27.572519083969464,19.16030534351145,-7.32824427480916,-9.718064538574218,0.21308394775390624,2.6623522460937497,5.923664122137405,-33.17557251908397,-12.427480916030534,0.0
13.000000476837158,-9.679757312011718,1.2114660400390624,1.2042834350585936,-26.045801526717558,16.259541984732824,-3.145038167938931,-9.303867651367186,0.565031591796875,1.8028338500976562,-0.015267175572519083,-35.404580152671755,-15.007633587786259,0.0
13.010000705718994,-9.188945971679686,0.622492431640625,1.177947216796875,-19.557251908396946,17.83206106870229,-1.83206106870229,-9.26316622314453,0.48123453369140623,1.6232687255859375,-6.442748091603053,-28.793893129770993,-14.564885496183207,0.0
13.020000457763672,-9.141061938476563,0.354341845703125,0.9864110839843749,-15.022900763358779,18.3206106870229,-2.7938931297709924,-6.988674645996094,1.7908628417968748,0.8283937744140625,-15.114503816793894,-28.229007633587788,-15.618320610687023,0.0
13.030000925064087,-9.811438403320311,0.06943184814453125,1.3958195678710936,-2.8091603053435112,24.68702290076336,-4.9465648854961835,-9.545682019042967,-1.2689268798828124,2.741360900878906,-16.427480916030536,-15.297709923664122,-10.061068702290076,0.0
13.040000677108765,-9.162609753417968,-0.2537853759765625,1.467645617675781,5.206106870229007,26.778625954198475,-7.358778625954199,-9.215282189941405,-1.6017209106445311,2.8850130004882812,-9.32824427480916,-19.17557251908397,-11.633587786259541,0.0
13.050000667572021,-10.670956799316405,1.4053963745117186,1.8746598999023436,6.015267175572519,26.259541984732824,-10.778625954198473,-9.04050546875,-1.4532804077148436,2.6719290527343746,-2.7786259541984735,-18.763358778625953,-13.969465648854962,0.0
13.060000658035278,-10.582371337890624,1.3096283081054687,1.5275006591796874,3.984732824427481,22.885496183206108,-8.763358778625955,-8.89924757080078,-1.2425906616210938,2.3965958618164063,3.053435114503817,-17.740458015267176,-16.061068702290076,0.0
13.070000648498535,-9.926360083007811,0.5865794067382812,1.0726023437499999,8.030534351145038,23.099236641221374,-6.67175572519084,-8.966285217285156,-1.180341418457031,2.43250888671875,9.007633587786259,-16.229007633587788,-16.259541984732824,0.0
13.080000638961792,-9.576806640625,1.158793603515625,1.024718310546875,9.145038167938932,23.31297709923664,-7.755725190839694,-8.889670764160156,-0.8834604125976562,2.4756045166015626,14.931297709923664,-15.358778625954198,-15.419847328244275,0.0
13.090000629425049,-9.859322436523437,1.6400281372070311,0.430956298828125,5.114503816793893,20.045801526717558,-8.488549618320612,-9.605537060546874,-1.0390835205078124,2.2385785522460937,24.65648854961832,-17.389312977099237,-14.961832061068701,0.0
13.100000619888306,-9.579200842285156,1.7525556152343749,0.8667010009765624,3.145038167938931,20.229007633587788,-8.67175572519084,-9.236830004882812,-0.1388636962890625,2.360682836914062,24.748091603053435,-16.12213740458015,-15.145038167938932,0.0
13.110000610351562,-8.86812294921875,0.26336218261718747,0.1867477294921875,1.1297709923664123,16.3206106870229,-5.694656488549619,-9.200916979980468,0.229843359375,2.6096798095703124,18.80916030534351,-10.885496183206106,-14.412213740458014,0.0
13.12000060081482,-10.369287390136718,2.212242333984375,1.1540052001953125,1.1908396946564885,18.442748091603054,-7.648854961832061,-6.957550024414062,0.9696516723632812,1.5442600708007812,12.51908396946565,-11.48091603053435,-15.236641221374045,0.0
13.130000591278076,-10.058041174316406,1.9393033447265624,0.8571241943359375,-3.5114503816793894,15.282442748091603,-7.343511450381679,-8.576030346679687,-0.2537853759765625,2.0877438476562498,12.412213740458014,-6.122137404580153,-13.083969465648854,0.0
13.140000343322754,-8.74601866455078,-0.25139117431640623,0.03591302490234375,4.977099236641221,15.603053435114504,-4.763358778625954,-8.652644799804687,-0.55545478515625,2.511517541503906,11.053435114503817,-2.366412213740458,-12.931297709923664,0.0
13.15000057220459,-10.335768566894531,1.6448165405273436,0.8379705810546875,4.732824427480916,19.541984732824428,-8.320610687022901,-8.336610180664062,-0.6057330200195312,2.3439234252929686,12.381679389312977,-0.8854961832061069,-14.305343511450381,0.0
13.160000324249268,-10.204087475585936,1.484405029296875,1.0438719238281249,-0.15267175572519084,16.458015267175572,-9.450381679389313,-8.355763793945313,-0.5817910034179687,2.250549560546875,15.358778625954198,0.9007633587786259,-14.854961832061068,0.0
13.170000553131104,-9.583989245605467,0.8547299926757812,0.6344634399414062,3.0229007633587788,14.961832061068701,-7.038167938931298,-8.374917407226562,-0.51714755859375,2.384624853515625,17.297709923664122,3.0076335877862594,-14.595419847328245,0.0
13.18000078201294,-9.746794958496093,0.7015010864257812,0.9576806640625,4.290076335877862,16.27480916030534,-8.01526717557252,-8.264784130859374,-0.4381389038085937,2.269703173828125,18.625954198473284,4.076335877862595,-14.961832061068701,0.0
13.190000534057617,-9.689334118652344,0.6560112548828124,1.2114660400390624,5.7251908396946565,16.12213740458015,-9.541984732824428,-8.2360537109375,-0.5147533569335937,2.300827795410156,19.709923664122137,6.488549618320611,-14.778625954198473,0.0
13.200000524520874,-10.022128149414062,0.6679822631835937,1.2808978881835937,6.213740458015267,14.381679389312977,-11.038167938931299,-8.204929089355469,-0.6536170532226562,2.4971523315429685,21.00763358778626,8.198473282442748,-14.183206106870228,0.0
13.210000276565552,-10.022128149414062,0.6344634399414062,1.695094775390625,9.19083969465649,13.664122137404581,-11.48091603053435,-8.8489693359375,-2.0781670410156248,3.2824504760742186,26.99236641221374,9.664122137404581,-13.389312977099237,0.0
13.220000267028809,-10.340556970214843,0.3902548706054687,1.838746875,11.786259541984732,12.061068702290076,-12.442748091603054,-9.320627062988281,-1.7286135986328124,2.8802245971679685,39.11450381679389,3.8625954198473282,-14.51908396946565,0.0
13.230000495910645,-9.892841259765625,0.35673604736328124,1.9895815795898437,18.564885496183205,10.13740458015267,-13.954198473282442,-8.212111694335936,-0.5913678100585937,2.5163059448242184,42.229007633587784,1.450381679389313,-16.625954198473284,0.0
13.240000486373901,-9.8449572265625,0.6679822631835937,1.9680337646484374,20.412213740458014,8.305343511450381,-15.267175572519085,-7.311891870117187,0.74699091796875,2.003946789550781,35.23664122137404,4.412213740458015,-17.633587786259543,0.0
13.250000476837158,-9.995791931152343,1.1276689819335937,2.2864625854492187,21.00763358778626,7.572519083969466,-16.47328244274809,-6.174646081542968,0.8714894042968749,1.254561669921875,25.099236641221374,8.458015267175572,-17.480916030534353,0.0
13.260000705718994,-10.180145458984374,1.3958195678710936,2.3678654418945313,18.16793893129771,4.3816793893129775,-16.83969465648855,-7.055712292480468,0.5770026000976562,1.4437036010742186,19.49618320610687,14.83969465648855,-14.0,0.0
13.270000696182251,-9.964667309570311,1.3000515014648437,2.7437551025390623,16.85496183206107,0.9923664122137404,-16.564885496183205,-7.721300354003906,0.40462008056640625,2.616862414550781,13.86259541984733,19.740458015267176,-13.17557251908397,0.0
13.280000686645508,-10.184933862304687,0.8786720092773437,2.9185318237304685,15.877862595419847,-2.183206106870229,-17.053435114503817,-8.214505895996094,-0.03591302490234375,3.2704794677734372,8.030534351145038,19.49618320610687,-13.114503816793894,0.0
13.290001153945923,-10.342951171874999,0.5698199951171875,3.2154128295898436,18.412213740458014,-6.183206106870229,-18.9618320610687,-6.421248852539062,1.7334020019531249,0.5386953735351562,1.1450381679389312,19.801526717557252,-14.992366412213741,0.0
13.300000429153442,-10.735600244140624,0.928950244140625,3.21780703125,20.259541984732824,-9.786259541984732,-19.938931297709924,-6.749254479980468,3.071760729980469,-0.5626373901367188,-7.038167938931298,33.32824427480916,-9.587786259541986,0.0
13.310000658035278,-10.450690246582031,1.2737152832031249,3.687070556640625,23.603053435114504,-12.83969465648855,-19.251908396946565,-7.9272016967773435,2.4013842651367185,-0.5746083984375,-16.38167938931298,45.465648854961835,-5.557251908396947,0.0
13.320000410079956,-10.771513269042968,1.22583125,3.8474820678710935,27.31297709923664,-17.52671755725191,-17.46564885496183,-9.057264880371093,1.426944189453125,0.5985504150390625,-17.64885496183206,51.48091603053435,-1.9694656488549618,0.0
13.330000877380371,-10.74517705078125,0.7829039428710937,4.259284753417968,33.25190839694657,-22.290076335877863,-14.473282442748092,-11.149797131347656,0.8643067993164062,2.588131994628906,-15.786259541984732,53.64885496183206,1.4198473282442747,0.0
13.34000039100647,-11.334150659179686,0.27293898925781246,4.673481640625,41.282442748091604,-27.053435114503817,-13.32824427480916,-12.291831323242187,-0.23702596435546874,4.273649963378906,-17.419847328244273,53.770992366412216,2.1526717557251906,0.0
13.350000619888306,-11.362881079101562,-0.8762778076171874,4.7572786987304685,51.954198473282446,-33.099236641221374,-13.19083969465649,-12.717999218749998,-2.6192566162109374,4.572925170898437,-5.297709923664122,45.41984732824427,0.6106870229007634,0.0
13.360000610351562,-11.314997045898437,-1.5945383056640625,5.063736511230468,66.4885496183206,-39.221374045801525,-16.290076335877863,-9.907206469726562,0.7781155395507812,1.9009961181640624,-0.2900763358778626,32.93129770992366,-4.320610687022901,0.0
13.37000060081482,-13.160926525878905,1.4820108276367188,6.713341455078124,65.78625954198473,-46.229007633587784,-22.3206106870229,-8.221688500976562,2.91134921875,0.7733271362304687,-18.35114503816794,40.16793893129771,-3.6030534351145036,0.0
13.380000591278076,-14.22395206298828,3.323151904296875,7.340622290039062,45.02290076335878,-65.22137404580153,-23.221374045801525,-10.78348427734375,-0.11731588134765625,2.3032219970703123,-23.31297709923664,45.83206106870229,7.114503816793893,0.0
13.390000343322754,-14.525621472167968,2.5641899780273434,8.125920434570313,29.69465648854962,-87.93893129770993,-17.541984732824428,-12.332532751464843,-1.6112977172851561,1.8459294799804686,-13.419847328244275,36.54961832061068,11.145038167938932,0.0
13.40000057220459,-14.956577770996093,1.4604630126953124,8.449137658691406,32.76335877862596,-104.99236641221374,-10.717557251908397,-9.713276135253906,-1.5466542724609373,0.5985504150390625,-4.015267175572519,25.404580152671755,5.66412213740458,0.0
13.410000562667847,-15.25824718017578,1.915361328125,8.726865051269531,33.66412213740458,-122.30534351145039,-6.137404580152672,-10.029310754394531,-1.9297265380859374,0.38786066894531246,9.267175572519085,22.83969465648855,2.030534351145038,0.0
13.420000791549683,-14.518438867187498,2.6192566162109374,7.809885815429687,33.31297709923664,-141.8320610687023,-3.7099236641221376,-7.805097412109374,0.28969840087890625,-0.9241618408203125,5.374045801526718,20.427480916030536,-2.33587786259542,0.0
13.430000305175781,-15.571887597656248,3.469198205566406,6.411672045898437,37.87786259541985,-157.3740458015267,0.16793893129770993,-9.121908325195312,1.5969325073242187,-0.35673604736328124,-15.603053435114504,37.05343511450382,1.297709923664122,0.0
13.440000772476196,-14.355633154296875,2.8850130004882812,4.872200378417968,37.282442748091604,-167.2824427480916,9.34351145038168,-8.664615808105468,0.047884033203124995,-1.0127473022460938,-28.427480916030536,44.74809160305343,6.0,0.0
13.450000524520874,-13.029245434570312,-0.09576806640624999,1.9488801513671874,32.30534351145038,-170.3053435114504,15.511450381679388,-11.010933435058593,-1.9895815795898437,-0.143652099609375,-25.480916030534353,52.48854961832061,11.221374045801527,0.0
13.46000075340271,-11.233594189453123,-4.000710974121094,1.2904746948242187,32.51908396946565,-169.81679389312978,16.870229007633586,-6.423643054199219,1.3335703247070312,-3.6727053466796873,-27.83206106870229,48.0763358778626,5.4961832061068705,0.0
13.470000505447388,-9.952696301269532,-5.212177014160156,1.388636962890625,39.38931297709924,-160.27480916030535,12.50381679389313,-9.840168823242188,1.0007762939453124,-1.2904746948242187,-41.221374045801525,70.54961832061069,11.786259541984732,0.0
13.480000495910645,-8.494627490234375,-5.626373901367187,-0.3327940307617187,39.74045801526717,-150.2290076335878,8.65648854961832,-8.695740429687499,2.482787121582031,-3.366247534179687,-47.63358778625954,70.47328244274809,17.16030534351145,0.0
13.490000486373901,-9.172186560058593,-3.047818713378906,0.055066638183593745,48.30534351145038,-136.7175572519084,3.2061068702290076,-10.184933862304687,0.5003881469726562,-0.7134720947265625,-72.82442748091603,94.10687022900764,26.045801526717558,0.0
13.500000476837158,-9.236830004882812,-1.3072341064453123,0.18914193115234373,54.091603053435115,-127.20610687022901,-0.8702290076335878,-8.36294639892578,-1.6807295654296874,-1.6615759521484375,-63.81679389312977,87.64885496183206,29.46564885496183,0.0
13.510000705718994,-9.516951599121093,0.5267243652343749,0.24181436767578124,57.31297709923664,-116.65648854961832,-3.3740458015267176,-11.614272253417967,-4.848258361816406,0.2537853759765625,-46.6412213740458,87.78625954198473,31.251908396946565,0.0
13.520000696182251,-8.595183959960938,-0.27293898925781246,-0.277727392578125,67.58778625954199,-107.45038167938931,1.083969465648855,-9.222464794921875,-5.104437939453125,-1.0079588989257813,-12.366412213740459,66.76335877862596,24.778625954198475,0.0
13.530000925064087,-9.658209497070311,0.584185205078125,0.16998831787109375,73.23664122137404,-92.91603053435115,2.2748091603053435,-11.238382592773437,-6.4092778442382805,0.28012159423828126,12.274809160305344,63.61832061068702,22.33587786259542,0.0
13.540000438690186,-10.512939489746094,2.001552587890625,0.3447650390625,61.969465648854964,-89.19083969465649,3.5267175572519083,-9.605537060546874,-5.142745166015625,-0.7278373046875,41.51145038167939,46.961832061068705,15.725190839694656,0.0
13.5500009059906,-11.082759484863281,3.758896606445312,1.7190367919921874,48.0,-85.61832061068702,7.908396946564886,-8.173804467773436,-1.9321207397460936,-1.6831237670898436,40.38167938931298,40.045801526717554,10.916030534351146,0.0
13.560000896453857,-10.378864196777343,3.4907460205078125,2.4133552734375,32.045801526717554,-84.3206106870229,15.083969465648854,-9.193734375,-2.039859814453125,-0.5195417602539062,38.778625954198475,42.47328244274809,11.389312977099237,0.0
13.570000648498535,-10.091559997558592,3.679887951660156,2.9640216552734375,17.61832061068702,-81.95419847328245,20.65648854961832,-8.82263311767578,-0.6631938598632812,-0.6464344482421874,50.54961832061068,33.81679389312977,9.725190839694656,0.0
13.580000638961792,-8.353369592285155,2.482787121582031,2.4013842651367185,7.129770992366412,-82.3969465648855,25.938931297709924,-10.275913525390624,0.45968671875,-0.14125789794921875,45.02290076335878,35.20610687022901,9.17557251908397,0.0
13.590000629425049,-7.570465649414062,2.176329309082031,2.365471240234375,0.8549618320610687,-78.3206106870229,29.51145038167939,-9.356540087890625,0.7230489013671875,-0.16041151123046873,37.81679389312977,36.42748091603053,10.045801526717558,0.0
13.600000619888306,-7.1035963256835934,2.422932080078125,2.5330653564453125,-11.908396946564885,-75.78625954198473,30.916030534351144,-8.8872765625,1.0438719238281249,-0.1484405029296875,25.603053435114504,40.961832061068705,13.32824427480916,0.0
13.610000610351562,-7.340622290039062,2.0446482177734375,2.4851813232421875,-17.72519083969466,-72.83969465648855,33.64885496183206,-9.3852705078125,0.201112939453125,-0.5770026000976562,29.954198473282442,34.68702290076336,15.32824427480916,0.0
13.62000036239624,-6.011840368652344,0.86191259765625,2.1835119140624997,-20.763358778625953,-69.20610687022901,36.045801526717554,-11.477802758789062,-0.06703764648437499,-0.009576806640625,17.908396946564885,40.47328244274809,17.709923664122137,0.0
13.630000591278076,-5.832275244140624,0.8283937744140625,2.3127988037109373,-20.290076335877863,-63.00763358778626,36.67175572519084,-9.437942944335937,0.59376201171875,-0.507570751953125,18.106870229007633,35.099236641221374,14.916030534351146,0.0
13.640000581741333,-5.3007624755859375,0.718260498046875,2.2457611572265623,-21.64885496183206,-56.54961832061068,36.01526717557252,-10.582371337890624,-1.7956512451171873,1.5251064575195312,18.198473282442748,38.88549618320611,17.740458015267176,0.0
13.65000057220459,-6.076483813476562,1.5849614990234373,2.8371289672851563,-25.17557251908397,-49.00763358778626,34.900763358778626,-8.437166650390624,-0.44053310546874996,0.43574470214843747,23.19083969465649,29.083969465648856,13.908396946564885,0.0
13.660000801086426,-5.05655390625,0.13646949462890623,1.7022773803710936,-28.68702290076336,-47.29770992366412,36.83969465648855,-11.109095703125,-0.7541735229492187,1.5969325073242187,21.114503816793892,29.81679389312977,13.954198473282442,0.0
13.670000314712524,-4.903325,0.44532150878906246,3.299209887695312,-23.480916030534353,-33.66412213740458,37.02290076335878,-9.370905297851563,-1.0295067138671874,-0.06464344482421874,24.076335877862597,18.870229007633586,10.030534351145038,0.0
13.68000054359436,-5.284003063964843,1.5370774658203123,3.366247534179687,-31.267175572519083,-30.290076335877863,33.57251908396947,-9.150638745117186,-0.296881005859375,0.51714755859375,19.206106870229007,19.328244274809162,9.419847328244275,0.0
13.690000295639038,-5.45877978515625,1.889025109863281,3.9935283691406247,-40.916030534351144,-28.38167938931298,33.038167938931295,-10.838550915527343,0.23223756103515625,1.199495031738281,20.48854961832061,19.404580152671755,9.618320610687023,0.0
13.700000762939453,-5.580884069824219,1.70467158203125,4.582501977539062,-54.25954198473283,-27.572519083969464,31.83206106870229,-8.647856396484375,2.4109610717773435,-1.254561669921875,1.282442748091603,14.625954198473282,7.847328244274809,0.0
13.71000051498413,-5.2433016357421875,0.93852705078125,4.797980126953124,-59.69465648854962,-25.00763358778626,31.786259541984734,-12.581529724121093,-0.7422025146484375,2.3343466186523436,-7.709923664122138,29.908396946564885,15.389312977099237,0.0
13.720000505447388,-5.063736511230468,-0.3327940307617187,4.666299035644531,-60.534351145038165,-22.80916030534351,31.328244274809162,-11.085153686523437,-2.9185318237304685,2.6503812377929687,13.541984732824428,16.03053435114504,16.35114503816794,0.0
13.730000734329224,-4.340687609863281,-1.5370774658203123,4.695029455566406,-45.9236641221374,-16.641221374045802,29.34351145038168,-10.206481677246094,-1.235408056640625,0.8571241943359375,18.549618320610687,6.076335877862595,12.488549618320612,0.0
13.740000247955322,-4.417302062988281,-0.8571241943359375,5.011064074707031,-32.458015267175576,-9.465648854961833,27.251908396946565,-11.465831750488281,-3.1076737548828124,3.19865341796875,23.786259541984734,9.053435114503817,11.450381679389313,0.0
13.750000238418579,-4.031835595703125,-0.28730419921875,5.722141967773437,-22.595419847328245,-3.6946564885496183,27.022900763358777,-10.137049829101562,-2.427720483398437,1.5035586425781249,37.16030534351145,-3.3740458015267176,8.442748091603054,0.0
13.760000705718994,-2.6048914062499997,-1.1611878051757811,5.432443566894531,-5.648854961832061,4.0458015267175576,28.259541984732824,-9.732429748535155,-1.1851298217773436,1.5777788940429687,26.061068702290076,-0.0,7.7251908396946565,0.0
13.770000457763672,-3.2537200561523436,0.6081272216796875,6.335057592773437,6.9465648854961835,14.122137404580153,28.30534351145038,-8.851363537597656,-1.0606313354492187,1.0031704956054688,24.931297709923665,-1.282442748091603,7.251908396946565,0.0
13.780000925064087,-5.906495495605468,4.297591979980469,7.704540942382812,-0.04580152671755725,17.938931297709924,25.419847328244273,-9.318232861328125,0.46686932373046874,0.105344873046875,15.34351145038168,0.44274809160305345,7.603053435114504,0.0
13.790001153945923,-4.582501977539062,2.825157958984375,7.187393383789062,-6.458015267175573,12.83969465648855,32.595419847328245,-10.002974536132811,0.584185205078125,1.0366893188476562,-4.198473282442748,12.442748091603054,11.709923664122137,0.0
13.800000667572021,-4.762067102050781,1.7932570434570312,7.692569934082031,6.351145038167939,23.6793893129771,39.80152671755725,-10.211270080566406,-0.1580173095703125,2.1739351074218747,-8.80916030534351,20.229007633587788,16.244274809160306,0.0
13.810000896453857,-4.766855505371093,1.6615759521484375,7.2903440551757805,9.664122137404581,25.221374045801525,39.43511450381679,-9.141061938476563,0.15083470458984374,1.5107412475585937,-14.885496183206106,15.801526717557252,16.33587786259542,0.0
13.820000648498535,-3.4452561889648434,-2.935291235351562,3.5003228271484375,14.564885496183207,25.801526717557252,41.14503816793893,-11.166556542968749,-0.0909796630859375,1.2593500732421874,-22.12213740458015,17.068702290076335,17.31297709923664,0.0
13.830000877380371,-5.504269616699219,-3.3111808959960936,0.9959878906249999,38.25954198473283,54.12213740458015,36.85496183206107,-10.977414611816405,-1.0821791503906248,1.6424223388671875,-26.82442748091603,14.580152671755725,19.52671755725191,0.0
13.840000629425049,-8.384494213867187,-2.408566870117187,-0.9864110839843749,45.69465648854962,65.92366412213741,26.442748091603054,-10.941501586914061,-0.14604630126953125,1.6208745239257811,-32.82442748091603,11.816793893129772,21.053435114503817,0.0
13.850000381469727,-12.164938635253906,1.0390835205078124,1.3072341064453123,50.68702290076336,78.56488549618321,17.72519083969466,-10.984597216796875,0.48123453369140623,1.3359645263671873,-47.770992366412216,11.664122137404581,23.404580152671755,0.0
13.860000848770142,-15.703568688964843,6.8210805297851556,6.904877587890625,29.404580152671755,74.45801526717557,13.19083969465649,-12.449848632812499,-1.3838485595703125,2.243366955566406,-51.43511450381679,10.961832061068701,26.68702290076336,0.0
13.87000036239624,-16.168043811035155,8.40843623046875,7.922413293457031,-8.717557251908397,62.88549618320611,18.931297709923665,-12.399570397949217,-1.8602946899414061,2.9448680419921875,-48.10687022900763,0.9618320610687023,26.290076335877863,0.0
13.880000352859497,-12.339715356445312,2.2290017456054687,4.948814831542968,-38.19847328244275,49.099236641221374,27.297709923664122,-14.597447521972656,-0.7134720947265625,2.085349645996094,-41.969465648854964,-9.954198473282442,21.587786259541986,0.0
13.890000343322754,-9.143456140136719,-1.1851298217773436,3.227383837890625,-43.86259541984733,44.58015267175573,23.740458015267176,-12.818555688476561,0.34237083740234375,2.1619640991210938,-43.969465648854964,-19.0381679389313,17.786259541984734,0.0
13.90000057220459,-5.49708701171875,-8.628702783203124,0.3806780639648437,-36.595419847328245,39.786259541984734,19.297709923664122,-13.474566943359374,0.8020575561523438,1.6831237670898436,-39.23664122137404,-26.106870229007633,15.801526717557252,0.0
13.910000562667847,-4.661510632324219,-9.02135185546875,1.8267758666992187,-1.1908396946564885,60.38167938931298,9.022900763358779,-13.295001818847656,1.924938134765625,1.446097802734375,-41.48091603053435,-30.427480916030536,16.290076335877863,0.0
13.920000791549683,-6.382941625976562,-6.268019946289062,1.7956512451171873,30.27480916030534,71.86259541984732,-5.175572519083969,-13.819331982421874,1.848323681640625,1.4628572143554686,-40.33587786259542,-34.412213740458014,16.916030534351144,0.0
13.930000305175781,-9.323021264648437,-2.2601263671875,2.403778466796875,49.954198473282446,81.2824427480916,-14.488549618320612,-13.68765089111328,2.3511060302734372,1.47482822265625,-40.656488549618324,-40.0763358778626,18.259541984732824,0.0
13.940000772476196,-9.732429748535155,-0.4381389038085937,1.6352397338867186,54.68702290076336,81.49618320610686,-17.587786259541986,-14.046781140136718,3.4548329956054684,1.5442600708007812,-47.25190839694657,-42.25954198473283,19.450381679389313,0.0
13.950000524520874,-11.077971081542968,3.0741549316406247,2.499546533203125,52.091603053435115,86.9618320610687,-20.82442748091603,-11.954248889160155,2.5139117431640625,0.45489831542968745,-53.908396946564885,-48.35114503816794,19.66412213740458,0.0
13.96000075340271,-9.605537060546874,4.335899206542969,2.750937707519531,37.969465648854964,81.40458015267176,-21.0381679389313,-12.919112158203124,0.6871358764648438,1.599326708984375,-45.31297709923664,-47.6793893129771,21.6793893129771,0.0
13.970000267028809,-9.600748657226562,3.921702319335937,2.0254946044921875,28.290076335877863,79.1145038167939,-18.885496183206108,-12.816161486816405,-0.3902548706054687,1.2808978881835937,-27.099236641221374,-59.541984732824424,18.396946564885496,0.0
13.980000495910645,-7.812280017089844,1.889025109863281,0.28730419921875,22.610687022900763,75.09923664122137,-17.251908396946565,-11.25514200439453,0.3112462158203125,0.8643067993164062,-27.49618320610687,-65.58778625954199,14.183206106870228,0.0
13.990000247955322,-7.6470801025390625,3.1387983764648437,0.6607996582031249,26.27480916030534,80.47328244274809,-16.03053435114504,-9.622296472167967,0.6919242797851562,-0.46208092041015625,-26.427480916030536,-67.29770992366412,11.083969465648854,0.0
14.000000476837158,-8.549694128417968,4.735730883789063,1.0749965454101562,17.541984732824428,80.68702290076335,-16.53435114503817,-11.29344923095703,-1.3239935180664062,0.5674257934570313,-19.251908396946565,-66.35114503816794,10.15267175572519,0.0
14.010000467300415,-9.330203869628905,5.437231970214843,1.7908628417968748,5.374045801526718,79.54198473282443,-14.076335877862595,-10.053252770996092,0.689530078125,-0.9888052856445312,-15.389312977099237,-72.3969465648855,4.778625954198473,0.0
14.020000457763672,-9.162609753417968,5.729324572753906,1.8411410766601561,-6.870229007633588,77.09923664122137,-10.65648854961832,-10.20169327392578,0.603338818359375,-0.39743747558593745,-23.053435114503817,-62.83969465648855,3.633587786259542,0.0
14.030000925064087,-9.79946739501953,4.7022120605468745,2.5617957763671875,-18.778625954198475,74.47328244274809,-8.076335877862595,-10.141838232421874,-1.1180921752929687,-0.4381389038085937,-14.01526717557252,-61.14503816793893,2.900763358778626,0.0
14.040000438690186,-10.314220751953124,4.721365673828124,2.712630480957031,-26.442748091603054,71.6793893129771,-7.694656488549619,-9.727641345214844,-0.622492431640625,-0.7733271362304687,-6.229007633587786,-63.11450381679389,-0.732824427480916,0.0
14.05000114440918,-9.267954626464844,3.399766357421875,2.384624853515625,-34.229007633587784,64.16793893129771,-5.312977099236641,-8.846575134277343,1.6424223388671875,-1.649604943847656,-12.122137404580153,-60.18320610687023,-5.022900763358779,0.0
14.060000658035278,-8.456320263671875,1.5059528442382812,2.8850130004882812,-32.82442748091603,61.083969465648856,-3.145038167938931,-9.428366137695312,0.6679822631835937,-1.2282254516601563,-14.717557251908397,-50.030534351145036,-4.534351145038168,0.0
14.070000886917114,-8.971073620605468,1.4987702392578124,3.383006945800781,-25.64885496183206,62.778625954198475,-6.061068702290076,-10.771513269042968,-1.3958195678710936,0.4955997436523437,-1.9694656488549618,-45.83206106870229,-4.213740458015267,0.0
14.080000638961792,-9.440337145996093,1.697488977050781,2.987963671875,-27.923664122137403,54.01526717557252,-8.946564885496183,-9.854534033203125,-0.9145850341796874,0.1771709228515625,10.564885496183207,-51.48091603053435,-11.877862595419847,0.0
14.09000039100647,-10.108319409179687,1.5203180541992187,3.1675287963867187,-25.984732824427482,52.50381679389313,-9.007633587786259,-8.590395556640624,2.0087351928710935,-0.97683427734375,7.770992366412214,-51.83206106870229,-18.580152671755727,0.0
14.100000619888306,-9.7683427734375,1.0917559570312498,2.4660277099609376,-21.740458015267176,49.51145038167939,-8.076335877862595,-6.68461103515625,2.849099975585937,-2.133233679199219,-6.488549618320611,-43.51145038167939,-19.404580152671755,0.0
14.110000610351562,-11.662156286621093,3.842693664550781,4.601655590820312,-18.198473282442748,53.74045801526717,-13.435114503816793,-9.567229833984374,0.8595183959960937,-0.062249243164062495,-4.916030534351145,-25.450381679389313,-13.267175572519085,0.0
14.12000060081482,-13.601459631347655,4.829104748535156,3.883395092773437,-37.541984732824424,40.48854961832061,-16.198473282442748,-8.487444885253906,-0.19632453613281248,-0.46686932373046874,0.9618320610687023,-29.603053435114504,-14.82442748091603,0.0
14.130000591278076,-10.678139404296875,0.8164227661132812,2.0877438476562498,-36.10687022900763,31.236641221374047,-9.297709923664122,-8.767566479492187,0.7661445312499999,-0.2346317626953125,10.442748091603054,-31.16030534351145,-17.709923664122137,0.0
14.140000820159912,-11.405976708984374,-0.06943184814453125,2.3439234252929686,-20.519083969465647,33.541984732824424,-7.1603053435114505,-9.3086560546875,1.8459294799804686,0.00718260498046875,10.259541984732824,-26.18320610687023,-19.374045801526716,0.0
14.15000033378601,-10.120290417480469,0.37828386230468747,2.360682836914062,-7.877862595419847,34.35114503816794,-9.511450381679388,-8.418013037109375,2.231395947265625,-0.7015010864257812,4.183206106870229,-22.83969465648855,-20.53435114503817,0.0
14.160000801086426,-9.660603698730467,0.8906430175781249,2.250549560546875,-1.3893129770992367,33.51145038167939,-10.427480916030534,-7.994239343261718,3.268085266113281,-1.4508862060546874,-7.022900763358779,-15.251908396946565,-19.66412213740458,0.0
14.170000553131104,-10.955866796875,2.8131869506835936,2.3822306518554686,-5.893129770992366,31.328244274809162,-11.297709923664122,-8.623914379882812,1.4987702392578124,0.46686932373046874,-14.778625954198473,-1.2061068702290076,-14.702290076335878,0.0
14.18000054359436,-10.517727893066406,2.0566192260742184,1.5586252807617187,-12.595419847328245,27.46564885496183,-10.229007633587786,-9.22485899658203,0.6584054565429687,0.7326257080078125,-5.099236641221374,-1.3129770992366412,-12.564885496183207,0.0
14.190000295639038,-9.789890588378906,1.4221557861328125,1.369483349609375,-9.541984732824428,27.572519083969464,-8.977099236641221,-8.975862023925782,0.9313444458007812,1.0438719238281249,-1.2061068702290076,-4.076335877862595,-12.534351145038167,0.0
14.200000524520874,-12.282254516601562,4.4819455078125,2.9544448486328125,-19.282442748091604,28.30534351145038,-11.16030534351145,-9.287108239746093,0.4908113403320312,1.5083470458984374,1.3282442748091603,-2.717557251908397,-12.717557251908397,0.0
14.21000051498413,-10.541669909667968,2.779668127441406,2.2768857788085937,-30.65648854961832,19.16030534351145,-7.786259541984733,-9.629479077148437,-0.5051765502929687,1.9512743530273435,4.33587786259542,-4.351145038167939,-13.297709923664122,0.0
14.220000505447388,-8.839392529296875,-1.0438719238281249,0.45489831542968745,-19.633587786259543,17.0381679389313,-1.5267175572519085,-9.710881933593749,-1.4700398193359374,2.6384102294921874,13.954198473282442,-10.732824427480915,-12.946564885496183,0.0
14.230000495910645,-9.981426721191406,0.51714755859375,2.1452046874999997,-1.83206106870229,30.213740458015266,-6.717557251908397,-10.268730920410155,-1.9871873779296874,3.0454245117187497,29.52671755725191,-18.198473282442748,-13.49618320610687,0.0
14.240000486373901,-11.068394274902342,3.1028853515624997,2.3726538452148436,-6.229007633587786,28.870229007633586,-12.320610687022901,-9.514557397460937,-1.1180921752929687,1.93451494140625,39.93893129770992,-31.16030534351145,-17.251908396946565,0.0
14.250000476837158,-11.362881079101562,3.8091748413085935,2.300827795410156,-21.61832061068702,21.46564885496183,-10.717557251908397,-8.406042028808594,2.042254016113281,0.8930372192382812,31.923664122137403,-35.52671755725191,-20.442748091603054,0.0
14.260000705718994,-10.424354028320312,2.4779987182617185,2.3822306518554686,-25.923664122137403,21.450381679389313,-7.358778625954199,-8.353369592285155,2.5258827514648434,0.7038952880859375,10.82442748091603,-26.38167938931298,-18.80916030534351,0.0
14.270000696182251,-10.165780249023436,1.6519991455078125,2.6144682128906247,-23.84732824427481,24.763358778625953,-7.221374045801527,-10.022128149414062,0.16041151123046873,1.7453730102539062,8.183206106870228,-25.419847328244273,-15.19083969465649,0.0
14.280000686645508,-10.13226142578125,2.398990063476562,2.798821740722656,-25.16030534351145,23.984732824427482,-9.251908396946565,-10.115502014160155,-0.11013327636718749,2.3223756103515623,12.885496183206106,-32.229007633587784,-15.465648854961833,0.0
14.290000438690186,-9.97184991455078,2.626439221191406,1.8722656982421875,-33.38931297709924,14.51908396946565,-6.244274809160306,-9.93354268798828,1.3383587280273437,1.9105729248046874,7.282442748091603,-34.68702290076336,-17.633587786259543,0.0
14.300000429153442,-8.659827404785156,1.2425906616210938,1.216254443359375,-33.16030534351145,12.229007633587786,-1.3740458015267176,-8.987833032226561,1.0989385620117187,1.9009961181640624,-3.5877862595419847,-29.46564885496183,-16.80916030534351,0.0
14.310000896453857,-8.772354882812499,0.45968671875,1.4628572143554686,-31.46564885496183,13.404580152671755,-0.366412213740458,-9.085995300292968,-0.8116343627929687,1.7310078002929687,-2.9923664122137406,-28.85496183206107,-15.19083969465649,0.0
14.320000410079956,-8.767566479492187,-0.26336218261718747,1.8555062866210936,-16.35114503816794,20.259541984732824,-3.4656488549618323,-9.574412438964844,-1.5466542724609373,2.844311572265625,9.267175572519085,-33.465648854961835,-15.236641221374045,0.0
14.330000877380371,-9.234435803222656,0.4477157104492187,1.7932570434570312,-12.442748091603054,19.64885496183206,-7.236641221374046,-10.014945544433592,-0.6200982299804687,2.5570073730468748,19.435114503816795,-39.908396946564885,-18.885496183206108,0.0
14.340000629425049,-9.361328491210937,1.8555062866210936,2.0254946044921875,-9.145038167938932,19.389312977099237,-8.488549618320612,-7.223306408691406,1.1252747802734375,1.0726023437499999,10.244274809160306,-41.083969465648856,-24.03053435114504,0.0
14.350000619888306,-10.55364091796875,3.327940307617187,2.114080065917969,-20.03053435114504,16.931297709923665,-6.854961832061068,-7.613561279296874,0.5363011718749999,1.438915197753906,-0.9770992366412213,-32.93129770992366,-23.114503816793892,0.0
14.360000371932983,-10.096348400878906,2.3151930053710936,2.0925322509765625,-26.778625954198475,14.183206106870228,-2.885496183206107,-8.44674345703125,-0.373495458984375,1.5251064575195312,-1.2061068702290076,-32.06106870229008,-20.763358778625953,0.0
14.37000060081482,-9.425971936035156,1.0893617553710937,1.85790048828125,-25.19083969465649,13.419847328244275,-0.9465648854961832,-8.999804040527343,-1.1252747802734375,2.540247961425781,2.9770992366412212,-32.396946564885496,-19.51145038167939,0.0
14.380000591278076,-8.585607153320312,-1.0773907470703123,1.209071838378906,-14.50381679389313,14.106870229007633,-0.21374045801526717,-9.943119494628906,-0.5147533569335937,3.4668040039062498,9.358778625954198,-32.2442748091603,-19.603053435114504,0.0
14.390000820159912,-8.319850769042969,-0.6871358764648438,1.0869675537109373,0.6564885496183206,20.061068702290076,-3.5114503816793894,-8.377311608886718,0.7445967163085937,1.9201497314453124,6.519083969465649,-33.89312977099237,-22.748091603053435,0.0
14.40000033378601,-9.756371765136718,1.1516109985351561,2.288856787109375,3.145038167938931,25.374045801526716,-8.412213740458014,-6.430825659179687,2.7437551025390623,1.5179238525390624,-9.908396946564885,-25.46564885496183,-23.893129770992367,0.0
14.410000324249268,-8.973467822265624,1.5346832641601562,1.6400281372070311,0.13740458015267176,21.52671755725191,-7.129770992366412,-9.358934289550781,-0.55545478515625,2.942473840332031,-11.816793893129772,-14.610687022900763,-17.068702290076335,0.0
14.420001029968262,-9.411606726074218,1.369483349609375,1.9991583862304687,-0.8396946564885496,22.213740458015266,-7.038167938931298,-8.798691101074219,-0.055066638183593745,2.8203695556640622,-7.00763358778626,-20.091603053435115,-16.30534351145038,0.0
14.43000054359436,-9.418789331054686,1.5921441040039062,1.675941162109375,-1.6793893129770991,20.12213740458015,-6.595419847328245,-9.02135185546875,-0.10295067138671875,2.5330653564453125,-1.1297709923664123,-20.259541984732824,-16.549618320610687,0.0
14.440000772476196,-9.313444458007812,1.0103531005859374,0.8355763793945312,0.2900763358778626,18.671755725190838,-4.396946564885496,-9.184157568359375,-0.39983167724609375,2.7748797241210936,1.1603053435114503,-17.83206106870229,-15.801526717557252,0.0
14.450000524520874,-10.046070166015625,1.189918225097656,0.9576806640625,2.16793893129771,21.450381679389313,-5.541984732824427,-8.2360537109375,0.0909796630859375,2.300827795410156,2.8702290076335877,-18.12213740458015,-16.015267175572518,0.0
14.46000075340271,-9.816226806640625,1.8052280517578123,1.467645617675781,0.8244274809160306,22.549618320610687,-7.4961832061068705,-8.494627490234375,-0.11013327636718749,2.0302830078125,5.404580152671755,-16.564885496183205,-15.083969465648854,0.0
14.470000743865967,-9.770736975097655,1.350329736328125,0.6823474731445313,0.3816793893129771,20.80916030534351,-7.358778625954199,-8.889670764160156,-0.49320554199218747,2.4444798950195312,7.465648854961832,-13.969465648854962,-14.091603053435115,0.0
14.480000495910645,-9.253589416503905,1.1252747802734375,1.1133037719726562,1.9694656488549618,23.755725190839694,-8.946564885496183,-8.757989672851561,-0.47644613037109373,2.39420166015625,8.549618320610687,-12.702290076335878,-13.893129770992367,0.0
14.490000486373901,-10.448296044921875,1.936909143066406,0.9504980590820312,-1.8015267175572518,20.213740458015266,-9.786259541984732,-8.391676818847655,-0.5219359619140624,2.4205378784179685,9.068702290076336,-11.48091603053435,-13.923664122137405,0.0
14.500000476837158,-10.374075793457031,1.8171990600585937,1.0462661254882812,-7.526717557251908,17.053435114503817,-9.16030534351145,-9.943119494628906,-0.9648632690429687,2.8227637573242186,12.763358778625955,-7.9541984732824424,-12.595419847328245,0.0
14.510000705718994,-10.62307276611328,2.068590234375,1.5562310791015623,-6.320610687022901,19.17557251908397,-8.01526717557252,-8.192958081054687,-0.0383072265625,2.2290017456054687,13.664122137404581,-10.183206106870228,-13.755725190839694,0.0
14.520000696182251,-9.2320416015625,0.8858546142578124,1.2210428466796874,-1.1145038167938932,19.770992366412212,-7.3893129770992365,-7.7787611938476555,0.3854664672851562,1.93451494140625,10.977099236641221,-7.923664122137405,-13.816793893129772,0.0
14.530000925064087,-9.09796630859375,0.42377369384765623,0.9121908325195311,-4.015267175572519,17.69465648854962,-8.412213740458014,-8.434772448730468,-0.24181436767578124,2.142810485839844,12.366412213740459,-4.564885496183206,-12.992366412213741,0.0
14.540000677108765,-9.957484704589843,0.6703764648437499,1.24498486328125,-0.7175572519083969,19.862595419847327,-10.961832061068701,-8.590395556640624,-0.4381389038085937,2.370259643554687,13.557251908396946,-2.4580152671755724,-11.938931297709924,0.0
14.5500009059906,-8.911218579101561,0.03591302490234375,0.6440402465820312,7.709923664122138,20.99236641221374,-12.061068702290076,-8.305485559082031,-0.3447650390625,2.1691467041015624,15.84732824427481,-1.5267175572519085,-12.183206106870228,0.0
14.5600004196167,-9.126696728515624,1.3072341064453123,1.6543933471679686,7.816793893129771,23.00763358778626,-14.488549618320612,-8.298302954101562,-0.3016694091796875,2.068590234375,17.923664122137403,0.10687022900763359,-12.534351145038167,0.0
14.570000886917114,-10.17056865234375,1.4341267944335936,2.1739351074218747,7.343511450381679,22.885496183206108,-15.022900763358779,-8.267178332519531,-0.1867477294921875,2.0278888061523435,19.022900763358777,2.1374045801526718,-12.610687022900763,0.0
14.580000638961792,-10.805032092285156,1.2737152832031249,2.3965958618164063,9.816793893129772,21.938931297709924,-14.13740458015267,-8.142679846191406,0.0047884033203125,1.7717092285156248,19.129770992366414,4.534351145038168,-12.366412213740459,0.0
14.590000629425049,-9.746794958496093,1.0797849487304687,1.6017209106445311,10.641221374045802,18.519083969465647,-13.603053435114504,-8.02536396484375,-0.02154781494140625,1.6807295654296874,19.404580152671755,7.129770992366412,-12.274809160305344,0.0
14.600000381469727,-10.034099157714843,1.838746875,1.8028338500976562,10.870229007633588,17.480916030534353,-13.648854961832061,-8.02536396484375,-0.08379705810546874,1.5969325073242187,19.022900763358777,9.84732824427481,-11.404580152671755,0.0
14.610000610351562,-10.893617553710937,3.1364041748046874,2.4684219116210935,6.473282442748092,15.877862595419847,-13.511450381679388,-7.991845141601562,-0.12449848632812499,1.4915876342773438,19.938931297709924,11.893129770992367,-11.053435114503817,0.0
14.62000036239624,-10.062829577636718,1.4867992309570313,1.9728221679687499,4.458015267175573,10.335877862595419,-10.473282442748092,-7.7596075805664055,0.2442085693359375,1.2856862915039062,19.19083969465649,13.648854961832061,-11.022900763358779,0.0
14.630000591278076,-9.119514123535156,0.9313444458007812,1.93451494140625,6.916030534351145,9.389312977099237,-9.84732824427481,-7.857769848632812,-0.05027823486328125,1.3551181396484375,18.65648854961832,17.389312977099237,-10.702290076335878,0.0
14.640000581741333,-9.6151138671875,0.9121908325195311,2.1691467041015624,7.236641221374046,10.061068702290076,-13.206106870229007,-7.671022119140624,-0.086191259765625,1.2952630981445312,19.022900763358777,21.053435114503817,-10.381679389312977,0.0
14.65000033378601,-9.911994873046874,1.1252747802734375,2.1021090576171875,6.244274809160306,7.740458015267175,-15.541984732824428,-7.141903552246093,0.3447650390625,0.842758984375,18.885496183206108,23.053435114503817,-10.580152671755725,0.0
14.660001039505005,-10.120290417480469,1.3192051147460937,2.4301146850585935,5.221374045801527,5.694656488549619,-16.916030534351144,-6.845022546386718,1.879448303222656,0.0526724365234375,15.465648854961833,25.862595419847327,-11.465648854961833,0.0
14.670000553131104,-10.01733974609375,1.5658078857421873,2.693476867675781,4.5038167938931295,4.015267175572519,-17.893129770992367,-6.885723974609375,1.5897499023437498,0.3687070556640625,0.33587786259541985,34.3206106870229,-9.816793893129772,0.0
14.68000078201294,-10.723629235839843,1.6735469604492186,3.383006945800781,0.7480916030534351,0.030534351145038167,-18.106870229007633,-8.79150849609375,0.33518823242187495,0.34715924072265625,-0.8396946564885496,42.916030534351144,-6.885496183206107,0.0
14.690000534057617,-10.606313354492187,1.5562310791015623,3.907337109375,-0.12213740458015267,-4.580152671755725,-18.259541984732824,-8.02536396484375,3.746925598144531,-0.19632453613281248,-8.992366412213741,42.0,-10.290076335877863,0.0
14.700001001358032,-10.160991845703125,1.8411410766601561,4.376600634765625,2.1068702290076335,-8.931297709923664,-18.38167938931298,-6.191405493164062,6.418854650878906,-1.426944189453125,-46.12213740458015,56.396946564885496,-10.748091603053435,0.0
14.71000051498413,-10.275913525390624,2.384624853515625,5.046977099609375,-0.5190839694656488,-14.488549618320612,-16.702290076335878,-10.924742175292968,2.4756045166015626,1.484405029296875,-66.50381679389314,79.66412213740458,0.3511450381679389,0.0
14.720000505447388,-10.613495959472656,1.678335363769531,5.798756420898437,-1.7557251908396947,-22.610687022900763,-15.358778625954198,-14.425065002441405,-0.9624690673828125,4.012681982421875,-62.76335877862596,78.21374045801527,8.01526717557252,0.0
14.730000495910645,-11.121066711425781,0.181959326171875,6.007051965332031,11.114503816793894,-30.916030534351144,-14.259541984732824,-14.891934326171874,-1.9871873779296874,4.9416322265625,-53.20610687022901,67.34351145038168,4.595419847328245,0.0
14.740000486373901,-10.838550915527343,-1.5346832641601562,5.758054992675781,35.343511450381676,-38.99236641221374,-13.755725190839694,-15.524003564453125,-4.551377355957031,6.050147595214844,-23.923664122137403,54.030534351145036,2.030534351145038,0.0
14.750000238418579,-11.8369330078125,-1.3263877197265623,6.179434484863281,55.14503816793893,-44.44274809160305,-16.82442748091603,-10.421959826660157,-0.7948749511718749,2.5761609863281247,-4.198473282442748,33.17557251908397,-0.6870229007633588,0.0
14.760000705718994,-12.004527124023436,-1.4221557861328125,5.556942053222656,73.96946564885496,-53.81679389312977,-19.251908396946565,-7.697358337402343,2.2074539306640624,0.16041151123046873,-7.6183206106870225,30.870229007633586,0.8702290076335878,0.0
14.770000696182251,-13.893552233886718,1.4604630126953124,6.2392895263671875,73.55725190839695,-66.21374045801527,-18.85496183206107,-8.003816149902343,1.0965443603515623,0.19153613281249998,-17.053435114503817,37.969465648854964,7.267175572519084,0.0
14.780000686645508,-13.874398620605469,3.1962592163085937,6.234501123046875,62.656488549618324,-80.94656488549619,-14.946564885496183,-7.611167077636718,0.5530605834960938,-0.3758896606445312,-26.03053435114504,39.19083969465649,10.564885496183207,0.0
