timestamp,Thigh_L_Acc_X,Thigh_L_Acc_Y,Thigh_L_Acc_Z,Thigh_L_Gyr_X,Thigh_L_Gyr_Y,Thigh_L_Gyr_Z,Thigh_R_Acc_X,Thigh_R_Acc_Y,Thigh_R_Acc_Z,Thigh_R_Gyr_X,Thigh_R_Gyr_Y,Thigh_R_Gyr_Z,gpio_output
10.000000476837158,-10.43871923828125,0.076614453125,2.2840683837890623,-1.6030534351145038,36.458015267175576,-7.755725190839694,-8.394071020507813,3.172317199707031,1.5897499023437498,-3.1908396946564888,18.03053435114504,9.618320610687023,0.0
10.010000467300415,-9.026140258789061,0.9409212524414062,2.0183119995117185,3.2977099236641223,30.763358778625953,-7.32824427480916,-8.530540515136718,2.6719290527343746,1.5634136840820312,-11.083969465648854,18.595419847328245,12.885496183206106,1.0
10.02000093460083,-9.512163195800781,1.8267758666992187,1.9009961181640624,-2.717557251908397,23.908396946564885,-6.137404580152672,-9.153032946777342,2.3391350219726563,1.3646949462890625,-18.045801526717558,17.603053435114504,15.786259541984732,1.0
10.030000686645508,-10.220846887207031,2.1715409057617188,2.789244934082031,1.0381679389312977,26.045801526717558,-5.709923664122138,-9.150638745117186,1.7094599853515624,1.7334020019531249,-24.580152671755727,17.251908396946565,18.549618320610687,1.0
10.040000677108765,-9.504980590820312,1.915361328125,2.142810485839844,-3.984732824427481,18.35114503816794,-2.7938931297709924,-9.782707983398437,1.2497732666015624,1.6735469604492186,-28.65648854961832,15.32824427480916,19.83206106870229,1.0
10.050000429153442,-9.813832604980469,1.6831237670898436,2.1643583007812497,0.16793893129770993,17.801526717557252,-0.21374045801526717,-9.842563024902343,0.41419688720703124,1.6017209106445311,-33.221374045801525,13.236641221374045,20.33587786259542,1.0
10.060000896453857,-10.070012182617187,2.549824768066406,2.147598889160156,-0.8396946564885496,15.84732824427481,-0.015267175572519083,-10.268730920410155,-0.086191259765625,1.5370774658203123,-34.42748091603053,10.931297709923664,19.19083969465649,1.0
10.070000648498535,-9.727641345214844,2.422932080078125,1.9129671264648436,-2.5343511450381677,13.786259541984732,0.8702290076335878,-10.115502014160155,-0.6536170532226562,1.3096283081054687,-35.083969465648856,7.526717557251908,17.068702290076335,1.0
10.080000400543213,-10.386046801757812,2.9568390502929685,1.8219874633789062,-7.572519083969466,12.748091603053435,2.3969465648854964,-10.35492218017578,-1.1516109985351561,1.3479355346679687,-34.06106870229008,4.488549618320611,14.412213740458014,1.0
10.090000629425049,-9.706093530273437,3.0262708984374997,1.0319009155273438,-12.50381679389313,12.106870229007633,3.068702290076336,-10.409988818359375,-1.5586252807617187,1.2425906616210938,-33.770992366412216,1.6946564885496183,10.458015267175572,1.0
10.100000619888306,-9.536105212402344,3.066972326660156,0.6967126831054687,-20.763358778625953,11.572519083969466,3.5267175572519083,-10.807426293945312,-1.924938134765625,1.350329736328125,-31.786259541984734,-1.6030534351145038,6.122137404580153,1.0
10.110000610351562,-9.528922607421874,3.0885201416015624,0.46686932373046874,-28.396946564885496,12.534351145038167,3.6793893129770994,-10.967837805175781,-1.8555062866210936,1.3407529296874998,-29.46564885496183,-4.977099236641221,2.3969465648854964,1.0
10.12000036239624,-9.967061511230469,3.366247534179687,0.40462008056640625,-36.99236641221374,13.053435114503817,5.083969465648855,-11.135431921386719,-1.7262193969726563,1.5634136840820312,-26.259541984732824,-8.01526717557252,-0.6564885496183206,1.0
10.130000352859497,-10.01015714111328,3.1076737548828124,0.5267243652343749,-41.63358778625954,15.450381679389313,6.183206106870229,-11.085153686523437,-2.039859814453125,1.9297265380859374,-20.977099236641223,-11.83206106870229,-3.068702290076336,1.0
10.140000581741333,-10.517727893066406,2.4899697265625,0.8116343627929687,-46.67175572519084,15.389312977099237,8.0,-10.761936462402343,-3.5098996337890624,2.4660277099609376,-7.694656488549619,-17.374045801526716,-5.7251908396946565,1.0
10.150001049041748,-9.873687646484374,1.465251416015625,0.7350199096679687,-45.587786259541986,15.17557251908397,8.717557251908397,-11.860875024414062,-2.770091320800781,3.0645781249999997,11.465648854961833,-24.549618320610687,-8.51908396946565,1.0
10.160000324249268,-9.890447058105469,1.1923124267578125,0.9792284790039062,-45.02290076335878,15.755725190839694,8.045801526717558,-11.027692846679686,-1.22583125,2.5163059448242184,19.84732824427481,-33.23664122137404,-12.50381679389313,1.0
10.170000791549683,-9.284714038085937,0.8116343627929687,0.852335791015625,-42.42748091603053,16.50381679389313,6.977099236641221,-9.794678991699218,0.7541735229492187,2.2170307373046874,13.648854961832061,-36.732824427480914,-16.045801526717558,1.0
10.180000305175781,-10.386046801757812,2.360682836914062,1.5705962890624998,-48.33587786259542,17.740458015267176,5.190839694656488,-9.773131176757811,1.0510545288085937,2.2840683837890623,1.8473282442748091,-33.267175572519086,-13.893129770992367,1.0
10.190000772476196,-11.183315954589844,3.864241479492187,2.0973206542968748,-59.55725190839695,13.633587786259541,5.267175572519084,-10.0748005859375,0.27293898925781246,3.0334535034179684,0.7022900763358778,-32.732824427480914,-11.389312977099237,1.0
10.200000286102295,-11.9135474609375,2.7461493041992187,2.0877438476562498,-69.20610687022901,8.732824427480915,7.374045801526718,-10.292672937011718,0.8858546142578124,2.446874096679687,-0.12213740458015267,-35.87786259541985,-11.740458015267176,1.0
10.21000051498413,-9.935936889648437,0.8116343627929687,0.45010991210937495,-66.73282442748092,0.6717557251908397,12.259541984732824,-9.145850341796875,1.9512743530273435,2.540247961425781,-10.061068702290076,-33.74045801526717,-12.534351145038167,0.0
10.220000505447388,-11.5304751953125,0.040701428222656245,1.5825672973632812,-63.89312977099237,5.221374045801527,10.564885496183207,-9.749189160156249,1.1276689819335937,2.85388837890625,-15.648854961832061,-27.893129770992367,-9.770992366412214,0.0
10.230000495910645,-9.382876306152344,-0.7924807495117187,0.8164227661132812,-53.80152671755725,2.4885496183206106,10.51908396946565,-10.292672937011718,-0.6919242797851562,2.7940333374023436,-10.778625954198473,-30.47328244274809,-8.442748091603054,0.0
10.240000486373901,-10.443507641601562,-1.47482822265625,1.01514150390625,-42.412213740458014,4.091603053435114,7.7251908396946565,-9.555258825683593,-0.086191259765625,3.172317199707031,-6.595419847328245,-34.80916030534351,-10.045801526717558,0.0
10.250000476837158,-9.41639512939453,-1.2330138549804688,0.22744915771484372,-31.404580152671755,3.282442748091603,6.473282442748092,-9.433154541015625,1.0941501586914062,2.7916391357421872,-10.900763358778626,-34.534351145038165,-10.977099236641221,0.0
10.260001182556152,-9.859322436523437,0.33039982910156246,1.2306196533203124,-23.419847328244273,9.32824427480916,2.366412213740458,-8.022969763183593,1.7764976318359373,2.0183119995117185,-25.19083969465649,-31.19083969465649,-11.450381679389313,0.0
10.270000696182251,-8.43956085205078,-1.0606313354492187,0.4572925170898437,-19.129770992366414,7.603053435114504,3.633587786259542,-9.533711010742186,0.8595183959960937,3.1938650146484373,-30.03053435114504,-23.587786259541986,-5.66412213740458,0.0
10.280001163482666,-9.521740002441407,0.5386953735351562,1.1228805786132812,-14.076335877862595,11.725190839694656,0.5190839694656488,-9.210493786621093,-0.6584054565429687,2.5163059448242184,-28.564885496183205,-28.213740458015266,-5.236641221374046,0.0
10.290000438690186,-9.509768994140625,0.565031591796875,1.0654197387695312,-13.282442748091603,11.84732824427481,-0.7022900763358778,-9.564835632324218,-0.7230489013671875,2.403778466796875,-25.16030534351145,-29.068702290076335,-6.320610687022901,0.0
10.30000114440918,-9.512163195800781,0.7493851196289062,0.7733271362304687,-10.870229007633588,12.412213740458014,0.030534351145038167,-10.213664282226562,0.28730419921875,2.473210314941406,-23.480916030534353,-25.419847328244273,-6.534351145038168,0.0
10.310000658035278,-9.533711010742186,1.4053963745117186,0.8690952026367187,-9.786259541984732,14.702290076335878,-0.9923664122137404,-8.88009395751953,0.24660277099609373,2.3726538452148436,-33.37404580152672,-22.33587786259542,-6.488549618320611,0.0
10.320000410079956,-9.399635717773437,1.1516109985351561,0.4261678955078125,-11.053435114503817,14.320610687022901,0.10687022900763359,-8.43956085205078,-0.3806780639648437,2.4109610717773435,-40.656488549618324,-16.885496183206108,-4.824427480916031,0.0
10.330000638961792,-10.199299072265624,2.6958710693359373,1.89620771484375,-10.778625954198473,19.541984732824428,-2.6259541984732824,-9.387664709472656,-1.7429788085937499,2.664746447753906,-34.56488549618321,-15.572519083969466,-3.312977099236641,0.0
10.340000629425049,-10.31661495361328,0.7326257080078125,0.4213794921875,-17.404580152671755,10.763358778625955,0.9923664122137404,-8.82263311767578,-1.659181750488281,2.664746447753906,-30.16793893129771,-16.53435114503817,-5.755725190839694,0.0
10.350000381469727,-9.0788126953125,0.8643067993164062,1.0390835205078124,-17.87786259541985,12.320610687022901,2.4427480916030535,-8.920795385742187,-2.224213342285156,2.750937707519531,-20.763358778625953,-15.404580152671755,-5.572519083969466,0.0
10.360000610351562,-10.931924780273437,2.3295582153320313,1.9656395629882812,-20.27480916030534,13.145038167938932,-0.0,-9.370905297851563,-2.3582886352539063,3.172317199707031,-14.427480916030534,-13.389312977099237,-5.8320610687022905,0.0
10.37000060081482,-9.713276135253906,1.4820108276367188,1.4101847778320311,-19.16030534351145,10.977099236641221,0.7633587786259542,-7.960720520019531,-1.2665326782226562,2.1619640991210938,-7.587786259541985,-16.198473282442748,-8.946564885496183,0.0
10.380000591278076,-10.180145458984374,1.7262193969726563,1.6998831787109374,-22.519083969465647,10.65648854961832,0.8702290076335878,-8.336610180664062,-1.3024457031249999,2.4349030883789062,-9.557251908396946,-10.717557251908397,-8.610687022900763,0.0
10.390000581741333,-9.694122521972655,1.0630255371093749,1.675941162109375,-21.053435114503817,9.98473282442748,0.6259541984732825,-8.283937744140625,-1.5729904907226562,2.3247698120117186,-6.091603053435114,-8.335877862595419,-8.122137404580153,0.0
10.40000057220459,-9.557653027343749,0.7757213378906249,1.707065783691406,-18.50381679389313,8.992366412213741,0.8549618320610687,-8.695740429687499,-1.6232687255859375,2.5043349365234375,-2.351145038167939,-6.977099236641221,-8.229007633587786,0.0
10.410000324249268,-10.407594616699217,0.9840168823242187,2.2385785522460937,-17.96946564885496,8.51908396946565,0.5343511450381679,-8.722076647949219,-2.01112939453125,2.511517541503906,3.49618320610687,-5.572519083969466,-8.488549618320612,0.0
10.420000553131104,-10.024522351074218,0.38307226562499996,2.003946789550781,-12.122137404580153,8.229007633587786,0.3511450381679389,-9.617508068847656,-3.67749375,3.430890979003906,16.870229007633586,-3.801526717557252,-7.893129770992366,0.0
10.43000078201294,-9.543287817382812,0.07900865478515624,1.68551796875,-6.67175572519084,6.641221374045801,-0.732824427480916,-10.096348400878906,-2.147598889160156,2.8012159423828122,30.53435114503817,-8.687022900763358,-11.49618320610687,0.0
10.440000534057617,-9.962273107910155,0.82360537109375,1.8076222534179687,-4.106870229007634,5.709923664122138,-3.1755725190839694,-7.632714892578124,-1.0845733520507812,2.157175695800781,31.022900763358777,-11.587786259541986,-14.473282442748092,0.0
10.450000762939453,-9.677363110351562,0.6009446166992187,1.936909143066406,-0.7786259541984732,5.435114503816794,-3.3740458015267176,-7.881711865234375,-0.7637503295898437,2.8706477905273435,30.366412213740457,-5.694656488549619,-12.458015267175572,0.0
10.46000051498413,-10.072406384277343,1.0319009155273438,2.109291662597656,0.9618320610687023,4.305343511450381,-3.786259541984733,-8.71489404296875,-1.0917559570312498,3.0166940917968748,31.61832061068702,-3.7099236641221376,-10.16793893129771,0.0
10.470000267028809,-9.873687646484374,1.0007762939453124,2.1547814941406247,3.282442748091603,1.9236641221374047,-3.66412213740458,-8.853757739257812,-1.0893617553710937,3.047818713378906,32.6412213740458,-1.984732824427481,-9.083969465648854,0.0
10.480000495910645,-10.70686982421875,2.636016027832031,2.8131869506835936,-0.030534351145038167,0.48854961832061067,-4.1679389312977095,-8.999804040527343,-0.9504980590820312,3.066972326660156,32.717557251908396,-1.2213740458015268,-9.206106870229007,0.0
10.490000486373901,-9.842563024902343,1.9488801513671874,2.243366955566406,-1.0229007633587786,-3.450381679389313,-2.4427480916030535,-8.106766821289062,-0.086191259765625,2.817975354003906,30.595419847328245,-0.9312977099236641,-10.244274809160306,0.0
10.500000476837158,-9.244012609863281,0.3711012573242187,1.4030021728515625,5.267175572519084,-2.900763358778626,-1.0076335877862594,-8.635885388183594,-0.01915361328125,2.588131994628906,32.54961832061068,0.13740458015267176,-9.129770992366412,0.0
10.510000467300415,-8.0062103515625,-0.011971008300781249,0.29448680419921874,7.022900763358779,-5.206106870229007,-0.732824427480916,-8.413224633789062,-0.16519991455078123,3.0597897216796874,25.893129770992367,4.99236641221374,-9.34351145038168,0.0
10.52000093460083,-9.241618408203124,0.4955997436523437,0.6967126831054687,12.0,-0.04580152671755725,-3.9389312977099236,-8.762778076171875,-0.5626373901367188,3.1555577880859373,29.64885496183206,6.152671755725191,-7.419847328244275,0.0
10.530000686645508,-9.481038574218749,1.2808978881835937,0.8786720092773437,9.923664122137405,0.916030534351145,-6.198473282442748,-9.442731347656249,-0.9744400756835937,3.6296097167968746,32.091603053435115,5.236641221374046,-7.816793893129771,0.0
10.540000915527344,-9.6917283203125,1.5035586425781249,1.0007762939453124,9.541984732824428,1.099236641221374,-5.435114503816794,-9.009380847167968,-0.5698199951171875,3.5529952636718747,32.045801526717554,4.2748091603053435,-8.870229007633588,0.0
10.550000667572021,-9.720458740234374,1.5298948608398437,1.2425906616210938,9.450381679389313,1.3282442748091603,-5.206106870229007,-9.133879333496093,-0.6344634399414062,3.6559459350585937,32.33587786259542,3.2519083969465647,-8.763358778625955,0.0
10.560000658035278,-9.792284790039062,2.051830822753906,1.4891934326171874,7.557251908396947,0.4122137404580153,-5.1603053435114505,-8.851363537597656,-0.47165772705078124,3.4715924072265625,29.923664122137403,3.053435114503817,-9.083969465648854,0.0
10.570000648498535,-9.706093530273437,1.898601916503906,1.4053963745117186,6.732824427480916,-0.7480916030534351,-4.732824427480916,-8.93755479736328,-0.5123591552734374,3.385401147460937,29.00763358778626,3.480916030534351,-8.061068702290076,0.0
10.580000400543213,-9.464279162597656,1.6112977172851561,1.467645617675781,7.251908396946565,-1.2671755725190839,-4.717557251908397,-8.968679418945312,-0.6081272216796875,3.2728736694335936,26.732824427480917,3.984732824427481,-8.122137404580153,0.0
10.590000629425049,-9.710881933593749,1.37906015625,1.5921441040039062,5.8320610687022905,-2.1526717557251906,-4.534351145038168,-8.844180932617187,-0.6943184814453125,3.277662072753906,25.358778625954198,3.969465648854962,-8.01526717557252,0.0
10.600000619888306,-9.545682019042967,1.16837041015625,1.467645617675781,6.824427480916031,-3.068702290076336,-4.916030534351145,-8.86812294921875,-0.6679822631835937,3.227383837890625,24.396946564885496,4.091603053435114,-8.290076335877863,0.0
10.610000610351562,-9.342174877929686,1.1013327636718748,1.68551796875,7.893129770992366,-3.9083969465648853,-5.66412213740458,-8.504204296874999,-0.3064578125,3.0885201416015624,22.80916030534351,3.282442748091603,-8.977099236641221,0.0
10.62000060081482,-9.22485899658203,1.2904746948242187,1.7525556152343749,9.969465648854962,-4.854961832061068,-6.6106870229007635,-8.451531860351562,-0.12210428466796874,3.0597897216796874,21.068702290076335,4.442748091603053,-7.8320610687022905,0.0
10.630000352859497,-9.22485899658203,1.4125789794921875,1.7190367919921874,11.603053435114504,-5.679389312977099,-7.587786259541985,-8.080430603027343,0.948103857421875,2.645592834472656,15.969465648854962,4.152671755725191,-8.793893129770993,0.0
10.640000581741333,-8.920795385742187,1.35990654296875,1.5251064575195312,13.801526717557252,-7.435114503816794,-7.679389312977099,-7.086836914062499,1.5418658691406248,1.927332336425781,5.297709923664122,6.595419847328245,-8.595419847328245,0.0
10.65000033378601,-9.026140258789061,1.1156979736328125,1.7884686401367187,14.717557251908397,-7.969465648854962,-7.175572519083969,-8.32463917236328,1.0845733520507812,2.8227637573242186,-2.595419847328244,15.98473282442748,-5.00763358778626,0.0
10.660000562667847,-8.9255837890625,1.1635820068359375,1.7669208251953124,16.519083969465647,-8.488549618320612,-7.022900763358779,-8.073247998046874,0.4836287353515625,2.281674182128906,-8.885496183206106,19.61832061068702,-4.152671755725191,0.0
10.670001029968262,-8.702923034667968,0.7589619262695312,1.6735469604492186,19.862595419847327,-9.053435114503817,-7.175572519083969,-8.384494213867187,0.12689268798828124,2.2290017456054687,-7.740458015267175,22.12213740458015,-2.0916030534351147,0.0
10.68000054359436,-8.377311608886718,-0.8810662109374999,1.2042834350585936,28.045801526717558,-9.648854961832061,-6.977099236641221,-8.32463917236328,-0.51714755859375,1.867477294921875,-1.8015267175572518,22.625954198473284,-1.7251908396946565,0.0
10.690000772476196,-8.590395556640624,-0.30885201416015623,1.1252747802734375,38.18320610687023,-6.137404580152672,-10.610687022900763,-8.37012900390625,-0.6272808349609375,1.5083470458984374,4.793893129770993,23.419847328244273,-2.3206106870229006,0.0
10.700000524520874,-7.9463553100585935,0.3112462158203125,1.3096283081054687,40.56488549618321,-7.633587786259542,-12.65648854961832,-8.087613208007811,0.8451531860351562,1.4006079711914061,6.931297709923665,25.31297709923664,-3.312977099236641,0.0
10.710000276565552,-8.647856396484375,1.350329736328125,3.105279553222656,39.954198473282446,-4.6106870229007635,-15.17557251908397,-6.308721374511719,1.8267758666992187,0.7565677246093749,-4.916030534351145,28.793893129770993,-3.5877862595419847,0.0
10.720000505447388,-10.637437976074217,2.0254946044921875,3.9887399658203124,34.56488549618321,-8.076335877862595,-15.938931297709924,-7.204152795410156,0.7517793212890624,0.39743747558593745,-15.709923664122137,36.961832061068705,1.3740458015267176,0.0
10.730000257492065,-10.97502041015625,1.8459294799804686,4.752490295410156,32.88549618320611,-14.045801526717558,-15.755725190839694,-8.91840118408203,-1.4030021728515625,1.189918225097656,-10.0,39.93893129770992,4.198473282442748,0.0
10.740000486373901,-10.644620581054687,1.5705962890624998,5.3199160888671875,35.343511450381676,-20.442748091603054,-16.50381679389313,-7.673416320800781,-0.32082302246093747,0.5458779785156249,-4.931297709923665,34.67175572519084,-1.5725190839694656,0.0
10.750000476837158,-10.855310327148437,2.47081611328125,6.56968935546875,39.7557251908397,-25.328244274809162,-18.458015267175572,-6.268019946289062,-0.12210428466796874,0.22505495605468748,-16.229007633587788,42.56488549618321,-2.381679389312977,0.0
10.760001182556152,-9.883264453125,1.5131354492187499,6.160280871582031,34.70229007633588,-41.66412213740458,-15.618320610687023,-7.271190441894531,-2.3965958618164063,-1.0869675537109373,-16.65648854961832,50.74809160305343,-0.6870229007633588,0.0
10.770000696182251,-8.947131604003905,0.7038952880859375,5.851428857421874,45.267175572519086,-51.14503816793893,-16.0,-10.172962854003906,-3.749319799804687,-1.8315642700195311,-12.946564885496183,56.13740458015267,-11.206106870229007,0.0
10.780000448226929,-8.844180932617187,1.8914193115234375,5.65031591796875,52.274809160305345,-60.2442748091603,-19.6793893129771,-13.371616271972655,-5.442020373535156,0.06464344482421874,-20.259541984732824,68.4885496183206,-30.625954198473284,0.0
10.790000438690186,-9.409212524414063,2.1260510742187497,5.501875415039062,56.80916030534351,-70.82442748091603,-19.251908396946565,-18.69871496582031,-8.968679418945312,4.3071687866210935,-12.931297709923664,71.98473282442748,-48.045801526717554,0.0
10.8000009059906,-10.182539660644531,3.3686417358398435,5.8083332275390624,59.603053435114504,-78.85496183206106,-19.19083969465649,-19.800047729492185,-8.204929089355469,7.876923461914062,11.648854961832061,51.55725190839695,-53.43511450381679,0.0
10.810000658035278,-12.94065997314453,3.718195178222656,6.363788012695312,48.68702290076336,-95.1145038167939,-13.816793893129772,-17.298106994628906,-5.310339282226562,8.24802471923828,55.61832061068702,25.69465648854962,-37.02290076335878,0.0
10.820000410079956,-14.331691137695312,1.1133037719726562,6.023811376953125,47.282442748091604,-110.50381679389314,-4.473282442748092,-13.692439294433592,-0.7517793212890624,5.7700260009765625,90.45801526717557,-2.213740458015267,-17.572519083969464,0.0
10.830000638961792,-15.931017846679687,-1.1013327636718748,5.164292980957031,54.97709923664122,-121.06870229007633,3.4656488549618323,-8.844180932617187,3.5889082885742187,3.5242648437499997,87.16030534351145,-15.572519083969466,-9.374045801526718,0.0
10.840000629425049,-15.842432385253906,-3.6343981201171873,2.3726538452148436,61.06870229007634,-130.5801526717557,9.893129770992367,-8.300697155761718,5.635950708007812,2.3726538452148436,67.6030534351145,-9.17557251908397,-5.4961832061068705,0.0
10.850000619888306,-14.698003991699219,-4.6255976074218745,0.23702596435546874,68.44274809160305,-133.89312977099237,11.48091603053435,-7.400477331542969,6.167463476562499,0.0718260498046875,41.32824427480916,-5.587786259541985,-5.099236641221374,0.0
10.860000848770142,-13.577517614746093,-4.355052819824219,-1.0103531005859374,76.56488549618321,-130.9618320610687,9.465648854961833,-7.1203557373046875,3.6727053466796873,-1.35990654296875,16.12213740458015,4.99236641221374,-2.7480916030534353,0.0
10.87000060081482,-10.87925234375,-5.61200869140625,-3.402160559082031,88.4885496183206,-123.43511450381679,10.106870229007633,-7.742848168945312,-0.296881005859375,-2.123656872558594,2.885496183206107,16.900763358778626,0.8702290076335878,0.0
10.880000591278076,-8.990227233886719,-5.932831713867187,-3.6104561035156246,103.87786259541984,-105.1145038167939,6.33587786259542,-9.083601098632812,-4.721365673828124,-2.085349645996094,2.1526717557251906,26.366412213740457,0.6870229007633588,0.0
10.890000581741333,-8.394071020507813,-4.582501977539062,-2.901772412109375,113.78625954198473,-87.90839694656489,-1.9389312977099236,-10.457872851562499,-6.665457421875,-2.1452046874999997,10.442748091603054,29.801526717557252,-4.687022900763359,0.0
10.90000033378601,-6.691793640136718,-3.4069489624023435,-3.404554760742187,115.87786259541984,-77.06870229007633,-9.694656488549619,-9.56962403564453,-4.836287353515624,-2.0374656127929685,16.85496183206107,28.85496183206107,-10.961832061068701,0.0
10.910001039505005,-7.807491613769531,-0.105344873046875,-1.5682020874023437,111.66412213740458,-53.80152671755725,-19.541984732824428,-11.276689819335937,-4.582501977539062,-0.24181436767578124,27.31297709923664,32.94656488549618,-7.587786259541985,0.0
10.920000553131104,-8.305485559082031,1.024718310546875,-0.9935936889648437,94.93129770992367,-45.80152671755725,-26.137404580152673,-12.363657373046875,-4.414907861328125,0.5147533569335937,39.9236641221374,27.923664122137403,-6.183206106870229,0.0
10.93000078201294,-8.932766394042968,2.3822306518554686,-0.08379705810546874,81.37404580152672,-35.969465648854964,-28.045801526717558,-10.828974108886719,-3.220201232910156,0.6967126831054687,43.87786259541985,23.419847328244273,-7.435114503816794,0.0
10.940000534057617,-11.281478222656249,6.028599780273437,1.6519991455078125,53.83206106870229,-26.38167938931298,-28.519083969465647,-10.199299072265624,-2.7341782958984373,0.5889736083984375,46.3206106870229,19.46564885496183,-8.335877862595419,0.0
10.950000762939453,-11.738770739746093,5.190629199218749,1.8818425048828125,23.282442748091604,-27.358778625954198,-21.374045801526716,-9.514557397460937,-1.4700398193359374,0.031124621582031248,41.6793893129771,17.541984732824428,-9.83206106870229,0.0
10.96000051498413,-8.305485559082031,2.578555187988281,0.5482721801757812,12.198473282442748,-22.458015267175572,-11.938931297709924,-9.176974963378905,-0.7038952880859375,0.7948749511718749,29.801526717557252,23.786259541984734,-6.458015267175573,0.0
10.970000505447388,-8.456320263671875,1.7884686401367187,-0.05746083984375,-5.267175572519084,-16.82442748091603,-9.206106870229007,-9.208099584960937,-1.216254443359375,0.488417138671875,30.38167938931298,22.65648854961832,-5.480916030534351,0.0
10.980000734329224,-8.17859287109375,1.0366893188476562,-0.26336218261718747,-16.595419847328245,-11.84732824427481,-8.244274809160306,-9.33978067626953,-0.7924807495117187,0.6943184814453125,26.076335877862597,22.83969465648855,-5.4961832061068705,0.0
10.990000247955322,-7.601590270996093,1.3407529296874998,-0.16280571289062498,-25.66412213740458,-5.511450381679389,-5.145038167938932,-8.09479581298828,-0.21308394775390624,0.9026140258789062,13.603053435114504,24.015267175572518,-4.99236641221374,0.0
11.000000238418579,-6.9910688476562495,2.221819140625,-0.34237083740234375,-45.3587786259542,-8.305343511450381,-0.4732824427480916,-8.79150849609375,-1.0390835205078124,1.6232687255859375,7.6183206106870225,26.625954198473284,-0.4122137404580153,0.0
11.010000705718994,-7.484274389648437,1.5322890624999999,0.3758896606445312,-53.587786259541986,-0.061068702290076333,2.7786259541984735,-9.337386474609374,-0.9983820922851562,1.5418658691406248,5.801526717557252,21.862595419847327,1.1145038167938932,0.0
11.02000093460083,-5.743689782714843,0.6488286499023437,-0.7661445312499999,-54.79389312977099,1.465648854961832,5.312977099236641,-10.330980163574218,-1.3742717529296875,2.269703173828125,5.465648854961832,19.603053435114504,3.1603053435114505,0.0
11.030000686645508,-4.7884033203125,-0.4429273071289062,-0.8547299926757812,-53.55725190839695,11.312977099236642,4.9465648854961835,-9.715670336914062,-1.0917559570312498,2.3726538452148436,5.526717557251908,13.923664122137405,3.3587786259541983,0.0
11.040000915527344,-3.6487633300781246,-2.50912333984375,-1.448492004394531,-44.18320610687023,23.755725190839694,2.5801526717557253,-9.588777648925781,-1.0390835205078124,2.6192566162109374,2.3206106870229006,10.946564885496183,4.412213740458015,0.0
11.050000667572021,-5.837063647460937,-0.7134720947265625,0.5817910034179687,-50.79389312977099,33.725190839694655,-4.183206106870229,-9.057264880371093,-0.1388636962890625,2.070984436035156,-0.7022900763358778,4.732824427480916,3.5572519083969465,0.0
11.060000896453857,-6.203376501464843,-0.718260498046875,1.43652099609375,-47.6793893129771,41.083969465648856,-5.709923664122138,-9.528922607421874,-0.6584054565429687,2.3822306518554686,-7.6183206106870225,3.0381679389312977,6.0458015267175576,0.0
11.070000410079956,-7.070077502441406,-0.16998831787109375,2.518700146484375,-59.43511450381679,38.30534351145038,-4.396946564885496,-9.758765966796874,-2.403778466796875,2.779668127441406,-8.030534351145038,-0.7786259541984732,7.297709923664122,0.0
11.080000638961792,-6.955155822753905,-1.7238251953125,2.6623522460937497,-43.267175572519086,45.541984732824424,-1.4198473282442747,-9.294290844726563,-3.478775012207031,3.0071172851562498,-0.42748091603053434,-6.595419847328245,6.366412213740458,0.0
11.090000629425049,-6.909665991210937,-1.7334020019531249,3.1076737548828124,-26.564885496183205,51.51145038167939,-3.2519083969465647,-9.085995300292968,-2.8658593872070313,2.43250888671875,6.534351145038168,-14.549618320610687,1.5419847328244274,0.0
11.100000619888306,-6.457161877441406,-1.6112977172851561,2.73896669921875,-8.427480916030534,55.61832061068702,-3.3435114503816794,-9.524134204101562,-1.5777788940429687,2.205059729003906,7.267175572519084,-14.122137404580153,0.22900763358778625,0.0
11.110000610351562,-6.624755993652343,-1.4891934326171874,3.23696064453125,3.282442748091603,59.541984732824424,-3.5114503816793894,-8.633491186523438,-0.9337386474609375,2.403778466796875,0.42748091603053434,-14.51908396946565,1.6793893129770991,0.0
11.12000060081482,-7.903259680175781,-0.2537853759765625,4.7572786987304685,16.9618320610687,64.4885496183206,-4.748091603053435,-8.858546142578124,-0.30406361083984373,1.6352397338867186,-7.633587786259542,-18.931297709923665,2.2442748091603053,0.0
11.130000591278076,-7.726088757324218,-0.39983167724609375,5.312733483886719,20.38167938931298,59.02290076335878,-3.66412213740458,-9.406818322753905,-1.0630255371093749,2.8012159423828122,-13.038167938931299,-15.557251908396946,5.022900763358779,0.0
11.140000581741333,-7.6470801025390625,-1.5873557006835937,5.42047255859375,41.282442748091604,60.58015267175573,-4.0458015267175576,-9.265560424804686,-2.7246014892578123,3.7708676147460936,-5.00763358778626,-18.53435114503817,4.656488549618321,0.0
11.15000033378601,-9.188945971679686,0.41898529052734373,7.0461354858398435,43.66412213740458,59.61832061068702,-10.595419847328245,-10.481814868164061,-2.6192566162109374,3.7229835815429686,7.709923664122138,-25.114503816793892,2.0763358778625953,0.0
11.160000562667847,-8.89924757080078,1.8507178833007811,7.019799267578125,45.02290076335878,46.74809160305343,-10.458015267175572,-9.066841687011719,-1.120486376953125,3.3207577026367185,10.717557251908397,-34.30534351145038,-0.7938931297709924,0.0
11.170000791549683,-9.674968908691406,4.055777612304687,8.090007409667969,44.82442748091603,38.2442748091603,-7.312977099236641,-8.154650854492187,0.5913678100585937,2.6479870361328124,0.7633587786259542,-39.81679389312977,0.5801526717557252,0.0
11.18000054359436,-9.993397729492187,6.445190869140625,8.55448253173828,26.229007633587788,24.610687022900763,-4.320610687022901,-7.601590270996093,1.4053963745117186,1.917755529785156,-16.061068702290076,-42.30534351145038,3.099236641221374,0.0
11.190000772476196,-9.928754284667969,4.7931917236328125,7.821856823730468,11.435114503816793,9.282442748091603,5.465648854961832,-8.762778076171875,0.0047884033203125,2.4875755249023435,-26.68702290076336,-40.045801526717554,10.793893129770993,0.0
11.200000524520874,-9.725247143554688,3.5865140869140624,8.085219006347655,18.259541984732824,6.152671755725191,14.244274809160306,-10.012551342773437,-2.2768857788085937,3.5529952636718747,-22.045801526717558,-43.786259541984734,18.076335877862597,0.0
11.210000276565552,-7.690175732421874,1.419761584472656,4.7572786987304685,24.82442748091603,-2.3969465648854964,23.14503816793893,-8.930372192382812,-2.1164742675781247,3.047818713378906,-14.67175572519084,-52.25954198473283,17.297709923664122,0.0
11.220000505447388,-6.912060192871094,1.5921441040039062,0.97683427734375,28.778625954198475,4.641221374045801,29.633587786259543,-8.1594392578125,-0.4429273071289062,2.2960393920898436,-19.31297709923664,-51.37404580152672,15.206106870229007,0.0
11.230000495910645,-8.202534887695313,2.059013427734375,-0.6775590698242188,1.7099236641221374,11.129770992366412,29.66412213740458,-7.031770275878906,0.39743747558593745,1.9033903198242186,-28.99236641221374,-51.38931297709924,17.236641221374047,0.0
11.240000486373901,-11.307814440917968,0.38307226562499996,2.47081611328125,-28.045801526717558,11.374045801526718,26.244274809160306,-9.53131680908203,-0.6296750366210937,1.8076222534179687,-31.984732824427482,-46.13740458015267,26.15267175572519,0.0
11.250000476837158,-14.118607189941406,-3.071760729980469,6.938396411132812,-37.20610687022901,6.809160305343512,23.14503816793893,-8.719682446289061,-2.0063409912109376,1.1324573852539062,-34.87022900763359,-51.06870229007634,28.885496183206108,0.0
11.260000705718994,-17.10896506347656,-4.1754876953124995,10.034099157714843,-6.916030534351145,10.870229007633588,19.87786259541985,-9.8449572265625,-3.5697546752929687,1.3048399047851562,-32.152671755725194,-48.045801526717554,30.47328244274809,0.0
11.27000093460083,-19.294871179199216,1.4915876342773438,9.907206469726562,6.793893129770993,6.137404580152672,16.12213740458015,-9.842563024902343,-2.798821740722656,0.0,-30.091603053435115,-48.152671755725194,26.83969465648855,0.0
11.280000925064087,-18.588581689453125,7.671022119140624,5.846640454101562,1.3282442748091603,-5.312977099236641,21.6793893129771,-9.751583361816406,-1.8004396484374998,-0.7517793212890624,-31.221374045801525,-45.12977099236641,24.99236641221374,0.0
11.290000677108765,-15.828067175292968,8.726865051269531,1.6927005737304686,-17.49618320610687,-9.664122137404581,31.328244274809162,-11.923124267578125,-2.4349030883789062,-0.5770026000976562,-32.656488549618324,-37.12977099236641,25.16030534351145,0.0
11.300000667572021,-12.761094848632812,5.099649536132812,-0.49320554199218747,-46.62595419847328,-18.137404580152673,36.68702290076336,-12.931083166503905,-2.6503812377929687,-0.5099649536132812,-41.16030534351145,-28.427480916030536,21.251908396946565,0.0
11.3100004196167,-10.943895788574219,0.8906430175781249,0.5027823486328125,-61.221374045801525,-12.763358778625955,37.465648854961835,-14.43464180908203,-3.5984850952148437,-0.5985504150390625,-32.87022900763359,-23.72519083969466,18.80916030534351,0.0
11.320000410079956,-6.871358764648437,-4.848258361816406,-0.7613561279296874,-51.63358778625954,-6.122137404580153,30.732824427480917,-15.102624072265623,-3.3351229125976563,-0.40222587890625,-24.68702290076336,-19.938931297709924,14.748091603053435,0.0
11.330000638961792,-5.72693037109375,-4.352658618164062,-2.166752502441406,-38.0,3.267175572519084,17.709923664122137,-14.403517187499999,-2.3343466186523436,-0.296881005859375,-20.3206106870229,-13.587786259541986,8.305343511450381,0.0
11.340000629425049,-6.766013891601562,-1.5394716674804687,-2.999934680175781,-32.29007633587786,11.374045801526718,2.885496183206107,-14.879963317871093,-2.147598889160156,0.354341845703125,-11.007633587786259,-7.923664122137405,5.877862595419847,0.0
11.350000858306885,-5.446808776855469,-1.1923124267578125,-4.618415002441406,-19.87786259541985,19.541984732824428,-1.8778625954198473,-13.204022155761718,-2.0661960327148434,0.6655880615234374,-8.061068702290076,-6.213740458015267,1.7709923664122138,0.0
11.360000371932983,-7.376535314941406,-0.7637503295898437,-3.7014357666015623,-3.312977099236641,39.11450381679389,-6.885496183206107,-12.543222497558594,-1.8291700683593748,1.2785036865234374,1.1908396946564885,-2.564885496183206,-0.5190839694656488,0.0
11.370000839233398,-9.490615380859374,1.3455413330078123,-1.7860744384765623,1.7709923664122138,51.786259541984734,-11.83206106870229,-11.326968054199218,-1.254561669921875,1.5083470458984374,6.320610687022901,-0.5038167938931297,-2.6717557251908395,0.0
11.380000591278076,-10.874463940429687,3.6008792968749996,0.36391865234375,-7.129770992366412,56.229007633587784,-12.687022900763358,-10.905588562011719,-0.7398083129882812,1.838746875,14.625954198473282,1.3435114503816794,-2.732824427480916,0.0
11.390001058578491,-11.243170996093749,3.478775012207031,0.8954314208984374,-18.290076335877863,53.099236641221374,-8.65648854961832,-9.756371765136718,0.17477672119140625,1.89620771484375,15.053435114503817,2.198473282442748,-2.8702290076335877,0.0
11.40000057220459,-12.208034265136718,3.679887951660156,1.8507178833007811,-30.946564885496183,49.74045801526717,-5.404580152671755,-9.87608184814453,0.5003881469726562,1.9512743530273435,18.610687022900763,4.870229007633588,-0.6106870229007634,0.0
11.410000801086426,-11.092336291503905,2.978386865234375,1.6519991455078125,-42.534351145038165,42.595419847328245,-2.16793893129771,-8.681375219726561,1.5634136840820312,1.6232687255859375,14.061068702290076,6.366412213740458,0.33587786259541985,0.0
11.420000314712524,-11.056423266601563,1.8052280517578123,1.6304513305664061,-47.725190839694655,35.63358778625954,0.8244274809160306,-9.351751684570312,1.2904746948242187,1.8842367065429686,16.595419847328245,10.091603053435115,4.564885496183206,0.0
11.43000078201294,-10.350133776855468,0.23223756103515625,1.1420341918945311,-51.52671755725191,27.72519083969466,3.5572519083969465,-9.928754284667969,1.0749965454101562,2.6384102294921874,23.480916030534353,9.404580152671755,7.877862595419847,0.0
11.440000295639038,-9.296685046386719,-2.1547814941406247,1.13006318359375,-35.89312977099237,29.69465648854962,3.114503816793893,-7.639897497558593,1.8124106567382812,1.85790048828125,18.50381679389313,6.916030534351145,6.2748091603053435,0.0
11.450000524520874,-8.896853369140624,-1.5227122558593749,1.1875240234375,-28.80916030534351,26.27480916030534,-0.21374045801526717,-9.138667736816405,3.9791631591796874,1.6400281372070311,11.49618320610687,10.396946564885496,6.259541984732825,0.0
11.46000051498413,-9.581595043945311,0.05027823486328125,1.8459294799804686,-22.99236641221374,25.66412213740458,-3.3893129770992365,-8.228871105957031,3.1411925781249996,2.0733786376953125,-7.267175572519084,15.450381679389313,9.801526717557252,0.0
11.470000267028809,-9.557653027343749,0.9911994873046874,2.3535002319335936,-19.358778625954198,23.52671755725191,-4.244274809160306,-8.389282617187499,2.8945898071289062,1.5155296508789062,-18.549618320610687,15.954198473282442,12.412213740458014,0.0
11.480000495910645,-9.562441430664062,1.4987702392578124,2.327164013671875,-17.251908396946565,19.755725190839694,-4.1679389312977095,-9.042899670410156,1.6112977172851561,1.7812860351562498,-24.610687022900763,16.213740458015266,15.114503816793894,0.0
11.490000486373901,-9.452308154296874,1.3096283081054687,2.214636535644531,-14.16793893129771,16.870229007633586,-2.9160305343511452,-9.387664709472656,0.7996633544921875,1.7980454467773437,-26.83969465648855,15.801526717557252,16.137404580152673,0.0
11.500000476837158,-9.792284790039062,1.5131354492187499,2.1452046874999997,-14.274809160305344,15.664122137404581,-1.3129770992366412,-8.813056311035156,0.9696516723632812,1.209071838378906,-31.64885496183206,13.770992366412214,14.748091603053435,0.0
11.510000467300415,-9.157821350097656,1.37906015625,2.042254016113281,-10.778625954198473,15.358778625954198,-0.4122137404580153,-8.281543542480469,0.8786720092773437,1.216254443359375,-44.595419847328245,17.419847328244273,13.526717557251908,0.0
11.52000093460083,-9.485826977539062,1.7190367919921874,1.9967641845703124,-11.19083969465649,13.969465648854962,0.9923664122137404,-9.883264453125,0.09337386474609374,1.189918225097656,-47.63358778625954,17.17557251908397,15.221374045801527,0.0
11.530000925064087,-9.708487731933593,2.2170307373046874,1.7190367919921874,-10.458015267175572,12.900763358778626,1.3587786259541985,-9.624690673828125,-2.1883003173828124,2.3151930053710936,-44.97709923664122,14.320610687022901,15.694656488549619,0.0
11.540000915527344,-10.407594616699217,2.770091320800781,1.8243816650390623,-13.450381679389313,10.885496183206106,3.1755725190839694,-9.406818322753905,-1.2114660400390624,1.7860744384765623,-39.32824427480916,7.847328244274809,11.572519083969466,0.0
11.550000667572021,-9.756371765136718,2.3870190551757813,1.0558429321289062,-14.15267175572519,9.98473282442748,4.5038167938931295,-9.459490759277344,-1.4173673828125,2.2840683837890623,-37.86259541984733,5.587786259541985,9.404580152671755,0.0
11.560000896453857,-9.957484704589843,2.636016027832031,1.0510545288085937,-18.717557251908396,10.01526717557252,5.450381679389313,-10.204087475585936,-2.243366955566406,2.6575638427734374,-28.610687022900763,0.9007633587786259,8.030534351145038,0.0
11.570000410079956,-9.536105212402344,2.7461493041992187,0.7852981445312499,-23.709923664122137,10.13740458015267,5.083969465648855,-10.326191760253906,-1.4724340209960938,2.6910826660156246,-25.51145038167939,-5.190839694656488,4.824427480916031,0.0
11.580000638961792,-9.82580361328125,3.1938650146484373,0.8068459594726562,-32.19847328244275,9.572519083969466,5.908396946564886,-9.991003527832031,-1.2569558715820313,2.760514514160156,-27.435114503816795,-8.16793893129771,2.5343511450381677,0.0
11.590000629425049,-9.65342109375,2.5354595581054684,0.7805097412109374,-38.83969465648855,9.282442748091603,7.190839694656488,-10.32379755859375,-1.2880804931640624,2.8227637573242186,-27.61832061068702,-10.351145038167939,0.5954198473282443,0.0
11.600000619888306,-10.005368737792969,2.980781066894531,1.2473790649414063,-44.50381679389313,10.259541984732824,7.068702290076335,-10.311826550292968,-1.3263877197265623,2.77727392578125,-27.374045801526716,-13.267175572519085,-1.7709923664122138,0.0
11.610000848770142,-9.631873278808593,2.2673089721679687,0.45968671875,-53.587786259541986,2.9618320610687023,11.129770992366412,-10.460267053222656,-1.3168109130859373,2.760514514160156,-25.267175572519083,-15.19083969465649,-2.7022900763358777,0.0
11.62000060081482,-9.437942944335937,1.01514150390625,0.4860229370117187,-46.97709923664122,8.335877862595419,12.549618320610687,-9.272743029785156,-0.7589619262695312,2.4899697265625,-26.3206106870229,-17.541984732824428,-5.114503816793893,0.0
11.630000352859497,-9.545682019042967,1.5418658691406248,0.8259995727539062,-47.57251908396947,10.244274809160306,11.374045801526718,-9.792284790039062,-0.7541735229492187,2.521094348144531,-22.80916030534351,-17.572519083969464,-5.511450381679389,0.0
11.640000581741333,-9.34696328125,0.7206546997070312,0.6057330200195312,-45.87786259541985,9.587786259541986,11.587786259541986,-9.550470422363281,-0.679953271484375,2.760514514160156,-22.35114503816794,-17.81679389312977,-6.0458015267175576,0.0
11.650000810623169,-9.447519750976562,0.5698199951171875,0.5602431884765625,-41.541984732824424,11.404580152671755,11.435114503816793,-9.526528405761718,-0.5889736083984375,2.9041666137695312,-20.564885496183205,-17.17557251908397,-6.0,0.0
11.660000801086426,-9.670180505371093,1.9584569580078124,0.7613561279296874,-46.961832061068705,5.4961832061068705,10.320610687022901,-9.14824454345703,-0.016759411621093748,2.6958710693359373,-21.6793893129771,-18.18320610687023,-7.587786259541985,0.0
11.670000791549683,-8.95670841064453,0.373495458984375,0.8978256225585937,-40.47328244274809,8.488549618320612,11.312977099236642,-9.265560424804686,-0.0143652099609375,2.93050283203125,-21.87786259541985,-16.702290076335878,-6.244274809160306,0.0
11.68000054359436,-9.888052856445311,0.737414111328125,1.1947066284179686,-43.404580152671755,9.16030534351145,10.122137404580153,-9.737218151855469,-0.3399766357421875,3.0741549316406247,-21.16030534351145,-16.68702290076336,-4.656488549618321,0.0
11.690000534057617,-9.861716638183593,0.3902548706054687,0.7326257080078125,-42.030534351145036,6.748091603053435,9.954198473282442,-9.9215716796875,-0.411802685546875,2.5641899780273434,-22.732824427480917,-16.68702290076336,-4.320610687022901,0.0
11.700000524520874,-9.64623848876953,-0.0143652099609375,0.7254431030273437,-38.44274809160305,8.091603053435115,8.870229007633588,-9.311050256347656,0.3232172241210937,2.8371289672851563,-27.603053435114504,-14.977099236641221,-4.106870229007634,0.0
11.71000051498413,-9.495403784179686,-0.2825157958984375,0.5985504150390625,-35.083969465648856,8.51908396946565,6.900763358778626,-9.294290844726563,-0.32561142578124996,2.729389892578125,-29.923664122137403,-14.580152671755725,-1.83206106870229,0.0
11.720000505447388,-9.890447058105469,-0.08140285644531249,1.0749965454101562,-29.72519083969466,9.755725190839694,5.557251908396947,-10.606313354492187,-1.5562310791015623,3.265691064453125,-22.213740458015266,-15.083969465648854,0.21374045801526717,0.0
11.730000495910645,-9.512163195800781,-0.3902548706054687,1.01514150390625,-22.412213740458014,9.465648854961833,4.99236641221374,-9.746794958496093,-1.3934253662109375,2.5234885498046875,-17.893129770992367,-21.251908396946565,-2.5801526717557253,0.0
11.740000247955322,-8.863334545898438,-0.6751648681640625,0.9888052856445312,-9.938931297709924,12.793893129770993,4.0458015267175576,-8.427589843749999,-0.6536170532226562,2.6599580444335937,-18.885496183206108,-21.267175572519083,-4.137404580152672,0.0
11.750000476837158,-10.228029492187499,2.1260510742187497,1.8339584716796873,-17.954198473282442,11.938931297709924,2.015267175572519,-9.337386474609374,-0.5051765502929687,2.7341782958984373,-20.916030534351144,-18.27480916030534,-2.7022900763358777,0.0
11.760000705718994,-10.24000050048828,2.023100402832031,1.5562310791015623,-19.6793893129771,9.801526717557252,4.0,-8.444349255371094,0.3232172241210937,2.0470424194335934,-29.083969465648856,-16.229007633587788,-2.6564885496183206,0.0
11.770000696182251,-9.306261853027344,0.9911994873046874,1.01514150390625,-15.801526717557252,11.572519083969466,5.541984732824427,-9.181763366699219,-0.86191259765625,2.1883003173828124,-30.610687022900763,-12.106870229007633,0.16793893129770993,0.0
11.780000925064087,-9.327809667968749,0.8762778076171874,0.8164227661132812,-18.137404580152673,11.664122137404581,4.213740458015267,-9.397241516113281,-1.4532804077148436,2.3032219970703123,-25.84732824427481,-11.541984732824428,0.16793893129770993,0.0
11.790000677108765,-9.3086560546875,0.948103857421875,0.5243301635742187,-18.198473282442748,11.954198473282442,2.16793893129771,-9.291896643066405,-1.4724340209960938,2.3870190551757813,-20.0,-10.687022900763358,-0.8091603053435115,0.0
11.8000009059906,-9.79946739501953,1.1563994018554686,0.6512228515624999,-19.404580152671755,13.267175572519085,1.2213740458015268,-9.299079248046874,-1.9728221679687499,2.499546533203125,-13.98473282442748,-9.557251908396946,-0.9923664122137404,0.0
11.810000658035278,-9.605537060546874,1.0821791503906248,0.7015010864257812,-17.83206106870229,14.13740458015267,0.6564885496183206,-9.478644372558593,-1.695094775390625,2.039859814453125,-3.5267175572519083,-13.297709923664122,-3.145038167938931,0.0
11.820000648498535,-10.244788903808594,1.6807295654296874,1.0893617553710937,-18.0,14.320610687022901,-0.015267175572519083,-8.300697155761718,-1.2401964599609374,2.0254946044921875,-1.0381679389312977,-14.488549618320612,-5.3893129770992365,0.0
11.830000638961792,-10.129867224121092,1.7717092285156248,1.5322890624999999,-17.0381679389313,14.778625954198473,-0.33587786259541985,-8.394071020507813,-1.4987702392578124,2.568978381347656,0.7786259541984732,-11.541984732824428,-4.366412213740458,0.0
11.840000867843628,-10.309432348632813,1.6017209106445311,1.43652099609375,-18.83969465648855,13.053435114503817,-0.2595419847328244,-9.066841687011719,-1.2641384765625,1.8363526733398436,5.419847328244275,-14.045801526717558,-4.961832061068702,0.0
11.850000858306885,-9.576806640625,1.5275006591796874,1.5825672973632812,-17.938931297709924,12.106870229007633,-0.3053435114503817,-9.351751684570312,-1.1252747802734375,2.935291235351562,4.931297709923665,-9.083969465648854,-4.152671755725191,0.0
11.860000610351562,-9.617508068847656,1.0941501586914062,1.4820108276367188,-19.083969465648856,10.961832061068701,-0.3511450381679389,-9.093177905273437,-0.47644613037109373,2.0566192260742184,2.50381679389313,-9.17557251908397,-5.816793893129771,0.0
11.870000839233398,-9.437942944335937,0.8762778076171874,1.62805712890625,-17.66412213740458,11.511450381679388,-0.9770992366412213,-8.262389929199218,-0.28490999755859375,2.2002713256835937,-7.236641221374046,-2.8702290076335877,-5.083969465648855,0.0
11.880000591278076,-9.911994873046874,0.9145850341796874,1.5921441040039062,-17.61832061068702,10.854961832061068,-1.2213740458015268,-8.683769421386717,-1.2880804931640624,2.384624853515625,-3.984732824427481,-1.0687022900763359,-3.9389312977099236,0.0
11.890000581741333,-9.667786303710937,1.0223241088867188,1.2808978881835937,-13.755725190839694,9.648854961832061,-1.816793893129771,-9.239224206542968,-1.6639701538085936,2.6192566162109374,2.427480916030534,-0.5343511450381679,-5.022900763358779,0.0
11.900000810623169,-9.629479077148437,0.9193734375,1.0606313354492187,-10.732824427480915,9.312977099236642,-1.4198473282442747,-8.846575134277343,-1.4221557861328125,2.7557261108398436,5.709923664122138,0.5343511450381679,-6.2748091603053435,0.0
11.910000801086426,-9.318232861328125,0.7852981445312499,1.1420341918945311,-7.938931297709924,9.633587786259541,-1.8931297709923665,-8.82981572265625,-1.369483349609375,2.7940333374023436,8.900763358778626,2.351145038167939,-5.526717557251908,0.0
11.920000553131104,-9.37808790283203,0.8499415893554687,1.0103531005859374,-6.748091603053435,8.793893129770993,-2.4580152671755724,-9.047688073730468,-1.1923124267578125,2.7748797241210936,11.419847328244275,3.480916030534351,-5.511450381679389,0.0
11.93000078201294,-9.473855969238281,0.7948749511718749,1.0031704956054688,-4.534351145038168,8.595419847328245,-2.8091603053435112,-9.050082275390624,-0.9792284790039062,2.8371289672851563,11.740458015267176,4.809160305343512,-5.4961832061068705,0.0
11.940000534057617,-9.603142858886718,0.8858546142578124,0.8212111694335937,-2.7786259541984735,9.007633587786259,-3.282442748091603,-8.712499841308594,-0.74699091796875,2.6599580444335937,11.358778625954198,5.358778625954199,-5.694656488549619,0.0
11.950000762939453,-9.612719665527344,1.0486603271484374,1.0223241088867188,-0.6412213740458015,9.038167938931299,-3.954198473282443,-8.8872765625,-0.8571241943359375,2.923320227050781,13.053435114503817,6.305343511450381,-5.00763358778626,0.0
11.96000051498413,-9.660603698730467,0.9050082275390624,1.1324573852539062,1.0687022900763359,8.595419847328245,-4.564885496183206,-8.954314208984375,-0.9983820922851562,2.863465185546875,14.580152671755725,7.022900763358779,-4.6106870229007635,0.0
11.970000505447388,-9.562441430664062,0.9600748657226562,1.0007762939453124,2.122137404580153,8.351145038167939,-5.267175572519084,-8.820238916015624,-1.024718310546875,2.844311572265625,15.34351145038168,7.648854961832061,-4.519083969465649,0.0
11.980000495910645,-9.641450085449218,1.1085153686523437,1.2665326782226562,3.648854961832061,7.526717557251908,-5.541984732824427,-8.789114294433594,-0.8188169677734375,2.844311572265625,15.48091603053435,8.183206106870228,-5.068702290076335,0.0
11.990000486373901,-9.519345800781249,0.7972691528320313,1.4796166259765624,5.877862595419847,6.9465648854961835,-5.8320610687022905,-8.923189587402343,-0.86191259765625,2.916137622070312,15.404580152671755,9.251908396946565,-4.67175572519084,0.0
12.000000476837158,-9.3852705078125,0.7493851196289062,1.0582371337890624,7.862595419847328,6.488549618320611,-6.6106870229007635,-8.70771143798828,-0.7924807495117187,2.8227637573242186,15.038167938931299,9.114503816793894,-5.923664122137405,0.0
12.010000705718994,-9.121908325195312,1.0031704956054688,1.2713210815429687,8.931297709923664,6.229007633587786,-7.221374045801527,-9.042899670410156,-1.0965443603515623,2.89219560546875,16.793893129770993,9.938931297709924,-5.694656488549619,0.0
12.02000093460083,-9.100360510253905,1.0319009155273438,1.3551181396484375,9.938931297709924,5.908396946564886,-8.076335877862595,-9.09796630859375,-1.1348515869140625,3.0741549316406247,18.061068702290076,9.603053435114504,-6.412213740458015,0.0
12.030000686645508,-9.591171850585937,1.5298948608398437,1.4101847778320311,10.091603053435115,5.3893129770992365,-8.625954198473282,-9.0788126953125,-1.3192051147460937,3.0502129150390624,19.19083969465649,9.938931297709924,-6.870229007633588,0.0
12.040000915527344,-9.390058911132812,1.5777788940429687,1.458068811035156,10.244274809160306,3.9083969465648853,-8.50381679389313,-9.026140258789061,-1.1611878051757811,3.1603461914062496,20.0,10.0,-7.6183206106870225,0.0
12.050000667572021,-8.525752111816406,-0.028730419921875,1.0079588989257813,17.69465648854962,2.198473282442748,-7.862595419847328,-8.90643017578125,-1.0366893188476562,3.210624426269531,21.236641221374047,10.0,-7.923664122137405,0.0
12.060000658035278,-9.457096557617186,0.7829039428710937,1.7214309936523438,19.022900763358777,3.0839694656488548,-9.908396946564885,-8.911218579101561,-1.0390835205078124,3.208230224609375,23.389312977099237,9.435114503816793,-7.9541984732824424,0.0
12.070001125335693,-11.020510241699219,2.674323254394531,2.952050646972656,16.045801526717558,2.427480916030534,-13.251908396946565,-8.52335791015625,-0.8954314208984374,3.1100679565429687,23.984732824427482,8.091603053435115,-7.923664122137405,0.0
12.080000638961792,-10.445901843261717,2.492363928222656,3.6583401367187496,17.31297709923664,-0.22900763358778625,-13.435114503816793,-8.259995727539062,-0.679953271484375,2.9376854370117185,23.770992366412212,7.4961832061068705,-7.450381679389313,0.0
12.090000629425049,-10.036493359375,2.252943762207031,3.4548329956054684,10.931297709923664,-9.267175572519085,-11.068702290076336,-8.391676818847655,-0.51714755859375,2.9640216552734375,22.885496183206108,7.587786259541985,-6.824427480916031,0.0
12.100000619888306,-9.72285294189453,1.1851298217773436,3.766079211425781,15.267175572519085,-16.0,-10.717557251908397,-7.915230688476562,-0.00239420166015625,2.4588451049804685,20.625954198473284,8.106870229007633,-7.3893129770992365,0.0
12.110000848770142,-9.423577734375,1.0486603271484374,4.3071687866210935,20.015267175572518,-19.954198473282442,-11.648854961832061,-6.394912634277343,0.8092401611328125,1.8770541015625,8.488549618320612,11.48091603053435,-8.198473282442748,0.0
12.12000036239624,-9.291896643066405,0.16759411621093748,4.455609289550781,26.549618320610687,-26.549618320610687,-11.725190839694656,-6.801926916503906,0.3016694091796875,2.0278888061523435,1.8015267175572518,17.938931297709924,-4.8396946564885495,0.0
12.130000352859497,-9.425971936035156,-0.22744915771484372,4.8889597900390624,33.45038167938932,-30.885496183206108,-12.15267175572519,-6.586448767089843,0.11252747802734374,0.8116343627929687,-3.267175572519084,18.27480916030534,-3.099236641221374,0.0
12.140000343322754,-9.265560424804686,-0.373495458984375,5.212177014160156,40.213740458015266,-37.45038167938932,-14.458015267175572,-6.246472131347656,1.6304513305664061,0.47165772705078124,-7.938931297709924,23.66412213740458,-1.9389312977099236,0.0
12.150000810623169,-9.112331518554686,0.00718260498046875,5.779602807617187,48.48854961832061,-43.29770992366412,-15.465648854961833,-6.945579016113281,0.17477672119140625,0.9050082275390624,-8.274809160305344,32.48854961832061,1.618320610687023,0.0
12.160000562667847,-10.352527978515624,2.4133552734375,7.259219433593749,46.56488549618321,-51.23664122137404,-17.587786259541986,-8.95670841064453,-2.7437551025390623,2.5330653564453125,4.458015267175573,33.3587786259542,0.8091603053435115,0.0
12.170001029968262,-10.153809240722655,2.9831752685546875,6.773196496582031,47.038167938931295,-70.83969465648855,-15.083969465648854,-8.78432589111328,-4.209006518554688,2.1787235107421874,7.694656488549619,29.34351145038168,-7.511450381679389,0.0
12.18000054359436,-9.679757312011718,3.3710359375,6.5218053222656245,47.61832061068702,-84.54961832061069,-10.351145038167939,-7.9463553100585935,-4.067748620605468,-0.32082302246093747,-3.053435114503817,31.129770992366414,-19.206106870229007,0.0
12.190000534057617,-9.631873278808593,3.0789433349609374,6.129156249999999,42.87022900763359,-97.86259541984732,-7.709923664122138,-10.536881506347656,-5.691017346191406,-0.9121908325195311,-12.229007633587786,48.656488549618324,-34.06106870229008,0.0
12.200000286102295,-8.623914379882812,1.5825672973632812,4.936843823242187,39.6793893129771,-113.0381679389313,-5.526717557251908,-15.021221215820312,-9.579200842285156,1.199495031738281,-0.6564885496183206,54.54961832061068,-49.00763358778626,0.0
12.21000051498413,-9.794678991699218,0.02154781494140625,4.331110803222656,43.48091603053435,-120.7175572519084,-7.66412213740458,-17.099388256835937,-9.380482104492186,4.639962817382812,31.587786259541986,39.87786259541985,-58.87022900763359,0.0
12.220000505447388,-10.89840595703125,-2.0661960327148434,3.414131567382812,49.587786259541986,-126.47328244274809,-8.351145038167939,-15.356409448242186,-2.9664158569335934,6.1626750732421876,59.725190839694655,21.31297709923664,-53.69465648854962,0.0
12.230000495910645,-13.87918702392578,-2.5330653564453125,3.047818713378906,61.770992366412216,-126.68702290076335,-9.068702290076336,-13.584700219726562,0.488417138671875,6.636727001953124,74.01526717557252,10.625954198473282,-35.06870229007634,0.0
12.240000486373901,-14.058752148437499,-4.2688615600585935,0.9433154541015625,80.29007633587786,-129.7709923664122,-5.816793893129771,-11.441889733886718,3.584119885253906,5.003881469726562,76.09160305343511,-4.320610687022901,-15.648854961832061,0.0
12.250000476837158,-15.306131213378904,-4.094084838867187,-0.028730419921875,107.77099236641222,-122.56488549618321,-3.5419847328244276,-10.922347973632812,5.0014872680664055,3.6918589599609373,67.09923664122137,-3.66412213740458,-3.49618320610687,0.0
12.260000705718994,-14.477737438964843,-3.6152445068359373,-1.2234370483398436,121.3587786259542,-116.87022900763358,-0.9618320610687023,-8.365340600585936,5.149927770996094,0.7757213378906249,55.74045801526717,-8.01526717557252,0.9923664122137404,0.0
12.270000457763672,-13.91749425048828,-2.528276953125,-1.0797849487304687,126.38167938931298,-105.43511450381679,0.3511450381679389,-7.170633972167968,2.5163059448242184,-0.46686932373046874,34.213740458015266,2.213740458015267,6.229007633587786,0.0
12.280001163482666,-11.9518546875,-2.31758720703125,-1.3383587280273437,122.51908396946565,-98.85496183206106,2.015267175572519,-7.316680273437499,-0.9074024291992187,-1.0749965454101562,17.480916030534353,13.49618320610687,7.816793893129771,0.0
12.290000438690186,-11.3772462890625,-1.180341418457031,-0.8403647827148437,114.90076335877863,-87.77099236641222,1.4198473282442747,-8.396465222167969,-3.220201232910156,-1.8100164550781248,6.091603053435114,22.290076335877863,5.114503816793893,0.0
12.3000009059906,-9.82580361328125,1.01514150390625,-0.46686932373046874,103.06870229007633,-80.62595419847328,-1.4961832061068703,-10.237606298828124,-3.785232824707031,-1.838746875,-2.198473282442748,32.18320610687023,0.8854961832061069,0.0
12.310000658035278,-9.141061938476563,2.7150246826171873,0.23223756103515625,87.40458015267176,-69.61832061068702,-4.183206106870229,-9.37808790283203,-5.2624552490234375,-1.714248388671875,-1.465648854961832,32.534351145038165,-3.312977099236641,0.0
12.320000410079956,-8.568847741699217,3.0262708984374997,0.2657563842773437,68.82442748091603,-60.33587786259542,-6.3816793893129775,-10.486603271484375,-5.863399865722656,-0.8643067993164062,10.290076335877863,31.786259541984734,-4.9465648854961835,0.0
12.330000638961792,-9.02135185546875,3.4452561889648434,0.9265560424804687,46.99236641221374,-50.10687022900763,-9.633587786259541,-11.204863769531249,-4.632780212402343,-0.6081272216796875,16.778625954198475,31.61832061068702,-8.030534351145038,0.0
12.340000629425049,-9.313444458007812,3.105279553222656,1.1252747802734375,27.81679389312977,-40.87022900763359,-11.526717557251908,-10.570400329589843,-3.201047619628906,0.39983167724609375,18.290076335877863,35.45038167938932,-6.732824427480916,0.0
12.350000619888306,-8.939948999023438,2.9472622436523435,0.6631938598632812,8.442748091603054,-36.70229007633588,-10.732824427480915,-10.395623608398436,-3.5051112304687497,0.6703764648437499,25.099236641221374,33.55725190839695,-4.152671755725191,0.0
12.360000371932983,-8.212111694335936,-0.14125789794921875,-0.6272808349609375,-2.381679389312977,-28.366412213740457,-9.129770992366412,-10.35492218017578,-3.2920272827148436,1.9512743530273435,35.23664122137404,32.12213740458015,-1.7099236641221374,0.0
12.370000839233398,-8.796296899414061,1.3910311645507811,0.040701428222656245,-17.022900763358777,-21.480916030534353,-11.007633587786259,-8.796296899414061,-0.8379705810546875,0.7733271362304687,37.3587786259542,22.82442748091603,-5.572519083969466,0.0
12.380000591278076,-8.231265307617187,0.4955997436523437,0.03591302490234375,-22.870229007633586,-14.625954198473282,-8.80916030534351,-9.382876306152344,-1.1013327636718748,1.2713210815429687,34.2442748091603,25.419847328244273,-1.816793893129771,0.0
12.390000343322754,-7.031770275878906,-0.5051765502929687,-0.5051765502929687,-25.297709923664122,-7.465648854961832,-5.969465648854962,-9.414000927734374,-0.20350714111328125,1.4963760375976562,28.946564885496183,24.48854961832061,-0.21374045801526717,0.0
12.400000810623169,-6.313509777832031,-0.7685387329101562,-0.6871358764648438,-22.80916030534351,0.22900763358778625,-6.076335877862595,-9.665392102050781,-0.05027823486328125,1.5562310791015623,19.862595419847327,25.221374045801525,2.0763358778625953,0.0
12.410000801086426,-6.1076084350585935,-0.5698199951171875,-0.507570751953125,-23.740458015267176,8.381679389312977,-5.557251908396947,-9.536105212402344,-0.4333505004882812,1.5777788940429687,11.923664122137405,24.702290076335878,3.6030534351145036,0.0
12.420000553131104,-5.585672473144531,-0.13407529296874998,-0.3495534423828125,-26.48854961832061,15.34351145038168,-6.977099236641221,-9.172186560058593,-0.26815058593749996,1.608903515625,3.236641221374046,24.50381679389313,4.213740458015267,0.0
12.43000078201294,-5.947196923828125,0.488417138671875,0.26815058593749996,-34.50381679389313,20.595419847328245,-8.15267175572519,-10.20887587890625,-1.9201497314453124,2.214636535644531,2.2748091603053435,23.84732824427481,7.526717557251908,0.0
12.440000534057617,-5.415684155273437,0.16041151123046873,0.5482721801757812,-39.63358778625954,25.099236641221374,-9.19083969465649,-10.060435375976562,-1.668758557128906,2.592920397949219,3.7557251908396947,18.48854961832061,7.068702290076335,0.0
12.450000762939453,-6.105214233398437,0.9720458740234375,1.484405029296875,-46.82442748091603,29.61832061068702,-11.038167938931299,-8.949525805664061,-0.9265560424804687,2.43250888671875,-0.1984732824427481,13.664122137404581,5.32824427480916,0.0
12.46000075340271,-5.741295581054687,0.5722141967773438,1.656787548828125,-51.14503816793893,32.091603053435115,-10.427480916030534,-9.342174877929686,-1.3455413330078123,2.6862942626953124,-2.351145038167939,11.923664122137405,6.763358778625954,0.0
12.470000505447388,-6.236895324707031,0.6512228515624999,2.3535002319335936,-53.81679389312977,35.52671755725191,-10.977099236641221,-9.33978067626953,-1.3646949462890625,2.578555187988281,-3.9236641221374047,7.6183206106870225,6.961832061068702,0.0
12.480000495910645,-4.936843823242187,-1.4173673828125,1.3144167114257812,-40.68702290076336,40.19847328244275,-8.931297709923664,-9.49300958251953,-2.0973206542968748,2.8467057739257813,-2.5343511450381677,5.66412213740458,8.13740458015267,0.0
12.490000486373901,-4.189852905273438,-3.172317199707031,0.5099649536132812,-22.732824427480917,48.213740458015266,-9.404580152671755,-9.03332286376953,-3.306392492675781,2.4875755249023435,7.801526717557252,-1.6030534351145038,6.0,0.0
12.500000715255737,-5.2624552490234375,-3.6439749267578123,0.8068459594726562,-8.900763358778626,58.54961832061068,-15.755725190839694,-9.560047229003906,-2.6096798095703124,2.588131994628906,15.404580152671755,-4.091603053435114,3.0839694656488548,0.0
12.510000705718994,-5.116408947753906,-2.798821740722656,0.9241618408203125,4.290076335877862,66.73282442748092,-20.870229007633586,-7.999027746582031,-0.4836287353515625,1.9847931762695312,9.709923664122137,-7.572519083969466,-0.6717557251908397,0.0
12.52000093460083,-5.868188269042968,-2.3415292236328122,1.6136919189453125,11.923664122137405,73.72519083969466,-25.099236641221374,-8.319850769042969,-0.0383072265625,2.6671406494140624,-1.1755725190839694,-3.1603053435114505,2.3206106870229006,0.0
12.530000925064087,-6.7277066650390625,-0.679953271484375,2.3151930053710936,21.251908396946565,78.45801526717557,-26.916030534351144,-7.958326318359375,0.01915361328125,2.5522189697265625,-12.748091603053435,-6.442748091603053,3.6793893129770994,0.0
12.540000915527344,-7.4699091796875,0.20350714111328125,2.9927520751953125,27.435114503816795,81.00763358778626,-27.49618320610687,-9.612719665527344,-1.656787548828125,3.459621398925781,-16.83969465648855,-6.732824427480916,6.885496183206107,0.0
12.550000667572021,-8.111555224609374,0.6919242797851562,3.890577697753906,34.778625954198475,82.99236641221374,-26.412213740458014,-9.6917283203125,-2.592920397949219,3.957615344238281,-15.84732824427481,-11.725190839694656,6.595419847328245,0.0
12.560000896453857,-7.912836486816405,0.3495534423828125,4.039018200683594,42.25954198473283,81.37404580152672,-23.81679389312977,-9.394847314453125,-2.319981408691406,3.766079211425781,-13.633587786259541,-16.198473282442748,4.183206106870229,0.0
12.570000886917114,-9.354145886230468,1.7334020019531249,5.6766521362304685,44.900763358778626,78.36641221374046,-23.572519083969464,-9.370905297851563,-3.909731311035156,3.8953661010742184,-6.916030534351145,-20.076335877862597,6.290076335877862,0.0
12.580000638961792,-11.7603185546875,3.6918589599609373,7.738059765625,35.969465648854964,68.18320610687023,-20.916030534351144,-10.216058483886718,-4.173093493652344,3.7612908081054686,10.030534351145038,-29.603053435114504,6.198473282442748,0.0
12.59000039100647,-12.536039892578124,5.183446594238281,9.100360510253905,28.595419847328245,55.770992366412216,-13.114503816793894,-9.05965908203125,-2.3630770385742186,3.6080619018554687,17.923664122137403,-41.80152671755725,1.8931297709923665,0.0
12.600000619888306,-11.537657800292967,4.141968872070312,8.353369592285155,19.129770992366414,40.06106870229008,-1.3282442748091603,-7.625532287597656,0.22744915771484372,2.176329309082031,10.091603053435115,-47.43511450381679,0.183206106870229,0.0
12.610000610351562,-10.299855541992187,5.248090039062499,8.10197841796875,9.801526717557252,26.38167938931298,8.610687022900763,-6.366182214355469,1.9632453613281249,1.7717092285156248,-6.67175572519084,-46.88549618320611,3.3435114503816794,0.0
12.62000060081482,-11.121066711425781,4.61602080078125,8.633491186523438,-7.312977099236641,16.076335877862597,14.732824427480915,-6.682216833496093,1.1037269653320312,2.9185318237304685,-18.50381679389313,-42.33587786259542,12.50381679389313,0.0
12.630001068115234,-9.923965881347655,1.0366893188476562,6.957550024414062,-11.923664122137405,-1.450381679389313,24.763358778625953,-7.287949853515625,-0.6919242797851562,2.6336218261718747,-20.12213740458015,-44.778625954198475,18.916030534351144,0.0
12.640000581741333,-10.268730920410155,-1.1180921752929687,7.781155395507812,6.870229007633588,-2.8396946564885495,31.00763358778626,-6.825868933105468,-1.024718310546875,1.8770541015625,-27.0381679389313,-49.51145038167939,19.69465648854962,0.0
12.650000810623169,-10.481814868164061,-0.9457096557617187,7.414842541503906,23.236641221374047,-6.5038167938931295,34.61068702290076,-7.635109094238281,-1.4030021728515625,1.879448303222656,-38.79389312977099,-46.25954198473283,17.450381679389313,0.0
12.660000324249268,-10.40041201171875,-0.047884033203124995,3.861847277832031,31.282442748091604,-5.6183206106870225,37.87786259541985,-9.878476049804688,-3.229778039550781,1.218648645019531,-42.88549618320611,-43.404580152671755,21.374045801526716,0.0
12.670001029968262,-10.800243688964843,0.18914193115234373,1.89620771484375,15.770992366412214,-3.8931297709923665,33.083969465648856,-10.137049829101562,-3.6439749267578123,0.6943184814453125,-40.97709923664122,-42.88549618320611,21.328244274809162,0.0
12.68000054359436,-12.349292163085936,-1.4532804077148436,3.593696691894531,-11.801526717557252,-8.687022900763358,20.83969465648855,-10.43153663330078,-4.759672900390624,0.3112462158203125,-32.656488549618324,-42.47328244274809,21.19083969465649,0.0
12.690000772476196,-13.340491650390625,-2.882618798828125,5.7125651611328125,-23.61832061068702,-17.14503816793893,8.595419847328245,-9.212887988281249,-5.305550878906249,-0.7541735229492187,-17.328244274809162,-45.099236641221374,18.870229007633586,0.0
12.700000286102295,-14.276624499511717,-1.6519991455078125,5.616797094726562,-14.15267175572519,-21.435114503816795,2.366412213740458,-10.366893188476562,-4.903325,-0.9337386474609375,-0.8244274809160306,-41.43511450381679,15.587786259541986,0.0
12.71000051498413,-14.57589970703125,2.7246014892578123,3.2537200561523436,-0.44274809160305345,-18.27480916030534,7.572519083969466,-10.589553942871094,-3.469198205566406,-0.8810662109374999,4.793893129770993,-36.33587786259542,12.122137404580153,0.0
12.720000505447388,-15.820884570312499,7.941566906738281,0.7158662963867187,-0.9465648854961832,-12.13740458015267,17.51145038167939,-11.075576879882812,-4.058171813964844,-0.565031591796875,17.801526717557252,-37.7557251908397,11.251908396946565,0.0
12.730000257492065,-15.600618017578125,10.026916552734374,-1.3862427612304686,-15.83206106870229,-8.427480916030534,28.03053435114504,-11.008539233398437,-1.879448303222656,-1.8770541015625,5.404580152671755,-35.51145038167939,0.7175572519083969,0.0
12.740000486373901,-13.187262744140623,6.057330200195312,-1.70467158203125,-39.16030534351145,-4.015267175572519,37.847328244274806,-12.969390393066405,-2.2026655273437497,-1.3215993164062498,-3.877862595419847,-17.00763358778626,-3.816793893129771,0.0
12.750000715255737,-10.931924780273437,0.08140285644531249,-1.2785036865234374,-53.969465648854964,-1.6488549618320612,34.62595419847328,-15.74905852050781,-3.7038299682617186,-1.1635820068359375,9.32824427480916,-11.801526717557252,-7.908396946564886,0.0
12.760000705718994,-8.518569506835936,-3.2537200561523436,-1.6519991455078125,-53.89312977099237,2.9923664122137406,24.16793893129771,-16.05791053466797,-4.302380383300781,-0.26815058593749996,21.6793893129771,-8.641221374045802,-13.236641221374045,0.0
12.770000457763672,-7.304709265136719,-4.070142822265625,-2.1883003173828124,-46.717557251908396,9.770992366412214,9.709923664122137,-14.903905334472656,-2.3415292236328122,0.028730419921875,34.19847328244275,-6.8396946564885495,-19.541984732824428,0.0
12.780000925064087,-7.218518005371093,-1.3575123413085937,-2.7078420776367187,-39.64885496183206,16.65648854961832,-2.183206106870229,-13.639766857910155,-1.0031704956054688,0.47884033203125,37.12977099236641,-2.381679389312977,-21.66412213740458,0.0
12.790000438690186,-6.375759020996093,-1.7453730102539062,-3.687070556640625,-30.748091603053435,22.396946564885496,-4.534351145038168,-11.578359228515625,1.2401964599609374,0.7326257080078125,34.656488549618324,0.42748091603053434,-21.282442748091604,0.0
12.800000667572021,-7.563283044433593,-0.3399766357421875,-1.8195932617187498,-16.30534351145038,39.37404580152672,-7.877862595419847,-10.654197387695312,3.1220389648437497,0.26336218261718747,26.137404580152673,5.221374045801527,-17.862595419847327,0.0
12.810000658035278,-8.892064965820312,2.0374656127929685,-0.40222587890625,-12.320610687022901,46.732824427480914,-9.34351145038168,-10.529698901367187,1.8076222534179687,1.7932570434570312,19.16030534351145,17.129770992366414,-9.16030534351145,0.0
12.820000410079956,-9.739612353515625,2.214636535644531,0.7517793212890624,-16.442748091603054,46.56488549618321,-6.412213740458015,-9.840168823242188,1.9225439331054686,1.7501614135742187,26.641221374045802,15.908396946564885,-5.694656488549619,0.0
12.830000638961792,-10.172962854003906,1.3144167114257812,0.93852705078125,-16.83969465648855,43.93893129770992,-4.870229007633588,-9.361328491210937,2.2936451904296873,1.9800047729492187,29.129770992366414,16.244274809160306,-2.4885496183206106,0.0
12.840000629425049,-10.302249743652343,2.070984436035156,1.6998831787109374,-23.16030534351145,39.16030534351145,-3.8625954198473282,-8.303091357421874,3.6272155151367187,2.032677209472656,24.641221374045802,18.0,0.3816793893129771,0.0
12.850000619888306,-12.057199560546874,2.5426421630859375,2.913743420410156,-33.74045801526717,32.2442748091603,-1.786259541984733,-8.410830432128906,4.541800549316406,2.2026655273437497,16.16793893129771,21.114503816793892,6.076335877862595,0.0
12.860000371932983,-10.924742175292968,0.842758984375,2.710236279296875,-36.213740458015266,23.87786259541985,2.6259541984732824,-8.528146313476562,4.8123453369140625,2.3726538452148436,0.6412213740458015,25.16030534351145,12.946564885496183,0.0
12.87000060081482,-8.051700183105469,-3.0837317382812497,1.0654197387695312,-17.587786259541986,21.51145038167939,6.1679389312977095,-7.886500268554687,3.5529952636718747,2.2170307373046874,-15.435114503816793,28.53435114503817,18.916030534351144,0.0
12.880000591278076,-9.373299499511718,-0.8451531860351562,1.6424223388671875,-6.213740458015267,24.900763358778626,0.8396946564885496,-8.63109698486328,3.423708374023437,2.923320227050781,-21.541984732824428,32.56488549618321,23.786259541984734,0.0
12.890000343322754,-9.612719665527344,0.679953271484375,1.956062756347656,-1.1908396946564885,24.778625954198475,-1.9236641221374047,-8.104372619628906,2.5474305664062498,2.999934680175781,-28.015267175572518,29.6793893129771,26.15267175572519,0.0
12.90000033378601,-9.131485131835937,1.1923124267578125,1.7214309936523438,-0.42748091603053434,21.755725190839694,-0.5954198473282443,-8.17859287109375,1.8243816650390623,2.1906945190429687,-35.38931297709924,24.763358778625953,26.99236641221374,0.0
12.910000801086426,-8.98304462890625,2.1356278808593747,2.099714855957031,-1.0687022900763359,21.328244274809162,-0.8091603053435115,-8.779537487792968,2.2936451904296873,2.0877438476562498,-47.7557251908397,26.732824427480917,28.595419847328245,0.0
12.920000553131104,-9.679757312011718,3.1962592163085937,2.6791116577148437,-5.679389312977099,19.587786259541986,0.21374045801526717,-10.297461340332031,0.6392518432617187,2.528276953125,-52.62595419847328,28.83969465648855,33.267175572519086,0.0
12.93000078201294,-9.588777648925781,2.27927998046875,2.6312276245117188,-6.961832061068702,16.15267175572519,2.1526717557251906,-11.643002673339844,-1.254561669921875,2.6503812377929687,-43.541984732824424,22.53435114503817,35.17557251908397,0.0
12.940000534057617,-9.909600671386718,2.2553379638671873,2.6767174560546874,-3.8625954198473282,14.396946564885496,3.5877862595419847,-10.043675964355469,-1.139639990234375,2.118868469238281,-36.79389312977099,10.412213740458014,28.870229007633586,0.0
12.950000524520874,-10.369287390136718,3.447650390625,2.81558115234375,-4.3816793893129775,12.885496183206106,5.297709923664122,-10.570400329589843,-1.4700398193359374,2.1452046874999997,-30.900763358778626,6.931297709923665,27.221374045801525,0.0
12.96000075340271,-9.095572106933593,3.0837317382812497,1.9967641845703124,-11.770992366412214,7.206106870229007,9.877862595419847,-9.78031378173828,-0.5602431884765625,1.6065093139648436,-36.732824427480914,2.9923664122137406,22.580152671755727,0.0
12.970000267028809,-9.330203869628905,3.189076611328125,1.93451494140625,-21.129770992366414,3.9389312977099236,11.022900763358779,-10.378864196777343,-1.350329736328125,1.7573440185546874,-37.17557251908397,1.3587786259541985,22.717557251908396,0.0
12.980000257492065,-11.183315954589844,2.978386865234375,2.408566870117187,-27.938931297709924,4.076335877862595,8.641221374045802,-10.831368310546875,-2.6599580444335937,2.2768857788085937,-34.85496183206107,0.3969465648854962,22.0,0.0
12.99000072479248,-9.619902270507811,1.656787548828125,0.7948749511718749,-27.709923664122137,-2.2595419847328246,9.801526717557252,-10.199299072265624,-1.956062756347656,1.8435352783203125,-26.53435114503817,-6.0,16.549618320610687,0.0
13.000000238418579,-8.947131604003905,1.838746875,0.411802685546875,-27.96946564885496,-2.1374045801526718,9.923664122137405,-9.97184991455078,-1.5179238525390624,1.924938134765625,-24.519083969465647,-6.793893129770993,12.916030534351146,0.0
13.010000705718994,-8.59278975830078,0.612915625,0.01915361328125,-28.015267175572518,-1.83206106870229,12.198473282442748,-9.91438907470703,-1.218648645019531,1.85790048828125,-22.763358778625953,-6.244274809160306,10.427480916030534,0.0
13.02000093460083,-8.980650427246093,0.7038952880859375,0.833182177734375,-19.419847328244273,7.236641221374046,9.49618320610687,-9.919177478027343,-1.0127473022460938,2.0063409912109376,-22.702290076335878,-6.900763358778626,7.862595419847328,0.0
13.030000686645508,-9.483432775878907,1.687912170410156,1.149216796875,-24.18320610687023,8.885496183206106,6.732824427480916,-9.828197814941406,-0.5003881469726562,1.898601916503906,-21.893129770992367,-7.923664122137405,5.66412213740458,0.0
13.040001153945923,-9.770736975097655,1.8746598999023436,1.0917559570312498,-29.16030534351145,8.183206106870228,7.251908396946565,-9.557653027343749,-0.16280571289062498,1.905784521484375,-22.595419847328245,-8.51908396946565,5.282442748091603,0.0
13.050000667572021,-9.53131680908203,1.2018892333984375,0.8475473876953125,-33.51145038167939,8.961832061068701,7.236641221374046,-9.150638745117186,0.2753331909179687,1.7429788085937499,-23.87786259541985,-8.381679389312977,5.022900763358779,0.0
13.060000658035278,-9.397241516113281,0.86191259765625,0.6871358764648438,-34.93129770992366,9.86259541984733,6.412213740458015,-9.203311181640624,0.3280056274414062,1.7788918334960937,-25.557251908396946,-7.099236641221374,5.648854961832061,0.0
13.070000410079956,-9.509768994140625,0.8906430175781249,0.38786066894531246,-35.41984732824427,10.916030534351146,5.511450381679389,-9.191340173339842,0.36391865234375,1.8028338500976562,-28.564885496183205,-5.32824427480916,6.33587786259542,0.0
13.080000638961792,-9.883264453125,0.8475473876953125,0.16519991455078123,-36.732824427480914,11.541984732824428,4.763358778625954,-9.121908325195312,0.36152445068359373,1.5873557006835937,-31.419847328244273,-4.3816793893129775,7.129770992366412,0.0
13.090000629425049,-9.813832604980469,0.4381389038085937,0.24899697265624998,-37.05343511450382,12.687022900763358,4.977099236641221,-9.045293872070312,0.2609679809570312,1.3838485595703125,-33.93893129770992,-3.145038167938931,7.786259541984733,0.0
13.100000619888306,-9.521740002441407,-0.5219359619140624,0.24899697265624998,-31.81679389312977,14.916030534351146,5.145038167938932,-9.222464794921875,-0.1580173095703125,1.1611878051757811,-35.05343511450382,-0.8091603053435115,8.427480916030534,0.0
13.110000610351562,-9.119514123535156,-0.0526724365234375,0.34237083740234375,-26.38167938931298,18.045801526717558,3.282442748091603,-9.562441430664062,-0.5530605834960938,1.158793603515625,-34.458015267175576,1.1755725190839694,8.259541984732824,0.0
13.12000060081482,-10.228029492187499,0.13646949462890623,0.8164227661132812,-30.549618320610687,16.47328244274809,1.0687022900763359,-9.715670336914062,-0.7038952880859375,1.1061211669921875,-32.0,1.7557251908396947,7.511450381679389,0.0
13.130000591278076,-10.108319409179687,0.3495534423828125,1.0438719238281249,-22.65648854961832,19.114503816793892,-0.7022900763358778,-9.797073193359374,-1.1037269653320312,1.1420341918945311,-29.419847328244273,2.4580152671755724,7.251908396946565,0.0
13.140000581741333,-10.402806213378906,1.2306196533203124,1.3048399047851562,-24.198473282442748,16.717557251908396,-2.198473282442748,-9.624690673828125,-1.01514150390625,1.1420341918945311,-26.671755725190838,2.0,5.7251908396946565,0.0
13.150001049041748,-10.146626635742187,1.2306196533203124,1.2569558715820313,-20.916030534351144,15.83206106870229,-1.6488549618320612,-9.72285294189453,-1.177947216796875,1.4245499877929686,-23.16030534351145,2.7938931297709924,4.687022900763359,0.0
13.160000324249268,-10.271125122070313,1.37906015625,1.1180921752929687,-22.53435114503817,13.86259541984733,-1.450381679389313,-9.758765966796874,-1.4053963745117186,1.6615759521484375,-21.46564885496183,2.4732824427480917,2.763358778625954,0.0
13.170000791549683,-9.974244116210937,1.1707646118164061,1.0366893188476562,-21.603053435114504,13.816793893129772,-1.099236641221374,-9.701305126953125,-1.4173673828125,1.8722656982421875,-18.580152671755727,2.7480916030534353,1.1450381679389312,0.0
13.18000054359436,-10.120290417480469,1.3072341064453123,1.180341418457031,-22.442748091603054,12.65648854961832,-1.083969465648855,-9.991003527832031,-1.8219874633789062,2.2673089721679687,-14.0,1.7099236641221374,-0.3511450381679389,0.0
13.190000772476196,-9.651026892089844,0.9888052856445312,0.8044517578125,-20.427480916030536,13.129770992366412,-1.2213740458015268,-10.036493359375,-1.2234370483398436,1.9847931762695312,-14.183206106870228,1.0534351145038168,-3.1755725190839694,0.0
13.200000286102295,-9.947907897949218,1.5921441040039062,0.6871358764648438,-22.931297709923665,13.038167938931299,-1.7251908396946565,-9.107543115234375,-0.679953271484375,1.7405846069335937,-12.106870229007633,-1.5419847328244274,-4.99236641221374,0.0
13.21000051498413,-9.624690673828125,1.2569558715820313,0.23223756103515625,-24.366412213740457,12.931297709923664,-2.2748091603053435,-9.433154541015625,-0.47644613037109373,2.128445275878906,-12.305343511450381,-1.3282442748091603,-5.358778625954199,0.0
13.220000267028809,-10.091559997558592,1.879448303222656,0.22505495605468748,-30.80916030534351,13.450381679389313,-2.946564885496183,-9.382876306152344,-0.5961562133789062,2.205059729003906,-15.86259541984733,-1.4961832061068703,-6.152671755725191,0.0
13.230000495910645,-9.830592016601562,1.2952630981445312,0.12449848632812499,-34.030534351145036,13.664122137404581,-2.1526717557251906,-9.890447058105469,-0.5363011718749999,2.4301146850585935,-13.969465648854962,-2.198473282442748,-6.6106870229007635,0.0
13.240000486373901,-10.251971508789062,1.484405029296875,0.6584054565429687,-35.7557251908397,16.610687022900763,-2.4427480916030535,-9.603142858886718,-0.47644613037109373,2.4516625,-17.282442748091604,-2.5801526717557253,-7.984732824427481,0.0
13.250000476837158,-10.881646545410156,2.0829554443359375,0.8499415893554687,-45.93893129770992,11.053435114503817,-0.3053435114503817,-9.648632690429688,-0.15322890625,2.3918074584960936,-16.290076335877863,-4.427480916030534,-8.732824427480915,0.0
13.260000467300415,-11.846509814453125,2.224213342285156,1.3551181396484375,-48.091603053435115,11.86259541984733,1.0687022900763359,-9.411606726074218,-0.16041151123046873,2.5761609863281247,-19.96946564885496,-3.3740458015267176,-8.412213740458014,0.0
13.27000093460083,-9.80665,0.5889736083984375,0.08858546142578125,-45.45038167938932,8.610687022900763,4.091603053435114,-9.490615380859374,-0.24181436767578124,2.4779987182617185,-21.16030534351145,-3.267175572519084,-8.366412213740459,0.0
13.280000925064087,-9.016563452148437,-0.6536170532226562,-0.06464344482421874,-38.33587786259542,9.603053435114504,4.290076335877862,-9.035717065429687,-0.3064578125,2.4109610717773435,-22.53435114503817,-3.5877862595419847,-8.183206106870228,0.0
13.290000438690186,-9.22485899658203,-0.9169792358398436,0.565031591796875,-27.328244274809162,16.137404580152673,-0.16793893129770993,-9.114725720214842,-0.6200982299804687,2.607285607910156,-20.229007633587788,-3.053435114503817,-7.282442748091603,0.0
13.300000667572021,-10.460267053222656,0.7733271362304687,1.8195932617187498,-27.267175572519083,18.045801526717558,-4.427480916030534,-9.481038574218749,-0.7972691528320313,2.6575638427734374,-17.053435114503817,-3.4198473282442747,-7.038167938931298,0.0
13.310000658035278,-10.321403356933594,0.8906430175781249,1.8531120849609375,-25.64885496183206,13.419847328244275,-3.954198473282443,-9.368511096191405,-0.7015010864257812,2.568978381347656,-14.549618320610687,-3.4656488549618323,-6.6106870229007635,0.0
13.320000648498535,-9.878476049804688,0.5123591552734374,1.7549498168945312,-21.221374045801525,11.083969465648854,-2.6412213740458017,-9.430760339355468,-1.446097802734375,2.8850130004882812,-10.473282442748092,-3.9083969465648853,-5.3893129770992365,0.0
13.330000638961792,-9.567229833984374,0.612915625,1.5705962890624998,-16.458015267175572,9.419847328244275,-3.0076335877862594,-8.779537487792968,-0.7781155395507812,2.31758720703125,-5.755725190839694,-7.419847328244275,-7.267175572519084,0.0
13.34000039100647,-9.696516723632811,0.8116343627929687,1.3766659545898436,-12.687022900763358,8.595419847328245,-3.877862595419847,-7.987056738281249,-0.4165910888671875,1.7645266235351562,-2.1526717557251906,-9.679389312977099,-8.702290076335878,0.0
13.350000619888306,-9.605537060546874,0.9074024291992187,1.1635820068359375,-10.65648854961832,9.114503816793894,-3.5419847328244276,-9.251195214843749,-0.3902548706054687,1.7477672119140624,-0.732824427480916,-6.67175572519084,-7.099236641221374,0.0
13.360000848770142,-9.17458076171875,0.8020575561523438,1.0366893188476562,-8.534351145038167,9.648854961832061,-2.7938931297709924,-8.494627490234375,-0.7637503295898437,1.924938134765625,-6.106870229007634,-1.4809160305343512,-6.931297709923665,0.0
13.37000060081482,-9.478644372558593,0.5889736083984375,1.0773907470703123,-7.358778625954199,9.633587786259541,-2.6412213740458017,-8.683769421386717,-1.1348515869140625,1.8243816650390623,-1.8931297709923665,0.8091603053435115,-6.1679389312977095,0.0
13.380000829696655,-9.081206896972656,0.0143652099609375,0.9193734375,-3.5114503816793894,9.19083969465649,-3.2977099236641223,-8.942343200683593,-1.5682020874023437,1.9105729248046874,3.6030534351145036,1.5725190839694656,-6.549618320610687,0.0
13.390000343322754,-9.832986218261718,0.565031591796875,1.5490484741210937,-2.8396946564885495,8.793893129770993,-4.763358778625954,-9.016563452148437,-1.5873557006835937,2.250549560546875,8.931297709923664,2.8091603053435112,-7.893129770992366,0.0
13.40000033378601,-9.387664709472656,-0.04548983154296875,1.7980454467773437,2.519083969465649,6.687022900763359,-5.587786259541985,-8.556876733398436,-1.5969325073242187,2.013523596191406,13.221374045801527,4.320610687022901,-8.610687022900763,0.0
13.410000801086426,-9.878476049804688,0.5506663818359374,2.243366955566406,4.641221374045801,5.145038167938932,-6.793893129770993,-8.59997236328125,-1.4939818359375,1.944091748046875,16.977099236641223,5.923664122137405,-8.977099236641221,0.0
13.420000553131104,-9.509768994140625,0.16280571289062498,2.2361843505859373,11.17557251908397,2.045801526717557,-6.809160305343512,-8.540117321777343,-1.6065093139648436,2.01112939453125,20.83969465648855,7.312977099236641,-9.755725190839694,0.0
13.43000078201294,-9.382876306152344,-0.08858546142578125,2.118868469238281,19.755725190839694,1.5877862595419847,-6.259541984732825,-8.451531860351562,-1.5849614990234373,2.1883003173828124,23.69465648854962,8.549618320610687,-9.32824427480916,0.0
13.440000534057617,-7.783549597167968,-1.3814543579101561,1.1085153686523437,35.93893129770992,1.0534351145038168,-5.633587786259542,-8.406042028808594,-1.687912170410156,2.418143676757812,26.50381679389313,9.450381679389313,-9.923664122137405,0.0
13.450000762939453,-7.560888842773437,-0.24660277099609373,0.33518823242187495,41.267175572519086,1.9541984732824427,-8.381679389312977,-8.518569506835936,-1.7334020019531249,2.4396914916992185,29.83206106870229,9.587786259541986,-11.038167938931299,0.0
13.46000051498413,-7.201758593749999,0.01915361328125,-0.028730419921875,41.70992366412214,0.061068702290076333,-10.01526717557252,-8.580818749999999,-1.5203180541992187,2.6503812377929687,32.656488549618324,8.885496183206106,-12.0,0.0
13.470000505447388,-9.617508068847656,0.39743747558593745,1.3814543579101561,43.282442748091604,8.610687022900763,-14.687022900763358,-8.518569506835936,-1.3383587280273437,2.925714428710937,34.534351145038165,8.076335877862595,-12.595419847328245,0.0
13.480000495910645,-7.764395983886718,1.0342951171875,0.689530078125,42.51908396946565,4.091603053435114,-14.854961832061068,-8.628702783203124,-1.0007762939453124,2.901772412109375,35.541984732824424,7.00763358778626,-13.267175572519085,0.0
13.49000072479248,-9.763554370117188,1.2976572998046874,1.4006079711914061,39.48091603053435,4.732824427480916,-15.969465648854962,-8.559270935058594,-0.842758984375,3.1268273681640624,34.396946564885496,6.076335877862595,-13.694656488549619,0.0
13.500000476837158,-10.704475622558594,1.5897499023437498,2.4899697265625,34.213740458015266,5.603053435114504,-16.82442748091603,-8.530540515136718,-0.6560112548828124,3.0909143432617188,32.83969465648855,5.32824427480916,-13.511450381679388,0.0
13.510000944137573,-8.736441857910156,1.8076222534179687,1.678335363769531,36.30534351145038,-0.13740458015267176,-14.595419847328245,-8.353369592285155,-0.7613561279296874,3.3638533325195312,30.702290076335878,4.458015267175573,-13.725190839694656,0.0
13.52000093460083,-9.093177905273437,2.4133552734375,2.588131994628906,30.977099236641223,-1.3129770992366412,-14.106870229007633,-8.123526232910155,-0.5913678100585937,3.3877953491210935,28.076335877862597,2.5801526717557253,-13.648854961832061,0.0
13.530000686645508,-9.05965908203125,1.7932570434570312,2.7653029174804686,25.557251908396946,-8.80916030534351,-11.740458015267176,-8.212111694335936,-0.24181436767578124,3.2537200561523436,23.862595419847327,1.3893129770992367,-12.885496183206106,0.0
13.540000915527344,-9.753977563476562,2.8203695556640622,3.4261025756835934,19.0381679389313,-14.01526717557252,-10.061068702290076,-7.977479931640625,-0.239420166015625,3.1866824096679687,19.984732824427482,0.3816793893129771,-12.030534351145038,0.0
13.5500009059906,-9.404424121093749,1.3359645263671873,3.6200329101562496,18.641221374045802,-20.244274809160306,-8.076335877862595,-7.5465236328125,0.3591302490234375,3.1483751831054687,15.251908396946565,-1.5877862595419847,-10.992366412213741,0.0
13.560000896453857,-8.88009395751953,1.024718310546875,4.125209460449218,25.34351145038168,-22.977099236641223,-7.526717557251908,-7.869740856933594,0.20350714111328125,3.1794998046874996,11.16030534351145,-2.854961832061069,-9.923664122137405,0.0
13.570000648498535,-8.772354882812499,1.216254443359375,4.568136767578125,27.51145038167939,-28.3206106870229,-8.748091603053435,-8.961496813964843,-0.13646949462890623,3.897760302734375,8.198473282442748,-3.83206106870229,-13.053435114503817,0.0
13.580000638961792,-9.081206896972656,1.4221557861328125,5.044582897949218,29.236641221374047,-34.25954198473283,-9.877862595419847,-9.72285294189453,-0.6560112548828124,5.149927770996094,2.6259541984732824,-8.50381679389313,-18.0,0.0
13.590000629425049,-9.773131176757811,1.714248388671875,5.406107348632812,30.778625954198475,-41.64885496183206,-10.83969465648855,-8.645462194824217,-1.1923124267578125,4.067748620605468,-12.244274809160306,-7.648854961832061,-20.870229007633586,0.0
13.600000858306885,-9.986215124511718,1.7836802368164062,5.4515971801757805,32.0763358778626,-49.81679389312977,-10.732824427480915,-7.414842541503906,-1.7405846069335937,0.6368576416015624,-29.083969465648856,-2.2442748091603053,-23.81679389312977,0.0
13.610000848770142,-10.587159741210938,1.9225439331054686,5.1882349975585935,31.908396946564885,-60.229007633587784,-10.80916030534351,-11.324573852539062,-3.1771056030273437,-2.50912333984375,-34.916030534351144,15.450381679389313,-30.580152671755727,0.0
13.62000060081482,-9.880870251464843,1.0845733520507812,4.472368701171875,36.80916030534351,-70.90076335877863,-8.717557251908397,-12.351686364746094,-2.887407202148437,-2.389413256835937,-29.557251908396946,22.12213740458015,-37.87786259541985,0.0
13.630000352859497,-10.199299072265624,1.2832920898437499,4.675875842285156,43.32824427480916,-77.87786259541984,-7.0534351145038165,-13.788207360839843,-2.9927520751953125,0.07900865478515624,-9.053435114503817,19.64885496183206,-30.18320610687023,0.0
13.640000581741333,-10.544064111328124,-0.3806780639648437,4.197035510253906,43.20610687022901,-90.21374045801527,-4.030534351145038,-15.686809277343748,-2.50912333984375,3.5889082885742187,28.442748091603054,10.82442748091603,-15.541984732824428,0.0
13.650001049041748,-11.832144604492187,-0.086191259765625,4.551377355957031,67.55725190839695,-95.32824427480917,-0.16793893129770993,-13.350068457031249,-0.7230489013671875,3.5482068603515624,53.63358778625954,-3.435114503816794,-5.816793893129771,0.0
13.660000324249268,-14.796166259765624,1.2832920898437499,5.42047255859375,64.13740458015268,-103.96946564885496,0.7175572519083969,-10.864887133789061,2.6312276245117188,2.3151930053710936,55.465648854961835,-6.625954198473282,-0.5954198473282443,0.0
13.670001029968262,-15.327679028320311,0.5051765502929687,4.580107775878906,62.916030534351144,-114.93129770992367,8.091603053435115,-10.409988818359375,2.6312276245117188,1.9321207397460936,44.19847328244275,-1.9541984732824427,5.633587786259542,0.0
13.68000054359436,-14.532804077148437,-0.8307879760742187,2.8107927490234372,63.89312977099237,-123.49618320610686,12.076335877862595,-10.599130749511717,0.23702596435546874,0.689530078125,31.61832061068702,0.44274809160305345,5.633587786259542,0.0
13.690000772476196,-13.73314072265625,-2.243366955566406,0.27293898925781246,66.67175572519083,-127.00763358778626,11.755725190839694,-9.126696728515624,-0.6751648681640625,-0.8020575561523438,15.389312977099237,3.2519083969465647,-1.9083969465648856,0.0
13.700000524520874,-11.930306872558592,-2.9975404785156248,-1.3096283081054687,67.3587786259542,-122.97709923664122,10.16793893129771,-7.726088757324218,-1.9536685546875,-1.5586252807617187,3.9236641221374047,9.740458015267176,-6.244274809160306,0.0
13.71000051498413,-11.513715783691406,-2.6910826660156246,-1.4053963745117186,71.16030534351145,-107.98473282442748,5.847328244274809,-9.528922607421874,-5.260061047363281,-0.8834604125976562,14.610687022900763,14.641221374045802,-5.893129770992366,0.0
13.720000505447388,-10.105925207519531,-1.8602946899414061,-2.243366955566406,59.404580152671755,-102.13740458015268,3.404580152671756,-10.481814868164061,-5.125985754394531,-0.21308394775390624,26.549618320610687,13.16030534351145,-8.870229007633588,0.0
13.730000257492065,-7.146691955566406,-3.189076611328125,-3.660734338378906,69.86259541984732,-83.95419847328245,4.702290076335878,-10.165780249023436,-3.6056677001953124,-0.105344873046875,30.33587786259542,12.580152671755725,-10.916030534351146,0.0
13.740000486373901,-6.873752966308594,-2.442085693359375,-3.306392492675781,66.87022900763358,-61.02290076335878,-2.8702290076335877,-10.127473022460936,-2.0183119995117185,0.0383072265625,32.0,13.664122137404581,-10.473282442748092,0.0
13.750000476837158,-7.029376074218749,-1.649604943847656,-2.770091320800781,61.6793893129771,-42.94656488549618,-11.801526717557252,-10.16338604736328,-1.0582371337890624,-0.12689268798828124,30.53435114503817,14.51908396946565,-10.16793893129771,0.0
13.760001182556152,-7.742848168945312,-0.0383072265625,-1.5275006591796874,57.16030534351145,-25.51145038167939,-18.290076335877863,-9.526528405761718,0.6584054565429687,-0.9528922607421875,20.82442748091603,15.633587786259541,-11.725190839694656,0.0
13.770000457763672,-9.842563024902343,3.0933085449218747,0.34715924072265625,33.541984732824424,-20.549618320610687,-20.38167938931298,-7.79552060546875,-0.181959326171875,-1.467645617675781,3.3282442748091605,19.49618320610687,-9.694656488549619,0.0
13.780000925064087,-10.139444030761718,3.73495458984375,1.254561669921875,16.045801526717558,-18.27480916030534,-14.946564885496183,-9.610325463867188,-2.3415292236328122,-1.1180921752929687,-0.732824427480916,26.30534351145038,-3.8473282442748094,0.0
13.790000677108765,-10.730811840820312,4.6447512207031245,2.224213342285156,-3.877862595419847,-18.091603053435115,-9.923664122137405,-9.926360083007811,-2.7533319091796873,-0.9504980590820312,-0.015267175572519083,27.083969465648856,-3.099236641221374,0.0
13.800000667572021,-9.775525378417969,3.517082238769531,1.7741034301757812,-17.83206106870229,-20.12213740458015,-4.061068702290076,-9.260772021484375,-1.599326708984375,-0.26336218261718747,-1.0076335877862594,30.18320610687023,-4.0458015267175576,0.0
13.810000658035278,-9.054870678710937,0.9313444458007812,1.369483349609375,-24.16793893129771,-14.610687022900763,0.015267175572519083,-9.789890588378906,-2.528276953125,0.7158662963867187,1.2061068702290076,35.41984732824427,-0.015267175572519083,0.0
13.820000410079956,-7.876923461914062,-0.0718260498046875,0.3184288208007812,-25.49618320610687,-11.694656488549619,0.44274809160305345,-10.771513269042968,-2.978386865234375,1.1516109985351561,14.366412213740459,35.16030534351145,0.9312977099236641,0.0
13.830000638961792,-7.812280017089844,-0.258573779296875,-0.21068974609375,-27.19083969465649,-8.16793893129771,0.4732824427480916,-8.13310303955078,-2.2864625854492187,1.4963760375976562,16.38167938931298,27.801526717557252,-2.854961832061069,0.0
13.84000039100647,-7.592013464355468,-0.40222587890625,-0.3064578125,-25.419847328244273,0.42748091603053434,2.50381679389313,-9.382876306152344,-1.5945383056640625,1.9393033447265624,12.091603053435115,29.87786259541985,-1.9389312977099236,0.0
13.850000381469727,-6.947973217773437,-0.3447650390625,-0.4165910888671875,-28.885496183206108,7.022900763358779,2.4580152671755724,-9.907206469726562,-1.3431471313476562,2.128445275878906,6.870229007633588,27.52671755725191,-0.2748091603053435,0.0
13.860000610351562,-6.983886242675781,0.07422025146484375,-0.06464344482421874,-35.02290076335878,12.091603053435115,0.732824427480916,-9.947907897949218,-1.1755530151367186,2.5857377929687497,0.9312977099236641,25.282442748091604,2.0916030534351147,0.0
13.87000060081482,-7.242460021972656,0.21068974609375,0.45489831542968745,-42.62595419847328,16.82442748091603,0.42748091603053434,-10.766724865722656,-1.3455413330078123,2.8107927490234372,-0.9007633587786259,20.091603053435115,5.435114503816794,0.0
13.880000352859497,-7.024587670898437,-0.24899697265624998,0.7398083129882812,-47.267175572519086,20.244274809160306,1.0381679389312977,-15.43062969970703,-5.384559533691406,5.336675500488281,15.664122137404581,26.33587786259542,16.366412213740457,0.0
13.890000343322754,-7.52737001953125,-1.3479355346679687,0.9241618408203125,-49.98473282442748,20.82442748091603,1.2671755725190839,-11.554417211914062,-6.912060192871094,4.256890551757812,47.86259541984733,-3.8625954198473282,7.572519083969466,0.0
13.90000057220459,-6.995857250976562,-2.0733786376953125,1.1013327636718748,-40.16793893129771,25.908396946564885,-0.7175572519083969,-9.80665,-2.2098481323242187,2.1068974609374997,56.778625954198475,-22.03053435114504,-7.633587786259542,0.0
13.910000801086426,-6.2392895263671875,-1.6400281372070311,0.9552864624023437,-31.984732824427482,31.862595419847327,-1.4045801526717556,-7.762001782226562,1.22583125,1.7597382202148437,40.87022900763359,-22.198473282442748,-10.13740458015267,0.0
13.920000553131104,-5.887341882324218,-2.291250988769531,1.0103531005859374,-32.06106870229008,36.01526717557252,-3.5419847328244276,-8.659827404785156,1.0103531005859374,1.7932570434570312,27.236641221374047,-18.549618320610687,-4.549618320610687,0.0
13.93000078201294,-6.291961962890625,-2.1619640991210938,1.8650830932617186,-21.52671755725191,45.14503816793893,-7.541984732824427,-8.813056311035156,1.7501614135742187,1.3910311645507811,10.213740458015268,-19.34351145038168,-2.4122137404580153,0.0
13.940000534057617,-5.935225915527344,-0.9648632690429687,2.152387292480469,-9.251908396946565,49.41984732824427,-9.358778625954198,-8.128314636230469,2.094926452636719,1.13006318359375,-9.526717557251908,-16.061068702290076,0.366412213740458,0.0
13.950000762939453,-5.628768103027343,-1.9752163696289062,1.7693150268554687,2.595419847328244,53.05343511450382,-7.435114503816794,-9.813832604980469,-3.3446997192382812,3.3351229125976563,-7.358778625954199,-8.717557251908397,11.572519083969466,0.0
13.96000051498413,-0.6967126831054687,-10.1131078125,-3.787627026367187,26.885496183206108,47.06870229007634,-2.2748091603053435,-11.79144317626953,-7.0102224609374995,3.897760302734375,21.893129770992367,-21.0381679389313,11.022900763358779,0.0
13.970000505447388,-5.200206005859375,-2.93050283203125,0.5722141967773438,64.44274809160305,74.99236641221374,-17.893129770992367,-9.79946739501953,-4.185064501953125,2.923320227050781,39.57251908396947,-36.82442748091603,-1.9541984732824427,0.0
13.980000495910645,-7.381323718261719,-0.0909796630859375,1.8722656982421875,57.083969465648856,76.45801526717557,-25.49618320610687,-4.422090466308593,3.1004911499023438,0.1292868896484375,19.404580152671755,-42.458015267175576,-14.732824427480915,0.0
13.990000247955322,-8.573636145019531,2.2385785522460937,3.9600095458984375,42.83969465648855,74.85496183206106,-23.81679389312977,-4.050989208984375,4.592078784179687,-0.17238251953125,-15.206106870229007,-26.366412213740457,-5.282442748091603,0.0
14.000000238418579,-10.328585961914062,4.350264416503906,6.665457421875,14.396946564885496,66.62595419847328,-23.221374045801525,-7.577648254394531,0.7972691528320313,0.9552864624023437,-32.045801526717554,-11.022900763358779,9.129770992366412,0.0
14.010000705718994,-10.046070166015625,3.4165257690429685,7.513004809570312,4.6106870229007635,52.50381679389313,-17.358778625954198,-8.985438830566405,-2.7940333374023436,0.9241618408203125,-25.633587786259543,-15.572519083969466,8.961832061068701,0.0
14.02000093460083,-10.002974536132811,3.057395520019531,7.264007836914062,11.587786259541986,42.83969465648855,-8.396946564885496,-9.193734375,-3.766079211425781,1.2306196533203124,-20.68702290076336,-16.33587786259542,3.0381679389312977,0.0
14.030000925064087,-10.817003100585938,4.675875842285156,7.4220251464843745,8.641221374045802,34.3206106870229,-2.931297709923664,-9.196128576660156,-3.584119885253906,1.7741034301757812,-14.610687022900763,-15.038167938931299,1.4351145038167938,0.0
14.040000915527344,-9.655815295410155,1.886630908203125,5.607220288085937,0.42748091603053434,20.625954198473284,1.9389312977099236,-9.176974963378905,-2.8730419921875,2.2194249389648437,-11.267175572519085,-17.435114503816795,1.083969465648855,0.0
14.050000429153442,-10.340556970214843,1.7166425903320313,5.2816088623046875,8.80916030534351,19.954198473282442,6.091603053435114,-8.992621435546875,-2.896984008789062,2.2936451904296873,-9.877862595419847,-19.17557251908397,2.1374045801526718,0.0
14.060000896453857,-9.133879333496093,1.8315642700195311,4.187458703613281,6.916030534351145,11.038167938931299,9.48091603053435,-8.250418920898436,-2.39420166015625,1.8171990600585937,-8.870229007633588,-19.984732824427482,2.9923664122137406,0.0
14.070000648498535,-10.943895788574219,2.1308394775390624,5.106832141113281,-0.8091603053435115,2.8396946564885495,14.702290076335878,-7.764395983886718,-1.8100164550781248,1.5610194824218748,-9.114503816793894,-19.72519083969466,5.221374045801527,0.0
14.080000638961792,-10.797849487304687,1.1372457885742187,4.927267016601562,6.931297709923665,2.7480916030534353,22.061068702290076,-7.072471704101562,-1.2378022583007813,1.2641384765625,-10.549618320610687,-19.633587786259543,9.587786259541986,0.0
14.090000629425049,-11.130643518066405,0.4644751220703125,4.8698061767578125,9.648854961832061,0.5343511450381679,25.587786259541986,-7.524975817871093,-1.429338391113281,1.1468225952148436,-13.84732824427481,-17.14503816793893,13.34351145038168,0.0
14.100000619888306,-11.832144604492187,0.7709329345703124,4.809951135253906,7.511450381679389,-3.7404580152671754,27.358778625954198,-8.609549169921875,-2.4947581298828125,1.5011644409179687,-15.068702290076336,-15.389312977099237,15.557251908396946,0.0
14.110000610351562,-12.720393420410156,0.8738836059570312,4.659116430664063,7.450381679389313,-6.290076335877862,30.198473282442748,-9.919177478027343,-3.6463691284179687,2.051830822753906,-11.664122137404581,-14.748091603053435,15.34351145038168,0.0
14.12000060081482,-13.570335009765625,0.05027823486328125,5.628768103027343,4.2748091603053435,-9.099236641221374,31.557251908396946,-10.747571252441405,-4.074931225585937,2.0542250244140625,-7.083969465648855,-15.664122137404581,13.49618320610687,0.0
14.130000591278076,-14.331691137695312,-1.8171990600585937,6.974309436035155,1.8015267175572518,-13.877862595419847,29.81679389312977,-10.97502041015625,-3.5194764404296874,2.042254016113281,-2.213740458015267,-18.106870229007633,12.01526717557252,0.0
14.140000820159912,-15.057134240722656,-2.3511060302734372,7.8362220336914055,3.6793893129770994,-20.076335877862597,24.564885496183205,-10.302249743652343,-2.5234885498046875,1.697488977050781,2.122137404580153,-20.885496183206108,13.083969465648854,0.0
14.150000810623169,-16.08903515625,0.22505495605468748,7.331045483398437,6.137404580152672,-26.47328244274809,19.068702290076335,-9.773131176757811,-2.0278888061523435,0.8810662109374999,4.0,-21.557251908396946,15.725190839694656,0.0
14.160000801086426,-16.622942126464842,4.019864587402344,4.671087438964843,7.4961832061068705,-30.091603053435115,21.46564885496183,-10.678139404296875,-1.9967641845703124,0.9888052856445312,3.0839694656488548,-19.17557251908397,15.801526717557252,0.0
14.170000791549683,-13.84806240234375,6.3901242309570305,-0.6200982299804687,6.595419847328245,-26.564885496183205,32.68702290076336,-12.445060229492187,-2.3630770385742186,1.24498486328125,-0.9465648854961832,-15.709923664122137,11.007633587786259,0.0
14.18000054359436,-10.273519323730468,3.778050219726562,-3.3351229125976563,-10.198473282442748,-21.81679389312977,38.6412213740458,-13.505691564941406,-2.221819140625,1.158793603515625,-2.3969465648854964,-14.564885496183207,5.694656488549619,0.0
14.190001010894775,-7.46272657470703,-1.7166425903320313,-2.6958710693359373,-27.908396946564885,-16.27480916030534,33.11450381679389,-13.558364001464843,-1.5682020874023437,0.7757213378906249,-0.9770992366412213,-11.389312977099237,1.633587786259542,0.0
14.200000762939453,-5.748478186035156,-4.192247106933594,-1.7621324218749999,-25.923664122137403,-6.213740458015267,22.9618320610687,-13.20881055908203,-0.9145850341796874,0.1771709228515625,1.3282442748091603,-6.488549618320611,2.183206106870229,0.0
14.21000051498413,-5.025429284667968,-2.8730419921875,-2.214636535644531,-15.17557251908397,3.5114503816793894,11.603053435114504,-12.990938208007812,-0.5051765502929687,0.143652099609375,3.0839694656488548,-3.2519083969465647,4.305343511450381,0.0
14.220000505447388,-5.925649108886718,0.41419688720703124,-2.7581203125,-15.068702290076336,10.65648854961832,1.450381679389313,-11.372457885742186,1.4508862060546874,-0.5458779785156249,-6.763358778625954,-0.07633587786259542,3.6946564885496183,0.0
14.230000495910645,-7.275978845214843,2.6958710693359373,-2.346317626953125,-21.786259541984734,18.47328244274809,-1.2671755725190839,-11.279084020996093,1.5298948608398437,0.38786066894531246,-13.664122137404581,10.488549618320612,9.86259541984733,0.0
14.240000486373901,-9.641450085449218,3.9432501342773434,-0.6751648681640625,-32.61068702290076,24.076335877862597,0.8549618320610687,-10.876858142089842,0.6703764648437499,0.181959326171875,-16.18320610687023,15.068702290076336,14.595419847328245,0.0
14.250000476837158,-10.512939489746094,2.6240450195312497,0.009576806640625,-37.29770992366412,26.076335877862597,6.854961832061068,-10.931924780273437,-0.6296750366210937,1.0965443603515623,-9.068702290076336,19.72519083969466,19.0381679389313,0.0
14.260000705718994,-9.641450085449218,-0.8499415893554687,-0.19153613281249998,-21.786259541984734,35.465648854961835,9.022900763358779,-10.17056865234375,-1.7286135986328124,1.5179238525390624,2.3969465648854964,19.81679389312977,18.793893129770993,0.0
14.270000696182251,-9.907206469726562,-0.7493851196289062,0.22505495605468748,-12.992366412213741,40.42748091603053,2.900763358778626,-10.618284362792968,-1.139639990234375,1.5897499023437498,13.17557251908397,18.442748091603054,15.389312977099237,0.0
14.280000925064087,-10.544064111328124,0.5506663818359374,1.0965443603515623,-14.305343511450381,39.3587786259542,-1.1755725190839694,-9.239224206542968,1.3048399047851562,0.8930372192382812,12.076335877862595,15.465648854961833,10.16793893129771,0.0
14.290000677108765,-9.72285294189453,1.5921441040039062,1.3646949462890625,-13.48091603053435,36.213740458015266,-1.4045801526717556,-9.91438907470703,1.4820108276367188,1.3024457031249999,3.450381679389313,18.12213740458015,11.770992366412214,0.0
14.3000009059906,-9.528922607421874,1.4437036010742186,1.0893617553710937,-14.717557251908397,33.80152671755725,-0.7022900763358778,-10.527304699707031,1.0366893188476562,1.4604630126953124,-0.183206106870229,18.38167938931298,14.0,0.0
14.310000658035278,-9.428366137695312,2.403778466796875,2.123656872558594,-17.938931297709924,33.70992366412214,-2.4885496183206106,-10.342951171874999,1.1851298217773436,1.407790576171875,-5.893129770992366,17.740458015267176,13.938931297709924,0.0
14.320000648498535,-10.295067138671874,3.0741549316406247,2.2553379638671873,-30.595419847328245,22.641221374045802,1.099236641221374,-9.718064538574218,1.2138602416992186,0.93852705078125,-7.847328244274809,15.358778625954198,13.908396946564885,0.0
14.330000638961792,-8.21690009765625,-0.7062894897460937,0.699106884765625,-19.267175572519083,18.82442748091603,5.938931297709924,-8.664615808105468,0.42377369384765623,1.3479355346679687,-11.267175572519085,15.770992366412214,14.51908396946565,0.0
14.340000629425049,-9.516951599121093,0.1580173095703125,1.3838485595703125,-10.793893129770993,21.709923664122137,2.213740458015267,-9.9215716796875,-0.4261678955078125,1.9680337646484374,-3.282442748091603,14.473282442748092,15.007633587786259,0.0
14.350000619888306,-9.514557397460937,0.6488286499023437,1.3120225097656248,-5.236641221374046,19.893129770992367,-1.4961832061068703,-9.763554370117188,0.3112462158203125,2.0087351928710935,-0.7786259541984732,9.374045801526718,12.854961832061068,0.0
14.360000610351562,-10.026916552734374,1.8219874633789062,1.8602946899414061,-4.412213740458015,18.82442748091603,-0.5954198473282443,-9.222464794921875,1.2018892333984375,1.8435352783203125,-7.969465648854962,8.16793893129771,11.954198473282442,0.0
14.37000036239624,-9.674968908691406,1.9632453613281249,1.9393033447265624,-3.49618320610687,16.931297709923665,2.4885496183206106,-9.37808790283203,0.9050082275390624,1.917755529785156,-12.122137404580153,8.244274809160306,13.679389312977099,0.0
14.380000352859497,-10.13226142578125,2.4157494750976563,2.461239306640625,-6.473282442748092,16.50381679389313,4.152671755725191,-9.701305126953125,0.47644613037109373,2.1643583007812497,-15.541984732824428,6.67175572519084,15.389312977099237,0.0
14.390001058578491,-10.022128149414062,3.526659045410156,2.6958710693359373,-13.618320610687023,13.32824427480916,5.694656488549619,-9.744400756835937,0.49320554199218747,2.109291662597656,-17.96946564885496,3.7557251908396947,16.458015267175572,0.0
14.40000057220459,-8.875305554199219,3.009511486816406,1.6400281372070311,-26.427480916030536,4.809160305343512,9.48091603053435,-9.840168823242188,0.27293898925781246,2.051830822753906,-20.931297709923665,2.0916030534351147,17.099236641221374,0.0
14.410000801086426,-11.049240661621093,2.31758720703125,1.9847931762695312,-32.900763358778626,6.625954198473282,10.13740458015267,-9.785102185058593,0.06464344482421874,1.9608511596679685,-24.38167938931298,0.9618320610687023,16.870229007633586,0.0
14.420000553131104,-8.48505068359375,1.5083470458984374,0.7062894897460937,-31.633587786259543,3.9389312977099236,10.946564885496183,-9.7683427734375,0.229843359375,1.637633935546875,-27.51145038167939,-0.12213740458015267,16.290076335877863,0.0
14.430001020431519,-10.280701928710936,0.8403647827148437,0.814028564453125,-32.091603053435115,5.893129770992366,9.587786259541986,-9.87608184814453,-0.023942016601562498,1.7118541870117185,-29.221374045801525,-1.3282442748091603,15.954198473282442,0.0
14.440000772476196,-9.70369932861328,0.679953271484375,0.24899697265624998,-26.82442748091603,7.633587786259542,8.473282442748092,-9.859322436523437,-0.02633621826171875,1.6831237670898436,-29.954198473282442,-2.183206106870229,15.557251908396946,0.0
14.450000762939453,-9.758765966796874,0.93852705078125,0.967257470703125,-19.862595419847327,16.045801526717558,4.9465648854961835,-9.935936889648437,0.20829554443359374,1.4820108276367188,-33.19083969465649,-2.381679389312977,14.50381679389313,0.0
14.46000051498413,-10.096348400878906,2.0159177978515626,1.0606313354492187,-27.709923664122137,14.01526717557252,4.809160305343512,-10.261548315429687,0.028730419921875,1.2832920898437499,-33.61832061068702,-2.6412213740458017,13.84732824427481,0.0
14.470000505447388,-10.053252770996092,1.9680337646484374,1.2856862915039062,-31.572519083969464,13.633587786259541,6.137404580152672,-9.794678991699218,-0.32082302246093747,1.2425906616210938,-35.083969465648856,-3.145038167938931,13.251908396946565,0.0
14.480000495910645,-9.665392102050781,1.1875240234375,1.3527239379882812,-32.93129770992366,13.83206106870229,6.412213740458015,-10.062829577636718,-0.011971008300781249,1.0510545288085937,-35.14503816793893,-3.816793893129771,11.740458015267176,0.0
14.490000486373901,-9.478644372558593,0.9504980590820312,1.5729904907226562,-31.81679389312977,13.725190839694656,5.282442748091603,-10.08677159423828,-0.06464344482421874,0.8475473876953125,-37.87786259541985,-3.282442748091603,10.946564885496183,0.0
14.500000476837158,-9.555258825683593,0.8667010009765624,1.465251416015625,-29.801526717557252,13.450381679389313,4.732824427480916,-10.067617980957031,-0.30885201416015623,0.6775590698242188,-39.45038167938932,-1.6488549618320612,10.67175572519084,0.0
14.510000467300415,-9.634267480468749,0.8212111694335937,1.6065093139648436,-27.053435114503817,13.19083969465649,3.7709923664122136,-10.043675964355469,-0.6488286499023437,0.5051765502929687,-38.83969465648855,-0.5801526717557252,9.694656488549619,0.0
14.520000457763672,-9.79946739501953,1.1085153686523437,1.7980454467773437,-24.519083969465647,13.221374045801527,3.2213740458015265,-9.981426721191406,-0.8786720092773437,0.48123453369140623,-36.58015267175573,0.916030534351145,8.381679389312977,0.0
14.530000686645508,-9.90241806640625,1.5322890624999999,1.2737152832031249,-22.702290076335878,12.80916030534351,3.404580152671756,-9.97903251953125,-0.9145850341796874,0.469263525390625,-33.61832061068702,2.381679389312977,7.083969465648855,0.0
14.540000915527344,-9.880870251464843,1.8219874633789062,0.7781155395507812,-24.015267175572518,13.206106870229007,3.8473282442748094,-9.849745629882811,-0.9840168823242187,0.6296750366210937,-30.076335877862597,3.5114503816793894,6.442748091603053,0.0
14.550000429153442,-9.775525378417969,1.5777788940429687,0.18914193115234373,-26.580152671755727,13.282442748091603,3.984732824427481,-9.70369932861328,-1.024718310546875,0.7302315063476562,-26.870229007633586,3.969465648854962,5.419847328244275,0.0
14.560000896453857,-9.636661682128906,1.2114660400390624,-0.22266075439453123,-29.236641221374047,14.992366412213741,3.2519083969465647,-9.782707983398437,-1.22583125,1.0079588989257813,-24.18320610687023,4.564885496183206,4.244274809160306,0.0
14.570000648498535,-9.641450085449218,0.9097966308593749,-0.29448680419921874,-29.801526717557252,17.49618320610687,2.6106870229007635,-9.696516723632811,-1.197100830078125,1.24498486328125,-21.099236641221374,4.458015267175573,3.068702290076336,0.0
14.580000638961792,-9.291896643066405,1.3958195678710936,-0.016759411621093748,-34.58015267175573,18.68702290076336,3.0076335877862594,-9.765948571777344,-1.0295067138671874,1.4628572143554686,-19.099236641221374,3.816793893129771,1.9694656488549618,0.0
14.590000629425049,-9.30147344970703,0.3591302490234375,0.086191259765625,-31.251908396946565,22.763358778625953,3.282442748091603,-9.840168823242188,-0.9265560424804687,1.7405846069335937,-18.412213740458014,3.4198473282442747,0.6717557251908397,0.0
14.600000619888306,-10.544064111328124,1.5538368774414062,0.8475473876953125,-37.099236641221374,22.931297709923665,1.7557251908396947,-10.072406384277343,-0.9744400756835937,2.090138049316406,-17.251908396946565,2.2900763358778624,0.13740458015267176,0.0
14.610000610351562,-9.732429748535155,0.7206546997070312,0.5363011718749999,-36.916030534351144,20.900763358778626,1.6488549618320612,-10.000580334472655,-0.7613561279296874,2.1356278808593747,-16.610687022900763,0.5954198473282443,-0.5648854961832062,0.0
14.62000060081482,-10.120290417480469,0.5315127685546874,0.8738836059570312,-37.70992366412214,20.30534351145038,1.3740458015267176,-10.108319409179687,-0.948103857421875,2.4133552734375,-16.396946564885496,-0.6717557251908397,-0.9618320610687023,0.0
14.630000591278076,-10.084377392578125,0.3016694091796875,1.1731588134765625,-33.954198473282446,19.954198473282442,-0.3969465648854962,-9.943119494628906,-1.9800047729492187,2.863465185546875,-12.412213740458014,-1.8931297709923665,-0.33587786259541985,0.0
14.640000581741333,-13.6756798828125,3.229778039550781,3.31357509765625,-43.32824427480916,20.244274809160306,-3.801526717557252,-10.172962854003906,-2.5905261962890624,3.4165257690429685,-1.4045801526717556,-6.519083969465649,-1.0076335877862594,0.0
14.650000810623169,-12.212822668457031,3.6655227416992187,2.6910826660156246,-60.94656488549618,4.412213740458015,0.44274809160305345,-10.199299072265624,-1.9991583862304687,3.308786694335937,6.900763358778626,-15.419847328244275,-4.091603053435114,0.0
14.660000324249268,-11.204863769531249,1.649604943847656,1.7980454467773437,-59.221374045801525,-3.7709923664122136,7.603053435114504,-10.419565624999999,-1.7597382202148437,3.1507693847656246,11.114503816793894,-18.763358778625953,-4.687022900763359,0.0
14.670000791549683,-9.181763366699219,-1.2928688964843749,1.0630255371093749,-47.80152671755725,-4.625954198473282,10.15267175572519,-9.519345800781249,-0.2059013427734375,2.559401574707031,7.633587786259542,-22.946564885496183,-7.770992366412214,0.0
14.68000054359436,-9.299079248046874,-1.0702081420898437,1.2234370483398436,-36.56488549618321,-3.4198473282442747,6.213740458015267,-9.17458076171875,-0.0526724365234375,2.6958710693359373,2.854961832061069,-22.38167938931298,-7.099236641221374,0.0
14.690000772476196,-9.172186560058593,-1.9728221679687499,0.9050082275390624,-23.64885496183206,0.030534351145038167,4.122137404580153,-9.428366137695312,-0.08858546142578125,2.9664158569335934,0.8854961832061069,-21.541984732824428,-6.015267175572519,0.0
14.700000286102295,-8.0828248046875,-1.924938134765625,-0.4477157104492187,-6.122137404580153,1.4809160305343512,2.030534351145038,-9.469067565917967,-0.3758896606445312,2.6695348510742187,0.6717557251908397,-21.206106870229007,-6.748091603053435,0.0
14.71000051498413,-9.028534460449219,-0.04548983154296875,0.4213794921875,4.580152671755725,9.877862595419847,-2.9770992366412212,-9.282319836425781,-1.1133037719726562,2.7964275390625,1.984732824427481,-21.740458015267176,-7.587786259541985,0.0
14.720000505447388,-9.995791931152343,2.2074539306640624,1.0103531005859374,0.030534351145038167,8.992366412213741,-5.633587786259542,-9.631873278808593,-0.8307879760742187,2.8227637573242186,7.282442748091603,-24.9618320610687,-8.351145038167939,0.0
14.730000495910645,-9.763554370117188,2.0542250244140625,0.7637503295898437,-3.572519083969466,7.694656488549619,-2.50381679389313,-9.440337145996093,0.0383072265625,2.6791116577148437,3.6793893129770994,-22.931297709923665,-8.67175572519084,0.0
14.740000486373901,-9.469067565917967,1.448492004394531,0.6536170532226562,-5.343511450381679,8.091603053435115,-0.32061068702290074,-7.548917834472656,0.7637503295898437,1.1276689819335937,-3.5114503816793894,-27.6793893129771,-11.465648854961833,0.0
14.750000476837158,-9.576806640625,1.1133037719726562,0.7326257080078125,-6.1679389312977095,9.664122137404581,0.7175572519083969,-10.120290417480469,-1.0462661254882812,2.8514941772460936,-6.152671755725191,-15.221374045801527,-4.763358778625954,0.0
14.760000705718994,-9.60793126220703,0.7613561279296874,0.6200982299804687,-5.480916030534351,10.458015267175572,1.2366412213740459,-10.685322009277343,-1.9393033447265624,2.952050646972656,3.5114503816793894,-18.290076335877863,-4.1679389312977095,0.0
14.770000696182251,-9.677363110351562,0.5746083984375,0.4070142822265625,-2.4122137404580153,11.49618320610687,0.2595419847328244,-9.679757312011718,-1.8339584716796873,3.1172505615234374,12.534351145038167,-24.045801526717558,-7.145038167938932,0.0
14.780000448226929,-9.662997900390625,0.7876923461914062,0.3687070556640625,-1.465648854961832,12.778625954198473,-1.251908396946565,-9.526528405761718,-1.0223241088867188,2.990357873535156,16.290076335877863,-26.625954198473284,-8.50381679389313,0.0
