timestamp,Thigh_L_Acc_X,Thigh_L_Acc_Y,Thigh_L_Acc_Z,Thigh_L_Gyr_X,Thigh_L_Gyr_Y,Thigh_L_Gyr_Z,Thigh_R_Acc_X,Thigh_R_Acc_Y,Thigh_R_Acc_Z,Thigh_R_Gyr_X,Thigh_R_Gyr_Y,Thigh_R_Gyr_Z,gpio_output
10.000000476837158,-11.243170996093749,3.603273498535156,8.611943371582031,26.015267175572518,23.66412213740458,24.366412213740457,-9.028534460449219,0.7398083129882812,-0.5961562133789062,-17.328244274809162,16.870229007633586,8.580152671755725,0.0
10.010000705718994,-13.697227697753906,4.141968872070312,4.491522314453125,-24.916030534351144,5.877862595419847,15.17557251908397,-9.68454571533203,-0.08379705810546874,-1.0390835205078124,-25.709923664122137,20.061068702290076,13.84732824427481,1.0
10.020000696182251,-15.23909356689453,2.7269956909179687,4.331110803222656,-47.61832061068702,0.061068702290076333,12.625954198473282,-9.117119921875,1.68551796875,-1.898601916503906,-39.45038167938932,22.137404580152673,15.908396946564885,1.0
10.030000925064087,-14.322114331054687,0.3758896606445312,4.534617944335937,-37.7557251908397,4.961832061068702,19.740458015267176,-9.516951599121093,0.07422025146484375,-0.7589619262695312,-58.2442748091603,32.30534351145038,21.61832061068702,1.0
10.040000677108765,-14.113818786621094,1.1827356201171875,4.161122485351562,-35.6793893129771,9.022900763358779,22.27480916030534,-10.259154113769531,-2.6695348510742187,0.05746083984375,-58.25954198473283,33.541984732824424,25.419847328244273,1.0
10.0500009059906,-11.85608662109375,-1.4915876342773438,2.6815058593749996,-35.465648854961835,7.6183206106870225,21.862595419847327,-9.30147344970703,-1.599326708984375,-0.14125789794921875,-52.79389312977099,30.427480916030536,20.442748091603054,1.0
10.0600004196167,-8.889670764160156,-3.0238766967773434,3.0166940917968748,-14.549618320610687,15.664122137404581,20.9618320610687,-9.114725720214842,-1.8770541015625,-0.12210428466796874,-48.87022900763359,33.48091603053435,17.52671755725191,1.0
10.070000886917114,-9.291896643066405,-1.0342951171875,3.825934252929687,-11.618320610687023,20.702290076335878,9.511450381679388,-9.677363110351562,-3.1603461914062496,0.7517793212890624,-37.541984732824424,31.770992366412212,14.778625954198473,1.0
10.080000638961792,-9.208099584960937,1.350329736328125,1.946485949707031,-22.015267175572518,13.572519083969466,0.9770992366412213,-8.576030346679687,-3.816357446289062,0.9792284790039062,-19.022900763358777,19.114503816793892,11.465648854961833,1.0
10.090000629425049,-9.983820922851562,1.707065783691406,1.1563994018554686,-31.450381679389313,16.03053435114504,-1.4045801526717556,-10.105925207519531,-2.1595698974609374,0.8379705810546875,-10.045801526717558,12.061068702290076,5.4961832061068705,1.0
10.100000381469727,-9.337386474609374,1.005564697265625,0.22744915771484372,-29.49618320610687,21.083969465648856,1.8778625954198473,-10.572794531249999,-0.9361328491210937,0.9361328491210937,-13.48091603053435,8.16793893129771,3.236641221374046,1.0
10.110000371932983,-8.020575561523437,0.13646949462890623,0.0383072265625,-32.42748091603053,26.68702290076336,1.9236641221374047,-11.164162341308593,-0.5530605834960938,1.2330138549804688,-17.938931297709924,3.7709923664122136,3.5419847328244276,1.0
10.12000060081482,-6.622361791992187,-0.6943184814453125,-0.40462008056640625,-27.022900763358777,34.67175572519084,0.0916030534351145,-11.528080993652344,-0.277727392578125,1.5442600708007812,-23.251908396946565,-3.5419847328244276,6.33587786259542,1.0
10.130000591278076,-5.849034655761718,-1.6615759521484375,-0.7589619262695312,-17.389312977099237,46.0763358778626,-3.0381679389312977,-11.477802758789062,0.11013327636718749,1.8339584716796873,-28.65648854961832,-11.893129770992367,9.603053435114504,1.0
10.140000343322754,-6.248866333007812,-1.2808978881835937,-0.2059013427734375,-6.1679389312977095,55.93893129770992,-6.244274809160306,-11.2240173828125,0.15083470458984374,2.142810485839844,-32.97709923664122,-20.12213740458015,12.16793893129771,1.0
10.15000057220459,-7.3549875,-0.11731588134765625,0.565031591796875,1.1297709923664123,63.11450381679389,-9.633587786259541,-11.121066711425781,0.33518823242187495,2.3965958618164063,-38.79389312977099,-28.412213740458014,13.755725190839694,1.0
10.160000562667847,-9.114725720214842,2.185906115722656,1.6112977172851561,4.656488549618321,69.66412213740458,-11.099236641221374,-11.14022032470703,-0.13407529296874998,2.9544448486328125,-42.595419847328245,-35.23664122137404,15.206106870229007,1.0
10.170000553131104,-10.347739575195313,3.651157531738281,2.1739351074218747,-3.984732824427481,67.25190839694656,-10.641221374045802,-11.611878051757811,0.9935936889648437,2.319981408691406,-46.76335877862596,-46.13740458015267,13.969465648854962,1.0
10.180001020431519,-9.79946739501953,2.77727392578125,2.379836450195312,-11.145038167938932,60.58015267175573,-6.320610687022901,-10.793061083984375,-0.7230489013671875,3.2800562744140622,-54.152671755725194,-49.89312977099237,15.725190839694656,1.0
10.190000295639038,-10.1131078125,1.6903063720703124,2.3965958618164063,-15.541984732824428,55.64885496183206,-3.6946564885496183,-11.698069311523437,-1.3335703247070312,3.208230224609375,-46.534351145038165,-62.56488549618321,14.335877862595419,1.0
10.200000762939453,-11.200075366210937,1.5298948608398437,3.038241906738281,-16.015267175572518,51.541984732824424,-7.206106870229007,-10.764330664062498,1.707065783691406,2.35589443359375,-51.86259541984733,-73.7557251908397,8.793893129770993,1.0
10.21000051498413,-10.790666882324219,1.9033903198242186,2.8898014038085935,-20.47328244274809,42.54961832061068,-7.66412213740458,-10.64222637939453,0.9959878906249999,2.2601263671875,-65.95419847328245,-71.45038167938931,6.916030534351145,0.0
10.220000505447388,-11.633425866699218,2.250549560546875,2.7198130859375,-26.47328244274809,33.61832061068702,-6.33587786259542,-12.138602416992187,-1.158793603515625,2.5067291381835934,-58.0763358778626,-72.33587786259542,7.938931297709924,0.0
10.230000257492065,-10.517727893066406,2.109291662597656,1.8746598999023436,-29.51145038167939,25.69465648854962,-5.7251908396946565,-11.439495532226562,-0.06943184814453125,1.467645617675781,-47.49618320610687,-82.56488549618321,3.450381679389313,0.0
10.240000247955322,-9.210493786621093,0.6512228515624999,0.09337386474609374,-24.366412213740457,19.114503816793892,-2.1374045801526718,-10.319009155273436,0.8499415893554687,1.0749965454101562,-48.76335877862596,-80.29007633587786,1.9541984732824427,0.0
10.250000238418579,-10.137049829101562,1.7573440185546874,1.3096283081054687,-24.442748091603054,23.72519083969466,-2.4732824427480917,-10.194510668945313,0.277727392578125,1.0462661254882812,-47.37404580152672,-74.10687022900764,3.3740458015267176,0.0
10.260000705718994,-10.184933862304687,1.3335703247070312,1.4341267944335936,-23.17557251908397,23.770992366412212,-3.2977099236641223,-7.709329345703124,1.0821791503906248,-0.6967126831054687,-40.18320610687023,-75.45038167938931,3.480916030534351,0.0
10.270000696182251,-10.137049829101562,0.679953271484375,0.11013327636718749,-18.0,22.015267175572518,-4.152671755725191,-10.180145458984374,-0.105344873046875,0.296881005859375,-31.87786259541985,-61.63358778625954,8.748091603053435,0.0
10.280000686645508,-8.48505068359375,1.0749965454101562,-0.39743747558593745,-16.625954198473284,21.0381679389313,-3.7404580152671754,-9.447519750976562,1.0462661254882812,-0.40462008056640625,-22.65648854961832,-58.79389312977099,8.244274809160306,0.0
10.290000915527344,-10.211270080566406,3.114856359863281,1.6041151123046875,-17.251908396946565,25.755725190839694,-5.526717557251908,-8.667010009765624,1.5705962890624998,-0.08858546142578125,-31.572519083969464,-47.66412213740458,8.335877862595419,0.0
10.300000667572021,-9.131485131835937,2.6408044311523438,0.7948749511718749,-23.251908396946565,23.83206106870229,-2.4732824427480917,-10.206481677246094,0.7230489013671875,0.3687070556640625,-35.786259541984734,-34.10687022900763,10.732824427480915,0.0
10.310000896453857,-9.679757312011718,2.212242333984375,0.5674257934570313,-28.610687022900763,20.15267175572519,-0.1984732824427481,-11.18571015625,-1.68551796875,1.254561669921875,-29.709923664122137,-25.17557251908397,13.954198473282442,0.0
10.320000648498535,-10.211270080566406,1.0989385620117187,1.0175357055664063,-26.763358778625953,22.946564885496183,1.3129770992366412,-11.022904443359375,-2.0781670410156248,1.0534487304687499,-14.946564885496183,-29.374045801526716,12.213740458015268,0.0
10.330000877380371,-11.73398233642578,2.6288334228515624,2.398990063476562,-24.290076335877863,27.633587786259543,-1.3893129770992367,-11.391611499023437,-3.1842882080078123,2.1116858642578125,4.030534351145038,-33.31297709923664,9.816793893129772,0.0
10.34000039100647,-9.488221179199218,0.7805097412109374,1.0295067138671874,-27.374045801526716,19.908396946564885,-0.6259541984732825,-10.359710583496094,-0.9313444458007812,1.2425906616210938,13.145038167938932,-41.02290076335878,3.3893129770992365,0.0
10.350000619888306,-10.211270080566406,1.024718310546875,1.0869675537109373,-23.297709923664122,20.595419847328245,-0.9923664122137404,-7.994239343261718,0.296881005859375,0.7829039428710937,2.7480916030534353,-36.80916030534351,-1.8625954198473282,0.0
10.360000610351562,-9.490615380859374,1.0534487304687499,1.218648645019531,-22.65648854961832,24.9618320610687,-2.8396946564885495,-8.626308581542968,-0.08858546142578125,0.9193734375,-3.0229007633587788,-27.740458015267176,-1.7404580152671756,0.0
10.37000036239624,-11.75313594970703,3.440467785644531,1.956062756347656,-33.603053435114504,22.80916030534351,-6.625954198473282,-10.443507641601562,-1.5466542724609373,2.233790148925781,8.13740458015267,-24.442748091603054,1.2671755725190839,0.0
10.380000352859497,-10.419565624999999,1.5562310791015623,0.9504980590820312,-38.045801526717554,19.69465648854962,-5.282442748091603,-10.488997473144531,-2.039859814453125,2.5713725830078125,24.50381679389313,-33.37404580152672,-1.5877862595419847,0.0
10.390000343322754,-10.472238061523436,1.608903515625,0.9217676391601562,-30.38167938931298,23.022900763358777,-3.877862595419847,-9.313444458007812,-0.011971008300781249,2.2601263671875,30.12213740458015,-38.6412213740458,-7.3893129770992365,0.0
10.40000033378601,-9.907206469726562,1.8914193115234375,0.8212111694335937,-35.343511450381676,20.580152671755727,-3.1603053435114505,-8.36294639892578,1.2330138549804688,2.0350714111328125,17.923664122137403,-33.954198473282446,-10.80916030534351,0.0
10.410000562667847,-9.586383447265625,1.0654197387695312,0.9026140258789062,-30.427480916030536,27.31297709923664,-1.8778625954198473,-9.3852705078125,-0.5386953735351562,2.741360900878906,15.648854961832061,-26.580152671755727,-6.824427480916031,0.0
10.420000791549683,-9.746794958496093,1.3814543579101561,1.1420341918945311,-32.213740458015266,27.557251908396946,-5.32824427480916,-10.378864196777343,-1.7908628417968748,3.2154128295898436,28.229007633587788,-34.396946564885496,-5.755725190839694,0.0
10.43000054359436,-9.631873278808593,1.218648645019531,0.9959878906249999,-30.0,25.389312977099237,-6.534351145038168,-8.997409838867187,0.8834604125976562,2.499546533203125,33.23664122137404,-41.786259541984734,-10.610687022900763,0.0
10.440000772476196,-8.410830432128906,0.16280571289062498,0.40222587890625,-21.938931297709924,27.31297709923664,-3.3893129770992365,-7.706935144042968,1.9584569580078124,2.3870190551757813,18.80916030534351,-34.42748091603053,-11.86259541984733,0.0
10.450000524520874,-9.172186560058593,1.4628572143554686,0.7015010864257812,-17.17557251908397,30.229007633587788,-3.969465648854962,-8.690952026367187,-0.031124621582031248,2.8467057739257813,11.694656488549619,-29.96946564885496,-8.01526717557252,0.0
10.46000075340271,-8.951920007324219,2.528276953125,1.1540052001953125,-27.87786259541985,25.770992366412212,-6.595419847328245,-9.97184991455078,-0.8690952026367187,3.5577836669921874,19.862595419847327,-34.534351145038165,-6.244274809160306,0.0
10.470000267028809,-9.004592443847656,0.42377369384765623,0.7206546997070312,-24.885496183206108,25.31297709923664,-3.4656488549618323,-8.48505068359375,1.1635820068359375,2.770091320800781,20.99236641221374,-43.00763358778626,-9.755725190839694,0.0
10.480000495910645,-8.872911352539061,-0.3280056274414062,0.603338818359375,-10.977099236641221,32.091603053435115,-2.16793893129771,-7.448361364746093,1.4987702392578124,2.5857377929687497,6.152671755725191,-37.19083969465649,-11.389312977099237,0.0
10.490000486373901,-8.437166650390624,0.6751648681640625,0.8355763793945312,-9.419847328244275,34.0,-4.977099236641221,-8.939948999023438,-0.18435352783203124,3.1794998046874996,-1.5267175572519085,-31.984732824427482,-7.755725190839694,0.0
10.500000476837158,-9.047688073730468,1.2641384765625,1.3718775512695311,-10.67175572519084,36.3206106870229,-7.312977099236641,-9.976638317871092,-0.7948749511718749,3.6248213134765623,4.9465648854961835,-35.06870229007634,-5.8320610687022905,0.0
10.510000705718994,-8.204929089355469,0.18914193115234373,0.6727706665039062,-1.9694656488549618,34.3206106870229,-5.541984732824427,-9.244012609863281,-0.05746083984375,3.3877953491210935,11.145038167938932,-39.9236641221374,-7.877862595419847,0.0
10.520000696182251,-8.827421520996094,0.8283937744140625,1.1731588134765625,3.0229007633587788,40.47328244274809,-7.114503816793893,-7.3286512817382805,1.9776105712890624,2.118868469238281,-1.2366412213740459,-39.61832061068702,-12.977099236641221,0.0
10.530000925064087,-10.280701928710936,2.70065947265625,2.138022082519531,-3.0839694656488548,41.20610687022901,-7.465648854961832,-6.528987927246093,1.5466542724609373,2.2361843505859373,-20.458015267175572,-29.801526717557252,-12.946564885496183,0.0
10.540000438690186,-10.615890161132812,3.009511486816406,2.50912333984375,-13.17557251908397,36.99236641221374,-4.854961832061068,-9.062053283691405,-0.6248866333007812,3.0933085449218747,-25.206106870229007,-22.015267175572518,-8.290076335877863,0.0
10.5500009059906,-9.694122521972655,2.3774422485351563,2.4205378784179685,-15.664122137404581,31.129770992366414,-1.7099236641221374,-8.568847741699217,-0.3016694091796875,2.916137622070312,-23.709923664122137,-24.290076335877863,-8.381679389312977,0.0
10.560000658035278,-9.909600671386718,1.484405029296875,2.0302830078125,-14.748091603053435,23.938931297709924,1.4961832061068703,-9.272743029785156,-0.7757213378906249,2.7748797241210936,-16.732824427480917,-26.47328244274809,-8.946564885496183,0.0
10.570000886917114,-11.434707128906249,2.2744915771484373,3.1387983764648437,-14.717557251908397,26.366412213740457,-0.7022900763358778,-9.622296472167967,-1.956062756347656,3.859453076171875,-8.854961832061068,-28.946564885496183,-9.312977099236642,0.0
10.580000400543213,-11.556811413574218,2.2194249389648437,3.1220389648437497,-15.954198473282442,21.61832061068702,-1.3435114503816794,-9.809044201660155,-1.7549498168945312,4.115632653808594,4.351145038167939,-31.938931297709924,-10.396946564885496,0.0
10.590000629425049,-10.151415039062499,1.3072341064453123,2.2601263671875,-11.709923664122137,16.47328244274809,-1.0534351145038168,-8.889670764160156,-0.2537853759765625,2.882618798828125,4.977099236641221,-37.52671755725191,-14.320610687022901,0.0
10.600000858306885,-10.053252770996092,1.7357962036132812,1.9680337646484374,-15.877862595419847,9.206106870229007,-0.6870229007633588,-7.005434057617187,0.6296750366210937,2.636016027832031,-6.8396946564885495,-29.862595419847327,-16.015267175572518,0.0
10.610000610351562,-9.969455712890625,1.3910311645507811,1.8842367065429686,-13.145038167938932,8.717557251908397,0.12213740458015267,-6.471527087402343,1.4604630126953124,2.1452046874999997,-20.35114503816794,-21.083969465648856,-15.267175572519085,0.0
10.62000060081482,-10.002974536132811,1.6041151123046875,1.8052280517578123,-12.564885496183207,9.068702290076336,-0.16793893129770993,-9.165003955078124,-0.612915625,2.999934680175781,-22.0,-13.16030534351145,-10.061068702290076,0.0
10.630000352859497,-9.885658654785155,1.2952630981445312,1.458068811035156,-12.351145038167939,6.519083969465649,0.5343511450381679,-8.939948999023438,-0.584185205078125,3.2537200561523436,-18.35114503816794,-13.48091603053435,-9.86259541984733,0.0
10.640000343322754,-10.110713610839843,1.2018892333984375,1.218648645019531,-10.229007633587786,4.030534351145038,1.786259541984733,-8.628702783203124,-0.59376201171875,3.0550013183593747,-14.51908396946565,-13.007633587786259,-10.82442748091603,0.0
10.65000033378601,-10.108319409179687,0.9145850341796874,1.2832920898437499,-6.870229007633588,5.038167938931298,1.3740458015267176,-8.798691101074219,-0.8667010009765624,3.1794998046874996,-10.198473282442748,-11.16030534351145,-11.312977099236642,0.0
10.660000562667847,-10.079588989257813,1.0031704956054688,1.0606313354492187,-3.984732824427481,5.633587786259542,0.3969465648854962,-8.872911352539061,-0.928950244140625,3.2800562744140622,-5.908396946564886,-9.770992366412214,-11.938931297709924,0.0
10.670000553131104,-10.1131078125,1.3527239379882812,0.9457096557617187,-3.2977099236641223,5.129770992366412,-0.7022900763358778,-8.300697155761718,-0.6296750366210937,3.0909143432617188,-5.236641221374046,-8.992366412213741,-12.961832061068701,0.0
10.68000078201294,-9.923965881347655,1.3958195678710936,1.0797849487304687,-2.519083969465649,5.068702290076335,-1.6793893129770991,-8.70771143798828,-0.8978256225585937,3.0119056884765625,-3.2519083969465647,-6.977099236641221,-12.595419847328245,0.0
10.690000534057617,-9.90241806640625,1.1133037719726562,1.1156979736328125,-2.900763358778626,5.099236641221374,-2.885496183206107,-8.303091357421874,-0.8068459594726562,2.8993782104492185,-3.801526717557252,-5.022900763358779,-12.977099236641221,0.0
10.700000762939453,-9.792284790039062,1.1180921752929687,1.1228805786132812,-1.4961832061068703,4.198473282442748,-3.9083969465648853,-8.769960681152343,-1.0295067138671874,2.9496564453125,-1.2061068702290076,-3.2519083969465647,-12.82442748091603,0.0
10.71000075340271,-9.797073193359374,1.1156979736328125,1.5131354492187499,0.3969465648854962,3.3893129770992365,-4.641221374045801,-8.678981018066406,-1.0582371337890624,2.9975404785156248,1.2213740458015268,-1.3587786259541985,-13.297709923664122,0.0
10.720000743865967,-9.751583361816406,1.2665326782226562,1.5227122558593749,3.282442748091603,2.595419847328244,-5.374045801526718,-8.79150849609375,-1.1516109985351561,3.1794998046874996,4.564885496183206,0.4122137404580153,-13.32824427480916,0.0
10.730000495910645,-9.6917283203125,1.5586252807617187,1.5442600708007812,6.061068702290076,1.633587786259542,-5.908396946564886,-8.774749084472656,-1.4867992309570313,3.3303345092773435,9.404580152671755,1.282442748091603,-14.030534351145038,0.0
10.740000247955322,-9.622296472167967,1.5179238525390624,1.5107412475585937,8.778625954198473,0.8549618320610687,-6.091603053435114,-8.688557824707031,-1.39821376953125,3.2537200561523436,12.320610687022901,2.885496183206107,-15.526717557251908,0.0
10.750000476837158,-9.366116894531249,1.6065093139648436,1.5801730957031248,10.106870229007633,-0.7022900763358778,-6.1679389312977095,-8.71489404296875,-1.1516109985351561,3.5051112304687497,16.091603053435115,3.8473282442748094,-16.015267175572518,0.0
10.760000705718994,-9.586383447265625,1.4891934326171874,1.6448165405273436,10.412213740458014,-2.1374045801526718,-7.083969465648855,-8.573636145019531,-0.9145850341796874,3.5865140869140624,17.740458015267176,4.1679389312977095,-16.30534351145038,0.0
10.770000457763672,-9.832986218261718,1.37906015625,2.0757728393554684,10.916030534351146,-4.213740458015267,-8.51908396946565,-8.492233288574218,-0.6200982299804687,3.6535517333984373,16.85496183206107,4.870229007633588,-16.48854961832061,0.0
10.780000686645508,-9.576806640625,1.1851298217773436,2.2744915771484373,12.564885496183207,-5.66412213740458,-10.030534351145038,-8.310273962402343,-0.5434837768554687,3.6679169433593746,15.709923664122137,5.4961832061068705,-16.213740458015266,0.0
10.790000438690186,-9.610325463867188,1.1611878051757811,2.6695348510742187,14.13740458015267,-8.122137404580153,-11.877862595419847,-8.214505895996094,-0.45968671875,3.6152445068359373,15.709923664122137,5.541984732824427,-15.358778625954198,0.0
10.800000667572021,-9.540893615722656,1.2785036865234374,3.3446997192382812,16.0,-11.664122137404581,-13.786259541984732,-8.21690009765625,-0.51714755859375,3.5817256835937497,16.83969465648855,6.702290076335878,-15.099236641221374,0.0
10.810000658035278,-9.935936889648437,1.43652099609375,3.6152445068359373,18.091603053435115,-15.526717557251908,-15.450381679389313,-8.20971749267578,-0.3495534423828125,3.5314474487304683,16.65648854961832,7.755725190839694,-15.450381679389313,0.0
10.820000648498535,-9.720458740234374,1.426944189453125,4.067748620605468,21.221374045801525,-20.27480916030534,-15.664122137404581,-7.781155395507812,-0.08379705810546874,3.1004911499023438,13.755725190839694,9.435114503816793,-16.3206106870229,0.0
10.830000638961792,-9.809044201660155,2.152387292480469,4.668693237304687,23.81679389312977,-25.267175572519083,-15.938931297709924,-7.541735229492187,-0.32561142578124996,2.952050646972656,9.389312977099237,12.748091603053435,-16.885496183206108,0.0
10.840000867843628,-11.762712756347655,4.292803576660156,6.023811376953125,14.946564885496183,-32.35114503816794,-16.748091603053435,-8.202534887695313,-0.9744400756835937,2.990357873535156,9.923664122137405,15.526717557251908,-17.022900763358777,0.0
10.850000619888306,-11.334150659179686,3.8762124877929685,5.755660791015624,6.687022900763359,-47.61832061068702,-13.099236641221374,-6.900089184570312,-0.229843359375,2.243366955566406,5.755725190839694,16.549618320610687,-19.709923664122137,0.0
10.860000848770142,-10.235212097167969,3.4763808105468748,5.798756420898437,6.763358778625954,-58.778625954198475,-8.01526717557252,-6.121973645019531,-0.05985504150390625,1.8555062866210936,-4.015267175572519,26.625954198473284,-21.053435114503817,0.0
10.87000060081482,-10.019733947753906,3.1459809814453124,6.471527087402343,4.1679389312977095,-68.58015267175573,-4.977099236641221,-6.404489440917969,-0.48123453369140623,0.9816226806640624,-8.885496183206106,36.458015267175576,-20.549618320610687,0.0
10.880000591278076,-10.915165368652342,2.47081611328125,7.041347082519531,6.793893129770993,-79.09923664122137,-1.5725190839694656,-5.104437939453125,-1.0917559570312498,-0.3758896606445312,-2.595419847328244,39.06870229007634,-20.763358778625953,0.0
10.890000581741333,-10.862492932128905,2.568978381347656,7.3286512817382805,22.671755725190838,-90.61068702290076,3.801526717557252,-6.986280444335937,0.20350714111328125,-0.40940848388671874,13.893129770992367,48.54961832061068,-17.908396946564885,0.0
10.90000033378601,-10.714052429199219,1.6160861206054686,6.6271501953125,26.732824427480917,-101.77099236641222,8.106870229007633,-7.244854223632812,1.8555062866210936,0.8667010009765624,18.68702290076336,53.954198473282446,-16.396946564885496,0.0
10.910000562667847,-11.212046374511718,0.3950432739257812,6.983886242675781,27.083969465648856,-117.72519083969466,6.0458015267175576,-9.248801013183593,2.760514514160156,3.459621398925781,6.5038167938931295,58.030534351145036,-17.068702290076335,0.0
10.920000791549683,-11.774683764648437,1.0869675537109373,6.1076084350585935,27.801526717557252,-132.61068702290078,3.9083969465648853,-13.63737265625,0.1580173095703125,7.838616235351562,-14.320610687022901,65.19083969465649,-13.465648854961833,0.0
10.93000078201294,-12.952630981445312,1.1156979736328125,4.6447512207031245,16.870229007633586,-145.6946564885496,0.3816793893129771,-18.05467471923828,-2.6862942626953124,10.529698901367187,-9.419847328244275,50.2442748091603,-12.82442748091603,0.0
10.940000772476196,-13.579911816406248,0.19871873779296872,3.1411925781249996,6.961832061068702,-154.85496183206106,-3.954198473282443,-17.956512451171875,-2.446874096679687,9.904812268066406,-4.931297709923665,33.14503816793893,-16.65648854961832,0.0
10.950000524520874,-14.858415502929686,-0.852335791015625,2.47081611328125,6.778625954198473,-156.12213740458014,-2.519083969465649,-17.113753466796872,-0.41419688720703124,6.133944653320312,4.3816793893129775,21.755725190839694,-6.5038167938931295,0.0
10.96000075340271,-15.12417188720703,-0.9504980590820312,1.8171990600585937,3.4656488549618323,-156.3969465648855,2.5801526717557253,-15.095441467285156,-2.166752502441406,2.7557261108398436,20.091603053435115,2.854961832061069,5.419847328244275,0.0
10.970000505447388,-14.609418530273437,-2.2290017456054687,2.0374656127929685,1.816793893129771,-151.38931297709922,5.145038167938932,-11.341333264160156,-1.465251416015625,1.6543933471679686,20.793893129770993,-2.931297709923664,6.748091603053435,0.0
10.980000257492065,-13.644555261230469,-2.070984436035156,1.4604630126953124,5.526717557251908,-147.23664122137404,7.206106870229007,-5.284003063964843,0.43574470214843747,-1.5801730957031248,3.2977099236641223,-9.923664122137405,-0.0916030534351145,0.0
10.990000247955322,-12.157756030273436,-0.5243301635742187,1.8028338500976562,4.030534351145038,-140.85496183206106,6.534351145038168,-4.254496350097656,1.3958195678710936,-1.9033903198242186,-18.442748091603054,11.374045801526718,-0.1984732824427481,0.0
11.000000476837158,-11.765106958007811,1.9871873779296874,1.4508862060546874,-1.3435114503816794,-135.08396946564886,8.106870229007633,-6.119579443359375,-2.221819140625,-2.549824768066406,-37.87786259541985,19.96946564885496,2.1526717557251906,0.0
11.010000705718994,-11.212046374511718,1.5466542724609373,0.5578489868164063,-7.038167938931298,-124.91603053435115,11.236641221374045,-7.146691955566406,-3.105279553222656,-1.7621324218749999,-40.10687022900763,31.14503816793893,2.5343511450381677,0.0
11.020000696182251,-8.128314636230469,-1.6998831787109374,-1.426944189453125,5.038167938931298,-111.55725190839695,13.98473282442748,-6.768408093261718,-3.957615344238281,-2.3319524169921872,-37.51145038167939,32.10687022900763,-0.8244274809160306,0.0
11.030000925064087,-6.5218053222656245,-4.876988781738281,-2.4971523315429685,27.068702290076335,-88.45801526717557,11.435114503816793,-8.748412866210938,-2.360682836914062,-1.7477672119140624,-35.29770992366412,46.30534351145038,-1.984732824427481,0.0
11.040000677108765,-7.196970190429687,-4.039018200683594,-2.2266075439453124,41.14503816793893,-62.595419847328245,2.2442748091603053,-10.611101757812499,-2.674323254394531,0.201112939453125,-37.61832061068702,64.94656488549619,1.083969465648855,0.0
11.0500009059906,-6.746860278320312,-4.893748193359374,-2.9927520751953125,47.00763358778626,-50.35114503816794,-4.977099236641221,-12.454637036132812,-4.766855505371093,0.4165910888671875,-21.099236641221374,62.47328244274809,6.427480916030534,0.0
11.060000658035278,-10.098742602539062,-2.042254016113281,0.02154781494140625,51.14503816793893,-25.66412213740458,-12.290076335877863,-10.896011755371093,-3.7421371948242186,0.8930372192382812,-9.48091603053435,61.23664122137404,5.267175572519084,0.0
11.070000886917114,-11.056423266601563,0.7422025146484375,0.7685387329101562,50.35114503816794,-15.007633587786259,-14.732824427480915,-10.955866796875,-4.474762902832031,1.1755530151367186,4.427480916030534,58.94656488549618,7.32824427480916,0.0
11.080000400543213,-9.70369932861328,1.254561669921875,0.5674257934570313,34.33587786259542,-15.526717557251908,-8.885496183206106,-11.003750830078124,-4.127603662109375,2.1116858642578125,24.12213740458015,51.61832061068702,9.648854961832061,0.0
11.090000629425049,-8.183381274414062,0.5770026000976562,0.3327940307617187,31.16030534351145,-9.969465648854962,-2.183206106870229,-10.196904870605469,-2.01112939453125,1.0989385620117187,28.870229007633586,43.02290076335878,7.923664122137405,0.0
11.100000619888306,-6.943184814453125,1.0558429321289062,0.21787235107421873,24.931297709923665,-3.1755725190839694,0.10687022900763359,-7.955932116699218,-0.6248866333007812,0.59376201171875,22.595419847328245,40.13740458015267,6.809160305343512,0.0
11.110000610351562,-5.722141967773437,0.9026140258789062,-0.11013327636718749,17.572519083969464,4.0,0.12213740458015267,-9.521740002441407,-2.2074539306640624,2.6862942626953124,21.022900763358777,48.51908396946565,12.916030534351146,0.0
11.12000060081482,-6.4739212890625,1.8411410766601561,0.6105214233398437,0.6106870229007634,5.557251908396947,-2.732824427480916,-9.634267480468749,-2.3151930053710936,2.6862942626953124,24.53435114503817,43.725190839694655,14.625954198473282,0.0
11.130000352859497,-6.842628344726562,1.8219874633789062,0.9169792358398436,-11.679389312977099,7.877862595419847,-3.877862595419847,-10.000580334472655,-2.2194249389648437,2.0254946044921875,31.770992366412212,36.16793893129771,12.335877862595419,0.0
11.140000820159912,-6.418854650878906,1.7549498168945312,0.9193734375,-21.66412213740458,9.83206106870229,-4.290076335877862,-10.249577307128906,-1.120486376953125,2.288856787109375,33.404580152671755,35.38931297709924,9.633587786259541,0.0
11.150000810623169,-5.8083332275390624,1.0031704956054688,0.44053310546874996,-30.091603053435115,12.473282442748092,-3.145038167938931,-9.861716638183593,-1.2497732666015624,2.7748797241210936,31.633587786259543,35.87786259541985,8.65648854961832,0.0
11.160000562667847,-5.616797094726562,0.3136404174804687,0.6823474731445313,-30.580152671755727,20.33587786259542,-2.8244274809160306,-9.639055883789062,-0.8044517578125,2.4756045166015626,26.625954198473284,34.900763358778626,7.312977099236641,0.0
11.170000553131104,-5.145139367675781,-0.12210428466796874,0.5315127685546874,-30.702290076335878,24.259541984732824,-3.6946564885496183,-9.995791931152343,-1.6831237670898436,2.8706477905273435,24.3206106870229,34.961832061068705,7.7251908396946565,0.0
11.180000305175781,-4.881777185058594,-0.00718260498046875,1.180341418457031,-27.81679389312977,30.106870229007633,-5.9541984732824424,-9.17458076171875,-1.2976572998046874,2.5450363647460934,20.85496183206107,33.23664122137404,6.366412213740458,0.0
11.190000295639038,-6.87614716796875,1.0749965454101562,2.2649147705078123,-37.64885496183206,29.52671755725191,-9.297709923664122,-9.430760339355468,-1.3048399047851562,2.549824768066406,21.282442748091604,29.893129770992367,6.656488549618321,0.0
11.200000762939453,-6.5505357421875,0.3591302490234375,2.4516625,-37.52671755725191,30.12213740458015,-6.641221374045801,-10.242394702148436,-2.375048046875,3.071760729980469,23.908396946564885,30.366412213740457,8.305343511450381,0.0
11.21000051498413,-6.4092778442382805,-0.1867477294921875,2.85388837890625,-32.38167938931298,32.44274809160305,-4.030534351145038,-9.801861596679688,-2.2553379638671873,3.1866824096679687,24.35114503816794,27.14503816793893,6.732824427480916,0.0
11.220000743865967,-4.197035510253906,-2.592920397949219,1.9871873779296874,-11.84732824427481,37.45038167938932,0.04580152671755725,-9.394847314453125,-2.4756045166015626,3.1076737548828124,24.47328244274809,24.244274809160306,4.8396946564885495,0.0
11.230000495910645,-4.651933825683593,-2.588131994628906,2.849099975585937,8.396946564885496,48.12213740458015,-2.0,-10.091559997558592,-3.0502129150390624,3.0837317382812497,27.938931297709924,23.66412213740458,4.3816793893129775,0.0
11.240000247955322,-5.1714755859374995,-1.4987702392578124,3.9935283691406247,24.916030534351144,54.42748091603053,-7.587786259541985,-9.79946739501953,-3.0023288818359375,2.920926025390625,32.79389312977099,21.908396946564885,3.282442748091603,0.0
11.250000476837158,-6.766013891601562,-0.6416460449218749,5.322310290527343,35.20610687022901,56.152671755725194,-9.893129770992367,-9.789890588378906,-2.616862414550781,2.5426421630859375,37.14503816793893,19.099236641221374,2.16793893129771,0.0
11.260000944137573,-7.271190441894531,-0.181959326171875,6.629544396972656,50.93129770992366,56.778625954198475,-8.702290076335878,-10.050858569335936,-2.243366955566406,2.521094348144531,41.282442748091604,18.3206106870229,2.549618320610687,0.0
11.270000696182251,-6.919242797851562,0.0143652099609375,7.196970190429687,73.32824427480917,59.00763358778626,-4.305343511450381,-9.53131680908203,-1.0678139404296874,2.1308394775390624,39.954198473282446,18.427480916030536,0.8244274809160306,0.0
11.280000686645508,-8.449137658691406,3.009511486816406,8.219294299316406,84.61068702290076,57.7557251908397,-3.3587786259541983,-10.421959826660157,-1.3742717529296875,1.5945383056640625,41.282442748091604,18.30534351145038,1.984732824427481,0.0
11.290000915527344,-8.128314636230469,3.766079211425781,8.034940771484374,88.44274809160305,50.68702290076336,0.6564885496183206,-8.731653454589843,0.3902548706054687,1.70467158203125,34.717557251908396,21.099236641221374,0.6259541984732825,0.0
11.300000667572021,-7.826645227050781,5.149927770996094,7.953537915039062,99.41984732824427,44.0,7.4961832061068705,-8.731653454589843,-0.023942016601562498,1.5418658691406248,23.404580152671755,25.87786259541985,3.8625954198473282,0.0
11.310001134872437,-9.617508068847656,5.868188269042968,8.152256652832031,85.81679389312977,34.44274809160305,10.458015267175572,-9.823409411621093,-0.354341845703125,0.7661445312499999,23.480916030534353,25.46564885496183,8.396946564885496,0.0
11.320000886917114,-10.805032092285156,5.463568188476562,6.133944653320312,65.32824427480917,26.549618320610687,15.49618320610687,-10.682927807617187,0.9528922607421875,0.3112462158203125,22.045801526717558,23.633587786259543,12.412213740458014,0.0
11.330000877380371,-11.168950744628905,3.787627026367187,2.142810485839844,37.25190839694657,22.30534351145038,19.46564885496183,-9.368511096191405,2.4253262817382812,-0.5698199951171875,6.061068702290076,22.793893129770993,13.435114503816793,0.0
11.340000629425049,-12.686874597167968,2.0542250244140625,3.0214824951171875,8.992366412213741,24.793893129770993,19.129770992366414,-9.481038574218749,2.499546533203125,-0.05027823486328125,-16.244274809160306,30.916030534351144,19.206106870229007,0.0
11.350000381469727,-13.268665600585937,0.3591302490234375,5.985504150390625,-5.114503816793893,22.83969465648855,15.86259541984733,-11.030087048339842,-0.44053310546874996,0.4477157104492187,-25.61832061068702,34.12213740458015,25.83206106870229,0.0
11.360000848770142,-13.3692220703125,-1.7166425903320313,7.278373046874999,-7.816793893129771,20.015267175572518,10.778625954198473,-9.459490759277344,0.06703764648437499,0.17238251953125,-26.916030534351144,28.259541984732824,22.061068702290076,0.0
11.37000060081482,-12.322955944824217,-0.5506663818359374,5.932831713867187,1.984732824427481,20.793893129770993,5.480916030534351,-9.030928662109375,-1.3024457031249999,1.254561669921875,-34.42748091603053,33.70992366412214,19.435114503816795,0.0
11.380000591278076,-11.480196960449218,2.722207287597656,3.892971899414062,-3.6030534351145036,20.946564885496183,2.50381679389313,-9.409212524414063,-2.7581203125,0.8906430175781249,-29.740458015267176,29.61832061068702,16.564885496183205,0.0
11.390000343322754,-11.149797131347656,5.353434912109375,2.4492682983398435,-21.450381679389313,16.47328244274809,1.83206106870229,-10.330980163574218,-4.024652990722656,0.34237083740234375,-19.72519083969466,17.053435114503817,13.068702290076336,0.0
11.40000057220459,-9.674968908691406,3.19865341796875,0.9528922607421875,-31.81679389312977,16.27480916030534,7.801526717557252,-9.536105212402344,-1.446097802734375,0.0718260498046875,-11.053435114503817,7.755725190839694,8.076335877862595,0.0
11.410000562667847,-5.966350537109375,0.3806780639648437,-1.2234370483398436,-23.81679389312977,18.396946564885496,15.251908396946565,-9.392453112792968,-0.36391865234375,0.2609679809570312,-20.99236641221374,4.717557251908397,5.648854961832061,0.0
11.420000791549683,-5.8083332275390624,0.12210428466796874,-0.469263525390625,-21.267175572519083,28.916030534351144,15.145038167938932,-10.735600244140624,0.05027823486328125,1.0821791503906248,-27.51145038167939,5.282442748091603,8.229007633587786,0.0
11.43000054359436,-6.035782385253906,-0.239420166015625,-0.02154781494140625,-22.38167938931298,34.274809160305345,12.748091603053435,-12.342109558105468,-0.2059013427734375,1.1228805786132812,-28.763358778625953,-0.366412213740458,13.114503816793894,0.0
11.440000534057617,-7.268796240234375,-1.2832920898437499,0.4477157104492187,-17.69465648854962,44.458015267175576,10.351145038167939,-12.899958544921875,-1.618480322265625,2.877830395507812,-26.244274809160306,-6.015267175572519,17.954198473282442,0.0
11.450000524520874,-8.487444885253906,-0.00718260498046875,1.407790576171875,-20.18320610687023,46.82442748091603,4.900763358778626,-12.301408129882812,-1.4963760375976562,2.583343591308594,-19.221374045801525,-21.954198473282442,17.328244274809162,0.0
11.46000051498413,-7.4962453979492185,-1.4963760375976562,0.10295067138671875,-14.67175572519084,47.770992366412216,2.595419847328244,-11.168950744628905,-0.5315127685546874,2.750937707519531,-19.068702290076335,-34.82442748091603,15.587786259541986,0.0
11.470000505447388,-6.964732629394531,-3.0454245117187497,-0.0430956298828125,0.6412213740458015,56.18320610687023,1.1297709923664123,-10.637437976074217,0.5434837768554687,2.612074011230469,-30.870229007633586,-42.01526717557252,14.381679389312977,0.0
11.480000734329224,-9.17458076171875,-0.8978256225585937,1.209071838378906,6.763358778625954,63.19083969465649,-6.030534351145038,-10.17056865234375,0.7685387329101562,2.003946789550781,-37.48091603053435,-51.29770992366412,12.778625954198473,0.0
11.490000486373901,-9.141061938476563,-0.373495458984375,0.9504980590820312,6.137404580152672,60.94656488549618,-9.374045801526718,-9.976638317871092,1.13006318359375,1.7645266235351562,-48.10687022900763,-58.229007633587784,11.129770992366412,0.0
11.500000476837158,-10.273519323730468,0.833182177734375,1.5251064575195312,7.282442748091603,64.04580152671755,-10.870229007633588,-9.14824454345703,1.0773907470703123,1.6400281372070311,-60.213740458015266,-62.229007633587784,10.106870229007633,0.0
11.510000467300415,-11.21683477783203,2.4875755249023435,2.3535002319335936,-2.3053435114503817,59.770992366412216,-12.229007633587786,-10.587159741210938,0.29448680419921874,2.379836450195312,-63.87786259541985,-61.7557251908397,10.778625954198473,0.0
11.520000457763672,-11.0707884765625,2.3367408203125,2.1883003173828124,-16.610687022900763,48.56488549618321,-10.549618320610687,-10.726023437499999,-1.8650830932617186,2.626439221191406,-55.29770992366412,-69.72519083969466,11.511450381679388,0.0
11.530000925064087,-10.81460889892578,2.001552587890625,1.4820108276367188,-18.83969465648855,42.99236641221374,-6.351145038167939,-11.805808386230469,-2.042254016113281,2.454056701660156,-37.70992366412214,-80.50381679389314,10.351145038167939,0.0
11.540000677108765,-11.094730493164063,2.327164013671875,1.5059528442382812,-17.6793893129771,40.13740458015267,-4.625954198473282,-9.91438907470703,0.8762778076171874,1.2114660400390624,-38.99236641221374,-87.55725190839695,4.732824427480916,0.0
11.5500009059906,-11.834538806152343,4.458003491210937,2.1787235107421874,-27.328244274809162,33.099236641221374,-2.33587786259542,-10.989385620117186,-0.316034619140625,1.7357962036132812,-40.458015267175576,-80.10687022900764,7.083969465648855,0.0
11.560000896453857,-10.232817895507813,2.398990063476562,1.2689268798828124,-31.099236641221374,23.938931297709924,3.099236641221374,-10.512939489746094,0.6919242797851562,0.7062894897460937,-35.86259541984733,-81.37404580152672,6.687022900763359,0.0
11.570000886917114,-11.559205615234374,2.767697119140625,2.1595698974609374,-27.923664122137403,25.053435114503817,3.6946564885496183,-10.572794531249999,0.8571241943359375,0.17238251953125,-34.916030534351144,-76.22900763358778,8.610687022900763,0.0
11.580000638961792,-11.597512841796874,3.775656018066406,2.099714855957031,-34.06106870229008,16.519083969465647,4.748091603053435,-11.073182678222656,-1.0869675537109373,0.33518823242187495,-23.389312977099237,-75.38931297709924,9.770992366412214,0.0
11.59000039100647,-10.378864196777343,2.2768857788085937,1.2832920898437499,-38.99236641221374,8.290076335877863,7.862595419847328,-9.986215124511718,0.9864110839843749,0.086191259765625,-25.96946564885496,-66.62595419847328,6.458015267175573,0.0
11.600000619888306,-9.358934289550781,1.1348515869140625,0.7948749511718749,-30.83969465648855,8.458015267175572,10.610687022900763,-10.378864196777343,-0.0718260498046875,0.239420166015625,-30.30534351145038,-55.23664122137404,6.793893129770993,0.0
11.610000610351562,-8.781931689453124,0.8044517578125,0.97683427734375,-26.717557251908396,9.679389312977099,10.0,-11.547234606933593,-1.5538368774414062,0.4860229370117187,-20.793893129770993,-51.038167938931295,6.106870229007634,0.0
11.62000060081482,-10.029310754394531,1.637633935546875,1.1444283935546875,-27.46564885496183,10.595419847328245,6.702290076335878,-10.160991845703125,-0.22266075439453123,0.3136404174804687,-11.633587786259541,-49.038167938931295,1.633587786259542,0.0
11.630000591278076,-9.37808790283203,0.9552864624023437,0.5506663818359374,-25.480916030534353,11.32824427480916,7.0534351145038165,-9.402029919433593,0.21787235107421873,0.239420166015625,-17.404580152671755,-41.74045801526717,-0.9312977099236641,0.0
11.640000581741333,-9.660603698730467,1.3479355346679687,0.8834604125976562,-23.87786259541985,15.541984732824428,6.778625954198473,-10.654197387695312,-1.37906015625,1.6208745239257811,-13.801526717557252,-29.34351145038168,1.6488549618320612,0.0
11.65000057220459,-12.093112585449218,3.976768957519531,2.24097275390625,-35.66412213740458,13.725190839694656,3.648854961832061,-10.599130749511717,-2.806004345703125,2.1308394775390624,2.351145038167939,-32.42748091603053,1.1603053435114503,0.0
11.660000324249268,-10.110713610839843,2.7246014892578123,0.699106884765625,-49.37404580152672,2.8091603053435112,7.511450381679389,-10.601524951171875,-1.7621324218749999,1.8076222534179687,22.65648854961832,-42.0763358778626,-2.213740458015267,0.0
11.670000553131104,-11.171344946289063,1.8602946899414061,1.3742717529296875,-48.13740458015267,8.488549618320612,9.129770992366412,-8.552088330078124,1.197100830078125,1.3048399047851562,20.610687022900763,-44.48854961832061,-7.1603053435114505,0.0
11.68000078201294,-9.957484704589843,0.842758984375,0.8283937744140625,-48.778625954198475,6.030534351145038,10.763358778625955,-8.418013037109375,0.44532150878906246,2.2481553588867187,7.0534351145038165,-34.19847328244275,-6.885496183206107,0.0
11.690000534057617,-11.082759484863281,1.9321207397460936,1.7573440185546874,-50.88549618320611,6.763358778625954,8.381679389312977,-11.034875451660156,-1.7812860351562498,3.2058360229492187,11.908396946564885,-29.404580152671755,-2.1374045801526718,0.0
11.700000762939453,-9.756371765136718,0.5746083984375,1.0438719238281249,-49.603053435114504,3.648854961832061,7.984732824427481,-10.098742602539062,-0.5770026000976562,2.020706201171875,22.946564885496183,-44.3206106870229,-4.793893129770993,0.0
11.71000051498413,-9.342174877929686,-0.4908113403320312,1.0654197387695312,-32.961832061068705,9.49618320610687,6.702290076335878,-8.350975390624999,0.6943184814453125,2.2266075439453124,18.778625954198475,-40.42748091603053,-7.480916030534351,0.0
11.720000505447388,-8.099584216308592,-0.28012159423828126,0.7948749511718749,-25.862595419847327,11.419847328244275,4.961832061068702,-10.20887587890625,-1.120486376953125,3.0334535034179684,20.47328244274809,-34.61068702290076,-4.122137404580153,0.0
11.730000495910645,-9.114725720214842,-0.6248866333007812,1.3575123413085937,-20.595419847328245,16.106870229007633,0.24427480916030533,-9.880870251464843,-0.09816226806640624,2.375048046875,25.603053435114504,-41.9236641221374,-5.572519083969466,0.0
11.740000247955322,-8.142679846191406,-0.9888052856445312,0.5482721801757812,-7.801526717557252,18.9618320610687,-3.145038167938931,-7.809885815429687,1.3455413330078123,2.085349645996094,20.18320610687023,-37.19083969465649,-7.770992366412214,0.0
11.750000476837158,-9.380482104492186,1.3551181396484375,1.6017209106445311,-9.114503816793894,19.206106870229007,-4.519083969465649,-10.065223779296874,-0.5698199951171875,3.4165257690429685,21.770992366412212,-29.114503816793892,-3.7557251908396947,0.0
11.760000705718994,-10.527304699707031,3.1794998046874996,3.1172505615234374,-11.633587786259541,23.053435114503817,-7.221374045801527,-9.437942944335937,-0.4261678955078125,3.19865341796875,26.48854961832061,-36.44274809160305,-4.122137404580153,0.0
11.770000457763672,-9.81862100830078,1.8842367065429686,2.099714855957031,-14.916030534351146,17.236641221374047,-4.641221374045801,-7.829039428710937,2.35589443359375,2.3918074584960936,18.564885496183205,-35.98473282442748,-7.282442748091603,0.0
11.780000448226929,-9.325415466308593,2.185906115722656,2.1811177124023438,-17.786259541984734,16.106870229007633,-2.4885496183206106,-6.459556079101562,3.0454245117187497,1.8722656982421875,-5.862595419847328,-25.099236641221374,-7.786259541984733,0.0
11.790000438690186,-9.651026892089844,2.418143676757812,2.4349030883789062,-23.450381679389313,12.80916030534351,-1.984732824427481,-8.607154968261717,0.7062894897460937,3.1507693847656246,-19.64885496183206,-12.290076335877863,-2.0610687022900764,0.0
11.800000667572021,-9.65342109375,1.886630908203125,2.262520568847656,-25.099236641221374,10.320610687022901,-0.8396946564885496,-8.901641772460938,0.36631285400390623,2.980781066894531,-19.221374045801525,-13.969465648854962,0.32061068702290074,0.0
11.810000896453857,-9.516951599121093,1.3120225097656248,1.7477672119140624,-20.763358778625953,8.748091603053435,0.366412213740458,-8.719682446289061,0.3854664672851562,3.1100679565429687,-19.96946564885496,-13.893129770992367,-0.7938931297709924,0.0
11.820000648498535,-8.44674345703125,-0.5482721801757812,0.7613561279296874,-11.145038167938932,9.34351145038168,1.7404580152671756,-8.765172277832031,-0.14125789794921875,3.342305517578125,-21.328244274809162,-11.770992366412214,-2.015267175572519,0.0
11.830000877380371,-9.782707983398437,1.3048399047851562,1.4867992309570313,-5.358778625954199,13.664122137404581,-1.6030534351145038,-8.559270935058594,-0.6416460449218749,3.246537451171875,-22.50381679389313,-11.19083969465649,-4.198473282442748,0.0
11.84000039100647,-10.414777221679687,2.0661960327148434,1.917755529785156,-5.038167938931298,16.580152671755727,-4.290076335877862,-8.913612780761719,-1.2904746948242187,3.517082238769531,-20.83969465648855,-8.763358778625955,-5.435114503816794,0.0
11.850000619888306,-9.5001921875,1.6448165405273436,1.5610194824218748,-3.618320610687023,17.81679389312977,-4.519083969465649,-10.223241088867187,-2.549824768066406,4.405331054687499,-11.541984732824428,-9.34351145038168,-4.580152671755725,0.0
11.860000610351562,-8.70771143798828,0.51714755859375,0.6272808349609375,-3.0381679389312977,14.13740458015267,-3.954198473282443,-10.144232434082031,-1.9752163696289062,3.6559459350585937,0.07633587786259542,-18.0,-7.435114503816794,0.0
11.87000060081482,-8.583212951660157,0.22744915771484372,0.06943184814453125,1.6793893129770991,14.51908396946565,-4.2748091603053435,-10.110713610839843,-1.6448165405273436,3.907337109375,8.244274809160306,-19.908396946564885,-10.0,0.0
11.880000591278076,-8.86812294921875,0.26815058593749996,-0.1580173095703125,3.66412213740458,16.732824427480917,-4.916030534351145,-9.437942944335937,-1.0342951171875,3.7301661865234372,10.381679389312977,-24.412213740458014,-12.977099236641221,0.0
11.890000581741333,-9.193734375,1.3742717529296875,0.11252747802734374,6.0,22.198473282442748,-6.717557251908397,-6.4739212890625,1.4604630126953124,2.04943662109375,-1.1908396946564885,-25.480916030534353,-19.206106870229007,0.0
11.90000057220459,-9.085995300292968,2.442085693359375,0.2537853759765625,-4.091603053435114,22.137404580152673,-7.419847328244275,-7.738059765625,0.9097966308593749,2.942473840332031,-15.48091603053435,-11.801526717557252,-16.778625954198475,0.0
11.910000324249268,-10.081983190917969,2.4396914916992185,0.9337386474609375,-12.198473282442748,23.69465648854962,-5.145038167938932,-9.047688073730468,-0.3327940307617187,3.69664736328125,-20.9618320610687,-5.435114503816794,-11.34351145038168,0.0
11.920000791549683,-10.697293017578124,2.013523596191406,1.139639990234375,-14.351145038167939,26.27480916030534,-4.6106870229007635,-8.475473876953124,-0.3064578125,3.6248213134765623,-21.282442748091604,-6.9465648854961835,-10.67175572519084,0.0
11.93000054359436,-8.702923034667968,1.369483349609375,0.3806780639648437,-10.549618320610687,27.66412213740458,-3.236641221374046,-8.549694128417968,-0.6607996582031249,3.7397429931640622,-17.72519083969466,-6.870229007633588,-11.007633587786259,0.0
11.940000534057617,-9.167398156738281,0.9145850341796874,0.6153098266601562,-9.022900763358779,32.717557251908396,-4.351145038167939,-8.640673791503906,-0.9744400756835937,4.039018200683594,-15.099236641221374,-6.030534351145038,-11.877862595419847,0.0
11.950000524520874,-9.306261853027344,1.218648645019531,0.565031591796875,-5.175572519083969,32.091603053435115,-4.396946564885496,-8.001421948242188,-0.9816226806640624,3.806780639648437,-14.610687022900763,-6.198473282442748,-13.022900763358779,0.0
11.96000075340271,-10.759542260742187,1.8339584716796873,1.4030021728515625,-10.351145038167939,34.396946564885496,-6.900763358778626,-8.166621862792969,-0.47884033203125,3.6080619018554687,-14.641221374045802,-4.33587786259542,-13.603053435114504,0.0
11.970000505447388,-9.832986218261718,1.8004396484374998,0.9097966308593749,-10.82442748091603,30.03053435114504,-5.587786259541985,-8.86094034423828,-1.5322890624999999,4.299986181640625,-15.908396946564885,2.2595419847328246,-10.961832061068701,0.0
11.980000495910645,-8.56166513671875,1.0630255371093749,0.5291185668945312,-14.061068702290076,26.99236641221374,-4.0458015267175576,-8.954314208984375,-1.4772224243164063,3.8043864379882812,-6.427480916030534,-4.687022900763359,-10.625954198473282,0.0
11.990000486373901,-8.93755479736328,1.4173673828125,0.9911994873046874,-12.916030534351146,27.770992366412212,-5.068702290076335,-8.200140686035155,-0.8259995727539062,3.854664672851562,-5.6183206106870225,-2.2900763358778624,-12.091603053435115,0.0
12.000000238418579,-8.683769421386717,0.565031591796875,0.8667010009765624,-13.83206106870229,23.389312977099237,-2.4885496183206106,-8.343792785644531,-0.97683427734375,3.7325603881835936,-2.427480916030534,-2.030534351145038,-12.045801526717558,0.0
12.010000467300415,-10.256759912109374,2.176329309082031,1.917755529785156,-15.282442748091603,22.53435114503817,-4.99236641221374,-8.820238916015624,-1.197100830078125,4.151545678710937,-0.6412213740458015,0.4580152671755725,-11.267175572519085,0.0
12.020000696182251,-9.935936889648437,1.2617442749023438,1.5011644409179687,-16.80916030534351,17.908396946564885,-3.572519083969466,-7.9655089233398435,-0.5746083984375,3.4668040039062498,2.763358778625954,-2.3053435114503817,-12.946564885496183,0.0
12.030001163482666,-8.767566479492187,-0.00718260498046875,1.149216796875,-5.603053435114504,17.0381679389313,-1.9083969465648856,-8.020575561523437,-0.6464344482421874,3.411737365722656,1.0229007633587786,1.0534351145038168,-11.755725190839694,0.0
12.040000677108765,-9.830592016601562,1.8650830932617186,1.9105729248046874,-4.625954198473282,19.49618320610687,-4.33587786259542,-8.250418920898436,-0.9552864624023437,3.4739866088867184,2.1068702290076335,3.3587786259541983,-11.32824427480916,0.0
12.0500009059906,-9.655815295410155,1.4891934326171874,1.8004396484374998,-8.51908396946565,14.687022900763358,-4.534351145038168,-8.365340600585936,-1.0797849487304687,3.418919970703125,5.221374045801527,3.8625954198473282,-10.366412213740459,0.0
12.060000658035278,-9.667786303710937,0.8786720092773437,1.695094775390625,-4.793893129770993,12.16793893129771,-3.4198473282442747,-8.350975390624999,-1.24498486328125,3.4739866088867184,7.511450381679389,4.564885496183206,-10.763358778625955,0.0
12.070000886917114,-9.629479077148437,0.6775590698242188,1.7597382202148437,-0.6259541984732825,12.549618320610687,-4.0458015267175576,-8.233659509277343,-1.2689268798828124,3.4356793823242184,9.908396946564885,5.8320610687022905,-11.312977099236642,0.0
12.080039024353027,-9.797073193359374,0.7900865478515624,1.7812860351562498,2.4122137404580153,11.572519083969466,-5.251908396946565,-8.276755139160155,-1.4628572143554686,3.5098996337890624,11.954198473282442,6.595419847328245,-11.664122137404581,0.0
12.090000629425049,-9.813832604980469,0.8164227661132812,1.8555062866210936,5.648854961832061,9.358778625954198,-6.015267175572519,-8.310273962402343,-1.4341267944335936,3.42849677734375,14.213740458015268,6.961832061068702,-12.030534351145038,0.0
12.100000858306885,-9.938331091308592,0.8978256225585937,2.3247698120117186,8.992366412213741,8.320610687022901,-7.175572519083969,-8.291120349121094,-1.3215993164062498,3.5482068603515624,16.519083969465647,7.374045801526718,-12.885496183206106,0.0
12.110000610351562,-9.904812268066406,0.7972691528320313,2.27927998046875,12.549618320610687,6.061068702290076,-7.923664122137405,-7.994239343261718,-1.158793603515625,3.430890979003906,16.076335877862597,9.938931297709924,-14.045801526717558,0.0
12.12000060081482,-9.085995300292968,-0.6057330200195312,1.8626888916015625,21.17557251908397,3.068702290076336,-7.4961832061068705,-7.917624890136718,-1.3000515014648437,3.095702746582031,15.893129770992367,13.267175572519085,-16.137404580152673,0.0
12.130000591278076,-10.369287390136718,0.9864110839843749,2.501940734863281,28.717557251908396,5.32824427480916,-10.442748091603054,-8.037334973144532,-0.86191259765625,3.8187516479492185,15.908396946564885,15.297709923664122,-16.80916030534351,0.0
12.140000581741333,-11.343727465820312,2.7078420776367187,3.5793314819335937,27.419847328244273,5.267175572519084,-13.816793893129772,-8.032546569824218,-0.7230489013671875,3.7900212280273435,12.961832061068701,17.541984732824428,-17.404580152671755,0.0
12.15000057220459,-10.520122094726561,1.886630908203125,3.0119056884765625,22.977099236641223,-4.595419847328245,-11.83206106870229,-8.030152368164062,-1.0462661254882812,2.7964275390625,10.427480916030534,18.65648854961832,-17.129770992366414,0.0
12.160000562667847,-9.612719665527344,1.1180921752929687,3.057395520019531,29.72519083969466,-6.763358778625954,-11.068702290076336,-7.982268334960937,-0.43574470214843747,2.437297290039062,13.877862595419847,21.0381679389313,-15.770992366412214,0.0
12.170000314712524,-10.141838232421874,1.7501614135742187,3.2249896362304686,27.541984732824428,-13.526717557251908,-11.389312977099237,-7.6997525390625,0.8355763793945312,1.9297265380859374,14.854961832061068,23.14503816793893,-13.297709923664122,0.0
12.18000078201294,-10.24718310546875,1.4820108276367188,3.5146880371093747,31.755725190839694,-17.419847328244273,-11.938931297709924,-7.070077502441406,0.181959326171875,0.9935936889648437,9.251908396946565,35.02290076335878,-11.251908396946565,0.0
12.190000534057617,-10.062829577636718,1.1276689819335937,3.6535517333984373,36.70229007633588,-21.740458015267176,-10.610687022900763,-6.777984899902344,-0.023942016601562498,-0.4860229370117187,16.48854961832061,39.64885496183206,-8.01526717557252,0.0
12.200000524520874,-10.041281762695311,1.1563994018554686,3.909731311035156,41.86259541984733,-26.580152671755727,-11.801526717557252,-6.770802294921874,1.2018892333984375,-0.6584054565429687,17.66412213740458,45.61832061068702,-7.4961832061068705,0.0
12.21000051498413,-10.472238061523436,2.319981408691406,4.448426684570312,44.68702290076336,-32.229007633587784,-12.870229007633588,-7.943961108398437,0.5530605834960938,1.5227122558593749,8.412213740458014,57.89312977099237,-7.404580152671755,0.0
12.220000505447388,-11.092336291503905,4.316745593261719,5.063736511230468,30.9618320610687,-47.282442748091604,-12.687022900763358,-10.613495959472656,-1.24498486328125,3.4548329956054684,-0.8549618320610687,62.18320610687023,-8.717557251908397,0.0
12.230000495910645,-12.526463085937499,4.544194750976562,5.966350537109375,17.770992366412212,-62.44274809160305,-12.396946564885496,-12.536039892578124,-0.44053310546874996,5.236119030761718,-15.129770992366412,62.25954198473283,-13.740458015267176,0.0
12.240000486373901,-13.057975854492186,3.9504327392578125,6.605602380371093,11.374045801526718,-77.6030534351145,-9.038167938931299,-15.619771630859374,-2.9568390502929685,7.390900524902343,-19.954198473282442,65.23664122137404,-11.419847328244275,0.0
12.250000476837158,-12.536039892578124,3.337517114257812,6.528987927246093,9.221374045801527,-93.31297709923665,-5.206106870229007,-16.63251893310547,-3.9169139160156248,6.7037646484375,0.1984732824427481,48.79389312977099,-7.083969465648855,0.0
12.260000705718994,-12.808978881835937,2.9664158569335934,6.263231542968749,13.236641221374045,-107.72519083969466,-2.1374045801526718,-13.991714501953124,-2.0638018310546875,4.086902233886718,22.793893129770993,33.38931297709924,-3.9236641221374047,0.0
12.270000696182251,-12.883199133300781,2.422932080078125,5.985504150390625,22.549618320610687,-119.16030534351145,4.305343511450381,-11.575965026855467,-1.5921441040039062,2.85388837890625,35.541984732824424,26.061068702290076,2.5801526717557253,0.0
12.280000686645508,-13.326126440429686,1.0702081420898437,5.667075329589843,23.14503816793893,-131.6030534351145,9.801526717557252,-9.828197814941406,-0.9145850341796874,1.908178723144531,41.64885496183206,23.129770992366414,4.961832061068702,0.0
12.290000915527344,-14.144943408203124,-0.9504980590820312,6.349422802734375,23.022900763358777,-145.98473282442748,9.053435114503817,-9.586383447265625,-0.3136404174804687,0.9050082275390624,50.06106870229008,13.32824427480916,3.618320610687023,0.0
12.300000667572021,-16.21592784423828,0.7038952880859375,7.302315063476562,22.763358778625953,-155.7709923664122,5.419847328244275,-7.625532287597656,0.36631285400390623,0.49320554199218747,39.23664122137404,16.091603053435115,-0.3969465648854962,0.0
12.310000896453857,-16.728286999511717,1.1947066284179686,6.143521459960938,1.450381679389313,-176.7175572519084,4.290076335877862,-7.943961108398437,-0.6392518432617187,0.10773907470703124,28.12213740458015,19.068702290076335,-2.33587786259542,0.0
12.320000648498535,-12.310984936523436,-4.42448466796875,2.731784094238281,3.3282442748091605,-191.05343511450383,8.290076335877863,-7.407659936523437,-0.3591302490234375,-0.4908113403320312,18.732824427480917,18.9618320610687,-7.679389312977099,0.0
12.330000877380371,-11.001356628417968,-5.647921716308593,0.63206923828125,31.00763358778626,-177.1908396946565,8.67175572519084,-6.979097839355468,0.6919242797851562,0.26336218261718747,4.1679389312977095,29.19083969465649,-10.717557251908397,0.0
12.340000629425049,-7.7787611938476555,-5.66946953125,-2.868253588867187,50.33587786259542,-161.14503816793894,8.992366412213741,-2.93050283203125,3.6750995483398436,-4.321533996582031,-20.549618320610687,25.404580152671755,-16.091603053435115,0.0
12.350000858306885,-7.414842541503906,-3.9264907226562498,-2.530671154785156,73.06870229007633,-135.14503816793894,8.473282442748092,-8.757989672851561,0.21308394775390624,0.6296750366210937,-34.778625954198475,59.9236641221374,-1.450381679389313,0.0
12.360000848770142,-7.182604980468749,-2.308010400390625,-3.31357509765625,69.22137404580153,-116.12213740458016,7.740458015267175,-11.765106958007811,-2.2553379638671873,2.6599580444335937,-29.572519083969464,67.70992366412214,11.038167938931299,0.0
12.37000060081482,-6.457161877441406,-3.2130186279296873,-4.656722229003906,68.22900763358778,-100.62595419847328,3.1908396946564888,-10.311826550292968,-0.0430956298828125,0.028730419921875,-18.564885496183205,50.74809160305343,8.01526717557252,0.0
12.380000591278076,-6.4643444824218745,-3.5529952636718747,-4.809951135253906,69.93893129770993,-79.77099236641222,-3.3435114503816794,-10.259154113769531,-0.354341845703125,0.4165910888671875,-24.732824427480917,59.603053435114504,7.4961832061068705,0.0
12.390000581741333,-8.200140686035155,-1.8004396484374998,-2.5043349365234375,58.01526717557252,-63.465648854961835,-10.870229007633588,-11.451466540527344,-2.499546533203125,1.7094599853515624,-31.954198473282442,70.03053435114504,12.885496183206106,0.0
12.400001049041748,-6.667851623535156,-2.094926452636719,-2.252943762207031,55.847328244274806,-59.31297709923664,-14.305343511450381,-10.93671318359375,-3.5913024902343746,0.5889736083984375,-22.625954198473284,57.70992366412214,14.900763358778626,0.0
12.410000562667847,-6.114791040039062,-3.380612744140625,-2.7341782958984373,73.41984732824427,-41.43511450381679,-15.679389312977099,-11.726799731445311,-5.853823059082031,1.2976572998046874,-6.5038167938931295,50.19847328244275,15.908396946564885,0.0
12.420000791549683,-9.038111267089842,0.016759411621093748,-0.9696516723632812,79.92366412213741,-24.27480916030534,-19.297709923664122,-11.532869396972655,-6.452373474121093,1.9608511596679685,20.885496183206108,36.36641221374046,13.526717557251908,0.0
12.43000054359436,-9.45470235595703,2.1308394775390624,-0.32561142578124996,71.2824427480916,-15.938931297709924,-22.396946564885496,-9.789890588378906,-4.790797521972656,1.9488801513671874,33.770992366412216,25.572519083969464,8.0,0.0
12.440001010894775,-8.664615808105468,5.025429284667968,-0.2825157958984375,49.25190839694657,-15.83206106870229,-20.091603053435115,-8.413224633789062,-2.6695348510742187,1.697488977050781,32.29007633587786,22.610687022900763,5.282442748091603,0.0
12.450000524520874,-9.828197814941406,5.990292553710937,0.9911994873046874,18.900763358778626,-15.419847328244275,-13.312977099236642,-9.658209497070311,-1.2138602416992186,1.0295067138671874,28.412213740458014,21.31297709923664,5.190839694656488,0.0
12.46000075340271,-8.765172277832031,4.637568615722656,0.9121908325195311,0.04580152671755725,-13.221374045801527,-4.122137404580153,-8.001421948242188,-0.43574470214843747,0.4955997436523437,17.236641221374047,18.244274809160306,4.213740458015267,0.0
12.470000505447388,-8.130708837890625,3.763685009765625,0.9504980590820312,-15.068702290076336,-7.465648854961832,1.6641221374045803,-9.081206896972656,0.17956512451171874,1.235408056640625,5.740458015267175,26.900763358778626,6.854961832061068,0.0
12.480000495910645,-7.721300354003906,2.3726538452148436,0.33518823242187495,-29.00763358778626,-4.809160305343512,5.083969465648855,-11.250353601074218,-1.924938134765625,2.3223756103515623,6.473282442748092,30.85496183206107,12.458015267175572,0.0
12.490000247955322,-6.478709692382812,0.5698199951171875,-0.47884033203125,-30.80916030534351,3.5877862595419847,8.15267175572519,-11.020510241699219,-2.511517541503906,2.674323254394531,12.65648854961832,28.229007633587788,13.786259541984732,0.0
12.500000238418579,-3.5027170288085934,-1.5131354492187499,-2.454056701660156,-19.083969465648856,14.274809160305344,9.84732824427481,-10.32379755859375,-1.458068811035156,2.224213342285156,10.977099236641221,27.282442748091604,12.030534351145038,0.0
12.510000705718994,-4.50109912109375,-0.49799394531249996,-1.4245499877929686,-11.83206106870229,31.786259541984734,6.900763358778626,-9.540893615722656,-2.39420166015625,2.051830822753906,13.572519083969466,26.396946564885496,11.450381679389313,0.0
12.520000457763672,-6.591237170410156,1.886630908203125,0.7278373046875,-25.46564885496183,40.091603053435115,-0.48854961832061067,-9.7683427734375,-2.887407202148437,2.1691467041015624,21.954198473282442,24.65648854961832,11.648854961832061,0.0
12.530000448226929,-5.487510205078125,-0.8355763793945312,0.3399766357421875,-30.82442748091603,43.9236641221374,-2.213740458015267,-10.395623608398436,-2.518700146484375,2.214636535644531,29.87786259541985,21.83206106870229,10.01526717557252,0.0
12.540000677108765,-5.085284326171875,-1.2856862915039062,1.1372457885742187,-31.954198473282442,50.412213740458014,-6.244274809160306,-9.900023864746093,-2.2385785522460937,2.4756045166015626,32.88549618320611,19.740458015267176,7.557251908396947,0.0
12.5500009059906,-5.231330627441406,-3.775656018066406,0.9074024291992187,-36.47328244274809,49.7557251908397,-9.755725190839694,-10.805032092285156,-2.7724855224609373,2.592920397949219,41.343511450381676,15.48091603053435,6.183206106870229,0.0
12.560000658035278,-5.817910034179687,-2.4109610717773435,2.114080065917969,-18.717557251908396,63.74045801526717,-14.15267175572519,-10.180145458984374,-1.9393033447265624,1.9512743530273435,46.916030534351144,7.374045801526718,3.3740458015267176,0.0
12.570001125335693,-8.204929089355469,1.16837041015625,4.697423657226563,-21.709923664122137,65.6793893129771,-19.083969465648856,-10.146626635742187,-2.741360900878906,3.303998291015625,53.70992366412214,6.244274809160306,4.412213740458015,0.0
12.580000638961792,-8.090007409667969,1.3311761230468748,5.65031591796875,-19.923664122137403,62.732824427480914,-13.19083969465649,-11.113884106445312,-3.229778039550781,3.0502129150390624,67.86259541984732,-7.190839694656488,5.145038167938932,0.0
12.590000629425049,-8.276755139160155,1.0702081420898437,7.0078282592773435,-5.145038167938932,60.74809160305343,-4.748091603053435,-9.588777648925781,-0.38307226562499996,1.8818425048828125,65.5114503816794,-18.580152671755727,-0.5190839694656488,0.0
12.600000619888306,-7.060500695800781,0.7972691528320313,7.522581616210937,21.862595419847327,61.12977099236641,3.6793893129770994,-9.062053283691405,2.5354595581054684,1.199495031738281,46.01526717557252,-12.244274809160306,-1.6946564885496183,0.0
12.610000610351562,-6.976703637695312,2.4205378784179685,8.276755139160155,41.725190839694655,60.80916030534351,9.511450381679388,-7.455543969726562,2.971204260253906,0.8212111694335937,16.27480916030534,-3.648854961832061,1.633587786259542,0.0
12.62000060081482,-7.620743884277343,3.402160559082031,8.0828248046875,47.80152671755725,56.18320610687023,14.290076335877863,-10.527304699707031,0.2442085693359375,2.04943662109375,5.282442748091603,7.00763358778626,10.900763358778626,0.0
12.630000591278076,-7.0461354858398435,2.128445275878906,7.2903440551757805,48.94656488549618,49.603053435114504,17.297709923664122,-10.000580334472655,0.8810662109374999,1.4820108276367188,4.916030534351145,0.07633587786259542,10.992366412213741,0.0
12.640000343322754,-7.350199096679687,1.6831237670898436,7.242460021972656,50.0763358778626,45.770992366412216,14.549618320610687,-9.004592443847656,-0.38786066894531246,2.375048046875,0.6259541984732825,2.381679389312977,10.778625954198473,0.0
12.650000810623169,-8.322244970703125,1.89620771484375,8.05648858642578,37.14503816793893,36.58015267175573,7.282442748091603,-9.234435803222656,0.6847416748046875,1.5155296508789062,0.732824427480916,0.42748091603053434,9.282442748091603,0.0
12.660000324249268,-7.6614453125,0.9313444458007812,7.079654309082031,28.595419847328245,26.30534351145038,3.0381679389312977,-7.881711865234375,0.7541735229492187,0.6560112548828124,-16.259541984732824,5.267175572519084,9.679389312977099,0.0
12.670000553131104,-9.203311181640624,1.0582371337890624,7.173028173828125,30.458015267175572,24.35114503816794,2.931297709923664,-9.555258825683593,-1.1611878051757811,0.7757213378906249,-23.633587786259543,11.877862595419847,15.358778625954198,0.0
12.680000305175781,-11.133037719726563,2.47081611328125,5.499481213378906,28.3206106870229,19.64885496183206,5.740458015267175,-11.212046374511718,-2.9640216552734375,0.8044517578125,-16.458015267175572,8.030534351145038,19.46564885496183,0.0
12.690000534057617,-12.931083166503905,3.6583401367187496,1.6519991455078125,27.053435114503817,18.931297709923665,13.877862595419847,-10.43153663330078,-2.8371289672851563,0.28012159423828126,-9.954198473282442,-2.8244274809160306,17.236641221374047,0.0
12.700000762939453,-13.757082739257811,2.080561242675781,2.6671406494140624,15.603053435114504,22.793893129770993,20.412213740458014,-10.364498986816406,-0.7134720947265625,0.047884033203124995,-16.30534351145038,-4.885496183206107,13.923664122137405,0.0
12.71000051498413,-15.401899279785155,-0.02633621826171875,6.818686328125,8.870229007633588,24.50381679389313,20.259541984732824,-8.693346228027343,1.484405029296875,0.507570751953125,-35.63358778625954,-0.15267175572519084,14.274809160305344,0.0
12.720000743865967,-14.674061975097656,1.0678139404296874,8.164227661132813,1.4961832061068703,12.320610687022901,15.541984732824428,-10.168174450683592,-0.7996633544921875,1.9991583862304687,-43.847328244274806,7.038167938931298,19.893129770992367,0.0
12.730000734329224,-12.607865942382812,1.8124106567382812,5.003881469726562,-6.687022900763359,-2.595419847328244,12.687022900763358,-9.866505041503906,-1.438915197753906,2.2553379638671873,-42.33587786259542,0.6106870229007634,18.82442748091603,0.0
12.740000247955322,-10.594342346191405,2.959233251953125,1.7884686401367187,-16.778625954198475,-8.381679389312977,8.977099236641221,-8.913612780761719,-3.153163586425781,3.2728736694335936,-32.93129770992366,-11.816793893129772,16.595419847328245,0.0
12.750000238418579,-9.265560424804686,2.147598889160156,-0.9337386474609375,-30.595419847328245,-16.519083969465647,7.251908396946565,-9.533711010742186,-1.2378022583007813,2.7269956909179687,-25.358778625954198,-23.206106870229007,10.65648854961832,0.0
12.760000705718994,-7.125144140624999,-0.32082302246093747,-1.9632453613281249,-17.328244274809162,-6.366412213740458,11.694656488549619,-9.612719665527344,-0.4165910888671875,2.8323405639648436,-31.801526717557252,-25.64885496183206,8.854961832061068,0.0
12.770000457763672,-6.4356140625,-0.16280571289062498,-1.8243816650390623,-14.15267175572519,1.1145038167938932,11.908396946564885,-10.35492218017578,-0.5099649536132812,1.9512743530273435,-32.48854961832061,-31.435114503816795,8.335877862595419,0.0
12.780000686645508,-6.880935571289062,0.19871873779296872,-0.7230489013671875,-18.68702290076336,7.297709923664122,7.9541984732824424,-11.176133349609374,-0.04548983154296875,2.4109610717773435,-35.41984732824427,-32.48854961832061,10.106870229007633,0.0
12.790001153945923,-6.880935571289062,0.34237083740234375,-0.18435352783203124,-21.6793893129771,11.251908396946565,7.557251908396947,-11.133037719726563,-1.6519991455078125,2.3918074584960936,-29.267175572519083,-41.37404580152672,11.572519083969466,0.0
12.800000667572021,-5.286397265624999,-1.6831237670898436,-1.66636435546875,-15.923664122137405,13.86259541984733,9.053435114503817,-12.00213292236328,-0.26336218261718747,2.4349030883789062,-16.702290076335878,-49.41984732824427,10.961832061068701,0.0
12.810000896453857,-6.308721374511719,-0.9696516723632812,-0.8403647827148437,-3.633587786259542,27.6793893129771,6.534351145038168,-10.967837805175781,1.2928688964843749,1.8291700683593748,-20.83969465648855,-54.778625954198475,7.022900763358779,0.0
12.820000648498535,-7.369352709960937,1.2234370483398436,-0.13646949462890623,-3.8625954198473282,36.0763358778626,2.183206106870229,-9.718064538574218,1.8555062866210936,0.9624690673828125,-37.52671755725191,-51.14503816793893,4.717557251908397,0.0
12.830000877380371,-8.78432589111328,1.8722656982421875,1.0366893188476562,-9.84732824427481,40.25954198473283,1.3282442748091603,-11.6837041015625,0.7709329345703124,1.7022773803710936,-42.19847328244275,-42.595419847328245,7.66412213740458,0.0
12.840000629425049,-8.760383874511719,0.5315127685546874,0.4165910888671875,-10.82442748091603,43.404580152671755,1.2213740458015268,-11.573570825195311,-1.3862427612304686,1.7405846069335937,-36.412213740458014,-47.64885496183206,8.412213740458014,0.0
12.850000619888306,-9.402029919433593,0.21068974609375,0.6823474731445313,-6.213740458015267,49.41984732824427,-1.5114503816793894,-11.79144317626953,-0.928950244140625,1.3742717529296875,-21.14503816793893,-54.961832061068705,5.862595419847328,0.0
12.860000610351562,-10.455478649902343,1.0917559570312498,1.1563994018554686,-8.885496183206106,50.80916030534351,-5.7251908396946565,-10.364498986816406,1.0079588989257813,0.7326257080078125,-21.49618320610687,-55.25190839694657,2.351145038167939,0.0
12.87000060081482,-10.31661495361328,1.3192051147460937,1.3910311645507811,-15.312977099236642,45.7557251908397,-6.290076335877862,-6.6151791870117185,2.2553379638671873,-0.4572925170898437,-35.66412213740458,-58.152671755725194,-1.8473282442748091,0.0
12.880000352859497,-10.896011755371093,2.4779987182617185,2.133233679199219,-16.763358778625953,44.94656488549618,-5.984732824427481,-9.016563452148437,1.2737152832031249,0.21787235107421873,-41.89312977099237,-37.32824427480916,5.129770992366412,0.0
12.890000820159912,-11.173739147949219,3.095702746582031,2.039859814453125,-21.862595419847327,38.6412213740458,-4.977099236641221,-10.716446630859375,-0.23702596435546874,0.7445967163085937,-32.961832061068705,-32.16793893129771,9.358778625954198,0.0
12.90000057220459,-9.318232861328125,0.718260498046875,0.5458779785156249,-13.603053435114504,33.06870229007634,-0.7175572519083969,-10.117896215820313,-0.7709329345703124,0.5147533569335937,-19.52671755725191,-34.12213740458015,9.282442748091603,0.0
12.910000324249268,-9.909600671386718,0.5315127685546874,0.47644613037109373,1.7557251908396947,37.404580152671755,-0.732824427480916,-10.16338604736328,-2.913743420410156,1.8531120849609375,-14.885496183206106,-30.33587786259542,8.564885496183207,0.0
12.920000314712524,-9.054870678710937,1.7429788085937499,0.33039982910156246,5.114503816793893,35.45038167938932,-2.9923664122137406,-9.303867651367186,0.4285620971679687,0.7972691528320313,-11.83206106870229,-30.900763358778626,3.572519083969466,0.0
12.93000054359436,-9.804255798339844,3.440467785644531,1.6807295654296874,-4.809160305343512,31.69465648854962,-5.572519083969466,-9.847351428222655,0.3016694091796875,1.695094775390625,-23.740458015267176,-14.854961832061068,3.7099236641221376,0.0
12.940000534057617,-8.767566479492187,2.2864625854492187,0.9576806640625,-16.12213740458015,22.30534351145038,-1.7251908396946565,-9.3086560546875,-0.9409212524414062,2.2960393920898436,-21.328244274809162,-10.229007633587786,6.152671755725191,0.0
12.950000286102295,-9.794678991699218,2.2170307373046874,1.9632453613281249,-18.625954198473284,24.213740458015266,-1.8473282442748091,-9.718064538574218,-0.3184288208007812,1.4867992309570313,-17.72519083969466,-14.274809160305344,4.412213740458015,0.0
12.960000991821289,-10.196904870605469,2.1356278808593747,2.2864625854492187,-15.389312977099237,26.091603053435115,-2.0,-11.202469567871093,-0.8068459594726562,2.4157494750976563,-16.38167938931298,-9.572519083969466,4.885496183206107,0.0
12.970000267028809,-10.87206973876953,2.375048046875,1.8291700683593748,-18.80916030534351,22.68702290076336,-0.8396946564885496,-10.280701928710936,-0.16759411621093748,2.1260510742187497,-13.282442748091603,-12.67175572519084,3.7557251908396947,0.0
12.980000495910645,-11.197681164550781,2.583343591308594,2.408566870117187,-19.16030534351145,25.557251908396946,-1.2671755725190839,-10.146626635742187,-0.354341845703125,2.3223756103515623,-12.305343511450381,-14.076335877862595,3.282442748091603,0.0
12.990000486373901,-10.601524951171875,2.5067291381835934,2.262520568847656,-20.290076335877863,25.69465648854962,-0.8091603053435115,-10.967837805175781,-1.4006079711914061,2.645592834472656,-1.8625954198473282,-19.541984732824428,4.091603053435114,0.0
13.000000476837158,-8.123526232910155,-0.47644613037109373,0.5602431884765625,-18.763358778625953,20.870229007633586,0.7938931297709924,-9.65342109375,-0.6871358764648438,2.731784094238281,4.1679389312977095,-25.755725190839694,2.2442748091603053,0.0
13.010000705718994,-9.859322436523437,1.2330138549804688,1.697488977050781,-14.961832061068701,27.17557251908397,-2.6412213740458017,-10.041281762695311,-2.750937707519531,3.2704794677734372,27.81679389312977,-40.2442748091603,2.519083969465649,0.0
13.020000696182251,-10.577582934570312,2.6192566162109374,1.7334020019531249,-32.0763358778626,18.33587786259542,-5.358778625954199,-9.22485899658203,0.7637503295898437,2.099714855957031,29.81679389312977,-54.18320610687023,-4.229007633587786,0.0
13.030000448226929,-9.5001921875,0.9911994873046874,1.2042834350585936,-30.48854961832061,18.50381679389313,-1.7251908396946565,-8.657433203124999,0.7805097412109374,2.806004345703125,16.946564885496183,-47.908396946564885,-3.618320610687023,0.0
13.040000677108765,-9.660603698730467,1.2306196533203124,1.0797849487304687,-29.709923664122137,22.213740458015266,-0.9770992366412213,-9.090783703613281,0.9888052856445312,2.31758720703125,10.702290076335878,-51.19083969465649,-1.4809160305343512,0.0
13.0500009059906,-11.877634436035155,3.7134067749023436,2.27927998046875,-40.70229007633588,21.19083969465649,-4.5038167938931295,-8.552088330078124,2.0302830078125,2.4061726684570313,0.3511450381679389,-47.343511450381676,-0.183206106870229,0.0
13.060000658035278,-10.359710583496094,1.944091748046875,1.0175357055664063,-45.37404580152672,19.480916030534353,-0.732824427480916,-10.04846436767578,0.4213794921875,3.3638533325195312,-2.366412213740458,-42.44274809160305,4.061068702290076,0.0
13.070000648498535,-10.041281762695311,2.051830822753906,0.5195417602539062,-45.74045801526717,20.427480916030536,0.5648854961832062,-9.521740002441407,1.1875240234375,2.540247961425781,-2.687022900763359,-50.3206106870229,2.7938931297709924,0.0
13.080000400543213,-11.176133349609374,3.1962592163085937,1.149216796875,-51.98473282442748,20.27480916030534,-1.2213740458015268,-8.303091357421874,2.250549560546875,2.5809493896484375,-16.9618320610687,-44.38167938931298,0.22900763358778625,0.0
13.09000039100647,-10.496180078124999,3.265691064453125,1.3000515014648437,-59.343511450381676,19.099236641221374,1.0381679389312977,-9.528922607421874,-0.062249243164062495,3.5003228271484375,-25.053435114503817,-36.68702290076336,3.66412213740458,0.0
13.100000858306885,-10.060435375976562,2.133233679199219,1.0654197387695312,-64.50381679389314,15.282442748091603,2.381679389312977,-10.330980163574218,-0.5698199951171875,3.0238766967773434,-22.259541984732824,-40.70229007633588,4.595419847328245,0.0
13.110000610351562,-8.647856396484375,1.005564697265625,0.1149216796875,-62.778625954198475,8.16793893129771,4.564885496183206,-8.628702783203124,1.5586252807617187,2.262520568847656,-26.15267175572519,-43.61832061068702,0.7633587786259542,0.0
13.12000036239624,-8.743624462890624,1.0893617553710937,0.47884033203125,-57.20610687022901,10.778625954198473,6.549618320610687,-7.505822204589843,1.4915876342773438,2.7629087158203123,-43.64885496183206,-29.893129770992367,0.549618320610687,0.0
13.130000591278076,-8.279149340820313,1.2210428466796874,0.5195417602539062,-60.35114503816794,8.458015267175572,6.641221374045801,-10.448296044921875,-0.2561795776367187,3.2537200561523436,-48.0763358778626,-22.15267175572519,4.595419847328245,0.0
13.140000581741333,-9.100360510253905,0.32561142578124996,0.7709329345703124,-59.05343511450382,7.816793893129771,6.473282442748092,-10.548852514648438,-1.4317325927734375,3.806780639648437,-38.732824427480914,-24.717557251908396,5.847328244274809,0.0
13.15000033378601,-8.961496813964843,-0.8283937744140625,1.1563994018554686,-43.66412213740458,15.053435114503817,5.145038167938932,-10.036493359375,-1.3814543579101561,3.208230224609375,-27.87786259541985,-32.50381679389313,2.8244274809160306,0.0
13.160000562667847,-9.603142858886718,0.5913678100585937,1.7022773803710936,-36.213740458015266,17.282442748091604,0.33587786259541985,-7.829039428710937,-0.07422025146484375,2.5163059448242184,-26.83969465648855,-36.152671755725194,-3.2061068702290076,0.0
13.170000791549683,-9.6151138671875,1.3048399047851562,1.7932570434570312,-35.20610687022901,14.717557251908397,-1.0534351145038168,-6.471527087402343,0.8212111694335937,3.0454245117187497,-35.06870229007634,-26.564885496183205,-5.404580152671755,0.0
13.180000305175781,-9.605537060546874,1.5514426757812498,1.85790048828125,-34.85496183206107,14.564885496183207,0.24427480916030533,-7.297526660156249,0.5770026000976562,2.877830395507812,-46.38167938931298,-17.114503816793892,-3.618320610687023,0.0
13.190000295639038,-9.141061938476563,0.8259995727539062,1.6831237670898436,-31.00763358778626,14.763358778625955,0.07633587786259542,-8.377311608886718,-0.6679822631835937,3.1507693847656246,-46.80916030534351,-13.114503816793894,-0.44274809160305345,0.0
13.200000762939453,-9.076418493652342,1.2306196533203124,1.6831237670898436,-33.41984732824427,13.17557251908397,-0.549618320610687,-9.435548742675781,-1.5562310791015623,3.526659045410156,-39.32824427480916,-12.916030534351146,0.6870229007633588,0.0
13.21000051498413,-9.318232861328125,1.946485949707031,1.6519991455078125,-34.35114503816794,7.801526717557252,-0.33587786259541985,-8.432378247070313,-0.612915625,2.9448680419921875,-33.3587786259542,-16.458015267175572,-3.282442748091603,0.0
13.220000505447388,-9.200916979980468,1.3048399047851562,1.4987702392578124,-29.66412213740458,6.549618320610687,1.6793893129770991,-9.260772021484375,-2.0638018310546875,3.8091748413085935,-27.129770992366414,-10.229007633587786,-4.1679389312977095,0.0
13.230000495910645,-8.963891015625,0.833182177734375,1.2378022583007813,-25.17557251908397,6.717557251908397,1.618320610687023,-9.014169250488282,-2.375048046875,4.005499377441406,-16.610687022900763,-12.992366412213741,-6.137404580152672,0.0
13.240000486373901,-9.131485131835937,0.9169792358398436,0.9504980590820312,-18.885496183206108,5.938931297709924,0.3816793893129771,-9.74200655517578,-2.2002713256835937,3.8043864379882812,-3.114503816793893,-14.885496183206106,-7.709923664122138,0.0
13.250000476837158,-9.023746057128905,0.7134720947265625,0.7637503295898437,-13.648854961832061,6.412213740458015,0.24427480916030533,-9.2320416015625,-1.838746875,3.4620156005859375,7.068702290076335,-18.290076335877863,-10.610687022900763,0.0
13.260000705718994,-9.382876306152344,0.948103857421875,0.9361328491210937,-9.587786259541986,7.923664122137405,-1.3435114503816794,-7.376535314941406,-0.34715924072265625,2.8754361938476563,5.282442748091603,-20.396946564885496,-14.625954198473282,0.0
13.270000696182251,-9.215282189941405,1.3766659545898436,1.0127473022460938,-8.229007633587786,8.961832061068701,-1.8473282442748091,-5.947196923828125,0.967257470703125,3.124433166503906,-9.19083969465649,-7.1603053435114505,-16.213740458015266,0.0
13.280000686645508,-9.80665,2.020706201171875,1.3646949462890625,-12.564885496183207,8.854961832061068,-1.7099236641221374,-8.473079675292968,-1.1372457885742187,3.7325603881835936,-13.129770992366412,0.8702290076335878,-11.648854961832061,0.0
13.290000915527344,-9.809044201660155,2.013523596191406,1.429338391113281,-15.755725190839694,6.702290076335878,-1.8778625954198473,-8.904035974121093,-1.1156979736328125,3.9456443359374997,-7.679389312977099,-0.4122137404580153,-11.129770992366412,0.0
13.300000667572021,-10.156203442382813,2.001552587890625,1.3958195678710936,-15.938931297709924,6.412213740458015,-1.0687022900763359,-8.142679846191406,-0.6943184814453125,3.766079211425781,-5.450381679389313,-0.7786259541984732,-13.19083969465649,0.0
13.310000896453857,-9.93354268798828,1.5059528442382812,1.2761094848632812,-15.633587786259541,5.740458015267175,-0.0,-8.939948999023438,-1.199495031738281,4.086902233886718,-3.5114503816793894,1.0381679389312977,-12.946564885496183,0.0
13.320000648498535,-10.117896215820313,1.3670891479492187,1.1228805786132812,-15.251908396946565,5.419847328244275,-0.9465648854961832,-8.039729174804688,-0.38786066894531246,3.5506010620117183,-3.3893129770992365,-1.5114503816793894,-14.13740458015267,0.0
13.330000877380371,-9.883264453125,1.6112977172851561,1.2952630981445312,-15.770992366412214,6.305343511450381,-1.2213740458015268,-8.152256652832031,-0.7805097412109374,4.271255761718749,-9.587786259541986,6.778625954198473,-12.687022900763358,0.0
13.340000867843628,-10.144232434082031,1.6711527587890624,1.2330138549804688,-19.46564885496183,5.9541984732824424,-1.450381679389313,-7.618349682617187,0.08858546142578125,3.1675287963867187,-9.725190839694656,1.0687022900763359,-12.305343511450381,0.0
13.350000619888306,-9.794678991699218,1.5155296508789062,0.9337386474609375,-20.3206106870229,5.435114503816794,-2.732824427480916,-7.745242370605468,0.033518823242187495,3.1938650146484373,-14.030534351145038,4.534351145038168,-11.618320610687023,0.0
13.360000371932983,-9.967061511230469,1.2713210815429687,0.842758984375,-21.46564885496183,6.931297709923665,-2.16793893129771,-8.671798413085938,-1.0773907470703123,3.6439749267578123,-9.099236641221374,4.091603053435114,-9.786259541984732,0.0
13.370000839233398,-9.756371765136718,1.0606313354492187,0.6344634399414062,-19.96946564885496,7.770992366412214,-3.3435114503816794,-8.671798413085938,-1.0295067138671874,4.244919543457031,-8.580152671755725,6.625954198473282,-10.091603053435115,0.0
13.380000352859497,-9.200916979980468,0.5698199951171875,0.28012159423828126,-17.251908396946565,9.17557251908397,-2.8702290076335877,-8.33182177734375,-0.7350199096679687,3.9169139160156248,-6.809160305343512,5.114503816793893,-11.801526717557252,0.0
13.390000820159912,-8.70771143798828,-0.63206923828125,-0.33518823242187495,-10.80916030534351,11.755725190839694,-3.1755725190839694,-9.452308154296874,-1.5059528442382812,4.73094248046875,-5.8320610687022905,8.82442748091603,-11.16030534351145,0.0
13.40000033378601,-10.046070166015625,0.8643067993164062,0.5793968017578125,-7.984732824427481,17.16030534351145,-6.99236641221374,-9.203311181640624,-1.6543933471679686,4.510675927734375,-1.5877862595419847,5.7251908396946565,-11.664122137404581,0.0
13.410000562667847,-10.558429321289061,1.4508862060546874,1.2018892333984375,-7.00763358778626,21.61832061068702,-9.282442748091603,-8.413224633789062,-1.0414777221679687,3.9791631591796874,-0.13740458015267176,5.343511450381679,-13.648854961832061,0.0
13.420000791549683,-10.984597216796875,1.8411410766601561,1.6136919189453125,-5.877862595419847,24.061068702290076,-9.786259541984732,-8.932766394042968,-1.915361328125,4.299986181640625,-0.24427480916030533,9.755725190839694,-12.030534351145038,0.0
13.430000305175781,-10.862492932128905,1.3718775512695311,1.678335363769531,-5.068702290076335,24.778625954198475,-8.793893129770993,-7.702146740722656,-1.180341418457031,3.4428619873046875,-0.15267175572519084,7.938931297709924,-13.358778625954198,0.0
13.440000772476196,-9.787496386718749,0.842758984375,0.8786720092773437,-2.1526717557251906,20.290076335877863,-7.267175572519084,-7.364564306640625,-0.74699091796875,3.0550013183593747,-1.0229007633587786,9.755725190839694,-13.221374045801527,0.0
13.450000524520874,-8.537723120117187,0.9313444458007812,0.833182177734375,0.15267175572519084,20.99236641221374,-6.732824427480916,-7.498639599609374,-1.7166425903320313,3.612850305175781,-0.6717557251908397,13.83206106870229,-11.587786259541986,0.0
13.46000075340271,-9.459490759277344,1.0726023437499999,1.7094599853515624,0.8396946564885496,24.519083969465647,-8.50381679389313,-8.834604125976561,-1.7405846069335937,3.67749375,4.442748091603053,15.98473282442748,-10.01526717557252,0.0
13.470000505447388,-10.376469995117187,0.7637503295898437,1.5921441040039062,3.435114503816794,20.748091603053435,-8.335877862595419,-8.585607153320312,-2.0829554443359375,3.7205893798828122,12.15267175572519,15.419847328244275,-10.564885496183207,0.0
13.480000495910645,-8.810662109374999,0.8020575561523438,1.5849614990234373,5.862595419847328,17.84732824427481,-8.687022900763358,-7.4579381713867186,-1.3551181396484375,3.258508459472656,16.3206106870229,15.32824427480916,-11.98473282442748,0.0
13.490000486373901,-8.738836059570312,0.814028564453125,2.051830822753906,8.534351145038167,15.877862595419847,-9.236641221374045,-7.304709265136719,-0.7158662963867187,2.760514514160156,20.427480916030536,17.404580152671755,-12.396946564885496,0.0
13.500000476837158,-8.817844714355468,0.22744915771484372,1.8602946899414061,10.83969465648855,11.145038167938932,-9.007633587786259,-8.039729174804688,-0.928950244140625,2.5570073730468748,22.106870229007633,21.908396946564885,-10.427480916030534,0.0
13.510000467300415,-10.137049829101562,1.3742717529296875,2.741360900878906,7.1603053435114505,5.938931297709924,-11.404580152671755,-7.8362220336914055,-0.7015010864257812,2.3511060302734372,27.709923664122137,23.49618320610687,-8.900763358778626,0.0
13.520000696182251,-9.753977563476562,0.13168109130859373,2.6431986328124997,12.916030534351146,0.5648854961832062,-11.664122137404581,-7.917624890136718,-0.2920926025390625,1.8243816650390623,30.48854961832061,27.755725190839694,-8.030534351145038,0.0
13.530000925064087,-10.68053360595703,2.114080065917969,3.6727053466796873,18.213740458015266,0.10687022900763359,-14.534351145038167,-8.494627490234375,-0.5961562133789062,1.687912170410156,29.81679389312977,33.541984732824424,-9.16030534351145,0.0
13.540000677108765,-10.220846887207031,1.6831237670898436,3.4811692138671875,19.19083969465649,-7.526717557251908,-15.267175572519085,-8.655039001464843,-0.49799394531249996,2.0877438476562498,24.870229007633586,42.50381679389313,-11.526717557251908,0.0
13.550000667572021,-9.868899243164062,1.66636435546875,3.2130186279296873,24.519083969465647,-12.412213740458014,-14.916030534351146,-9.236830004882812,-0.8379705810546875,2.6791116577148437,15.083969465648854,49.51145038167939,-13.49618320610687,0.0
13.560000658035278,-10.053252770996092,1.9871873779296874,3.5506010620117183,25.938931297709924,-16.65648854961832,-15.893129770992367,-10.268730920410155,-0.5339069702148437,4.127603662109375,6.900763358778626,55.00763358778626,-15.877862595419847,0.0
13.570000886917114,-10.333374365234375,2.3056161987304686,3.67749375,26.549618320610687,-23.480916030534353,-16.83969465648855,-10.060435375976562,0.6392518432617187,4.924872814941406,-12.045801526717558,59.16030534351145,-22.83969465648855,0.0
13.580000638961792,-10.43871923828125,2.3223756103515623,3.8091748413085935,26.53435114503817,-29.66412213740458,-16.35114503816794,-12.229582080078124,-1.4628572143554686,7.410054138183593,-21.954198473282442,64.74809160305344,-19.633587786259543,0.0
13.59000039100647,-10.613495959472656,1.7453730102539062,4.043806604003906,25.083969465648856,-38.18320610687023,-14.702290076335878,-13.290213415527344,-2.5665841796874997,7.45075556640625,-13.465648854961833,48.67175572519084,-17.450381679389313,0.0
13.600000619888306,-10.716446630859375,1.3263877197265623,4.122815258789062,30.015267175572518,-46.47328244274809,-14.793893129770993,-11.808202587890625,-1.8914193115234375,6.543353137207031,-8.106870229007633,38.88549618320611,-17.206106870229007,0.0
13.610000371932983,-10.943895788574219,1.4437036010742186,4.3430818115234375,35.55725190839695,-53.3587786259542,-12.992366412213741,-11.923124267578125,-2.2361843505859373,5.315127685546875,9.526717557251908,31.72519083969466,-10.732824427480915,0.0
13.62000060081482,-11.324573852539062,3.0142998901367184,5.125985754394531,25.6793893129771,-69.93893129770993,-11.83206106870229,-12.837709301757812,-2.9185318237304685,3.3159692993164063,29.022900763358777,19.862595419847327,-5.847328244274809,0.0
13.630000591278076,-12.018892333984374,1.6711527587890624,5.370194323730469,18.106870229007633,-86.44274809160305,-9.282442748091603,-9.586383447265625,-0.0430956298828125,2.0733786376953125,38.61068702290076,13.587786259541986,-8.458015267175572,0.0
13.640000343322754,-12.198457458496094,0.5147533569335937,5.422866760253906,24.946564885496183,-100.25954198473282,-3.8473282442748094,-8.188169677734374,1.5394716674804687,0.8475473876953125,32.01526717557252,13.312977099236642,-11.267175572519085,0.0
13.65000033378601,-12.255918298339843,0.05027823486328125,5.791573815917968,23.801526717557252,-112.91603053435115,-3.404580152671756,-6.619967590332031,1.9393033447265624,0.0143652099609375,13.053435114503817,22.137404580152673,-10.65648854961832,0.0
13.660001039505005,-13.266271398925781,-0.7541735229492187,6.667851623535156,17.328244274809162,-130.0916030534351,-5.923664122137405,-7.331045483398437,0.5506663818359374,-0.23702596435546874,-3.435114503816794,33.93893129770992,-7.526717557251908,0.0
13.670000553131104,-13.678074084472655,-2.0638018310546875,6.818686328125,18.38167938931298,-144.7175572519084,-7.66412213740458,-9.469067565917967,-2.901772412109375,0.16519991455078123,-3.7557251908396947,39.6793893129771,-3.572519083969466,0.0
13.68000078201294,-13.48414375,-3.768473413085937,5.453991381835937,28.885496183206108,-157.5267175572519,-10.65648854961832,-10.893617553710937,-4.778826513671874,1.0606313354492187,15.038167938931299,35.16030534351145,-6.0458015267175576,0.0
13.690000534057617,-13.570335009765625,-4.76924970703125,4.153939880371094,48.74809160305343,-164.29007633587787,-13.664122137404581,-9.816226806640625,-3.418919970703125,1.1540052001953125,27.770992366412212,31.6793893129771,-13.679389312977099,0.0
13.700000762939453,-13.7522943359375,-3.1028853515624997,2.403778466796875,64.62595419847328,-166.3206106870229,-15.770992366412214,-9.375693701171874,-1.9943699829101562,1.7334020019531249,27.0381679389313,34.2442748091603,-17.297709923664122,0.0
13.710000276565552,-13.860033410644531,-1.1755530151367186,1.8459294799804686,65.89312977099236,-165.17557251908397,-15.145038167938932,-10.903194360351561,-2.712630480957031,1.8195932617187498,26.870229007633586,33.69465648854962,-13.099236641221374,0.0
13.720000505447388,-15.79454835205078,1.7166425903320313,1.8770541015625,55.3587786259542,-162.9618320610687,-13.34351145038168,-11.200075366210937,-2.480392919921875,1.9632453613281249,32.33587786259542,28.595419847328245,-10.961832061068701,0.0
13.730000257492065,-14.551957690429687,1.1324573852539062,0.11013327636718749,39.17557251908397,-168.25954198473283,-5.66412213740458,-10.263942517089843,-3.0047230834960934,2.0925322509765625,40.19847328244275,18.18320610687023,-9.557251908396946,0.0
13.740000486373901,-11.9518546875,-1.6352397338867186,-2.2481553588867187,39.603053435114504,-161.14503816793894,3.49618320610687,-9.79946739501953,-1.3527239379882812,1.5442600708007812,41.038167938931295,10.091603053435115,-11.511450381679388,0.0
13.750000476837158,-3.105279553222656,-7.338228088378906,-8.511386901855468,64.13740458015268,-147.66412213740458,11.801526717557252,-7.012616662597656,-1.0319009155273438,1.2593500732421874,26.366412213740457,8.15267175572519,-12.427480916030534,0.0
13.760000944137573,-1.3144167114257812,-6.950367419433594,-7.671022119140624,98.10687022900764,-89.8473282442748,5.938931297709924,-4.084508032226562,3.854664672851562,-2.023100402832031,-24.53435114503817,24.671755725190838,-11.19083969465649,0.0
13.770000457763672,-4.697423657226563,-1.1947066284179686,-4.192247106933594,81.32824427480917,-59.282442748091604,-10.061068702290076,-9.277531433105468,-1.43652099609375,0.5482721801757812,-46.93129770992366,58.93129770992366,4.8396946564885495,0.0
13.780000448226929,-4.5322237426757805,-1.1180921752929687,-3.6727053466796873,64.80916030534351,-41.61832061068702,-16.885496183206108,-9.811438403320311,-4.264073156738281,-0.24899697265624998,-34.42748091603053,52.18320610687023,11.740458015267176,0.0
13.790000915527344,-7.987056738281249,1.5801730957031248,-0.852335791015625,57.41984732824427,-20.442748091603054,-20.15267175572519,-11.528080993652344,-4.13718046875,-0.1005564697265625,-15.633587786259541,48.732824427480914,7.740458015267175,0.0
13.800000667572021,-9.035717065429687,1.9201497314453124,0.430956298828125,50.30534351145038,-11.236641221374045,-16.53435114503817,-11.9135474609375,-4.8650177734375,1.599326708984375,-0.366412213740458,52.33587786259542,5.786259541984733,0.0
13.810000658035278,-9.751583361816406,1.2856862915039062,1.1372457885742187,47.16030534351145,-3.404580152671756,-12.916030534351146,-11.705251916503906,-4.814739538574218,1.2330138549804688,22.38167938931298,40.48854961832061,4.2748091603053435,0.0
13.820000648498535,-9.598354455566406,2.0374656127929685,1.8028338500976562,46.50381679389313,1.0534351145038168,-10.931297709923664,-11.394005700683593,-2.616862414550781,0.8738836059570312,31.96946564885496,34.595419847328245,0.9465648854961832,0.0
13.830000877380371,-10.160991845703125,3.402160559082031,2.070984436035156,31.00763358778626,-4.366412213740458,-8.900763358778626,-9.303867651367186,-1.2737152832031249,0.11013327636718749,30.427480916030536,27.34351145038168,-0.030534351145038167,0.0
13.84000039100647,-7.687781530761718,2.923320227050781,1.3120225097656248,18.68702290076336,-5.129770992366412,-3.068702290076336,-10.70686982421875,-0.6823474731445313,1.1611878051757811,23.053435114503817,32.82442748091603,4.732824427480916,0.0
13.850000619888306,-6.694187841796874,1.936909143066406,0.354341845703125,6.366412213740458,-4.67175572519084,0.183206106870229,-9.478644372558593,0.3447650390625,0.9624690673828125,16.702290076335878,30.30534351145038,6.9465648854961835,0.0
13.860000610351562,-8.420407238769531,3.2154128295898436,1.6615759521484375,-5.66412213740458,1.7251908396946565,0.6717557251908397,-10.455478649902343,-1.3623007446289062,1.7453730102539062,14.916030534351146,32.67175572519084,11.022900763358779,0.0
13.87000060081482,-7.800309008789062,2.499546533203125,1.216254443359375,-18.412213740458014,3.068702290076336,3.236641221374046,-10.690110412597656,-2.3439234252929686,2.0350714111328125,21.328244274809162,31.419847328244273,13.267175572519085,0.0
13.880000352859497,-5.351040710449219,0.3232172241210937,-0.5793968017578125,-20.610687022900763,5.816793893129771,7.221374045801527,-10.8409451171875,-3.4859576171874997,2.518700146484375,33.343511450381676,28.625954198473284,14.213740458015268,0.0
13.890000581741333,-5.106832141113281,-1.1635820068359375,-0.97683427734375,-13.923664122137405,17.17557251908397,9.450381679389313,-11.080365283203124,-3.3590649291992185,2.195482922363281,51.89312977099237,21.81679389312977,13.282442748091603,0.0
13.90000057220459,-6.217741711425781,-0.20350714111328125,0.38307226562499996,-3.3740458015267176,33.38931297709924,6.763358778625954,-9.45470235595703,-1.6208745239257811,0.842758984375,59.31297709923664,14.244274809160306,7.908396946564886,0.0
13.910000562667847,-5.837063647460937,-0.00239420166015625,0.70868369140625,-8.992366412213741,33.89312977099237,2.8244274809160306,-8.130708837890625,0.7134720947265625,0.7206546997070312,51.099236641221374,18.885496183206108,4.900763358778626,0.0
13.920000314712524,-6.53138212890625,0.7709329345703124,2.4516625,-17.022900763358777,37.57251908396947,1.3282442748091603,-7.117961535644531,1.6519991455078125,0.033518823242187495,30.641221374045802,25.236641221374047,5.465648854961832,0.0
13.93000054359436,-6.962338427734375,0.8092401611328125,3.5242648437499997,-28.15267175572519,37.343511450381676,-1.7099236641221374,-9.150638745117186,-0.9504980590820312,1.1923124267578125,20.65648854961832,34.961832061068705,12.351145038167939,0.0
13.940000772476196,-7.225700610351562,-0.00239420166015625,3.864241479492187,-30.793893129770993,36.29007633587786,-1.5267175572519085,-9.900023864746093,-1.89620771484375,1.3239935180664062,26.763358778625953,30.778625954198475,13.129770992366412,0.0
13.950000286102295,-6.6271501953125,-1.2832920898437499,3.9169139160156248,-13.419847328244275,40.717557251908396,0.42748091603053434,-10.503362683105468,-1.8531120849609375,1.7118541870117185,33.57251908396947,30.458015267175572,11.404580152671755,0.0
13.96000075340271,-7.053318090820312,-0.612915625,4.905719201660156,0.6106870229007634,45.52671755725191,0.9312977099236641,-9.988609326171874,-1.6831237670898436,2.1260510742187497,35.3587786259542,30.885496183206108,9.450381679389313,0.0
13.970000743865967,-3.3782185424804685,-3.806780639648437,2.655169641113281,21.34351145038168,40.88549618320611,6.396946564885496,-9.466673364257812,-1.656787548828125,1.9680337646484374,36.06106870229008,28.85496183206107,9.389312977099237,0.0
13.980000257492065,-6.069301208496094,-0.0718260498046875,5.549759448242187,50.19847328244275,57.63358778625954,2.33587786259542,-9.854534033203125,-1.8267758666992187,2.070984436035156,37.3587786259542,28.076335877862597,10.534351145038167,0.0
13.990000486373901,-7.261613635253906,1.8148048583984373,6.639121203613281,54.091603053435115,55.16030534351145,1.1145038167938932,-9.785102185058593,-1.2282254516601563,1.7645266235351562,38.412213740458014,26.015267175572518,10.534351145038167,0.0
14.000000476837158,-8.073247998046874,2.3223756103515623,7.45075556640625,59.11450381679389,51.81679389312977,3.786259541984733,-9.916783276367187,-0.507570751953125,1.695094775390625,37.41984732824427,23.61832061068702,10.748091603053435,0.0
14.010000705718994,-7.41244833984375,2.176329309082031,7.390900524902343,65.43511450381679,45.55725190839695,7.511450381679389,-8.734047656249999,0.0430956298828125,1.9800047729492187,29.908396946564885,24.732824427480917,10.458015267175572,0.0
14.020000696182251,-8.48505068359375,2.89219560546875,7.750030773925781,65.80152671755725,40.25954198473283,8.16793893129771,-11.463437548828125,0.35194764404296874,2.7653029174804686,29.053435114503817,31.541984732824428,14.030534351145038,0.0
14.030000925064087,-9.287108239746093,3.7517140014648436,8.410830432128906,53.11450381679389,31.984732824427482,5.465648854961832,-9.572018237304688,1.5179238525390624,1.8195932617187498,18.076335877862597,27.755725190839694,13.48091603053435,0.0
14.040000677108765,-10.311826550292968,4.623203405761719,8.777143286132812,35.41984732824427,20.564885496183205,4.320610687022901,-8.966285217285156,0.7398083129882812,1.5370774658203123,4.0458015267175576,29.328244274809162,16.33587786259542,0.0
14.050000667572021,-11.535263598632811,5.734112976074218,8.664615808105468,18.106870229007633,8.67175572519084,6.015267175572519,-9.612719665527344,-0.82360537109375,1.5011644409179687,-1.8015267175572518,29.587786259541986,19.984732824427482,0.0
14.0600004196167,-9.124302526855468,2.664746447753906,5.0206408813476555,14.15267175572519,-3.3435114503816794,14.305343511450381,-9.706093530273437,-0.7613561279296874,0.5817910034179687,-7.404580152671755,27.862595419847327,19.938931297709924,0.0
14.070000886917114,-9.112331518554686,2.384624853515625,2.923320227050781,20.625954198473284,2.2290076335877864,21.419847328244273,-9.337386474609374,0.08858546142578125,0.18435352783203124,-17.954198473282442,29.328244274809162,19.66412213740458,0.0
14.080000638961792,-9.260772021484375,2.1164742675781247,1.7788918334960937,7.816793893129771,7.4961832061068705,20.778625954198475,-9.373299499511718,-0.9313444458007812,0.34715924072265625,-32.38167938931298,38.70229007633588,22.061068702290076,0.0
14.090000867843628,-10.077194787597655,0.8834604125976562,2.4660277099609376,-13.465648854961833,8.198473282442748,15.16030534351145,-10.838550915527343,-3.921702319335937,1.1540052001953125,-28.885496183206108,39.31297709923664,24.99236641221374,0.0
14.100000619888306,-10.87206973876953,-1.1827356201171875,4.031835595703125,-26.916030534351144,6.1679389312977095,7.9541984732824424,-11.104307299804686,-3.660734338378906,0.6392518432617187,-15.786259541984732,28.33587786259542,20.610687022900763,0.0
14.110000610351562,-10.778695874023438,-2.6695348510742187,4.912901806640625,-19.83206106870229,5.877862595419847,3.6946564885496183,-8.863334545898438,-1.4437036010742186,0.30406361083984373,-19.068702290076335,25.450381679389313,13.083969465648854,0.0
14.12000060081482,-9.662997900390625,-2.839523168945312,4.50109912109375,7.465648854961832,14.412213740458014,3.5419847328244276,-10.084377392578125,-2.8562825805664063,0.8451531860351562,-21.755725190839694,26.3206106870229,13.129770992366412,0.0
14.130000591278076,-9.196128576660156,0.47644613037109373,3.603273498535156,29.328244274809162,20.9618320610687,2.732824427480916,-11.516109985351562,-4.029441394042968,1.6903063720703124,-15.17557251908397,24.732824427480917,13.770992366412214,0.0
14.140000581741333,-10.189722265624999,4.544194750976562,2.5450363647460934,23.328244274809162,24.671755725190838,3.435114503816794,-10.465055456542968,-4.630386010742187,2.070984436035156,-5.66412213740458,16.564885496183205,11.34351145038168,0.0
14.15000033378601,-10.670956799316405,5.853823059082031,2.0638018310546875,3.053435114503817,20.519083969465647,8.564885496183207,-10.714052429199219,-2.023100402832031,1.4772224243164063,0.6106870229007634,2.3206106870229006,7.786259541984733,0.0
14.160000562667847,-7.805097412109374,2.528276953125,0.7565677246093749,-5.786259541984733,20.244274809160306,16.259541984732824,-10.388441003417968,-1.1013327636718748,1.5346832641601562,-5.221374045801527,-3.49618320610687,6.473282442748092,0.0
14.170000314712524,-6.885723974609375,-0.33039982910156246,0.82360537109375,-2.2748091603053435,27.00763358778626,19.0381679389313,-10.740388647460938,-0.7350199096679687,1.4628572143554686,-9.603053435114504,-7.7251908396946565,6.351145038167939,0.0
14.18000078201294,-7.996633544921875,-0.6177040283203125,1.8722656982421875,-8.900763358778626,30.229007633587788,13.236641221374045,-11.250353601074218,-0.8762778076171874,1.7477672119140624,-12.442748091603054,-12.793893129770993,6.931297709923665,0.0
14.190000534057617,-7.9295958984374995,-1.8938135131835936,1.2928688964843749,-17.404580152671755,31.46564885496183,6.595419847328245,-10.599130749511717,0.8786720092773437,0.842758984375,-14.244274809160306,-25.251908396946565,5.175572519083969,0.0
14.200000524520874,-6.5505357421875,-3.246537451171875,0.2154781494140625,-9.49618320610687,36.48854961832061,2.0,-11.58075343017578,0.23702596435546874,1.8004396484374998,-22.366412213740457,-26.3206106870229,7.312977099236641,0.0
14.210000276565552,-8.432378247070313,-1.70467158203125,1.3383587280273437,-5.679389312977099,47.19083969465649,-6.687022900763359,-11.386823095703125,1.62805712890625,1.9512743530273435,-31.709923664122137,-27.435114503816795,6.870229007633588,0.0
14.220000267028809,-8.528146313476562,0.2657563842773437,1.3096283081054687,-8.01526717557252,47.37404580152672,-11.145038167938932,-11.3389390625,-0.16998831787109375,2.221819140625,-33.7557251908397,-32.36641221374046,8.885496183206106,0.0
14.230000495910645,-9.662997900390625,0.948103857421875,1.1707646118164061,-9.19083969465649,51.11450381679389,-11.34351145038168,-10.59194814453125,0.7134720947265625,1.4532804077148436,-35.45038167938932,-44.51908396946565,7.572519083969466,0.0
14.240000486373901,-10.261548315429687,2.360682836914062,1.6232687255859375,-10.229007633587786,53.64885496183206,-9.755725190839694,-10.314220751953124,1.659181750488281,1.9201497314453124,-47.20610687022901,-46.13740458015267,7.450381679389313,0.0
14.250000476837158,-9.708487731933593,2.683900061035156,1.687912170410156,-16.12213740458015,51.86259541984733,-6.2748091603053435,-10.850521923828124,1.5155296508789062,1.7022773803710936,-60.29007633587786,-47.969465648854964,8.427480916030534,0.0
14.260000705718994,-9.9981861328125,2.817975354003906,2.061407629394531,-22.82442748091603,49.55725190839695,-3.8473282442748094,-10.177751257324218,-0.5410895751953124,1.9800047729492187,-66.45801526717557,-52.091603053435115,9.801526717557252,0.0
14.270000696182251,-10.869675537109375,2.2864625854492187,2.47081611328125,-31.740458015267176,44.900763358778626,-3.1908396946564888,-11.511321582031249,-1.8052280517578123,2.8227637573242186,-54.6412213740458,-57.25190839694657,12.274809160305344,0.0
14.280000686645508,-11.520898388671874,2.729389892578125,2.7341782958984373,-39.20610687022901,40.42748091603053,-2.427480916030534,-11.358092675781249,-1.608903515625,2.29843359375,-42.93129770992366,-71.45038167938931,9.801526717557252,0.0
14.290000915527344,-8.8872765625,1.0319009155273438,0.9864110839843749,-38.0,32.0763358778626,2.015267175572519,-9.737218151855469,0.9888052856445312,1.3359645263671873,-50.83969465648855,-76.54961832061069,4.900763358778626,0.0
14.300000667572021,-8.75320126953125,0.4333505004882812,0.6296750366210937,-29.297709923664122,37.23664122137404,3.3587786259541983,-11.027692846679686,-0.9193734375,1.9416975463867185,-55.221374045801525,-69.54198473282443,7.7251908396946565,0.0
14.310000896453857,-10.395623608398436,1.9680337646484374,1.6807295654296874,-33.282442748091604,36.0,0.21374045801526717,-11.190498559570312,-1.5227122558593749,1.4604630126953124,-43.847328244274806,-74.45801526717557,7.709923664122138,0.0
14.320000410079956,-10.089165795898436,1.6831237670898436,1.714248388671875,-34.87022900763359,30.641221374045802,-0.3053435114503817,-9.950302099609374,0.1388636962890625,0.9888052856445312,-44.0763358778626,-76.58015267175573,5.068702290076335,0.0
14.330000877380371,-9.87608184814453,1.8052280517578123,2.068590234375,-28.946564885496183,30.0,2.0916030534351147,-10.893617553710937,-0.7900865478515624,1.4532804077148436,-42.30534351145038,-68.85496183206106,8.458015267175572,0.0
14.340000629425049,-10.081983190917969,2.1906945190429687,2.2457611572265623,-31.69465648854962,25.251908396946565,2.2290076335877864,-10.0748005859375,-0.44532150878906246,0.43574470214843747,-33.221374045801525,-72.06106870229007,6.793893129770993,0.0
14.350000619888306,-11.37006368408203,2.8012159423828122,2.5234885498046875,-35.38931297709924,23.83206106870229,2.16793893129771,-9.811438403320311,0.17477672119140625,0.5530605834960938,-29.923664122137403,-67.5114503816794,6.259541984732825,0.0
14.360000610351562,-10.651803186035156,1.8650830932617186,1.6448165405273436,-39.282442748091604,14.610687022900763,6.99236641221374,-10.058041174316406,0.19632453613281248,0.22505495605468748,-26.16793893129771,-62.33587786259542,6.259541984732825,0.0
14.37000060081482,-11.018116040039061,1.7884686401367187,1.889025109863281,-37.12977099236641,15.740458015267176,7.816793893129771,-9.612719665527344,-0.0383072265625,0.3280056274414062,-22.27480916030534,-58.458015267175576,6.351145038167939,0.0
14.380000591278076,-10.251971508789062,1.6903063720703124,1.618480322265625,-34.19847328244275,15.694656488549619,6.977099236641221,-11.71482872314453,-0.9624690673828125,-0.011971008300781249,-12.427480916030534,-56.595419847328245,6.854961832061068,0.0
14.390000343322754,-9.9981861328125,1.7334020019531249,0.9457096557617187,-37.3587786259542,8.610687022900763,6.900763358778626,-9.260772021484375,1.2306196533203124,0.6464344482421874,-16.244274809160306,-49.099236641221374,5.8320610687022905,0.0
14.40000057220459,-10.053252770996092,0.718260498046875,1.1635820068359375,-32.0,9.86259541984733,8.320610687022901,-9.540893615722656,-0.19632453613281248,0.7302315063476562,-16.15267175572519,-39.343511450381676,7.32824427480916,0.0
14.410000562667847,-9.983820922851562,0.584185205078125,0.8762778076171874,-28.702290076335878,11.267175572519085,7.206106870229007,-10.59194814453125,-1.668758557128906,0.8738836059570312,-4.305343511450381,-40.62595419847328,8.213740458015268,0.0
14.420000791549683,-11.33175645751953,1.8602946899414061,1.2401964599609374,-28.702290076335878,11.465648854961833,3.8625954198473282,-9.392453112792968,-0.7302315063476562,0.679953271484375,5.0534351145038165,-41.98473282442748,4.0,0.0
14.43000054359436,-8.973467822265624,-0.40462008056640625,0.4572925170898437,-18.717557251908396,13.48091603053435,5.679389312977099,-8.068459594726562,1.6615759521484375,-0.05027823486328125,-5.9541984732824424,-34.88549618320611,-0.33587786259541985,0.0
14.440000772476196,-10.067617980957031,1.6903063720703124,0.8499415893554687,-17.64885496183206,16.427480916030536,2.732824427480916,-8.240842114257813,-0.2657563842773437,0.928950244140625,-18.0,-21.083969465648856,0.42748091603053434,0.0
14.450000286102295,-11.008539233398437,3.105279553222656,1.7741034301757812,-29.87786259541985,13.557251908396946,0.32061068702290074,-10.120290417480469,-1.24498486328125,0.9026140258789062,-9.114503816793894,-20.045801526717558,2.045801526717557,0.0
14.46000051498413,-10.647014782714843,1.2330138549804688,1.20667763671875,-29.46564885496183,12.870229007633588,2.1374045801526718,-10.71884083251953,-2.166752502441406,1.5945383056640625,5.374045801526718,-24.15267175572519,1.450381679389313,0.0
14.470000505447388,-9.478644372558593,0.40940848388671874,0.8044517578125,-19.786259541984734,15.740458015267176,2.3206106870229006,-9.859322436523437,-0.37828386230468747,1.3144167114257812,12.732824427480915,-30.580152671755727,-3.099236641221374,0.0
14.480000495910645,-10.412383020019531,2.142810485839844,1.47482822265625,-23.72519083969466,13.511450381679388,-0.366412213740458,-8.394071020507813,1.455674609375,1.0319009155273438,2.5343511450381677,-26.213740458015266,-7.694656488549619,0.0
14.490000247955322,-12.006921325683592,4.240131140136718,2.89219560546875,-31.557251908396946,15.86259541984733,-1.1297709923664123,-8.319850769042969,0.9337386474609375,1.7884686401367187,-9.770992366412214,-16.33587786259542,-5.419847328244275,0.0
14.500000476837158,-12.555193505859375,4.438849877929687,2.7078420776367187,-46.091603053435115,9.84732824427481,1.1908396946564885,-9.217676391601563,-0.055066638183593745,1.9033903198242186,-11.358778625954198,-15.32824427480916,-1.3587786259541985,0.0
14.510000705718994,-9.53131680908203,2.2936451904296873,1.5801730957031248,-46.778625954198475,6.106870229007634,5.526717557251908,-10.46984385986328,-0.48123453369140623,2.4444798950195312,1.0687022900763359,-18.519083969465647,2.213740458015267,0.0
14.520000696182251,-10.302249743652343,0.7900865478515624,1.6160861206054686,-36.56488549618321,11.893129770992367,5.740458015267175,-10.594342346191405,-1.7118541870117185,2.825157958984375,12.305343511450381,-24.671755725190838,1.786259541984733,0.0
14.530000925064087,-8.793902697753905,-1.0606313354492187,0.9193734375,-25.770992366412212,13.740458015267176,3.3740458015267176,-9.560047229003906,-0.023942016601562498,2.1835119140624997,20.778625954198475,-34.58015267175573,-3.480916030534351,0.0
14.540000677108765,-9.337386474609374,0.7565677246093749,1.5610194824218748,-19.267175572519083,15.297709923664122,-2.015267175572519,-8.049305981445311,1.7764976318359373,2.061407629394531,10.183206106870228,-29.61832061068702,-7.374045801526718,0.0
14.5500009059906,-8.91840118408203,0.055066638183593745,1.1156979736328125,-21.328244274809162,12.320610687022901,-1.4961832061068703,-9.916783276367187,0.3591302490234375,3.095702746582031,3.068702290076336,-20.03053435114504,-3.267175572519084,0.0
14.5600004196167,-9.861716638183593,1.2401964599609374,1.848323681640625,-17.572519083969464,16.12213740458015,-2.9770992366412212,-10.953472595214842,-0.9050082275390624,3.5194764404296874,6.763358778625954,-22.30534351145038,0.366412213740458,0.0
14.570000886917114,-9.950302099609374,1.7429788085937499,1.5227122558593749,-23.16030534351145,11.633587786259541,-3.9083969465648853,-10.036493359375,-0.1484405029296875,3.1579519897460937,14.442748091603054,-31.19083969465649,-1.8473282442748091,0.0
14.580000400543213,-9.639055883789062,1.35990654296875,1.2473790649414063,-20.458015267175572,10.229007633587786,-1.83206106870229,-8.17141026611328,1.6424223388671875,2.913743420410156,10.595419847328245,-31.31297709923664,-5.740458015267175,0.0
14.590000629425049,-9.200916979980468,1.4724340209960938,1.2665326782226562,-18.091603053435115,12.213740458015268,-0.6564885496183206,-6.890512377929687,1.9728221679687499,2.6312276245117188,-10.549618320610687,-21.251908396946565,-7.145038167938932,0.0
14.600000858306885,-9.13627353515625,1.0749965454101562,1.1228805786132812,-18.213740458015266,12.01526717557252,-0.21374045801526717,-8.741230261230468,0.6200982299804687,2.817975354003906,-18.03053435114504,-14.290076335877863,-2.7022900763358777,0.0
14.610000371932983,-8.88009395751953,1.6160861206054686,1.189918225097656,-19.083969465648856,10.305343511450381,-1.6946564885496183,-8.626308581542968,0.4908113403320312,2.9664158569335934,-19.69465648854962,-13.19083969465649,-0.3511450381679389,0.0
14.62000060081482,-11.164162341308593,2.4133552734375,1.7262193969726563,-21.572519083969464,8.870229007633588,-1.4198473282442747,-8.540117321777343,0.18914193115234373,3.009511486816406,-19.374045801526716,-12.381679389312977,0.6717557251908397,0.0
14.630000591278076,-10.433930834960936,1.5346832641601562,1.3934253662109375,-20.595419847328245,8.381679389312977,0.4580152671755725,-8.796296899414061,-0.0383072265625,2.868253588867187,-20.076335877862597,-12.0,-0.04580152671755725,0.0
14.640000581741333,-9.885658654785155,0.7876923461914062,0.6919242797851562,-15.84732824427481,7.9541984732824424,0.8396946564885496,-8.63109698486328,-0.06703764648437499,2.770091320800781,-21.557251908396946,-10.732824427480915,-1.3282442748091603,0.0
14.65000057220459,-9.622296472167967,0.6344634399414062,0.6153098266601562,-9.389312977099237,10.259541984732824,-0.22900763358778625,-8.712499841308594,-0.6248866333007812,3.047818713378906,-20.48854961832061,-9.84732824427481,-1.8778625954198473,0.0
14.660000562667847,-9.562441430664062,0.7326257080078125,0.5698199951171875,-6.931297709923665,10.473282442748092,-2.5801526717557253,-8.968679418945312,-0.699106884765625,3.1842882080078123,-18.427480916030536,-9.389312977099237,-2.2442748091603053,0.0
14.670000314712524,-10.333374365234375,1.1013327636718748,0.928950244140625,-6.473282442748092,10.870229007633588,-4.152671755725191,-8.942343200683593,-0.7278373046875,3.2249896362304686,-18.33587786259542,-9.129770992366412,-3.49618320610687,0.0
14.68000078201294,-10.433930834960936,1.4245499877929686,1.1061211669921875,-4.2748091603053435,11.84732824427481,-4.33587786259542,-8.734047656249999,-0.8044517578125,3.1172505615234374,-18.641221374045802,-8.67175572519084,-4.809160305343512,0.0
14.690000534057617,-10.117896215820313,1.6208745239257811,1.0079588989257813,-3.5267175572519083,12.16793893129771,-4.076335877862595,-9.145850341796875,-0.9074024291992187,3.1124621582031247,-17.14503816793893,-8.16793893129771,-6.122137404580153,0.0
14.700000762939453,-10.532093103027343,1.9823989746093749,1.2617442749023438,-6.809160305343512,12.091603053435115,-4.732824427480916,-8.382100012207031,-0.023942016601562498,2.4301146850585935,-18.12213740458015,-8.763358778625955,-8.320610687022901,0.0
14.710000276565552,-9.955090502929687,1.7812860351562498,1.3120225097656248,-7.038167938931298,12.916030534351146,-4.870229007633588,-9.897629663085937,-1.216254443359375,3.19865341796875,-14.778625954198473,-5.1603053435114505,-7.786259541984733,0.0
14.720000505447388,-9.677363110351562,1.5586252807617187,1.197100830078125,-8.51908396946565,12.610687022900763,-5.068702290076335,-8.78432589111328,-0.9050082275390624,3.0502129150390624,-13.603053435114504,-6.366412213740458,-10.030534351145038,0.0
14.730000495910645,-9.641450085449218,1.656787548828125,1.16837041015625,-8.198473282442748,12.061068702290076,-4.961832061068702,-9.773131176757811,-0.8547299926757812,3.265691064453125,-9.648854961832061,-4.885496183206107,-10.122137404580153,0.0
14.740000486373901,-9.227253198242186,1.6017209106445311,0.8786720092773437,-8.488549618320612,13.19083969465649,-4.824427480916031,-9.248801013183593,-0.7805097412109374,2.93050283203125,-5.480916030534351,-8.076335877862595,-11.603053435114504,0.0
14.750000476837158,-9.495403784179686,1.927332336425781,0.7445967163085937,-9.114503816793894,13.312977099236642,-4.916030534351145,-8.655039001464843,-0.28012159423828126,2.834734765625,-7.4961832061068705,-6.595419847328245,-13.038167938931299,0.0
14.760000467300415,-9.600748657226562,2.1212626708984375,0.852335791015625,-11.603053435114504,14.106870229007633,-4.091603053435114,-9.023746057128905,-0.7541735229492187,3.220201232910156,-6.763358778625954,-4.366412213740458,-12.549618320610687,0.0
14.770000696182251,-9.579200842285156,2.1835119140624997,0.7302315063476562,-14.564885496183207,14.610687022900763,-4.152671755725191,-9.04050546875,-0.9433154541015625,3.3710359375,-4.473282442748092,-4.8396946564885495,-12.610687022900763,0.0
14.780000925064087,-9.916783276367187,2.1883003173828124,1.0366893188476562,-17.374045801526716,14.854961832061068,-3.6793893129770994,-8.698134631347656,-0.9097966308593749,3.299209887695312,-3.877862595419847,-4.9465648854961835,-13.19083969465649,0.0
14.790000438690186,-9.8449572265625,1.9704279663085937,0.9624690673828125,-19.17557251908397,15.297709923664122,-3.633587786259542,-8.927977990722656,-1.0127473022460938,3.373430139160156,-1.83206106870229,-4.748091603053435,-13.84732824427481,0.0
