timestamp,Thigh_L_Acc_X,Thigh_L_Acc_Y,Thigh_L_Acc_Z,Thigh_L_Gyr_X,Thigh_L_Gyr_Y,Thigh_L_Gyr_Z,Thigh_R_Acc_X,Thigh_R_Acc_Y,Thigh_R_Acc_Z,Thigh_R_Gyr_X,Thigh_R_Gyr_Y,Thigh_R_Gyr_Z,gpio_output
10.000000476837158,-11.303026037597656,17.233463549804686,0.7589619262695312,-73.86259541984732,35.63358778625954,-58.534351145038165,-14.073117358398436,-4.587290380859375,5.925649108886718,-28.519083969465647,-70.3969465648855,12.091603053435115,0.0
10.010000705718994,-8.415618835449218,0.45010991210937495,-1.7453730102539062,-94.38167938931298,20.82442748091603,-52.030534351145036,-19.33796680908203,-6.160280871582031,5.590460876464843,17.068702290076335,-84.38167938931298,21.0381679389313,1.0
10.020000457763672,-8.805873706054687,-1.1851298217773436,-2.3295582153320313,-80.74809160305344,26.015267175572518,-48.732824427480914,-16.979678173828123,-3.727771984863281,3.2728736694335936,47.51145038167939,-103.55725190839695,19.251908396946565,1.0
10.030000925064087,-8.355763793945313,0.5698199951171875,-0.6440402465820312,-73.70992366412214,33.282442748091604,-45.770992366412216,-13.117830895996093,0.105344873046875,-0.0430956298828125,52.76335877862596,-119.78625954198473,4.977099236641221,1.0
10.040000677108765,-8.434772448730468,-0.7062894897460937,-1.8938135131835936,-70.90076335877863,39.16030534351145,-42.87022900763359,-11.698069311523437,2.157175695800781,-0.5219359619140624,33.908396946564885,-115.25190839694656,-4.702290076335878,1.0
10.0500009059906,-8.892064965820312,0.7829039428710937,-0.6392518432617187,-63.267175572519086,47.55725190839695,-44.70229007633588,-14.11621298828125,1.924938134765625,0.45489831542968745,26.396946564885496,-110.41221374045801,-7.66412213740458,1.0
10.060000658035278,-13.747505932617187,7.1035963256835934,1.5682020874023437,-62.732824427480914,61.74045801526717,-51.3587786259542,-13.888763830566406,2.0470424194335934,0.8882488159179687,8.549618320610687,-104.41221374045801,-10.305343511450381,1.0
10.070000410079956,-7.343016491699219,0.7493851196289062,-1.6903063720703124,-60.47328244274809,51.98473282442748,-43.74045801526717,-11.726799731445311,3.912125512695312,-0.565031591796875,-9.587786259541986,-100.59541984732824,-12.091603053435115,1.0
10.080000877380371,-10.158597644042969,-0.9888052856445312,-0.49799394531249996,-27.984732824427482,66.25954198473282,-39.404580152671755,-11.21683477783203,1.707065783691406,0.4429273071289062,-21.557251908396946,-83.98473282442748,-3.6946564885496183,1.0
10.090000629425049,-7.862558251953125,-2.0446482177734375,-0.2753331909179687,4.351145038167939,73.19083969465649,-35.969465648854964,-10.635043774414061,0.45968671875,-0.35194764404296874,-21.114503816793892,-80.35114503816794,-1.3435114503816794,1.0
10.100000619888306,-9.009380847167968,1.5610194824218748,1.0079588989257813,15.816793893129772,78.22900763358778,-39.74045801526717,-8.90643017578125,0.7158662963867187,-0.6200982299804687,-28.748091603053435,-73.32824427480917,-2.8244274809160306,1.0
10.110000848770142,-8.434772448730468,1.5873557006835937,1.0271125122070313,21.87786259541985,80.56488549618321,-40.48854961832061,-7.599196069335937,-0.55545478515625,0.28490999755859375,-32.62595419847328,-59.52671755725191,-2.1526717557251906,1.0
10.12000060081482,-15.04755743408203,16.80250725097656,7.563283044433593,-16.83969465648855,82.76335877862596,-55.86259541984733,-9.193734375,-0.7038952880859375,1.3215993164062498,-22.213740458015266,-54.47328244274809,-1.4045801526717556,1.0
10.130000591278076,-8.602366564941406,5.415684155273437,-0.3016694091796875,-98.2442748091603,33.20610687022901,-53.14503816793893,-9.129090930175781,-1.3048399047851562,1.0462661254882812,-6.641221374045801,-60.97709923664122,-2.717557251908397,1.0
10.140000820159912,-23.39135021972656,22.26128703613281,3.919308117675781,-146.87022900763358,36.51908396946565,-61.14503816793893,-10.939107385253905,-1.2401964599609374,3.526659045410156,9.587786259541986,-60.88549618320611,-0.366412213740458,1.0
10.15000057220459,-12.227187878417968,11.980585107421874,2.166752502441406,-244.5801526717557,-21.557251908396946,-52.229007633587784,-10.261548315429687,-0.7398083129882812,1.924938134765625,15.83206106870229,-73.25190839694656,-6.061068702290076,1.0
10.160000562667847,-21.128829650878906,16.165649609375,4.766855505371093,-269.23664122137404,-26.931297709923665,-38.961832061068705,-9.976638317871092,0.45489831542968745,1.8148048583984373,15.98473282442748,-78.91603053435115,-8.15267175572519,1.0
10.170000553131104,-16.38352196044922,8.872911352539061,1.4963760375976562,-316.1832061068702,-69.23664122137404,-19.099236641221374,-11.346121667480467,0.86191259765625,0.9576806640625,18.870229007633586,-89.26717557251908,-12.67175572519084,1.0
10.18000054359436,-18.25099925537109,3.246537451171875,2.940079638671875,-288.39694656488547,-67.19083969465649,7.816793893129771,-11.384428894042967,1.0749965454101562,1.3455413330078123,14.488549618320612,-91.25190839694656,-11.84732824427481,1.0
10.190001010894775,-13.014880224609374,-5.403713146972656,-0.5243301635742187,-248.0763358778626,-77.02290076335878,28.549618320610687,-11.353304272460937,0.27293898925781246,0.9433154541015625,18.229007633587788,-95.0381679389313,-11.908396946564885,1.0
10.200000524520874,-11.106701501464842,-8.145074047851562,0.6607996582031249,-175.25190839694656,-57.80152671755725,39.06870229007634,-9.440337145996093,0.28730419921875,1.158793603515625,24.30534351145038,-99.16030534351145,-11.664122137404581,1.0
10.21000075340271,-1.4724340209960938,-11.228805786132812,-2.0877438476562498,-111.64885496183206,-43.81679389312977,39.11450381679389,-7.036558679199218,-0.105344873046875,1.4772224243164063,26.916030534351144,-98.01526717557252,-13.129770992366412,0.0
10.220000505447388,-5.480327600097656,-5.161898779296875,1.3431471313476562,-79.09923664122137,-19.587786259541986,19.541984732824428,-6.423643054199219,-0.16519991455078123,2.7150246826171873,30.946564885496183,-90.07633587786259,-13.98473282442748,0.0
10.230000257492065,-1.8148048583984373,-7.036558679199218,-0.22505495605468748,-34.961832061068705,-0.732824427480916,14.916030534351146,-4.517858532714843,-0.28969840087890625,3.308786694335937,29.14503816793893,-82.51908396946565,-16.396946564885496,0.0
10.24000072479248,-0.6009446166992187,-5.437231970214843,-0.39983167724609375,3.435114503816794,30.366412213740457,2.6106870229007635,-4.972756848144531,-1.3263877197265623,4.453215087890625,21.0381679389313,-69.61832061068702,-18.549618320610687,0.0
10.250000238418579,-2.825157958984375,-2.1643583007812497,0.181959326171875,17.435114503816795,52.18320610687023,-13.114503816793894,-4.881777185058594,-0.33518823242187495,4.197035510253906,17.46564885496183,-63.20610687022901,-23.633587786259543,0.0
10.260000705718994,-5.623979699707031,-0.93852705078125,0.5961562133789062,26.99236641221374,66.29007633587786,-21.267175572519083,-6.655880615234374,-1.5346832641601562,5.197811804199218,15.954198473282442,-54.16793893129771,-23.69465648854962,0.0
10.270000696182251,-6.512228515625,-1.4939818359375,0.6416460449218749,38.595419847328245,79.22137404580153,-24.580152671755727,-8.465897070312499,-1.6065093139648436,4.7381250854492185,22.16793893129771,-58.48854961832061,-22.717557251908396,0.0
10.280000686645508,-8.339004382324218,-1.1923124267578125,1.1659762084960936,50.47328244274809,89.12977099236642,-30.65648854961832,-10.237606298828124,-1.2880804931640624,5.145139367675781,25.16030534351145,-59.083969465648856,-22.83969465648855,0.0
10.290000677108765,-9.969455712890625,0.7972691528320313,1.944091748046875,56.33587786259542,90.35114503816794,-34.916030534351144,-9.995791931152343,-0.4644751220703125,4.331110803222656,27.435114503816795,-64.56488549618321,-23.603053435114504,0.0
10.300000429153442,-12.785036865234375,3.8139632446289062,1.924938134765625,52.30534351145038,84.47328244274809,-36.97709923664122,-10.687716210937499,-0.7062894897460937,4.244919543457031,30.763358778625953,-69.57251908396947,-22.702290076335878,0.0
10.310000658035278,-11.106701501464842,2.365471240234375,1.8148048583984373,49.465648854961835,72.27480916030534,-28.38167938931298,-9.888052856445311,0.5027823486328125,3.6104561035156246,32.35114503816794,-76.36641221374046,-22.12213740458015,0.0
10.320000648498535,-12.04762275390625,5.121197351074218,2.7916391357421872,46.51908396946565,69.02290076335878,-26.85496183206107,-8.611943371582031,1.0438719238281249,4.220977526855468,23.083969465648856,-72.01526717557252,-22.106870229007633,0.0
10.330000638961792,-13.424288708496093,6.720524060058593,3.88818349609375,18.30534351145038,53.14503816793893,-24.412213740458014,-8.913612780761719,0.3447650390625,4.352658618164062,26.0,-72.07633587786259,-18.99236641221374,0.0
10.340000867843628,-11.789048974609374,5.092466931152344,3.392583752441406,2.0916030534351147,36.0,-15.32824427480916,-4.242525341796875,2.710236279296875,2.9568390502929685,9.664122137404581,-73.02290076335878,-23.221374045801525,0.0
10.350000619888306,-11.477802758789062,5.1140147460937495,3.833116857910156,0.6717557251908397,30.12213740458015,-11.816793893129772,-6.1842228881835934,0.9193734375,4.637568615722656,-6.427480916030534,-52.51908396946565,-18.625954198473284,0.0
10.360000610351562,-10.649408984374999,4.017470385742187,3.450044592285156,-11.86259541984733,18.549618320610687,-10.13740458015267,-3.9312791259765625,3.277662072753906,3.019088293457031,-17.129770992366414,-49.847328244274806,-19.52671755725191,0.0
10.37000060081482,-11.245565197753905,2.5450363647460934,3.342305517578125,-7.480916030534351,15.84732824427481,-6.229007633587786,-5.568913061523437,0.7302315063476562,4.647145422363281,-28.458015267175572,-27.633587786259543,-14.916030534351146,0.0
10.380000591278076,-8.420407238769531,0.7565677246093749,2.4660277099609376,-1.4809160305343512,13.954198473282442,-4.259541984732825,-5.705382556152343,-0.22505495605468748,4.6639048339843745,-30.53435114503817,-17.83206106870229,-12.748091603053435,0.0
10.390000581741333,-8.896853369140624,0.6177040283203125,2.2936451904296873,1.7251908396946565,10.82442748091603,-7.1603053435114505,-7.1203557373046875,-1.8028338500976562,5.128379956054687,-17.206106870229007,-16.061068702290076,-11.648854961832061,0.0
10.40000057220459,-9.303867651367186,-0.16041151123046873,2.398990063476562,13.679389312977099,15.404580152671755,-9.038167938931299,-7.436390356445312,-1.9297265380859374,5.276820458984375,-5.526717557251908,-13.816793893129772,-14.183206106870228,0.0
10.410000562667847,-11.073182678222656,1.9608511596679685,2.9664158569335934,14.274809160305344,17.61832061068702,-15.709923664122137,-6.019022973632812,-0.8571241943359375,4.604049792480469,-1.9694656488549618,-12.366412213740459,-20.427480916030536,0.0
10.420000314712524,-10.536881506347656,2.157175695800781,2.473210314941406,12.183206106870228,13.877862595419847,-16.15267175572519,-5.9950809570312495,-0.9744400756835937,4.604049792480469,3.5114503816793894,-9.954198473282442,-22.9618320610687,0.0
10.43000078201294,-9.854534033203125,2.6216508178710938,2.3511060302734372,10.458015267175572,15.221374045801527,-15.618320610687023,-6.687005236816406,-0.8906430175781249,4.570530969238281,5.572519083969466,-7.435114503816794,-23.083969465648856,0.0
10.440000295639038,-9.859322436523437,3.7924154296875,2.6312276245117188,2.5801526717557253,15.34351145038168,-16.045801526717558,-5.0182466796875,0.4477157104492187,3.81156904296875,2.0763358778625953,-6.458015267175573,-26.015267175572518,0.0
10.450000762939453,-10.160991845703125,3.816357446289062,2.446874096679687,-9.557251908396946,13.282442748091603,-13.98473282442748,-6.572083557128906,-0.4165910888671875,4.276044165039062,2.3053435114503817,-0.7480916030534351,-23.267175572519083,0.0
10.46000075340271,-8.537723120117187,3.612850305175781,1.5107412475585937,-10.977099236641221,14.732824427480915,-10.900763358778626,-5.487510205078125,0.1388636962890625,3.840299462890625,-1.1603053435114503,0.2900763358778626,-22.916030534351144,0.0
10.470000743865967,-7.331045483398437,3.201047619628906,1.4053963745117186,-13.694656488549619,14.595419847328245,-9.908396946564885,-6.849810949707031,-1.0031704956054688,4.422090466308593,1.4045801526717556,4.290076335877862,-19.84732824427481,0.0
10.480000257492065,-9.698910925292969,2.5354595581054684,1.8171990600585937,-17.022900763358777,20.0,-11.511450381679388,-6.591237170410156,-0.9552864624023437,4.4196962646484375,6.015267175572519,2.595419847328244,-18.85496183206107,0.0
10.49000072479248,-7.589619262695312,1.9536685546875,0.9720458740234375,-12.549618320610687,21.66412213740458,-9.954198473282442,-6.385335827636719,-0.9026140258789062,4.496310717773437,7.648854961832061,5.083969465648855,-18.900763358778626,0.0
10.500000476837158,-9.006986645507812,2.24097275390625,1.2497732666015624,-7.969465648854962,29.66412213740458,-11.022900763358779,-6.593631372070312,-1.3024457031249999,4.639962817382812,12.473282442748092,6.824427480916031,-17.358778625954198,0.0
10.510000944137573,-9.105148913574219,2.501940734863281,1.3718775512695311,-15.541984732824428,26.27480916030534,-13.129770992366412,-6.433219860839843,-1.2210428466796874,4.436455676269531,16.519083969465647,7.755725190839694,-17.00763358778626,0.0
10.52003788948059,-11.552023010253906,3.2800562744140622,2.185906115722656,-20.0,30.946564885496183,-13.389312977099237,-5.748478186035156,-0.36631285400390623,4.122815258789062,18.549618320610687,9.603053435114504,-17.374045801526716,0.0
10.530000686645508,-10.364498986816406,2.446874096679687,2.9951462768554684,-17.801526717557252,31.87786259541985,-11.893129770992367,-5.674257934570313,-0.4572925170898437,4.094084838867187,13.923664122137405,17.022900763358777,-16.900763358778626,0.0
10.540000677108765,-10.321403356933594,2.0063409912109376,3.009511486816406,-23.16030534351145,29.954198473282442,-12.458015267175572,-4.819527941894531,0.296881005859375,3.5194764404296874,12.13740458015267,20.65648854961832,-17.206106870229007,0.0
10.550000667572021,-10.266336718749999,1.8411410766601561,3.689464758300781,-24.33587786259542,26.625954198473284,-12.793893129770993,-5.164292980957031,0.5147533569335937,3.6727053466796873,2.6717557251908395,33.02290076335878,-16.977099236641223,0.0
10.560000658035278,-9.038111267089842,1.8219874633789062,4.666299035644531,-16.778625954198475,29.0381679389313,-12.916030534351146,-0.26336218261718747,3.9983167724609374,1.8411410766601561,-13.86259541984733,34.79389312977099,-23.0381679389313,0.0
10.570000648498535,-9.272743029785156,3.038241906738281,5.403713146972656,-16.732824427480917,28.641221374045802,-15.541984732824428,-0.6009446166992187,4.331110803222656,2.0159177978515626,-72.0,76.58015267175573,-26.15267175572519,0.0
10.580000877380371,-9.821015209960937,3.6463691284179687,6.45476767578125,-26.82442748091603,23.34351145038168,-15.389312977099237,-6.4834980957031245,-0.5458779785156249,3.9312791259765625,-80.29007633587786,96.47328244274809,-13.465648854961833,0.0
10.590000629425049,-11.142614526367186,3.727771984863281,7.690175732421874,-33.98473282442748,14.305343511450381,-16.641221374045802,-8.441955053710936,-1.8722656982421875,3.4165257690429685,-68.83969465648855,88.80916030534351,-11.435114503816793,0.0
10.600000619888306,-11.171344946289063,2.7437551025390623,8.20971749267578,-29.908396946564885,3.0229007633587788,-13.664122137404581,-5.609614489746093,0.34715924072265625,1.908178723144531,-79.16030534351145,100.36641221374046,-23.908396946564885,0.0
10.610000610351562,-11.461043347167967,2.1547814941406247,9.09796630859375,-25.709923664122137,-7.679389312977099,-11.786259541984732,-9.217676391601563,-1.8698714965820311,1.7405846069335937,-87.54198473282443,130.82442748091603,-23.740458015267176,0.0
10.62000060081482,-12.50012686767578,1.5825672973632812,10.742782849121093,-25.251908396946565,-22.85496183206107,-14.702290076335878,-8.597578161621094,1.0486603271484374,-0.7757213378906249,-61.89312977099237,128.06106870229007,-20.519083969465647,0.0
10.630000591278076,-14.099453576660155,0.0909796630859375,11.96382569580078,-16.16793893129771,-42.47328244274809,-18.885496183206108,-10.85291612548828,-2.2936451904296873,3.6822821533203123,-42.80916030534351,138.44274809160305,-13.755725190839694,0.0
10.640000581741333,-14.463372229003905,-2.0183119995117185,13.582306018066406,4.458015267175573,-65.86259541984732,-22.015267175572518,-15.852009191894531,-7.453149768066406,10.232817895507813,-8.625954198473282,131.8320610687023,-7.1603053435114505,0.0
10.650000810623169,-15.002067602539062,-3.8139632446289062,14.846444494628905,32.74809160305343,-88.09160305343511,-29.206106870229007,-12.243947290039062,-2.3032219970703123,8.494627490234375,9.786259541984732,103.16030534351145,-18.290076335877863,0.0
10.660000562667847,-15.421052893066406,-3.497928625488281,15.837643981933592,70.77862595419847,-110.01526717557252,-34.33587786259542,-5.6574985229492185,6.177040283203125,0.8571241943359375,-12.564885496183207,100.53435114503817,-22.778625954198475,0.0
10.670000553131104,-17.824831359863282,0.26815058593749996,16.747440612792968,85.74045801526718,-138.74809160305344,-36.0,-7.352593298339843,6.394912634277343,-2.0374656127929685,-43.69465648854962,124.07633587786259,-7.450381679389313,0.0
10.68000054359436,-19.54147395019531,4.00310517578125,16.09382355957031,75.41984732824427,-172.8854961832061,-30.229007633587788,-0.8283937744140625,15.425841296386718,-7.259219433593749,-79.38931297709924,110.29007633587786,-0.04580152671755725,0.0
10.690000772476196,-17.72427489013672,6.026205578613281,10.524910498046875,50.83969465648855,-209.48091603053436,-15.221374045801527,-8.176198669433592,15.452177514648437,-1.5849614990234373,-206.59541984732823,162.3053435114504,4.656488549618321,0.0
10.700000524520874,-16.211139440917968,5.066130712890625,3.210624426269531,11.145038167938932,-233.7709923664122,6.412213740458015,-13.778630554199218,1.1013327636718748,5.090072729492187,-226.7175572519084,184.68702290076337,34.229007633587784,0.0
10.71000075340271,-15.636531042480469,1.7741034301757812,-1.1755530151367186,-5.267175572519084,-243.29770992366412,17.603053435114504,-13.081917871093749,-15.808913562011718,4.932055419921875,-162.70229007633588,159.26717557251908,48.70229007633588,0.0
10.720000743865967,-12.753912243652342,-1.189918225097656,-7.4220251464843745,2.4732824427480917,-244.27480916030535,26.885496183206108,-13.546392993164062,-16.927005737304686,3.816357446289062,-71.69465648854961,120.99236641221374,55.05343511450382,0.0
10.730000495910645,-10.0748005859375,-2.9376854370117185,-6.687005236816406,2.3053435114503817,-227.66412213740458,24.977099236641223,-9.86411083984375,-10.292672937011718,1.3670891479492187,-0.8091603053435115,83.69465648854961,53.66412213740458,0.0
10.740000247955322,-8.032546569824218,-5.044582897949218,-1.8650830932617186,28.83969465648855,-207.5114503816794,27.61832061068702,-8.576030346679687,-5.76523759765625,-0.63206923828125,27.297709923664122,64.04580152671755,48.458015267175576,0.0
10.750000476837158,-8.078036401367187,-2.5043349365234375,2.6431986328124997,55.282442748091604,-177.40458015267177,30.015267175572518,-7.019799267578125,-3.746925598144531,-0.7900865478515624,30.427480916030536,55.64885496183206,41.038167938931295,0.0
10.760000705718994,-8.578424548339843,0.277727392578125,4.390965844726562,56.06106870229008,-160.13740458015266,26.702290076335878,-7.42441934814453,-0.8738836059570312,-1.3742717529296875,21.14503816793893,53.05343511450382,32.54961832061068,0.0
10.770000696182251,-8.894459167480468,1.6448165405273436,3.9552211425781247,45.969465648854964,-145.61832061068702,27.51145038167939,-9.399635717773437,2.090138049316406,-1.8746598999023436,-1.7404580152671756,56.47328244274809,26.900763358778626,0.0
10.780000448226929,-8.966285217285156,2.020706201171875,2.499546533203125,38.29007633587786,-129.84732824427482,30.18320610687023,-10.967837805175781,-0.39983167724609375,0.0430956298828125,-22.30534351145038,68.70229007633588,28.977099236641223,0.0
10.790000677108765,-10.213664282226562,1.649604943847656,2.1715409057617188,24.50381679389313,-120.21374045801527,29.114503816793892,-11.094730493164063,-3.3207577026367185,1.4053963745117186,-18.65648854961832,70.42748091603053,33.14503816793893,0.0
10.8000009059906,-6.129156249999999,-2.480392919921875,0.5913678100585937,41.55725190839695,-111.05343511450381,37.343511450381676,-11.702857714843748,-1.905784521484375,0.7805097412109374,-18.091603053435115,68.22900763358778,36.16793893129771,0.0
10.810000658035278,-8.188169677734374,-0.7948749511718749,1.5131354492187499,55.02290076335878,-90.42748091603053,35.908396946564885,-11.552023010253906,-2.8467057739257813,1.2880804931640624,-13.053435114503817,62.10687022900763,38.79389312977099,0.0
10.820000648498535,-10.28549033203125,2.0661960327148434,3.246537451171875,38.13740458015267,-91.32824427480917,30.076335877862597,-9.009380847167968,-2.0542250244140625,0.5626373901367188,-16.82442748091603,55.908396946564885,36.76335877862596,0.0
10.830000638961792,-8.853757739257812,2.272097375488281,2.4109610717773435,23.52671755725191,-99.14503816793894,33.83206106870229,-10.28549033203125,-4.472368701171875,2.0877438476562498,-19.938931297709924,61.89312977099237,38.97709923664122,0.0
10.840000629425049,-7.357381701660156,2.0374656127929685,1.2808978881835937,4.931297709923665,-98.83969465648855,34.900763358778626,-10.160991845703125,-3.246537451171875,1.1252747802734375,-10.977099236641221,51.17557251908397,35.83206106870229,0.0
10.850009202957153,-6.880935571289062,2.29843359375,0.0526724365234375,-12.595419847328245,-96.12213740458016,32.29007633587786,-8.137891442871092,-2.480392919921875,0.8451531860351562,-24.076335877862597,51.98473282442748,30.27480916030534,0.0
10.860000610351562,-4.086902233886718,0.6607996582031249,-1.5705962890624998,-19.938931297709924,-95.19083969465649,37.099236641221374,-15.782577343749999,-15.138537097167967,6.358999609374999,4.687022900763359,73.43511450381679,43.25190839694657,0.0
10.87000060081482,-3.5721488769531247,-0.46208092041015625,-1.9536685546875,-13.541984732824428,-72.85496183206106,38.0,-9.172186560058593,-8.12113203125,1.3958195678710936,54.778625954198475,34.916030534351144,34.82442748091603,0.0
10.880000591278076,-4.575319372558593,1.7932570434570312,-0.9959878906249999,-23.022900763358777,-58.30534351145038,28.702290076335878,-8.70771143798828,-1.7645266235351562,-1.2617442749023438,43.19083969465649,31.206106870229007,23.480916030534353,0.0
10.890000581741333,-3.584119885253906,1.2018892333984375,-1.7166425903320313,-33.038167938931295,-47.06870229007634,30.564885496183205,-10.70686982421875,-9.536105212402344,3.861847277832031,41.725190839694655,47.6793893129771,27.84732824427481,0.0
10.90000033378601,-4.048595007324218,1.0007762939453124,-0.39743747558593745,-43.74045801526717,-25.099236641221374,30.198473282442748,-13.84087979736328,-11.777077966308592,5.116408947753906,102.01526717557252,27.61832061068702,31.6793893129771,0.0
10.910000562667847,-1.4963760375976562,-0.35194764404296874,-1.1252747802734375,-48.534351145038165,-10.442748091603054,26.198473282442748,-9.387664709472656,-5.705382556152343,0.8571241943359375,131.46564885496184,-8.076335877862595,18.53435114503817,0.0
10.920000791549683,0.4429273071289062,-1.5490484741210937,-1.2737152832031249,-35.19083969465649,9.969465648854962,24.732824427480917,-15.255852978515625,-7.3837179199218745,6.265625744628906,131.22137404580153,7.709923664122138,17.801526717557252,0.0
10.93000078201294,-1.8602946899414061,0.17238251953125,1.024718310546875,-27.14503816793893,28.83969465648855,20.931297709923665,-12.588712329101561,-5.875370874023437,3.7612908081054686,162.33587786259542,-29.709923664122137,10.641221374045802,0.0
10.940000534057617,-0.7709329345703124,-0.45010991210937495,2.7964275390625,-12.045801526717558,39.19083969465649,19.00763358778626,-9.586383447265625,2.9472622436523435,0.8068459594726562,142.9618320610687,-47.343511450381676,-4.259541984732825,0.0
10.950000762939453,-1.4796166259765624,2.080561242675781,5.164292980957031,6.732824427480916,49.267175572519086,23.786259541984734,-10.955866796875,7.584830859375,2.81558115234375,85.8473282442748,-27.908396946564885,-10.030534351145038,0.0
10.96000051498413,-0.9959878906249999,3.3590649291992185,7.848193041992187,3.3435114503816794,48.06106870229008,34.29007633587786,-10.627861169433594,6.160280871582031,4.905719201660156,43.49618320610687,-8.82442748091603,0.366412213740458,0.0
10.970000743865967,-1.7908628417968748,3.124433166503906,10.611101757812499,-7.221374045801527,44.412213740458014,40.13740458015267,-9.066841687011719,6.912060192871094,2.528276953125,7.0534351145038165,-9.725190839694656,6.290076335877862,0.0
10.980000495910645,-0.18914193115234373,-0.9265560424804687,8.836998327636719,3.1603053435114505,41.00763358778626,46.50381679389313,-9.519345800781249,5.248090039062499,3.0166940917968748,-22.076335877862597,5.251908396946565,15.83206106870229,0.0
10.990000247955322,3.3710359375,-6.536170532226562,6.687005236816406,63.847328244274806,63.7557251908397,55.48091603053435,-13.618219042968748,2.152387292480469,4.948814831542968,-33.37404580152672,20.412213740458014,30.870229007633586,0.0
11.000000476837158,11.592724438476562,-16.852785485839842,2.499546533203125,140.06106870229007,76.67175572519083,55.48091603053435,-8.609549169921875,0.086191259765625,1.8938135131835936,-48.152671755725194,16.27480916030534,32.0763358778626,0.0
11.010000705718994,3.5817256835937497,-13.196839550781249,4.029441394042968,254.8854961832061,139.4198473282443,48.0763358778626,-8.896853369140624,-1.908178723144531,1.9584569580078124,-56.19847328244275,24.045801526717558,35.11450381679389,0.0
11.020000457763672,-0.8906430175781249,-5.588066674804687,-3.105279553222656,274.0916030534351,160.5801526717557,7.374045801526718,-9.402029919433593,-2.3319524169921872,2.0063409912109376,-62.152671755725194,28.977099236641223,32.274809160305345,0.0
11.030000686645508,-9.236830004882812,-2.2744915771484373,-5.1140147460937495,237.46564885496184,177.95419847328245,-27.129770992366414,-12.89038173828125,-3.181894006347656,3.057395520019531,-64.36641221374046,36.61068702290076,33.05343511450382,0.0
11.040000677108765,-6.191405493164062,-9.543287817382812,-5.84185205078125,235.2824427480916,160.45801526717557,-42.16793893129771,-15.686809277343748,-2.9544448486328125,3.4620156005859375,-66.12213740458016,33.37404580152672,31.72519083969466,0.0
11.050000667572021,-23.331495178222657,10.54645831298828,5.123591552734375,328.0763358778626,193.78625954198472,-28.38167938931298,-16.608576916503907,-3.2800562744140622,4.115632653808594,-62.3206106870229,20.748091603053435,27.69465648854962,0.0
11.060000896453857,-19.97003604736328,0.5698199951171875,-0.6153098266601562,309.60305343511453,157.74045801526717,3.3740458015267176,-17.961300854492187,-2.923320227050781,4.2497079467773435,-49.87786259541985,-1.0076335877862594,18.916030534351144,0.0
11.070000648498535,-22.05059729003906,4.929661218261718,1.3646949462890625,326.412213740458,181.38931297709922,5.572519083969466,-16.141707592773436,-4.879382983398437,6.667851623535156,-41.41984732824427,-12.80916030534351,18.83969465648855,0.0
11.08000111579895,-19.960459240722656,20.477606799316405,5.882553479003906,207.78625954198472,130.8091603053435,-27.923664122137403,-15.761029528808592,-3.835511059570312,5.65031591796875,-11.32824427480916,-41.61832061068702,16.82442748091603,0.0
11.090000629425049,-13.824120385742187,19.8048361328125,2.3056161987304686,56.83969465648855,77.57251908396947,-44.33587786259542,-11.604695446777344,-2.8131869506835936,4.649539624023437,5.9541984732824424,-63.12977099236641,18.16793893129771,0.0
11.100000619888306,-8.908824377441405,15.464148522949218,1.2832920898437499,-49.81679389312977,43.221374045801525,-57.7557251908397,-12.105083593749999,-1.9129671264648436,3.9408559326171875,1.6946564885496183,-67.0381679389313,22.18320610687023,0.0
11.110000371932983,-6.830657336425781,1.8818425048828125,-1.9991583862304687,-87.81679389312977,28.412213740458014,-53.63358778625954,-12.380416784667968,-2.4109610717773435,2.578555187988281,14.763358778625955,-76.10687022900764,23.129770992366414,0.0
11.12000036239624,-8.28633194580078,-0.7038952880859375,-1.687912170410156,-81.86259541984732,33.20610687022901,-49.969465648854964,-12.617442749023438,-1.3383587280273437,1.7190367919921874,21.0381679389313,-84.25954198473282,18.213740458015266,0.0
11.130000591278076,-8.78432589111328,-0.30885201416015623,-1.8363526733398436,-74.61068702290076,38.47328244274809,-46.93129770992366,-12.931083166503905,-1.4006079711914061,0.8954314208984374,33.29770992366412,-90.76335877862596,9.664122137404581,0.0
11.140000820159912,-9.595960253906249,-2.2553379638671873,-1.924938134765625,-46.68702290076336,50.76335877862596,-42.961832061068705,-12.148179223632813,-0.6200982299804687,0.09337386474609374,33.05343511450382,-96.30534351145039,-1.2671755725190839,0.0
11.15000057220459,-9.643844287109374,0.10295067138671875,-0.00718260498046875,-19.129770992366414,65.09923664122137,-40.87022900763359,-13.019668627929686,0.16519991455078123,0.13407529296874998,34.62595419847328,-98.79389312977099,-8.916030534351146,0.0
11.160000562667847,-9.105148913574219,-0.59376201171875,-0.40940848388671874,-4.33587786259542,69.00763358778626,-39.43511450381679,-12.543222497558594,1.4245499877929686,0.34237083740234375,24.091603053435115,-97.20610687022901,-14.442748091603054,0.0
11.170000553131104,-10.498574279785156,2.6815058593749996,-0.02633621826171875,-0.9770992366412213,72.93129770992367,-43.770992366412216,-11.891999645996092,2.8203695556640622,-0.5530605834960938,18.748091603053435,-96.83969465648855,-13.893129770992367,0.0
11.180000305175781,-10.376469995117187,1.8339584716796873,-0.40462008056640625,-0.2748091603053435,73.49618320610686,-46.25954198473283,-10.160991845703125,2.6599580444335937,-0.9816226806640624,0.3053435114503817,-87.38931297709924,-11.022900763358779,0.0
11.190000295639038,-11.540052001953125,4.410119458007812,0.8738836059570312,-3.7251908396946565,74.90076335877863,-49.404580152671755,-10.060435375976562,0.23223756103515625,-0.9648632690429687,-9.068702290076336,-77.37404580152672,-5.419847328244275,0.0
11.200000524520874,-9.014169250488282,1.5418658691406248,-0.9002198242187499,-5.679389312977099,70.99236641221374,-49.32824427480916,-8.67658681640625,0.9457096557617187,-1.9847931762695312,-19.954198473282442,-73.74045801526718,-7.923664122137405,0.0
11.21000051498413,-9.95987890625,2.4756045166015626,0.430956298828125,-5.145038167938932,73.49618320610686,-50.16793893129771,-7.582436657714843,0.12689268798828124,-1.467645617675781,-35.52671755725191,-58.12213740458015,-8.641221374045802,0.0
11.220000505447388,-12.018892333984374,7.311891870117187,1.5538368774414062,-27.801526717557252,68.06106870229007,-55.29770992366412,-9.006986645507812,-2.2744915771484373,-0.07422025146484375,-22.198473282442748,-47.465648854961835,-6.183206106870229,0.0
11.230000495910645,-10.180145458984374,3.687070556640625,0.7805097412109374,-47.465648854961835,57.41984732824427,-53.37404580152672,-9.509768994140625,-3.0334535034179684,0.055066638183593745,-1.450381679389313,-51.908396946564885,-8.549618320610687,0.0
11.24000072479248,-23.35304299316406,27.89723774414062,10.1131078125,-135.6030534351145,43.20610687022901,-75.17557251908397,-10.714052429199219,-2.3726538452148436,1.6903063720703124,17.770992366412212,-53.267175572519086,-11.587786259541986,0.0
11.250000476837158,-13.788207360839843,14.255076684570312,1.3215993164062498,-252.3969465648855,-19.954198473282442,-65.32824427480917,-9.457096557617186,-1.0989385620117187,0.6512228515624999,29.72519083969466,-63.267175572519086,-16.35114503816794,0.0
11.260000944137573,-20.0346794921875,21.499930908203122,8.142679846191406,-276.7022900763359,-15.374045801526718,-52.656488549618324,-9.083601098632812,-0.13407529296874998,1.47482822265625,32.80916030534351,-65.6030534351145,-18.27480916030534,0.0
11.27000093460083,-14.86320390625,7.335833886718749,-0.7326257080078125,-336.7175572519084,-73.55725190839695,-25.984732824427482,-11.33175645751953,1.5059528442382812,1.3646949462890625,39.12977099236641,-74.54961832061069,-20.778625954198475,0.0
11.280000686645508,-18.890251098632813,3.2441432495117186,0.5674257934570313,-296.90076335877865,-64.41221374045801,2.7022900763358777,-11.726799731445311,0.7805097412109374,2.2026655273437497,39.37404580152672,-75.06870229007633,-19.603053435114504,0.0
11.290000677108765,-12.413935607910156,-4.862623571777344,-0.5482721801757812,-261.8167938931298,-74.50381679389314,21.0381679389313,-11.429918725585937,0.19871873779296872,2.142810485839844,43.52671755725191,-82.36641221374046,-20.580152671755727,0.0
11.300000429153442,-8.147468249511718,-13.874398620605469,-2.5905261962890624,-169.58778625954199,-55.908396946564885,37.14503816793893,-10.644620581054687,-0.06943184814453125,2.511517541503906,49.267175572519086,-84.76335877862596,-19.801526717557252,0.0
11.3100004196167,-9.49300958251953,-9.09796630859375,1.35990654296875,-100.38167938931298,-21.419847328244273,24.3206106870229,-9.258377819824219,-0.5770026000976562,2.712630480957031,55.786259541984734,-85.05343511450381,-20.641221374045802,0.0
11.320000886917114,-8.154650854492187,-3.411737365722656,2.1906945190429687,-81.49618320610686,-16.244274809160306,4.977099236641221,-8.611943371582031,0.18435352783203124,3.545812658691406,66.29007633587786,-80.50381679389314,-20.580152671755727,0.0
11.330000400543213,-8.681375219726561,0.3327940307617187,4.649539624023437,-38.61068702290076,11.786259541984732,-1.0229007633587786,-5.80354482421875,0.9744400756835937,3.816357446289062,56.93129770992366,-74.50381679389314,-22.732824427480917,0.0
11.340000867843628,-6.507440112304687,-0.8475473876953125,1.9608511596679685,-23.52671755725191,14.793893129770993,-3.83206106870229,-6.172251879882812,2.9855694702148434,3.1507693847656246,45.7557251908397,-68.65648854961832,-22.045801526717558,0.0
11.350000381469727,-4.721365673828124,-2.233790148925781,0.9457096557617187,2.900763358778626,31.51145038167939,-6.580152671755725,-6.880935571289062,2.786850732421875,4.094084838867187,30.793893129770993,-57.52671755725191,-18.641221374045802,0.0
11.360000610351562,-5.324704492187499,-1.6639701538085936,0.7613561279296874,18.47328244274809,43.83206106870229,-13.709923664122137,-8.695740429687499,2.446874096679687,4.108450048828125,24.015267175572518,-54.717557251908396,-14.778625954198473,0.0
11.37000036239624,-6.426037255859375,-2.128445275878906,0.4213794921875,36.961832061068705,56.99236641221374,-18.870229007633586,-7.536946826171874,2.8323405639648436,3.612850305175781,10.15267175572519,-54.74809160305343,-14.763358778625955,0.0
11.380000591278076,-7.079654309082031,-1.1611878051757811,0.5147533569335937,54.48854961832061,67.7557251908397,-22.50381679389313,-9.066841687011719,2.252943762207031,3.842693664550781,-0.16793893129770993,-50.58015267175573,-11.465648854961833,0.0
11.390000581741333,-8.908824377441405,0.7158662963867187,1.005564697265625,63.587786259541986,74.30534351145039,-28.458015267175572,-12.334926953124999,0.5243301635742187,4.460397692871093,0.13740458015267176,-52.01526717557252,-6.595419847328245,0.0
11.40000057220459,-11.075576879882812,3.564966271972656,1.8291700683593748,60.656488549618324,73.40458015267176,-32.152671755725194,-11.128249316406249,1.1827356201171875,3.4524387939453125,2.885496183206107,-65.54198473282443,-8.534351145038167,0.0
11.410000324249268,-11.25514200439453,4.029441394042968,1.8171990600585937,51.00763358778626,65.77099236641222,-27.633587786259543,-9.83777462158203,0.9959878906249999,3.299209887695312,-3.648854961832061,-67.08396946564885,-9.725190839694656,0.0
11.420000553131104,-11.348515869140625,4.235342736816406,2.365471240234375,49.63358778625954,63.587786259541986,-23.34351145038168,-11.233594189453123,-0.6344634399414062,4.129997863769531,2.381679389312977,-67.5114503816794,-4.885496183206107,0.0
11.43000078201294,-11.686098303222655,6.076483813476562,3.0645781249999997,29.099236641221374,54.56488549618321,-24.244274809160306,-9.758765966796874,-0.4429273071289062,4.132392065429687,3.480916030534351,-74.50381679389314,-6.778625954198473,0.0
11.440000772476196,-12.531251489257812,6.347028601074219,3.095702746582031,7.908396946564886,41.48091603053435,-19.81679389312977,-9.344569079589844,0.45010991210937495,3.892971899414062,6.33587786259542,-78.53435114503817,-6.793893129770993,0.0
11.450000762939453,-11.379640490722656,4.525041137695312,2.6791116577148437,-2.3969465648854964,35.7557251908397,-13.83206106870229,-8.042123376464843,-0.10773907470703124,4.76924970703125,-7.206106870229007,-69.78625954198473,-7.801526717557252,0.0
11.46000051498413,-9.892841259765625,2.9831752685546875,2.281674182128906,-8.977099236641221,33.908396946564885,-10.51908396946565,-5.798756420898437,1.7693150268554687,3.871424084472656,-14.51908396946565,-69.26717557251908,-11.068702290076336,0.0
11.470000743865967,-9.524134204101562,2.8036101440429686,2.1595698974609374,-12.198473282442748,33.89312977099237,-10.641221374045802,-5.473144995117187,1.1037269653320312,4.438849877929687,-35.11450381679389,-51.37404580152672,-11.923664122137405,0.0
11.480000495910645,-8.817844714355468,2.4564509033203126,2.269703173828125,-13.374045801526718,36.97709923664122,-9.770992366412214,-5.592855078125,0.4525041137695312,4.199429711914062,-37.343511450381676,-45.465648854961835,-10.50381679389313,0.0
11.490000486373901,-9.935936889648437,4.182670300292968,2.0542250244140625,-25.709923664122137,33.099236641221374,-12.992366412213741,-7.170633972167968,-0.48123453369140623,4.441244079589843,-37.89312977099237,-37.25190839694657,-9.465648854961833,0.0
11.500000715255737,-10.077194787597655,3.430890979003906,1.9129671264648436,-34.48854961832061,31.251908396946565,-8.82442748091603,-6.993463049316406,-1.0079588989257813,4.580107775878906,-32.961832061068705,-33.45038167938932,-10.702290076335878,0.0
11.510000467300415,-9.995791931152343,2.789244934082031,1.5298948608398437,-40.458015267175576,30.061068702290076,-6.931297709923665,-6.789955908203124,-0.6943184814453125,4.225765930175781,-31.87786259541985,-28.061068702290076,-13.557251908396946,0.0
11.520000696182251,-9.124302526855468,2.0973206542968748,1.448492004394531,-41.69465648854962,32.595419847328245,-5.4961832061068705,-5.513846423339843,-0.6272808349609375,4.060566015625,-33.282442748091604,-21.770992366412212,-16.38167938931298,0.0
11.530000925064087,-9.172186560058593,1.7741034301757812,1.5203180541992187,-43.80152671755725,34.18320610687023,-5.8320610687022905,-6.8785413696289055,-1.5562310791015623,4.376600634765625,-28.38167938931298,-15.053435114503817,-14.366412213740459,0.0
11.540000677108765,-10.338162768554687,2.2002713256835937,2.123656872558594,-45.89312977099237,36.0763358778626,-7.419847328244275,-5.130774157714844,-0.34237083740234375,3.687070556640625,-27.053435114503817,-13.98473282442748,-16.65648854961832,0.0
11.550000667572021,-9.660603698730467,1.1827356201171875,1.915361328125,-42.045801526717554,36.33587786259542,-6.702290076335878,-7.216123803710937,-1.6927005737304686,4.359841223144531,-18.15267175572519,-9.32824427480916,-13.664122137404581,0.0
11.560000896453857,-10.046070166015625,1.4245499877929686,2.437297290039062,-41.57251908396947,36.656488549618324,-9.236641221374045,-5.7149593627929685,-0.7326257080078125,4.00310517578125,-18.213740458015266,-6.641221374045801,-15.648854961832061,0.0
11.570000410079956,-9.830592016601562,0.7541735229492187,2.4061726684570313,-34.67175572519084,36.213740458015266,-10.061068702290076,-6.586448767089843,-1.2569558715820313,4.206612316894531,-12.16793893129771,-2.900763358778626,-14.931297709923664,0.0
11.580000877380371,-10.517727893066406,0.9217676391601562,2.583343591308594,-32.30534351145038,35.45038167938932,-13.603053435114504,-5.516240625,-0.6560112548828124,3.7014357666015623,-12.992366412213741,-0.15267175572519084,-16.045801526717558,0.0
11.590000629425049,-10.409988818359375,1.0917559570312498,3.1675287963867187,-25.46564885496183,33.725190839694655,-14.030534351145038,-6.354211206054687,-1.37906015625,3.9432501342773434,-7.251908396946565,4.595419847328245,-13.954198473282442,0.0
11.600000619888306,-10.491391674804687,1.2808978881835937,3.670311145019531,-20.671755725190838,31.404580152671755,-15.83206106870229,-5.410895751953125,-0.9840168823242187,3.622427111816406,-6.641221374045801,6.824427480916031,-15.648854961832061,0.0
11.610000610351562,-10.35492218017578,1.3311761230468748,3.9647979492187497,-16.106870229007633,28.3206106870229,-16.229007633587788,-6.303932971191406,-2.068590234375,3.9169139160156248,-1.1755725190839694,11.725190839694656,-14.549618320610687,0.0
11.62000060081482,-10.874463940429687,1.7621324218749999,4.7189714721679685,-14.259541984732824,23.603053435114504,-17.72519083969466,-5.7891796142578125,-2.094926452636719,3.7517140014648436,2.0610687022900764,13.603053435114504,-16.900763358778626,0.0
11.630000591278076,-10.386046801757812,1.946485949707031,5.590460876464843,-9.541984732824428,20.229007633587788,-18.12213740458015,-5.592855078125,-2.549824768066406,3.641580725097656,4.625954198473282,17.206106870229007,-19.83206106870229,0.0
11.640000581741333,-10.24000050048828,1.8052280517578123,6.002263562011718,-6.595419847328245,15.694656488549619,-19.358778625954198,-5.856217260742187,-3.4644098022460934,3.394977954101562,7.984732824427481,21.389312977099237,-22.870229007633586,0.0
11.65000033378601,-10.462661254882812,2.4301146850585935,7.338228088378906,-9.068702290076336,6.931297709923665,-20.641221374045802,-5.736507177734374,-4.254496350097656,3.0885201416015624,13.099236641221374,25.022900763358777,-27.236641221374047,0.0
11.660000562667847,-10.896011755371093,3.77326181640625,8.475473876953124,-10.870229007633588,-0.5038167938931297,-20.900763358778626,-3.883395092773437,-3.3710359375,1.5203180541992187,17.87786259541985,30.076335877862597,-33.9236641221374,0.0
11.670001029968262,-10.915165368652342,3.229778039550781,9.184157568359375,-12.83969465648855,-11.49618320610687,-18.38167938931298,-3.1459809814453124,-2.7916391357421872,0.7445967163085937,21.69465648854962,48.900763358778626,-36.54961832061068,0.0
11.68000078201294,-13.316549633789062,3.5482068603515624,11.336544860839844,-16.3206106870229,-23.404580152671755,-17.984732824427482,1.7238251953125,0.8307879760742187,-1.9536685546875,19.251908396946565,56.54961832061068,-42.61068702290076,0.0
11.690000772476196,-12.46900224609375,4.058171813964844,12.184092248535155,-22.045801526717558,-46.10687022900763,-14.335877862595419,3.1124621582031247,5.236119030761718,-3.77326181640625,-3.6030534351145036,85.34351145038168,-45.61832061068702,0.0
11.700000524520874,-13.316549633789062,3.1124621582031247,13.359645263671874,-24.16793893129771,-68.18320610687023,-7.083969465648855,-0.06703764648437499,6.208164904785156,0.6584054565429687,-33.23664122137404,117.08396946564885,-36.54961832061068,0.0
11.71000051498413,-14.559140295410156,0.5243301635742187,14.264653491210936,-16.793893129770993,-94.18320610687023,-5.587786259541985,-10.625466967773438,2.592920397949219,8.238447912597655,-47.19083969465649,132.74809160305344,-18.076335877862597,0.0
11.720000505447388,-16.345214733886717,-2.5067291381835934,14.006079711914062,9.557251908396946,-119.55725190839695,-6.1679389312977095,-19.886238989257812,-4.733336682128906,15.423447094726562,-35.06870229007634,120.36641221374046,-6.076335877862595,0.0
11.730000495910645,-17.53752716064453,-3.1196447631835937,12.62223115234375,41.64885496183206,-143.38931297709922,-8.030534351145038,-14.709975,0.09816226806640624,9.0788126953125,-22.3206106870229,93.19083969465649,-19.435114503816795,0.0
11.74000072479248,-17.535132958984374,-2.1643583007812497,9.437942944335937,61.969465648854964,-169.7709923664122,-6.137404580152672,-14.144943408203124,6.459556079101562,2.683900061035156,-52.595419847328245,111.3587786259542,-18.916030534351144,0.0
11.750000476837158,-15.765817932128906,-0.3064578125,5.868188269042968,52.030534351145036,-186.70229007633588,-1.8015267175572518,-12.97178459472656,3.6918589599609373,-0.009576806640625,-53.038167938931295,114.42748091603053,9.786259541984732,0.0
11.760000705718994,-14.401122985839843,1.2210428466796874,3.5913024902343746,22.641221374045802,-200.33587786259542,-3.7557251908396947,3.526659045410156,15.612589025878906,-6.172251879882812,-83.37404580152672,63.786259541984734,3.8625954198473282,0.0
11.770000457763672,-11.700463513183593,4.4819455078125,-0.033518823242187495,1.282442748091603,-213.0381679389313,1.3129770992366412,-0.1292868896484375,19.84793176269531,-4.697423657226563,-257.9083969465649,139.206106870229,6.99236641221374,0.0
11.780000448226929,-12.030863342285155,5.53539423828125,-1.7166425903320313,-43.41984732824427,-213.54198473282443,8.488549618320612,-11.777077966308592,-0.17956512451171874,1.4173673828125,-300.7175572519084,176.06106870229007,41.969465648854964,0.0
11.790000677108765,-13.127407702636718,-0.5530605834960938,-1.5011644409179687,-67.61832061068702,-212.19847328244273,7.4961832061068705,-12.253524096679687,-7.915230688476562,-1.1516109985351561,-241.14503816793894,143.95419847328245,51.6793893129771,0.0
11.8000009059906,-11.678915698242188,-6.308721374511719,-0.59376201171875,-24.580152671755727,-196.91603053435114,8.01526717557252,-11.525686791992188,-11.226411584472656,-1.0726023437499999,-202.15267175572518,134.45801526717557,38.51908396946565,0.0
11.810000658035278,-11.295843432617186,-7.3094976684570305,-1.618480322265625,24.015267175572518,-173.46564885496184,5.755725190839694,-13.986926098632813,-12.289437121582031,1.1731588134765625,-134.04580152671755,122.45801526717557,39.37404580152672,0.0
11.820000886917114,-11.247959399414063,-7.261613635253906,0.4381389038085937,51.23664122137404,-154.03053435114504,-3.236641221374046,-11.77228956298828,-16.711527587890625,0.6512228515624999,-54.85496183206107,96.83969465648855,45.786259541984734,0.0
11.830000638961792,-11.81777939453125,-3.3590649291992185,2.2960393920898436,76.35114503816794,-131.05343511450383,-9.16030534351145,-10.058041174316406,-14.10903038330078,-1.1635820068359375,5.511450381679389,72.12213740458016,44.47328244274809,0.0
11.840000867843628,-12.440271826171875,0.488417138671875,3.1794998046874996,83.43511450381679,-120.9618320610687,-10.717557251908397,-9.325415466308593,-8.456320263671875,-2.480392919921875,46.62595419847328,53.80152671755725,39.16030534351145,0.0
11.850000619888306,-12.12423720703125,2.612074011230469,3.7612908081054686,80.18320610687023,-114.3969465648855,-3.801526717557252,-9.105148913574219,-4.115632653808594,-1.6639701538085936,63.282442748091604,49.74045801526717,33.343511450381676,0.0
11.860000610351562,-11.477802758789062,2.4444798950195312,3.718195178222656,65.26717557251908,-112.7175572519084,3.0381679389312977,-10.544064111328124,-1.0917559570312498,-0.296881005859375,51.954198473282446,57.69465648854962,29.34351145038168,0.0
11.87000060081482,-12.378022583007812,3.6655227416992187,4.417302062988281,50.0,-108.1526717557252,8.83969465648855,-10.386046801757812,0.8667010009765624,-0.009576806640625,39.3587786259542,62.97709923664122,27.00763358778626,0.0
11.880000591278076,-9.318232861328125,0.35673604736328124,3.4739866088867184,41.41984732824427,-114.94656488549619,18.793893129770993,-9.33978067626953,3.5338416503906247,-0.8307879760742187,2.2900763358778624,73.49618320610686,27.251908396946565,0.0
11.890000581741333,-9.557653027343749,0.4908113403320312,2.844311572265625,49.02290076335878,-104.29007633587786,24.3206106870229,-10.599130749511717,-0.19871873779296872,1.3168109130859373,-7.419847328244275,86.41221374045801,36.25954198473283,0.0
11.90000057220459,-9.909600671386718,1.9105729248046874,2.7964275390625,28.671755725190838,-108.58015267175573,19.251908396946565,-9.088389501953124,1.1468225952148436,0.11731588134765625,-5.3893129770992365,81.57251908396947,41.541984732824424,0.0
11.910000562667847,-6.945579016113281,0.08858546142578125,1.3359645263671873,30.061068702290076,-111.40458015267176,24.290076335877863,-10.673351000976561,-4.786009118652344,2.987963671875,-4.885496183206107,94.3206106870229,52.717557251908396,0.0
11.920000553131104,-6.9527616210937495,0.9337386474609375,1.0199299072265624,24.0,-102.22900763358778,22.65648854961832,-9.081206896972656,-4.402936853027343,1.6927005737304686,19.267175572519083,77.78625954198473,52.213740458015266,0.0
11.930001020431519,-5.949591125488281,2.530671154785156,1.3263877197265623,13.938931297709924,-95.54198473282443,18.259541984732824,-8.518569506835936,-1.7118541870117185,0.1771709228515625,8.427480916030534,75.90839694656489,48.25954198473283,0.0
11.940000534057617,-3.5889082885742187,-0.28969840087890625,0.1149216796875,8.381679389312977,-95.58778625954199,22.671755725190838,-15.265429785156249,-12.550405102539061,5.827486840820312,33.038167938931295,95.19083969465649,57.86259541984733,0.0
11.950000762939453,-2.8419173706054686,-0.3184288208007812,0.603338818359375,6.717557251908397,-77.72519083969466,20.85496183206107,-10.754753857421875,-8.226476904296874,2.185906115722656,77.49618320610686,57.55725190839695,46.93129770992366,0.0
11.96000051498413,-3.9504327392578125,2.1643583007812497,1.5227122558593749,-3.2213740458015265,-65.72519083969466,13.740458015267176,-9.435548742675781,-3.5721488769531247,0.737414111328125,64.07633587786259,50.045801526717554,34.152671755725194,0.0
11.970000743865967,-0.46686932373046874,0.296881005859375,0.3902548706054687,-1.099236641221374,-59.00763358778626,21.51145038167939,-10.488997473144531,-3.651157531738281,1.8818425048828125,60.76335877862596,48.68702290076336,28.977099236641223,0.0
11.980000495910645,1.3718775512695311,-1.209071838378906,0.3280056274414062,11.34351145038168,-35.61832061068702,24.702290076335878,-11.18571015625,-4.0222587890625,2.89219560546875,70.9618320610687,42.58015267175573,25.099236641221374,0.0
11.990000486373901,-0.33758243408203126,0.6607996582031249,2.360682836914062,13.86259541984733,-15.954198473282442,19.129770992366414,-8.690952026367187,-2.482787121582031,1.3000515014648437,79.98473282442748,24.412213740458014,15.755725190839694,0.0
12.000000476837158,-0.10295067138671875,0.7230489013671875,3.1292215698242187,11.221374045801527,-7.969465648854962,16.076335877862597,-17.482460522460936,-7.086836914062499,5.693411547851563,87.83206106870229,46.68702290076336,24.442748091603054,0.0
12.010000705718994,-0.3232172241210937,0.29927520751953124,3.900154504394531,23.19083969465649,2.213740458015267,18.641221374045802,-12.11705460205078,-9.696516723632811,3.296815686035156,162.44274809160305,-7.862595419847328,18.47328244274809,0.0
12.020000457763672,-0.277727392578125,-0.1149216796875,5.8226984375,33.38931297709924,13.435114503816793,16.27480916030534,-16.85996809082031,-5.4899044067382805,4.568136767578125,181.05343511450383,-12.595419847328245,10.900763358778626,0.0
12.030000448226929,-3.066972326660156,3.308786694335937,7.972691528320312,51.48091603053435,21.64885496183206,19.0381679389313,-10.941501586914061,1.3862427612304686,2.085349645996094,178.06106870229007,-35.969465648854964,-3.5114503816793894,0.0
12.040001153945923,-6.138733056640625,7.4699091796875,11.080365283203124,37.06870229007634,19.893129770992367,21.419847328244273,-14.257470886230468,4.687846850585937,3.3686417358398435,144.4732824427481,-25.587786259541986,-3.5114503816793894,0.0
12.050000667572021,-5.521029028320312,6.9527616210937495,11.528080993652344,21.740458015267176,10.396946564885496,33.786259541984734,-10.94868419189453,6.83783994140625,1.6017209106445311,103.49618320610686,-33.51145038167939,-5.557251908396947,0.0
12.060000896453857,-5.968744738769531,6.617573388671874,10.577582934570312,-11.49618320610687,-2.900763358778626,38.35114503816794,-8.712499841308594,9.710881933593749,0.4285620971679687,41.00763358778626,-27.49618320610687,-6.916030534351145,0.0
12.070000886917114,-4.086902233886718,5.2456958374023435,7.472303381347656,-27.709923664122137,-8.473282442748092,44.778625954198475,-7.860164050292968,8.465897070312499,1.218648645019531,-23.114503816793892,-4.473282442748092,5.633587786259542,0.0
12.08000111579895,-1.889025109863281,4.7884033203125,3.1866824096679687,-51.465648854961835,-7.572519083969466,46.35114503816794,-9.854534033203125,4.352658618164062,1.5251064575195312,-50.42748091603053,6.961832061068702,21.64885496183206,0.0
12.090000867843628,-0.40462008056640625,1.6065093139648436,-1.7980454467773437,-74.61068702290076,-4.9465648854961835,45.786259541984734,-10.867281335449219,1.6903063720703124,2.0278888061523435,-73.5114503816794,13.374045801526718,33.908396946564885,0.0
12.100000619888306,4.639962817382812,-7.168239770507812,-2.243366955566406,-55.05343511450382,16.412213740458014,51.6793893129771,-10.038887561035155,-0.9433154541015625,2.3056161987304686,-86.8854961832061,17.114503816793892,39.93893129770992,0.0
12.110000848770142,6.284779357910156,-17.362750439453123,-2.480392919921875,27.480916030534353,62.732824427480914,56.732824427480914,-12.164938635253906,-3.201047619628906,3.9456443359374997,-87.78625954198473,20.47328244274809,43.52671755725191,0.0
12.12000060081482,-5.346252307128906,-9.370905297851563,4.881777185058594,82.29007633587786,107.12977099236642,17.435114503816795,-12.713210815429687,-3.5793314819335937,3.7038299682617186,-88.06106870229007,14.458015267175572,38.0763358778626,0.0
12.130000591278076,-0.5602431884765625,-13.824120385742187,5.137956762695312,147.96946564885496,118.07633587786259,12.625954198473282,-15.722722302246092,-5.664681127929687,5.032611889648437,-84.18320610687023,9.557251908396946,38.12213740458015,0.0
12.140000581741333,-8.164227661132813,-8.125920434570313,4.201823913574218,246.01526717557252,167.7709923664122,6.717557251908397,-17.994819677734373,-5.181052392578125,5.149927770996094,-74.29007633587786,-9.755725190839694,33.038167938931295,0.0
12.150000810623169,-19.47922470703125,5.473144995117187,2.114080065917969,251.26717557251908,174.44274809160305,-23.297709923664122,-18.619706311035156,-5.193023400878906,6.217741711425781,-57.06870229007634,-30.18320610687023,26.47328244274809,0.0
12.160000324249268,-16.907852124023435,4.405331054687499,0.28730419921875,216.83969465648855,154.33587786259542,-30.442748091603054,-17.053898425292967,-3.69664736328125,6.153098266601562,-38.12213740458015,-57.16030534351145,22.48854961832061,0.0
12.170000553131104,-19.93172882080078,8.743624462890624,2.463633508300781,185.4351145038168,152.70229007633588,-32.25954198473283,-14.250288281249999,-1.9225439331054686,5.1882349975585935,-33.45038167938932,-84.27480916030534,18.610687022900763,0.0
12.18000054359436,-18.87828009033203,16.852785485839842,6.054935998535156,115.8473282442748,123.12977099236642,-36.56488549618321,-13.014880224609374,-2.427720483398437,4.695029455566406,-33.465648854961835,-97.29770992366412,17.083969465648856,0.0
12.190001010894775,-5.928043310546875,0.5003881469726562,0.6655880615234374,69.20610687022901,84.91603053435115,-16.458015267175572,-12.502521069335936,-2.0638018310546875,3.746925598144531,-24.9618320610687,-108.56488549618321,16.015267175572518,0.0
12.200000524520874,-1.6927005737304686,-10.338162768554687,-2.0350714111328125,134.90076335877862,115.06870229007633,-2.1068702290076335,-11.250353601074218,-1.838746875,2.7581203125,-17.068702290076335,-112.99236641221374,9.969465648854962,0.0
12.21000075340271,-12.220005273437499,-0.076614453125,0.229843359375,164.74809160305344,131.95419847328245,-23.19083969465649,-15.519215161132811,-1.6112977172851561,3.5194764404296874,15.557251908396946,-105.37404580152672,3.954198473282443,0.0
12.220000505447388,-2.9041666137695312,-8.793902697753905,-1.697488977050781,162.10687022900763,111.64885496183206,-26.763358778625953,-15.251064575195311,-0.6057330200195312,2.04943662109375,46.13740458015267,-120.80916030534351,-2.595419847328244,0.0
12.230000495910645,-11.18571015625,0.08858546142578125,0.37828386230468747,208.68702290076337,145.0381679389313,-28.106870229007633,-12.842497705078124,2.3151930053710936,1.6352397338867186,38.38167938931298,-127.0381679389313,-12.564885496183207,0.0
12.24000072479248,-11.477802758789062,12.610260144042968,4.76924970703125,139.98473282442748,120.77862595419847,-50.62595419847328,-13.342885852050781,4.651933825683593,0.7972691528320313,23.083969465648856,-120.82442748091603,-20.931297709923665,0.0
12.250000715255737,-10.802637890625,14.961366174316405,3.2920272827148436,57.038167938931295,93.96946564885496,-62.13740458015267,-14.137760803222655,3.9049429077148434,0.06943184814453125,8.610687022900763,-114.35114503816794,-20.946564885496183,0.0
12.260000705718994,-11.183315954589844,13.800178369140625,1.3168109130859373,-24.061068702290076,60.900763358778626,-69.32824427480917,-13.608642236328125,2.1308394775390624,-0.47165772705078124,-15.007633587786259,-100.62595419847328,-14.045801526717558,0.0
12.270000696182251,-9.696516723632811,6.548141540527343,0.19871873779296872,-57.55725190839695,43.282442748091604,-65.45038167938931,-11.784260571289062,0.7781155395507812,-2.3535002319335936,-17.00763358778626,-101.12977099236642,-8.396946564885496,0.0
12.280001163482666,-7.208941198730468,4.659116430664063,-0.5817910034179687,-68.47328244274809,33.05343511450382,-61.954198473282446,-10.05564697265625,-1.0223241088867188,-1.8698714965820311,-27.81679389312977,-88.65648854961832,-4.305343511450381,0.0
12.290000677108765,-7.790732202148437,1.4724340209960938,-1.2713210815429687,-66.7175572519084,32.35114503816794,-54.99236641221374,-9.504980590820312,-1.20667763671875,-1.0486603271484374,-16.900763358778626,-79.34351145038168,-1.4045801526717556,0.0
12.3000009059906,-9.490615380859374,-0.0383072265625,-0.8738836059570312,-32.67175572519084,48.534351145038165,-46.70229007633588,-9.296685046386719,-1.8507178833007811,0.3112462158203125,-9.938931297709924,-71.25190839694656,-2.549618320610687,0.0
12.310000896453857,-8.820238916015624,-1.8363526733398436,-0.6464344482421874,5.435114503816794,60.54961832061068,-37.93893129770992,-9.409212524414063,-1.5011644409179687,1.235408056640625,8.442748091603054,-71.29770992366412,-6.854961832061068,0.0
12.320000648498535,-9.447519750976562,0.258573779296875,0.5913678100585937,27.862595419847327,71.5114503816794,-36.396946564885496,-7.560888842773437,1.5107412475585937,1.5466542724609373,-0.5343511450381679,-66.83969465648855,-14.427480916030534,0.0
12.330000638961792,-12.641384765624998,4.965574243164062,2.1021090576171875,25.755725190839694,79.6793893129771,-39.69465648854962,-9.153032946777342,-0.33758243408203126,3.0166940917968748,-1.1755725190839694,-56.152671755725194,-12.564885496183207,0.0
12.340000867843628,-12.792219470214842,9.349357482910156,2.9376854370117185,-2.549618320610687,73.92366412213741,-47.06870229007634,-9.464279162597656,-0.0047884033203125,2.128445275878906,-0.6564885496183206,-62.94656488549618,-17.17557251908397,0.0
12.350000619888306,-11.214440576171874,5.521029028320312,2.1715409057617188,-41.14503816793893,57.3587786259542,-48.33587786259542,-7.764395983886718,0.45968671875,1.9608511596679685,-14.885496183206106,-61.45038167938932,-22.412213740458014,0.0
12.360000610351562,-19.73540428466797,15.155296508789062,5.027823486328125,-71.96946564885496,58.396946564885496,-56.534351145038165,-9.330203869628905,-3.4859576171874997,3.1771056030273437,-10.564885496183207,-54.045801526717554,-20.244274809160306,0.0
12.37000036239624,-11.616666455078125,3.1842882080078123,1.599326708984375,-80.50381679389314,43.969465648854964,-49.00763358778626,-8.978256225585938,-2.6862942626953124,1.6041151123046875,4.1679389312977095,-64.06106870229007,-25.328244274809162,0.0
12.380000591278076,-12.866439721679686,7.448361364746093,1.7118541870117185,-90.16793893129771,32.12213740458015,-48.82442748091603,-9.950302099609374,-2.81558115234375,2.7078420776367187,14.564885496183207,-61.847328244274806,-27.358778625954198,0.0
12.390000343322754,-7.244854223632812,1.8459294799804686,0.59376201171875,-108.9618320610687,17.206106870229007,-41.48091603053435,-10.036493359375,-2.473210314941406,2.29843359375,40.30534351145038,-72.87022900763358,-31.236641221374047,0.0
12.40000057220459,-16.079458349609375,13.405135095214844,7.254431030273437,-122.65648854961832,22.366412213740457,-44.656488549618324,-10.280701928710936,-2.379836450195312,3.418919970703125,48.12213740458015,-70.80916030534351,-32.30534351145038,0.0
12.410000562667847,-11.168950744628905,7.659051110839843,1.2569558715820313,-176.0,-13.740458015267176,-33.32824427480916,-8.499415893554687,-0.97683427734375,2.3822306518554686,59.05343511450382,-80.2442748091603,-36.33587786259542,0.0
12.420000553131104,-18.58618748779297,12.612654345703124,1.8938135131835936,-187.5114503816794,-12.610687022900763,-23.770992366412212,-9.172186560058593,-0.8116343627929687,3.277662072753906,61.541984732824424,-79.72519083969466,-34.396946564885496,0.0
12.43000078201294,-10.939107385253905,5.719747766113281,0.3232172241210937,-221.89312977099237,-43.64885496183206,-7.32824427480916,-9.428366137695312,-0.4525041137695312,2.9951462768554684,59.770992366412216,-80.1526717557252,-33.20610687022901,0.0
12.440000534057617,-15.042769030761718,6.114791040039062,3.6942531616210936,-213.46564885496184,-44.01526717557252,8.458015267175572,-8.961496813964843,0.5722141967773438,3.5434184570312497,51.954198473282446,-77.58778625954199,-31.633587786259543,0.0
12.450000762939453,-13.239935180664062,1.2114660400390624,1.35990654296875,-213.64885496183206,-59.00763358778626,21.374045801526716,-7.994239343261718,1.7573440185546874,2.7198130859375,47.099236641221374,-80.7175572519084,-32.25954198473283,0.0
12.46000051498413,-11.851298217773437,-2.741360900878906,0.679953271484375,-170.3053435114504,-51.06870229007634,36.13740458015267,-8.722076647949219,0.25139117431640623,4.173093493652344,47.17557251908397,-76.54961832061069,-27.404580152671755,0.0
12.470000743865967,-6.4475850708007805,-7.577648254394531,0.6440402465820312,-122.44274809160305,-40.88549618320611,39.49618320610687,-8.20971749267578,0.08858546142578125,4.060566015625,45.29770992366412,-76.36641221374046,-25.786259541984734,0.0
12.480000495910645,-8.458714465332031,-5.487510205078125,3.488351818847656,-80.19847328244275,-16.763358778625953,27.17557251908397,-6.217741711425781,-0.5602431884765625,4.881777185058594,43.83206106870229,-73.22137404580153,-26.396946564885496,0.0
12.490000486373901,-6.926425402832031,-6.361393811035156,2.2601263671875,-60.33587786259542,-14.412213740458014,13.816793893129772,-5.439626171875,0.584185205078125,4.290409374999999,44.79389312977099,-73.87786259541984,-28.33587786259542,0.0
12.500000476837158,-5.679046337890624,-4.173093493652344,0.7062894897460937,-25.587786259541986,-4.473282442748092,2.7022900763358777,-6.423643054199219,0.22266075439453123,5.295974072265625,37.7557251908397,-63.954198473282446,-27.206106870229007,0.0
12.510000705718994,-6.282385156249999,-4.5322237426757805,1.3575123413085937,-7.801526717557252,14.793893129770993,-5.00763358778626,-5.6766521362304685,1.2114660400390624,4.405331054687499,34.10687022900763,-64.36641221374046,-29.129770992366414,0.0
12.52000093460083,-6.8569935546875,-3.6942531616210936,1.5059528442382812,23.068702290076335,35.221374045801525,-13.633587786259541,-6.452373474121093,0.7422025146484375,4.991910461425781,22.259541984732824,-55.25190839694657,-27.984732824427482,0.0
12.530000686645508,-7.0102224609374995,-1.908178723144531,1.0941501586914062,39.49618320610687,44.48854961832061,-23.923664122137403,-8.073247998046874,0.6272808349609375,4.8698061767578125,24.18320610687023,-54.900763358778626,-26.0,0.0
12.540000677108765,-7.735665563964844,-0.70868369140625,1.1252747802734375,52.213740458015266,53.37404580152672,-28.48854961832061,-5.379771130371093,2.195482922363281,3.778050219726562,10.488549618320612,-55.05343511450382,-29.114503816793892,0.0
12.550000429153442,-7.764395983886718,1.0630255371093749,1.0606313354492187,59.38931297709924,59.57251908396947,-30.061068702290076,-6.076483813476562,1.9991583862304687,4.2329485351562495,-7.343511450381679,-40.97709923664122,-27.297709923664122,0.0
12.560000896453857,-8.717288244628906,3.1962592163085937,1.4245499877929686,56.51908396946565,63.603053435114504,-31.572519083969464,-5.635950708007812,2.269703173828125,3.5003228271484375,-14.244274809160306,-41.55725190839695,-25.557251908396946,0.0
12.570000648498535,-9.718064538574218,4.61602080078125,1.4053963745117186,47.11450381679389,62.13740458015267,-29.938931297709924,-7.71890615234375,0.430956298828125,4.5322237426757805,-21.6793893129771,-31.251908396946565,-19.267175572519083,0.0
12.580000877380371,-10.682927807617187,5.228936425781249,2.0566192260742184,35.49618320610687,61.52671755725191,-25.740458015267176,-6.143521459960938,1.4053963745117186,3.766079211425781,-25.389312977099237,-32.44274809160305,-19.19083969465649,0.0
12.590000629425049,-11.006145031738281,5.513846423339843,2.1619640991210938,23.282442748091604,55.55725190839695,-22.549618320610687,-7.220912207031249,-0.086191259765625,4.563348364257812,-27.938931297709924,-25.374045801526716,-16.3206106870229,0.0
12.600000381469727,-11.295843432617186,5.8083332275390624,2.3439234252929686,6.641221374045801,49.93893129770992,-17.633587786259543,-5.683834741210937,0.6248866333007812,4.043806604003906,-31.633587786259543,-24.519083969465647,-17.557251908396946,0.0
12.610000371932983,-10.850521923828124,4.448426684570312,2.003946789550781,-5.190839694656488,41.83206106870229,-12.80916030534351,-7.809885815429687,-0.9433154541015625,4.733336682128906,-28.259541984732824,-18.80916030534351,-13.557251908396946,0.0
12.62000036239624,-12.018892333984374,4.7117888671875,3.0813375366210938,-11.099236641221374,44.0763358778626,-11.267175572519085,-5.329492895507812,-0.06464344482421874,4.199429711914062,-31.267175572519083,-18.519083969465647,-16.53435114503817,0.0
12.630000591278076,-11.382034692382812,3.852270471191406,2.8730419921875,-16.85496183206107,39.541984732824424,-9.816793893129772,-6.8593877563476555,-1.407790576171875,4.6830584472656245,-25.114503816793892,-11.83206106870229,-14.778625954198473,0.0
12.640000581741333,-11.305420239257812,3.744531396484375,2.8993782104492185,-24.763358778625953,34.3206106870229,-9.98473282442748,-5.717353564453124,-1.0510545288085937,4.414907861328125,-24.702290076335878,-8.763358778625955,-16.900763358778626,0.0
12.650000810623169,-9.926360083007811,2.2170307373046874,2.1715409057617188,-25.908396946564885,30.061068702290076,-7.267175572519084,-6.983886242675781,-2.0661960327148434,4.666299035644531,-15.84732824427481,-3.5877862595419847,-16.03053435114504,0.0
12.660000324249268,-9.466673364257812,1.8818425048828125,2.2601263671875,-23.87786259541985,31.69465648854962,-7.541984732824427,-6.325480786132812,-1.8459294799804686,4.438849877929687,-10.122137404580153,-3.2977099236641223,-17.66412213740458,0.0
12.670000553131104,-9.299079248046874,1.2785036865234374,1.9656395629882812,-23.52671755725191,31.84732824427481,-9.48091603053435,-6.782773303222656,-2.2026655273437497,4.551377355957031,-2.50381679389313,-0.5038167938931297,-18.50381679389313,0.0
12.680000305175781,-8.985438830566405,1.1037269653320312,2.1691467041015624,-20.870229007633586,33.63358778625954,-11.038167938931299,-6.141127258300781,-2.020706201171875,4.390965844726562,2.030534351145038,1.5877862595419847,-21.282442748091604,0.0
12.690000295639038,-9.313444458007812,1.8291700683593748,2.578555187988281,-20.68702290076336,35.16030534351145,-14.030534351145038,-6.806715319824218,-2.3343466186523436,4.563348364257812,9.129770992366412,4.534351145038168,-21.984732824427482,0.0
12.700000524520874,-10.295067138671874,1.898601916503906,2.518700146484375,-27.17557251908397,30.458015267175572,-15.450381679389313,-6.351817004394531,-1.7429788085937499,4.302380383300781,13.86259541984733,4.916030534351145,-23.083969465648856,0.0
12.71000051498413,-9.399635717773437,1.4030021728515625,2.9376854370117185,-22.549618320610687,30.748091603053435,-13.49618320610687,-6.291961962890625,-1.6448165405273436,4.216189123535156,18.68702290076336,7.068702290076335,-22.061068702290076,0.0
12.720000505447388,-9.509768994140625,1.2665326782226562,2.8203695556640622,-20.244274809160306,28.27480916030534,-14.213740458015268,-6.232106921386718,-1.618480322265625,4.010287780761718,21.19083969465649,9.938931297709924,-21.69465648854962,0.0
12.730000734329224,-9.191340173339842,1.455674609375,3.833116857910156,-15.664122137404581,26.82442748091603,-15.282442748091603,-5.9974751586914055,-1.4532804077148436,3.6631285400390623,24.12213740458015,13.816793893129772,-22.229007633587788,0.0
12.740000486373901,-9.526528405761718,1.6448165405273436,4.321533996582031,-10.412213740458014,22.564885496183205,-16.53435114503817,-6.028599780273437,-1.5370774658203123,3.162740393066406,25.541984732824428,19.328244274809162,-22.946564885496183,0.0
12.750000476837158,-9.356540087890625,2.0638018310546875,5.609614489746093,-2.3969465648854964,17.557251908396946,-16.03053435114504,-6.069301208496094,-1.9752163696289062,2.8203695556640622,27.31297709923664,25.31297709923664,-23.83206106870229,0.0
12.760000467300415,-9.696516723632811,2.442085693359375,6.995857250976562,2.9923664122137406,11.267175572519085,-16.259541984732824,-5.767631799316406,-1.7286135986328124,2.2840683837890623,27.954198473282442,31.862595419847327,-28.641221374045802,0.0
12.770000696182251,-9.813832604980469,3.2800562744140622,7.955932116699218,11.755725190839694,6.106870229007634,-15.083969465648854,-4.742913488769531,-1.5011644409179687,2.0733786376953125,16.03053435114504,49.38931297709924,-35.954198473282446,0.0
12.780000686645508,-10.194510668945313,4.168305090332031,8.8872765625,14.427480916030534,-2.1068702290076335,-14.229007633587786,-5.250484240722656,-3.0023288818359375,1.675941162109375,9.740458015267176,67.29770992366412,-40.534351145038165,0.0
12.790000677108765,-11.899182250976562,4.311957189941406,9.694122521972655,13.694656488549619,-14.290076335877863,-13.603053435114504,-7.524975817871093,-3.7134067749023436,0.7015010864257812,15.083969465648854,82.36641221374046,-44.961832061068705,0.0
12.8000009059906,-12.959813586425781,4.390965844726562,10.927136376953124,12.488549618320612,-28.35114503816794,-12.351145038167939,-8.06367119140625,-1.2808978881835937,-0.6871358764648438,15.145038167938932,99.69465648854961,-53.05343511450382,0.0
12.810000658035278,-15.140931298828123,4.728548278808593,12.303802331542968,9.84732824427481,-45.847328244274806,-12.65648854961832,-11.279084020996093,-2.0566192260742184,2.9951462768554684,19.00763358778626,119.37404580152672,-52.091603053435115,0.0
12.820000648498535,-18.899827905273437,4.467580297851562,13.747505932617187,-1.1297709923664123,-73.45038167938931,-15.129770992366412,-13.716381311035155,1.0342951171875,8.801085302734375,22.27480916030534,113.0381679389313,-49.98473282442748,0.0
12.830000638961792,-19.294871179199216,2.4492682983398435,14.018050720214843,0.366412213740458,-105.80152671755725,-11.770992366412214,-15.413870288085937,-0.4165910888671875,13.694833496093748,8.900763358778626,109.14503816793894,-44.74809160305343,0.0
12.840000867843628,-19.553444958496094,1.47482822265625,14.999673400878905,2.9770992366412212,-135.1908396946565,-8.641221374045802,-10.520122094726561,8.576030346679687,6.449979272460937,-8.396946564885496,91.46564885496183,-42.0763358778626,0.0
12.850000858306885,-18.86630908203125,1.3718775512695311,15.938200451660155,9.282442748091603,-165.4198473282443,-3.66412213740458,-7.754819177246094,10.68053360595703,1.9728221679687499,-54.06106870229008,112.97709923664122,-28.53435114503817,0.0
12.860000610351562,-19.024326391601562,2.2601263671875,14.994884997558593,6.427480916030534,-192.51908396946564,3.5877862595419847,-7.445967163085937,11.748347546386718,-1.24498486328125,-80.56488549618321,112.6412213740458,-5.145038167938932,0.0
12.87000036239624,-16.958130358886716,1.6208745239257811,11.130643518066405,-2.4885496183206106,-223.14503816793894,10.335877862595419,-7.1203557373046875,8.200140686035155,2.422932080078125,-112.45801526717557,118.44274809160305,16.290076335877863,0.0
12.880000591278076,-15.770606335449218,1.5442600708007812,4.398148449707031,-17.83206106870229,-239.64885496183206,21.17557251908397,-9.397241516113281,-0.40940848388671874,4.695029455566406,-112.85496183206106,116.73282442748092,32.6412213740458,0.0
12.890000581741333,-14.183250634765624,1.4221557861328125,2.128445275878906,-34.01526717557252,-246.54961832061068,23.603053435114504,-3.9839515624999997,1.4628572143554686,1.4317325927734375,-109.46564885496183,86.35114503816794,26.3206106870229,0.0
12.90000057220459,-12.71081661376953,0.8810662109374999,-0.9002198242187499,-43.20610687022901,-245.206106870229,27.14503816793893,-8.398859423828124,12.706028210449219,-1.3120225097656248,-172.25954198473283,106.30534351145039,20.442748091603054,0.0
12.910000324249268,-11.755530151367187,-0.4070142822265625,-5.68862314453125,-65.08396946564885,-236.19847328244273,31.282442748091604,-10.35492218017578,3.239354846191406,2.3367408203125,-214.35114503816794,126.33587786259542,35.16030534351145,0.0
12.920000553131104,-8.643067993164061,-2.6886884643554687,-2.7964275390625,-69.92366412213741,-222.12213740458014,32.29007633587786,-10.658985791015624,6.543353137207031,-2.43250888671875,-213.80152671755727,108.3206106870229,44.458015267175576,0.0
12.930000305175781,-5.97592734375,-5.616797094726562,-1.0678139404296874,-45.038167938931295,-200.10687022900763,29.267175572519083,-9.80665,-1.5682020874023437,-0.7948749511718749,-245.34351145038167,117.87786259541984,46.48854961832061,0.0
12.940000772476196,-5.370194323730469,-4.826710546875,1.3287819213867187,-11.84732824427481,-169.55725190839695,26.198473282442748,-12.77546005859375,-9.787496386718749,0.23702596435546874,-207.34351145038167,118.99236641221374,58.33587786259542,0.0
12.950000524520874,-6.6151791870117185,-3.9695863525390624,2.8107927490234372,17.954198473282442,-142.54961832061068,17.282442748091604,-9.234435803222656,-17.010802795410154,-0.46208092041015625,-137.58778625954199,92.06106870229007,60.44274809160305,0.0
12.96000051498413,-6.7037646484375,-3.5673604736328124,1.0223241088867188,46.778625954198475,-125.6793893129771,9.801526717557252,-11.243170996093749,-17.25022296142578,-0.5147533569335937,-64.9618320610687,72.1526717557252,58.16793893129771,0.0
12.970000743865967,-8.698134631347656,-0.0430956298828125,2.4564509033203126,60.38167938931298,-101.31297709923665,0.366412213740458,-7.601590270996093,-11.180921752929686,-2.4492682983398435,-28.671755725190838,50.48854961832061,43.847328244274806,0.0
12.980000495910645,-9.3852705078125,2.379836450195312,2.863465185546875,48.76335877862596,-102.03053435114504,-1.1450381679389312,-9.672574707031249,-8.111555224609374,-1.0893617553710937,-5.6183206106870225,49.12977099236641,36.2442748091603,0.0
12.990000486373901,-10.979808813476561,3.4835634155273434,4.1946413085937495,32.213740458015266,-96.62595419847328,4.854961832061068,-10.218452685546874,-6.114791040039062,-0.35194764404296874,4.809160305343512,50.99236641221374,30.595419847328245,0.0
13.000000476837158,-11.137826123046874,3.1004911499023438,4.534617944335937,21.755725190839694,-97.57251908396947,13.099236641221374,-10.20169327392578,-4.979939453125,0.20350714111328125,16.595419847328245,50.19847328244275,28.625954198473284,0.0
13.010000705718994,-11.360486877441405,3.5960908935546874,4.474762902832031,8.427480916030534,-97.49618320610686,22.15267175572519,-10.79545528564453,-1.2952630981445312,0.19393033447265623,19.221374045801525,52.25954198473283,28.18320610687023,0.0
13.020000696182251,-9.414000927734374,1.0079588989257813,2.6695348510742187,4.229007633587786,-100.44274809160305,30.259541984732824,-9.227253198242186,1.886630908203125,0.7398083129882812,-5.343511450381679,60.01526717557252,28.137404580152673,0.0
13.030000686645508,-9.4618849609375,1.1013327636718748,2.3343466186523436,-6.854961832061068,-97.48091603053435,30.03053435114504,-9.14824454345703,-0.6703764648437499,1.9728221679687499,-15.938931297709924,70.8854961832061,36.900763358778626,0.0
13.040000677108765,-5.0014872680664055,-2.1883003173828124,0.93852705078125,-2.854961832061069,-99.17557251908397,34.35114503816794,-9.289502441406249,-0.45010991210937495,0.6392518432617187,-16.442748091603054,72.09160305343511,42.12213740458015,0.0
13.050000667572021,-5.042188696289062,-0.5195417602539062,0.7493851196289062,4.320610687022901,-80.77862595419847,29.633587786259543,-9.038111267089842,-1.9321207397460936,1.350329736328125,-27.083969465648856,79.38931297709924,45.587786259541986,0.0
13.060000896453857,-4.740519287109374,-0.469263525390625,-0.4333505004882812,2.4580152671755724,-76.94656488549619,25.053435114503817,-10.407594616699217,-5.348646508789062,2.3630770385742186,-11.786259541984732,82.16793893129771,49.70992366412214,0.0
13.070000410079956,-3.447650390625,-0.8882488159179687,0.46686932373046874,7.267175572519084,-62.274809160305345,21.61832061068702,-9.409212524414063,-4.211400720214844,0.7278373046875,2.015267175572519,73.49618320610686,47.465648854961835,0.0
13.080000638961792,-0.8044517578125,-1.936909143066406,-0.6679822631835937,15.282442748091603,-54.25954198473283,20.244274809160306,-10.963049401855468,-11.477802758789062,3.612850305175781,23.31297709923664,79.80152671755725,51.49618320610687,0.0
13.090000629425049,-2.3678654418945313,-0.2753331909179687,1.2880804931640624,19.908396946564885,-33.6793893129771,14.076335877862595,-7.948749511718749,-5.322310290527343,0.7422025146484375,46.50381679389313,55.9236641221374,43.725190839694655,0.0
13.100000619888306,-2.729389892578125,1.1013327636718748,2.2074539306640624,18.076335877862597,-22.931297709923665,9.740458015267176,-12.521674682617187,-6.021417175292968,1.7357962036132812,57.51145038167939,55.11450381679389,40.70229007633588,0.0
13.110000610351562,-1.5849614990234373,1.0726023437499999,2.24097275390625,20.717557251908396,-11.221374045801527,12.885496183206106,-10.290278735351562,-3.6631285400390623,0.6392518432617187,64.45801526717557,38.732824427480914,29.923664122137403,0.0
13.12000036239624,-0.9911994873046874,1.235408056640625,3.361459130859375,17.69465648854962,-2.7786259541984735,14.427480916030534,-14.10903038330078,-6.845022546386718,4.182670300292968,62.33587786259542,50.595419847328245,28.65648854961832,0.0
13.130000829696655,-3.73495458984375,3.5146880371093747,5.80354482421875,-1.6793893129770991,0.732824427480916,12.992366412213741,-9.928754284667969,-5.298368273925781,2.4396914916992185,88.9618320610687,21.282442748091604,20.015267175572518,0.0
13.140000581741333,-2.3582886352539063,2.118868469238281,6.8569935546875,-3.053435114503817,3.9083969465648853,18.229007633587788,-11.784260571289062,-3.7110125732421873,3.399766357421875,93.16030534351145,16.03053435114504,14.82442748091603,0.0
13.150000810623169,-1.5945383056640625,2.0757728393554684,7.805097412109374,7.251908396946565,10.396946564885496,24.244274809160306,-8.786720092773438,2.4564509033203126,0.8164227661132812,78.21374045801527,2.2595419847328246,4.977099236641221,0.0
13.160000562667847,-3.5506010620117183,3.3016040893554686,9.9215716796875,2.381679389312977,12.16793893129771,26.0,-13.053187451171874,-2.042254016113281,5.066130712890625,61.969465648854964,21.87786259541985,12.213740458015268,0.0
13.170000553131104,-4.165910888671875,4.6255976074218745,10.79545528564453,-4.0458015267175576,8.916030534351146,29.954198473282442,-11.020510241699219,0.8547299926757812,1.01514150390625,67.58778625954199,-4.5038167938931295,9.664122137404581,0.0
13.18000054359436,-5.710170959472656,5.137956762695312,11.29344923095703,-13.206106870229007,6.442748091603053,32.091603053435115,-13.749900134277343,-0.97683427734375,2.6479870361328124,60.29007633587786,0.8702290076335878,13.32824427480916,0.0
13.190000772476196,-6.030993981933594,5.391742138671875,9.885658654785155,-30.30534351145038,-4.290076335877862,34.961832061068705,-10.836156713867187,0.737414111328125,0.8259995727539062,50.595419847328245,-15.32824427480916,9.358778625954198,0.0
13.200000524520874,-3.469198205566406,3.4811692138671875,7.196970190429687,-32.01526717557252,-3.1297709923664123,39.9236641221374,-8.511386901855468,4.735730883789063,-1.0031704956054688,16.68702290076336,-18.900763358778626,3.877862595419847,0.0
13.21000075340271,-3.3446997192382812,4.61602080078125,5.181052392578125,-49.23664122137404,-0.8549618320610687,37.87786259541985,-9.643844287109374,2.7150246826171873,1.2952630981445312,-21.709923664122137,5.755725190839694,12.870229007633588,0.0
13.220000267028809,-3.450044592285156,3.679887951660156,1.120486376953125,-80.04580152671755,-1.4961832061068703,38.213740458015266,-11.130643518066405,-0.7158662963867187,1.1013327636718748,-30.977099236641223,4.442748091603053,21.022900763358777,0.0
13.230000495910645,-1.9656395629882812,0.6368576416015624,-3.066972326660156,-101.8473282442748,11.358778625954198,37.038167938931295,-9.334992272949219,1.659181750488281,-0.36391865234375,-56.213740458015266,3.114503816793893,19.267175572519083,0.0
13.24000072479248,2.9185318237304685,-4.903325,-7.041347082519531,-78.30534351145039,38.68702290076336,41.81679389312977,-10.764330664062498,0.55545478515625,0.7685387329101562,-73.22137404580153,18.458015267175572,26.946564885496183,0.0
13.250000476837158,4.879382983398437,-10.381258398437499,-6.756437084960937,-32.534351145038165,84.04580152671755,43.11450381679389,-10.747571252441405,-1.1372457885742187,1.4125789794921875,-83.06870229007633,25.114503816793892,33.725190839694655,0.0
13.260000705718994,4.304774584960938,-19.029114794921874,3.31357509765625,43.83206106870229,114.06106870229007,33.9236641221374,-13.843273999023436,-4.525041137695312,2.5043349365234375,-74.82442748091603,25.84732824427481,40.29007633587786,0.0
13.27000093460083,-3.5601778686523438,-18.181567407226563,19.673155041503904,203.23664122137404,167.23664122137404,32.29007633587786,-13.855245007324218,-5.674257934570313,3.0885201416015624,-66.47328244274809,19.96946564885496,40.2442748091603,0.0
13.280000686645508,-13.730746520996092,9.756371765136718,8.91840118408203,245.7709923664122,177.00763358778627,9.404580152671755,-15.215151550292967,-5.200206005859375,3.5913024902343746,-62.274809160305345,14.396946564885496,34.595419847328245,0.0
13.290000677108765,-14.39633458251953,3.5482068603515624,4.92247861328125,193.64885496183206,160.83969465648855,-2.0763358778625953,-16.0507279296875,-3.6846763549804686,3.986345764160156,-64.18320610687023,3.7709923664122136,29.557251908396946,0.0
13.300000429153442,-13.467384338378906,-0.584185205078125,-7.714117749023437,172.01526717557252,159.87786259541986,-9.114503816793894,-16.249446667480466,-2.8107927490234372,5.286397265624999,-65.93893129770993,-8.961832061068701,28.16793893129771,0.0
13.3100004196167,-20.970812341308594,1.6256629272460936,0.9433154541015625,171.0381679389313,172.04580152671755,-20.0,-15.538368774414062,-2.9951462768554684,5.724536169433593,-55.25190839694657,-28.53435114503817,28.33587786259542,0.0
13.320001125335693,-12.203245861816406,-7.924807495117187,-2.980781066894531,168.0,139.0229007633588,-14.045801526717558,-13.45780753173828,-1.5777788940429687,6.402095239257812,-54.44274809160305,-46.47328244274809,27.251908396946565,0.0
13.330000400543213,-12.387599389648436,-0.5267243652343749,0.1484405029296875,215.86259541984734,178.6259541984733,-9.007633587786259,-11.700463513183593,-1.9416975463867185,4.932055419921875,-53.51145038167939,-63.14503816793893,24.0,0.0
13.340001106262207,-15.957354064941406,10.034099157714843,6.892906579589844,157.06870229007635,152.3969465648855,-38.33587786259542,-12.488155859374999,-2.6958710693359373,5.434837768554687,-48.274809160305345,-70.3206106870229,22.870229007633586,0.0
13.350000619888306,-4.642357019042969,0.1867477294921875,-2.1906945190429687,111.02290076335878,113.90839694656489,-32.99236641221374,-13.472172741699218,-5.085284326171875,5.444414575195312,-25.206106870229007,-84.18320610687023,22.9618320610687,0.0
13.360000610351562,-4.467580297851562,-3.2154128295898436,-3.9887399658203124,153.96946564885496,136.10687022900763,-14.65648854961832,-12.334926953124999,-5.76523759765625,5.511452221679687,-11.648854961832061,-95.22137404580153,20.015267175572518,0.0
13.370000839233398,-11.654973681640625,6.5218053222656245,2.480392919921875,146.65648854961833,143.17557251908397,-24.27480916030534,-11.674127294921874,-4.876988781738281,3.69664736328125,3.267175572519084,-105.6793893129771,8.793893129770993,0.0
13.380000591278076,-11.537657800292967,7.785943798828124,3.31357509765625,83.40458015267176,115.86259541984732,-34.38167938931298,-11.161768139648437,-2.6408044311523438,2.269703173828125,13.84732824427481,-110.6412213740458,-5.099236641221374,0.0
13.390000581741333,-12.928688964843749,9.943119494628906,3.768473413085937,24.610687022900763,98.94656488549619,-40.44274809160305,-11.604695446777344,-1.8698714965820311,1.4030021728515625,25.587786259541986,-114.19847328244275,-13.938931297709924,0.0
13.400000810623169,-12.258312499999999,7.3286512817382805,3.3303345092773435,-26.458015267175572,76.74809160305344,-47.847328244274806,-9.689334118652344,0.8738836059570312,0.17477672119140625,22.671755725190838,-113.09923664122137,-23.022900763358777,0.0
13.410001039505005,-10.807426293945312,5.6383449096679685,2.999934680175781,-61.69465648854962,56.58015267175573,-51.221374045801525,-11.180921752929686,0.8259995727539062,0.9409212524414062,22.076335877862597,-105.90839694656489,-21.84732824427481,0.0
13.420000553131104,-10.412383020019531,1.0510545288085937,1.3383587280273437,-61.45038167938932,45.45038167938932,-49.282442748091604,-11.767501159667969,-0.699106884765625,1.3048399047851562,36.06106870229008,-105.69465648854961,-18.793893129770993,0.0
13.43000078201294,-8.391676818847655,-3.385401147460937,0.32082302246093747,-25.52671755725191,48.54961832061068,-42.70229007633588,-10.544064111328124,0.06703764648437499,0.5003881469726562,34.36641221374046,-108.50381679389314,-21.419847328244273,0.0
13.440000772476196,-10.070012182617187,1.0414777221679687,1.5083470458984374,-1.9083969465648856,52.79389312977099,-42.717557251908396,-10.797849487304687,-0.6943184814453125,-0.14125789794921875,30.931297709923665,-98.91603053435115,-19.358778625954198,0.0
13.450000762939453,-8.386888415527343,1.177947216796875,-0.8667010009765624,-1.1450381679389312,46.67175572519084,-40.70229007633588,-10.206481677246094,1.7094599853515624,-0.63206923828125,35.23664122137404,-100.19847328244275,-18.717557251908396,0.0
13.46000051498413,-9.334992272949219,2.3151930053710936,-0.01915361328125,16.53435114503817,58.458015267175576,-37.51145038167939,-9.988609326171874,2.068590234375,-0.6847416748046875,18.9618320610687,-89.57251908396947,-19.083969465648856,0.0
13.470000743865967,-8.444349255371094,1.5011644409179687,-0.3806780639648437,20.916030534351144,58.33587786259542,-32.16793893129771,-8.058882788085937,2.269703173828125,-0.9935936889648437,-9.465648854961833,-74.53435114503817,-21.31297709923664,0.0
13.480000495910645,-9.260772021484375,4.841075756835937,1.675941162109375,28.27480916030534,67.26717557251908,-31.64885496183206,-8.695740429687499,0.05027823486328125,-0.1292868896484375,-22.137404580152673,-59.29770992366412,-17.587786259541986,0.0
13.490000486373901,-9.323021264648437,4.084508032226562,0.5339069702148437,17.17557251908397,61.404580152671755,-31.81679389312977,-9.299079248046874,0.17956512451171874,-0.201112939453125,-27.81679389312977,-54.99236641221374,-20.33587786259542,0.0
13.500000476837158,-12.571952917480468,8.769960681152343,3.4093431640625,7.633587786259542,67.0381679389313,-35.00763358778626,-8.29351455078125,-0.5961562133789062,0.4477157104492187,-35.57251908396947,-46.94656488549618,-21.72519083969466,0.0
13.510000705718994,-10.845733520507812,4.661510632324219,1.68551796875,-22.717557251908396,49.725190839694655,-33.038167938931295,-10.474632263183594,-2.6886884643554687,1.426944189453125,-22.03053435114504,-38.70229007633588,-20.137404580152673,0.0
13.520000696182251,-9.672574707031249,1.7597382202148437,1.235408056640625,-20.366412213740457,46.62595419847328,-31.51145038167939,-10.548852514648438,-3.6918589599609373,1.9752163696289062,-3.7709923664122136,-41.404580152671755,-24.748091603053435,0.0
13.530000686645508,-17.324443212890625,11.915941662597655,4.510675927734375,-41.57251908396947,49.9236641221374,-40.3206106870229,-11.274295617675781,-4.6255976074218745,2.5617957763671875,24.16793893129771,-45.587786259541986,-27.709923664122137,0.0
13.540001153945923,-11.681309899902343,6.203376501464843,3.6343981201171873,-58.961832061068705,35.49618320610687,-35.48091603053435,-9.564835632324218,-2.6815058593749996,1.7214309936523438,45.282442748091604,-57.29770992366412,-36.25954198473283,0.0
13.550000667572021,-7.067683300781249,-2.0063409912109376,0.040701428222656245,-50.33587786259542,27.69465648854962,-26.53435114503817,-9.720458740234374,-2.9544448486328125,1.9967641845703124,58.732824427480914,-60.74809160305343,-39.29770992366412,0.0
13.560000896453857,-7.987056738281249,0.1005564697265625,1.0965443603515623,-33.38931297709924,33.70992366412214,-25.541984732824428,-8.166621862792969,-0.6248866333007812,1.3910311645507811,59.3587786259542,-61.37404580152672,-45.404580152671755,0.0
13.570000886917114,-19.493589916992185,19.83117235107422,9.090783703613281,-94.7175572519084,30.870229007633586,-44.85496183206107,-10.299855541992187,-1.9512743530273435,2.5761609863281247,70.42748091603053,-57.66412213740458,-42.62595419847328,0.0
13.580000877380371,-18.006790686035156,20.503943017578123,4.783614916992187,-219.12977099236642,-25.893129770992367,-47.57251908396947,-10.089165795898436,-1.0702081420898437,2.023100402832031,73.05343511450381,-64.13740458015268,-42.79389312977099,0.0
13.590000629425049,-12.088324182128906,7.0102224609374995,0.26336218261718747,-246.53435114503816,-55.099236641221374,-18.458015267175572,-8.590395556640624,1.0893617553710937,1.6328455322265625,68.54961832061069,-72.07633587786259,-42.916030534351144,0.0
13.600000381469727,-19.35712042236328,11.145008728027342,5.4515971801757805,-227.58778625954199,-33.87786259541985,-5.801526717557252,-10.812214697265624,-1.0199299072265624,3.8666356811523435,64.22900763358778,-68.4885496183206,-36.74809160305343,0.0
13.610000848770142,-15.217545751953125,6.2584431396484375,0.70868369140625,-263.8625954198473,-83.69465648854961,7.923664122137405,-10.273519323730468,-0.9433154541015625,3.9336733276367184,66.79389312977099,-77.48091603053435,-36.48854961832061,0.0
13.62000060081482,-9.928754284667969,-6.789955908203124,-2.3535002319335936,-211.58778625954199,-85.81679389312977,37.465648854961835,-9.088389501953124,1.6160861206054686,4.046200805664062,60.93129770992366,-82.22900763358778,-36.030534351145036,0.0
13.630000352859497,-10.759542260742187,-6.766013891601562,1.1827356201171875,-143.75572519083968,-56.85496183206107,41.61832061068702,-7.68059892578125,0.7613561279296874,4.084508032226562,55.00763358778626,-83.58778625954199,-33.908396946564885,0.0
13.640000343322754,-8.09479581298828,-6.291961962890625,1.4341267944335936,-108.54961832061069,-51.6793893129771,29.022900763358777,-7.896077075195312,1.4532804077148436,4.225765930175781,59.66412213740458,-86.18320610687023,-31.435114503816795,0.0
13.650000810623169,-3.6727053466796873,-11.595118640136718,-0.229843359375,-53.45038167938932,-37.16030534351145,28.85496183206107,-7.005434057617187,2.1835119140624997,4.817133740234374,56.48854961832061,-81.74045801526718,-28.641221374045802,0.0
13.660000324249268,-5.796362219238281,-5.542576843261719,2.6048914062499997,-3.648854961832061,1.8473282442748091,7.190839694656488,-5.425260961914062,1.4101847778320311,5.468356591796875,39.80152671755725,-74.61068702290076,-27.17557251908397,0.0
13.670000553131104,-6.6151791870117185,-3.404554760742187,1.707065783691406,5.343511450381679,4.717557251908397,-7.816793893129771,-4.9823336547851556,1.9991583862304687,4.7117888671875,34.51908396946565,-72.85496183206106,-28.290076335877863,0.0
13.68000054359436,-4.53940634765625,-4.225765930175781,0.97683427734375,37.25190839694657,22.290076335877863,-9.969465648854962,-5.7700260009765625,1.6352397338867186,5.2816088623046875,23.16030534351145,-62.54961832061068,-25.603053435114504,0.0
13.690000772476196,-6.265625744628906,-2.418143676757812,1.4101847778320311,58.595419847328245,38.2442748091603,-18.50381679389313,-7.864952453613281,1.1156979736328125,4.994304663085937,18.885496183206108,-60.29007633587786,-21.49618320610687,0.0
13.700000524520874,-6.5960255737304685,-0.8283937744140625,1.22583125,72.93129770992367,49.05343511450382,-26.38167938931298,-5.272032055664062,3.878606689453125,3.421314172363281,6.427480916030534,-62.93129770992366,-24.12213740458015,0.0
13.71000075340271,-7.56567724609375,1.22583125,1.139639990234375,78.80916030534351,56.12213740458015,-29.786259541984734,-5.604826086425781,2.6623522460937497,3.890577697753906,-11.908396946564885,-50.51908396946565,-21.64885496183206,0.0
13.720000267028809,-8.700528833007812,3.670311145019531,1.5825672973632812,72.8854961832061,58.900763358778626,-31.938931297709924,-6.392518432617187,1.7645266235351562,3.7397429931640622,-25.297709923664122,-43.3587786259542,-17.129770992366414,0.0
13.730000495910645,-10.297461340332031,5.664681127929687,2.1691467041015624,58.030534351145036,56.62595419847328,-30.30534351145038,-9.179369165039063,-0.55545478515625,4.237736938476562,-21.206106870229007,-41.770992366412216,-10.961832061068701,0.0
13.74000072479248,-10.960655200195312,5.961562133789062,2.418143676757812,45.16030534351145,52.10687022900763,-24.366412213740457,-6.833051538085937,-0.5051765502929687,3.9983167724609374,-24.885496183206108,-42.68702290076336,-12.83969465648855,0.0
13.750000476837158,-11.130643518066405,6.179434484863281,2.3247698120117186,30.916030534351144,45.52671755725191,-18.229007633587788,-7.867346655273437,-0.8667010009765624,4.244919543457031,-19.480916030534353,-38.82442748091603,-12.244274809160306,0.0
13.760000944137573,-11.360486877441405,6.100425830078125,2.770091320800781,14.396946564885496,39.404580152671755,-12.977099236641221,-7.42441934814453,-1.3072341064453123,4.467580297851562,-20.763358778625953,-34.79389312977099,-12.702290076335878,0.0
13.77000093460083,-12.457031237792968,6.528987927246093,3.39018955078125,-1.1908396946564885,33.69465648854962,-9.770992366412214,-4.599261389160156,0.00718260498046875,3.5506010620117183,-26.15267175572519,-34.045801526717554,-15.145038167938932,0.0
13.780000686645508,-12.931083166503905,6.964732629394531,3.5577836669921874,-18.50381679389313,25.587786259541986,-7.572519083969466,-7.438784558105469,-2.0566192260742184,4.357447021484375,-20.68702290076336,-25.16030534351145,-9.740458015267176,0.0
13.790000438690186,-10.505756884765624,3.4907460205078125,2.29843359375,-27.51145038167939,17.587786259541986,-0.9618320610687023,-6.5768719604492185,-1.5227122558593749,4.2497079467773435,-16.229007633587788,-25.17557251908397,-10.15267175572519,0.0
13.8000009059906,-10.417171423339843,2.834734765625,2.437297290039062,-27.14503816793893,20.702290076335878,0.04580152671755725,-4.99909306640625,-0.5219359619140624,3.83072265625,-16.885496183206108,-19.709923664122137,-13.007633587786259,0.0
13.810000658035278,-9.737218151855469,2.2194249389648437,2.2553379638671873,-27.954198473282442,23.16030534351145,-1.6793893129770991,-7.050923889160156,-1.886630908203125,4.594472985839843,-9.633587786259541,-12.595419847328245,-10.778625954198473,0.0
13.820000648498535,-10.014945544433592,2.1308394775390624,2.27927998046875,-33.51145038167939,23.450381679389313,-4.137404580152672,-7.2903440551757805,-1.5490484741210937,4.517858532714843,-2.1374045801526718,-12.946564885496183,-11.145038167938932,0.0
13.830000638961792,-9.26316622314453,1.5825672973632812,2.0781670410156248,-33.06870229007634,25.862595419847327,-4.702290076335878,-7.283161450195312,-1.848323681640625,4.7764323120117185,-0.5648854961832062,-7.175572519083969,-11.86259541984733,0.0
13.840000867843628,-8.542511523437499,1.158793603515625,2.059013427734375,-33.00763358778626,27.770992366412212,-5.862595419847328,-7.838616235351562,-2.1068974609374997,4.630386010742187,10.076335877862595,-9.17557251908397,-11.755725190839694,0.0
13.850000619888306,-9.181763366699219,1.5897499023437498,2.442085693359375,-33.465648854961835,30.641221374045802,-8.65648854961832,-6.45476767578125,-1.2210428466796874,4.2137949218749995,12.274809160305344,-8.366412213740459,-14.213740458015268,0.0
13.860000610351562,-8.968679418945312,1.4030021728515625,2.4157494750976563,-31.46564885496183,29.87786259541985,-7.984732824427481,-6.902483386230468,-1.139639990234375,4.053383410644531,17.114503816793892,-4.931297709923665,-12.51908396946565,0.0
13.87000060081482,-8.267178332519531,0.5602431884765625,2.205059729003906,-25.541984732824428,30.061068702290076,-7.6183206106870225,-6.418854650878906,-0.6703764648437499,3.7421371948242186,19.068702290076335,-3.3587786259541983,-11.129770992366412,0.0
13.880000352859497,-10.005368737792969,2.480392919921875,3.9552211425781247,-18.03053435114504,37.786259541984734,-11.725190839694656,-5.762843395996094,-0.1292868896484375,3.6104561035156246,16.625954198473284,-0.15267175572519084,-11.19083969465649,0.0
13.890000581741333,-9.289502441406249,2.1212626708984375,3.047818713378906,-20.076335877862597,27.541984732824428,-11.633587786259541,-6.296750366210937,-0.26815058593749996,3.864241479492187,13.572519083969466,4.961832061068702,-9.786259541984732,0.0
13.90000057220459,-9.612719665527344,1.879448303222656,3.1962592163085937,-16.82442748091603,23.83206106870229,-9.572519083969466,-6.4356140625,-0.82360537109375,4.422090466308593,10.427480916030534,8.717557251908397,-9.19083969465649,0.0
13.910000562667847,-9.279925634765624,2.0278888061523435,3.81156904296875,-12.458015267175572,21.801526717557252,-10.15267175572519,-5.875370874023437,-0.7876923461914062,4.321533996582031,6.717557251908397,11.526717557251908,-9.603053435114504,0.0
13.920000553131104,-9.282319836425781,2.128445275878906,4.316745593261719,-8.961832061068701,18.198473282442748,-10.351145038167939,-5.4515971801757805,-1.16837041015625,3.878606689453125,1.633587786259542,16.99236641221374,-9.923664122137405,0.0
13.93000078201294,-9.670180505371093,2.1068974609374997,4.975151049804687,-5.709923664122138,14.442748091603054,-10.916030534351146,-6.198588098144531,-2.3295582153320313,2.9759926635742184,4.3816793893129775,21.419847328244273,-9.725190839694656,0.0
13.940000534057617,-10.888829150390624,2.408566870117187,5.928043310546875,-3.7557251908396947,8.412213740458014,-12.51908396946565,-4.479551306152343,-1.4891934326171874,0.16519991455078123,7.038167938931298,28.458015267175572,-15.83206106870229,0.0
13.950000762939453,-10.819397302246093,1.9225439331054686,7.280767248535156,2.931297709923664,0.6717557251908397,-12.076335877862595,-4.2688615600585935,-1.7956512451171873,-2.492363928222656,10.442748091603054,50.33587786259542,-20.625954198473284,0.0
13.96000051498413,-11.135431921386719,1.9847931762695312,8.226476904296874,7.297709923664122,-8.0,-12.65648854961832,-2.042254016113281,1.1540052001953125,-6.0525417968749995,15.770992366412214,66.7175572519084,-27.480916030534353,0.0
13.970000743865967,-11.298237634277344,2.1787235107421874,9.210493786621093,13.816793893129772,-17.83206106870229,-11.893129770992367,0.06943184814453125,3.172317199707031,-3.323151904296875,-4.564885496183206,94.73282442748092,-36.656488549618324,0.0
13.980000495910645,-12.586318127441405,2.2481553588867187,10.481814868164061,17.603053435114504,-31.954198473282442,-10.335877862595419,-5.159504577636718,1.7860744384765623,6.268019946289062,-32.47328244274809,120.07633587786259,-30.061068702290076,0.0
13.990000486373901,-14.539986682128905,1.4413093994140624,12.188880651855468,21.358778625954198,-48.38167938931298,-10.320610687022901,-13.558364001464843,-6.718129858398437,15.837643981933592,-56.30534351145038,129.31297709923663,-24.53435114503817,0.0
14.000000238418579,-17.468095312499997,1.2473790649414063,13.737929125976562,29.51145038167939,-70.22900763358778,-11.358778625954198,-16.390704565429687,-6.320692382812499,12.612654345703124,-38.06106870229008,113.14503816793894,-27.96946564885496,0.0
14.010000705718994,-20.06580411376953,1.4101847778320311,15.018827014160156,34.961832061068705,-106.04580152671755,-9.541984732824428,-16.36915675048828,-2.8227637573242186,3.7134067749023436,-24.641221374045802,112.59541984732824,-24.396946564885496,0.0
14.020000696182251,-20.843919653320313,1.5586252807617187,14.9015111328125,39.70992366412214,-137.96946564885496,-2.8091603053435112,-6.995857250976562,7.122749938964843,-5.755660791015624,-20.076335877862597,87.14503816793894,-23.389312977099237,0.0
14.030000686645508,-18.320431103515624,1.66636435546875,13.108254089355468,44.54961832061068,-166.59541984732823,5.694656488549619,-8.116343627929687,12.382810986328124,0.2346317626953125,-75.77099236641222,113.19083969465649,-11.236641221374045,0.0
14.040000677108765,-19.627665209960938,3.878606689453125,10.04846436767578,18.259541984732824,-191.08396946564886,8.198473282442748,-7.728482958984374,7.752424975585937,1.0654197387695312,-109.38931297709924,120.93129770992367,10.061068702290076,0.0
14.050000667572021,-18.471265808105468,3.1483751831054687,7.297526660156249,-19.00763358778626,-222.04580152671755,9.297709923664122,-10.50815108642578,3.9264907226562498,0.6512228515624999,-133.55725190839695,126.6412213740458,23.19083969465649,0.0
14.060000896453857,-17.55189237060547,1.7022773803710936,4.086902233886718,-33.19083969465649,-237.34351145038167,12.82442748091603,-3.708618371582031,0.679953271484375,-0.009576806640625,-125.31297709923665,105.0381679389313,22.748091603053435,0.0
14.070000648498535,-13.740323327636718,-1.369483349609375,-1.9871873779296874,-44.595419847328245,-246.01526717557252,14.305343511450381,-10.747571252441405,0.6200982299804687,1.5275006591796874,-150.4885496183206,126.50381679389314,26.82442748091603,0.0
14.080000638961792,-14.092270971679687,-2.863465185546875,-4.218583325195312,-55.80152671755725,-239.84732824427482,10.641221374045802,-4.039018200683594,1.5442600708007812,0.13646949462890623,-145.64885496183206,110.94656488549619,30.549618320610687,0.0
14.090000629425049,-11.994950317382811,-5.7077767578125,-1.7357962036132812,-41.74045801526717,-227.8320610687023,4.824427480916031,-13.603853833007811,-0.26815058593749996,1.936909143066406,-166.54961832061068,133.54198473282443,42.68702290076336,0.0
14.100000858306885,-10.77630167236328,-7.453149768066406,0.5865794067382812,1.2671755725190839,-208.38167938931298,1.618320610687023,-10.127473022460936,-6.440402465820312,1.1827356201171875,-129.4198473282443,121.54198473282443,52.33587786259542,0.0
14.110000610351562,-9.629479077148437,-7.3669585083007805,2.528276953125,53.725190839694655,-182.04580152671755,-2.8244274809160306,-10.589553942871094,-10.805032092285156,0.7493851196289062,-87.08396946564885,112.10687022900764,60.18320610687023,0.0
14.12000060081482,-8.595183959960938,-3.5386300537109374,2.703053674316406,90.90076335877863,-157.49618320610688,-9.450381679389313,-8.429984045410155,-10.244788903808594,-0.9217676391601562,-28.9618320610687,87.29770992366412,59.17557251908397,0.0
14.130000591278076,-7.843404638671874,-0.5099649536132812,2.2744915771484373,102.09160305343511,-142.4885496183206,-15.49618320610687,-8.219294299316406,-9.744400756835937,-0.5817910034179687,5.0534351145038165,76.7175572519084,55.404580152671755,0.0
14.140000343322754,-9.057264880371093,2.923320227050781,2.501940734863281,86.9618320610687,-133.23664122137404,-19.938931297709924,-8.40125362548828,-8.183381274414062,-0.9145850341796874,24.3206106870229,68.99236641221374,47.37404580152672,0.0
14.15000057220459,-9.17458076171875,5.377376928710937,3.1866824096679687,65.86259541984732,-126.94656488549619,-17.52671755725191,-8.588001354980468,-2.379836450195312,-1.3766659545898436,25.984732824427482,63.51145038167939,34.99236641221374,0.0
14.160000562667847,-7.350199096679687,3.2154128295898436,2.281674182128906,47.89312977099237,-130.54961832061068,-5.129770992366412,-9.172186560058593,-1.6112977172851561,0.09576806640624999,7.114503816793893,71.17557251908397,30.213740458015266,0.0
14.170000314712524,-7.266402038574219,3.641580725097656,2.602497204589844,41.87786259541985,-112.8854961832061,6.427480916030534,-9.433154541015625,-2.73896669921875,1.5825672973632812,5.801526717557252,74.27480916030534,29.770992366412212,0.0
14.18000078201294,-6.148309863281249,2.300827795410156,2.233790148925781,27.404580152671755,-112.04580152671755,11.603053435114504,-10.177751257324218,-1.24498486328125,0.6919242797851562,11.587786259541986,70.07633587786259,29.404580152671755,0.0
14.190000295639038,-6.6343328002929685,2.683900061035156,1.9847931762695312,19.14503816793893,-102.45801526717557,13.49618320610687,-9.694122521972655,-0.8188169677734375,1.0319009155273438,0.2900763358778626,71.92366412213741,31.34351145038168,0.0
14.200000524520874,-5.135562561035156,1.6448165405273436,0.9552864624023437,4.473282442748092,-102.62595419847328,16.015267175572518,-9.397241516113281,-2.0757728393554684,2.3223756103515623,1.8015267175572518,74.03053435114504,36.61068702290076,0.0
14.21000075340271,-4.4005426513671875,1.3144167114257812,0.948103857421875,-1.9541984732824427,-89.90839694656489,15.511450381679388,-9.196128576660156,1.6352397338867186,1.4053963745117186,-2.9770992366412212,67.57251908396947,38.74809160305343,0.0
14.220000505447388,-2.5665841796874997,-0.22744915771484372,0.7254431030273437,-7.587786259541985,-84.44274809160305,15.84732824427481,-9.562441430664062,1.7310078002929687,1.9943699829101562,-21.87786259541985,71.29770992366412,41.725190839694655,0.0
14.230000495910645,-1.8507178833007811,-0.5410895751953124,0.17238251953125,2.351145038167939,-63.57251908396947,17.52671755725191,-9.962273107910155,-1.0007762939453124,1.7094599853515624,-25.541984732824428,70.93129770992367,46.44274809160305,0.0
14.240000486373901,-2.6312276245117188,1.5825672973632812,0.9193734375,-10.076335877862595,-51.45038167938932,9.786259541984732,-9.557653027343749,-1.0438719238281249,1.1755530151367186,-40.76335877862596,70.97709923664122,45.23664122137404,0.0
14.250000476837158,-2.4396914916992185,0.86191259765625,1.0127473022460938,-17.84732824427481,-45.66412213740458,9.022900763358779,-12.950236779785156,-7.697358337402343,4.235342736816406,-29.66412213740458,80.54961832061069,52.50381679389313,0.0
14.260000705718994,-1.2473790649414063,-0.7948749511718749,1.0127473022460938,-13.267175572519085,-30.061068702290076,8.625954198473282,-10.046070166015625,-9.679757312011718,2.1715409057617188,22.38167938931298,45.98473282442748,48.534351145038165,0.0
14.270000696182251,-0.5003881469726562,-0.016759411621093748,2.2074539306640624,-1.2061068702290076,-8.396946564885496,1.5114503816793894,-9.591171850585937,-3.7205893798828122,0.5722141967773438,21.19083969465649,39.12977099236641,40.595419847328245,0.0
14.280000686645508,-1.9943699829101562,2.023100402832031,3.5146880371093747,-3.068702290076336,-1.083969465648855,-1.9236641221374047,-9.179369165039063,-1.6807295654296874,0.622492431640625,16.396946564885496,38.16793893129771,35.93893129770992,0.0
14.290000677108765,-0.3112462158203125,0.6272808349609375,3.861847277832031,-3.7099236641221376,2.946564885496183,2.7022900763358777,-13.486537951660155,-5.413289953613281,2.3678654418945313,22.427480916030536,45.20610687022901,40.045801526717554,0.0
14.3000009059906,0.15562310791015624,-0.2537853759765625,5.492298608398437,-0.8091603053435115,12.732824427480915,6.244274809160306,-12.27028350830078,-5.896918688964844,3.2417490478515623,21.206106870229007,46.0,38.213740458015266,0.0
14.310000658035278,-1.6400281372070311,0.258573779296875,6.734889270019531,7.908396946564886,19.84732824427481,6.2748091603053435,-9.955090502929687,-2.300827795410156,0.5530605834960938,25.770992366412212,29.51145038167939,28.885496183206108,0.0
14.320000886917114,-3.2920272827148436,1.4173673828125,8.645462194824217,8.091603053435115,23.587786259541986,5.541984732824427,-10.69968721923828,-2.418143676757812,1.3120225097656248,8.65648854961832,36.916030534351144,25.786259541984734,0.0
14.330000638961792,-1.9512743530273435,-1.6136919189453125,8.058882788085937,22.412213740458014,18.0,13.34351145038168,-16.620547924804686,-8.978256225585938,5.504269616699219,31.0381679389313,53.221374045801525,36.213740458015266,0.0
14.340001106262207,-3.5577836669921874,-2.559401574707031,8.24802471923828,42.68702290076336,27.96946564885496,14.51908396946565,-12.71081661376953,-13.76426534423828,4.414907861328125,109.6030534351145,13.465648854961833,33.9236641221374,0.0
14.350000858306885,-5.760449194335937,-0.814028564453125,7.208941198730468,51.16030534351145,34.70229007633588,4.809160305343512,-9.255983618164063,-5.856217260742187,0.7876923461914062,132.3969465648855,-17.633587786259543,11.557251908396946,0.0
14.360000848770142,-5.389347937011719,0.28969840087890625,2.6336218261718747,40.70229007633588,32.0,1.9389312977099236,-13.02445703125,-6.227318518066406,5.540182641601562,116.2442748091603,3.5114503816793894,8.946564885496183,0.0
14.37000060081482,-6.4834980957031245,1.9009961181640624,1.656787548828125,16.229007633587788,40.70229007633588,-3.1908396946564888,-12.07874737548828,-3.7517140014648436,3.6104561035156246,122.33587786259542,-20.30534351145038,0.33587786259541985,0.0
14.380000591278076,-5.968744738769531,0.16519991455078123,-0.21068974609375,-6.412213740458015,35.786259541984734,-11.206106870229007,-12.72997022705078,-0.689530078125,3.8235400512695312,100.56488549618321,-22.30534351145038,-5.66412213740458,0.0
14.390000581741333,-6.880935571289062,-0.1005564697265625,3.2130186279296873,-7.709923664122138,51.66412213740458,-7.603053435114504,-11.159373937988281,2.1978771240234374,4.57771357421875,54.3206106870229,-22.091603053435115,-8.106870229007633,0.0
14.40000033378601,-7.192181787109375,-2.4516625,8.520963708496094,2.717557251908397,59.786259541984734,-3.9389312977099236,-11.640608471679688,3.8666356811523435,3.73495458984375,23.770992366412212,-26.396946564885496,-3.2519083969465647,0.0
14.410000562667847,-7.651868505859374,-4.843469958496094,9.524134204101562,63.45038167938932,81.64885496183206,7.465648854961832,-12.212822668457031,3.0813375366210938,4.647145422363281,-9.98473282442748,-20.763358778625953,6.33587786259542,0.0
14.420000553131104,5.200206005859375,-15.4378123046875,-0.6344634399414062,150.6259541984733,95.12977099236642,10.717557251908397,-12.143390820312499,1.6639701538085936,5.204994409179688,-29.923664122137403,-19.068702290076335,16.48854961832061,0.0
14.43000078201294,-2.6503812377929687,-16.87912170410156,-2.099714855957031,244.9618320610687,173.9236641221374,-6.687022900763359,-13.922282653808592,-0.44053310546874996,6.591237170410156,-35.267175572519086,-21.053435114503817,24.137404580152673,0.0
14.440000295639038,-10.414777221679687,-7.71890615234375,-4.8889597900390624,270.7022900763359,186.94656488549617,-47.3587786259542,-13.287819213867186,-0.6368576416015624,6.332663391113281,-38.88549618320611,-31.84732824427481,22.85496183206107,0.0
14.450000762939453,-19.448100085449216,2.437297290039062,-0.6560112548828124,268.77862595419845,203.09923664122138,-61.770992366412216,-14.51125626220703,-2.370259643554687,7.266402038574219,-35.587786259541986,-42.85496183206107,27.51145038167939,0.0
14.46000051498413,-9.581595043945311,-3.2249896362304686,-3.2225954345703123,255.54198473282443,182.01526717557252,-57.61832061068702,-14.590264916992187,-3.2704794677734372,6.833051538085937,-27.450381679389313,-64.53435114503817,27.786259541984734,0.0
14.470000743865967,-18.1959326171875,3.2800562744140622,1.3239935180664062,291.60305343511453,201.9236641221374,-50.42748091603053,-13.211204760742186,-3.2154128295898436,6.0142345703124995,-24.82442748091603,-88.10687022900764,25.19083969465649,0.0
14.480000734329224,-10.812214697265624,2.825157958984375,-0.8259995727539062,231.22137404580153,156.90076335877862,-51.66412213740458,-12.617442749023438,-2.664746447753906,4.340687609863281,-22.519083969465647,-108.45801526717557,20.625954198473284,0.0
14.490000247955322,-15.95495986328125,9.210493786621093,1.9488801513671874,213.63358778625954,166.8091603053435,-46.29007633587786,-13.146561315917968,-3.787627026367187,3.1196447631835937,-19.557251908396946,-125.31297709923665,18.47328244274809,0.0
14.500000476837158,-14.298172314453124,19.067422021484372,2.9927520751953125,120.90076335877863,130.85496183206106,-60.213740458015266,-13.831302990722655,-3.2609026611328122,1.8291700683593748,-18.442748091603054,-138.93129770992365,8.13740458015267,0.0
14.510000467300415,-5.942408520507812,6.883329772949218,-1.7669208251953124,52.18320610687023,84.16793893129771,-50.58015267175573,-14.832079284667968,-4.074931225585937,2.834734765625,-0.6717557251908397,-142.91603053435114,4.106870229007634,0.0
14.52000093460083,-5.485116003417969,5.767631799316406,1.8842367065429686,41.93893129770992,82.90076335877863,-41.55725190839695,-10.486603271484375,-5.6574985229492185,1.4628572143554686,5.32824427480916,-146.70229007633588,-7.175572519083969,0.0
14.530000686645508,-7.939172705078125,9.160215551757812,2.7629087158203123,-0.6412213740458015,67.74045801526718,-46.67175572519084,-12.811373083496093,-1.7525556152343749,0.5458779785156249,35.969465648854964,-154.68702290076337,-20.870229007633586,0.0
14.540000677108765,-6.2201359130859375,6.974309436035155,1.9871873779296874,-26.99236641221374,53.32824427480916,-42.458015267175576,-13.488932153320311,0.2753331909179687,0.7110778930664062,43.06870229007634,-140.91603053435114,-26.18320610687023,0.0
14.5500009059906,-8.40125362548828,7.264007836914062,2.224213342285156,-59.89312977099237,40.38167938931298,-40.50381679389313,-12.399570397949217,-0.08379705810546874,-1.235408056640625,52.595419847328245,-142.77862595419847,-30.595419847328245,0.0
14.560000658035278,-5.092466931152344,-0.0909796630859375,-0.028730419921875,-64.36641221374046,29.954198473282442,-35.25190839694657,-11.231199987792968,2.365471240234375,-2.1212626708984375,41.267175572519086,-132.45801526717557,-36.93129770992366,0.0
14.570000648498535,-6.701370446777343,-1.0342951171875,0.814028564453125,-46.19847328244275,36.10687022900763,-31.557251908396946,-9.114725720214842,3.0454245117187497,-2.683900061035156,23.709923664122137,-110.9618320610687,-36.82442748091603,0.0
14.58000111579895,-8.813056311035156,-0.6057330200195312,0.9744400756835937,-25.022900763358777,42.38167938931298,-30.53435114503817,-8.334215979003906,3.6056677001953124,-2.346317626953125,13.83206106870229,-95.12977099236642,-31.923664122137403,0.0
14.590000629425049,-8.17859287109375,-0.507570751953125,0.5578489868164063,-0.9465648854961832,47.770992366412216,-28.83969465648855,-8.073247998046874,2.6384102294921874,-0.9792284790039062,-2.2595419847328246,-79.8473282442748,-26.82442748091603,0.0
14.600000619888306,-9.830592016601562,2.616862414550781,1.0773907470703123,12.16793893129771,54.3206106870229,-28.65648854961832,-8.94473740234375,0.37828386230468747,0.1005564697265625,-7.099236641221374,-68.19847328244275,-20.610687022900763,0.0
14.610000610351562,-10.91037696533203,3.84987626953125,1.7812860351562498,11.938931297709924,56.62595419847328,-28.83969465648855,-8.28633194580078,1.5969325073242187,0.7158662963867187,-11.526717557251908,-66.35114503816794,-20.916030534351144,0.0
14.62000060081482,-9.737218151855469,2.568978381347656,1.3670891479492187,17.908396946564885,57.98473282442748,-24.732824427480917,-7.501033801269531,2.2936451904296873,1.0199299072265624,-22.50381679389313,-59.63358778625954,-20.9618320610687,0.0
14.630000352859497,-13.20881055908203,10.539275708007812,3.9360675292968748,-2.6106870229007635,59.12977099236641,-30.83969465648855,-8.556876733398436,-2.142810485839844,2.3151930053710936,-21.31297709923664,-50.213740458015266,-17.84732824427481,0.0
14.640000820159912,-11.374852087402344,8.767566479492187,3.265691064453125,-51.343511450381676,36.595419847328245,-33.343511450381676,-11.305420239257812,-3.892971899414062,2.925714428710937,3.1755725190839694,-55.404580152671755,-19.358778625954198,0.0
14.65000057220459,-8.985438830566405,1.8291700683593748,0.7038952880859375,-56.85496183206107,27.603053435114504,-26.53435114503817,-11.192892761230468,-3.086125939941406,2.152387292480469,24.885496183206108,-71.0381679389313,-26.85496183206107,0.0
14.660000324249268,-18.535909252929688,21.856666955566403,7.620743884277343,-93.54198473282443,35.725190839694655,-40.36641221374046,-11.67652149658203,-3.1555577880859373,3.4835634155273434,39.06870229007634,-69.93893129770993,-29.96946564885496,0.0
14.670000553131104,-10.041281762695311,11.875240234375,1.5107412475585937,-196.94656488549617,-22.85496183206107,-36.68702290076336,-10.498574279785156,-0.38786066894531246,0.39264907226562495,48.16793893129771,-82.62595419847328,-36.61068702290076,0.0
14.68000054359436,-7.838616235351562,-2.0254946044921875,-2.7940333374023436,-177.98473282442748,-22.50381679389313,-13.557251908396946,-10.002974536132811,1.1659762084960936,0.5003881469726562,47.80152671755725,-83.8473282442748,-36.18320610687023,0.0
14.690000772476196,-13.417106103515625,4.611232397460937,4.180276098632812,-137.6946564885496,7.679389312977099,-12.274809160305344,-10.89122335205078,0.49799394531249996,1.4173673828125,49.282442748091604,-74.36641221374046,-33.786259541984734,0.0
14.700000524520874,-15.037980627441405,11.520898388671874,5.755660791015624,-179.2824427480916,-17.908396946564885,-18.48854961832061,-11.145008728027342,-0.8092401611328125,2.2170307373046874,55.43511450381679,-75.0381679389313,-34.16793893129771,0.0
14.71000075340271,-10.608707556152343,4.242525341796875,0.7829039428710937,-197.98473282442748,-41.038167938931295,1.6030534351145038,-9.02135185546875,0.7709329345703124,1.9728221679687499,49.038167938931295,-77.38931297709924,-35.80152671755725,0.0
14.720000505447388,-20.09692873535156,11.006145031738281,6.382941625976562,-189.26717557251908,-23.66412213740458,9.755725190839694,-9.414000927734374,1.3551181396484375,2.9735984619140625,43.770992366412216,-71.55725190839695,-32.62595419847328,0.0
14.730000495910645,-15.646107849121092,7.599196069335937,0.6823474731445313,-229.06870229007635,-62.16793893129771,19.282442748091604,-9.5384994140625,0.09816226806640624,3.4715924072265625,46.56488549618321,-71.32824427480917,-30.458015267175572,0.0
14.740000486373901,-9.871293444824218,-2.7533319091796873,-0.047884033203124995,-195.05343511450383,-59.52671755725191,47.52671755725191,-7.934384301757812,0.63206923828125,4.113238452148437,34.717557251908396,-66.30534351145039,-29.6793893129771,0.0
14.750000476837158,-9.239224206542968,-4.814739538574218,1.1444283935546875,-150.9618320610687,-34.13740458015267,48.16793893129771,-6.191405493164062,0.22505495605468748,4.2688615600585935,25.00763358778626,-63.847328244274806,-30.885496183206108,0.0
14.760000705718994,-5.087678527832031,-8.741230261230468,-0.9816226806640624,-122.80916030534351,-30.38167938931298,36.0763358778626,-7.848193041992187,-0.5339069702148437,5.353434912109375,29.755725190839694,-58.961832061068705,-28.778625954198475,0.0
14.77000093460083,-5.305550878906249,-7.735665563964844,-0.016759411621093748,-93.93893129770993,-13.648854961832061,20.580152671755727,-6.251260534667968,-0.5482721801757812,5.892130285644531,25.083969465648856,-56.56488549618321,-31.709923664122137,0.0
14.780000686645508,-4.077325427246094,-9.507374792480467,-0.00239420166015625,-42.48854961832061,4.763358778625954,19.419847328244273,-6.8402341430664055,-0.3280056274414062,6.198588098144531,27.083969465648856,-54.83969465648855,-30.50381679389313,0.0
