timestamp,Thigh_L_Acc_X,Thigh_L_Acc_Y,Thigh_L_Acc_Z,Thigh_L_Gyr_X,Thigh_L_Gyr_Y,Thigh_L_Gyr_Z,Thigh_R_Acc_X,Thigh_R_Acc_Y,Thigh_R_Acc_Z,Thigh_R_Gyr_X,Thigh_R_Gyr_Y,Thigh_R_Gyr_Z,gpio_output
10.000000238418579,-11.046846459960937,5.116408947753906,1.2617442749023438,50.10687022900763,83.80152671755725,1.5877862595419847,-10.096348400878906,-0.7350199096679687,-0.9457096557617187,-13.419847328244275,-38.33587786259542,1.7099236641221374,0.0
10.010000705718994,-12.873622326660156,6.495469104003906,2.032677209472656,21.068702290076335,75.17557251908397,-4.015267175572519,-9.777919580078125,-0.10773907470703124,-1.189918225097656,-2.015267175572519,-35.43511450381679,-1.0076335877862594,1.0
10.020000696182251,-12.148179223632813,7.577648254394531,2.0566192260742184,-15.32824427480916,62.152671755725194,-8.65648854961832,-10.903194360351561,-1.6639701538085936,-0.5410895751953124,-11.86259541984733,-31.84732824427481,-2.015267175572519,1.0
10.030000686645508,-10.773907470703124,6.042964990234375,1.6232687255859375,-45.221374045801525,47.43511450381679,-8.198473282442748,-10.50815108642578,-1.4006079711914061,-0.3687070556640625,-19.587786259541986,-30.15267175572519,-4.977099236641221,1.0
10.040000915527344,-11.149797131347656,3.4955344238281247,1.3383587280273437,-47.17557251908397,44.534351145038165,-6.641221374045801,-10.568006127929687,-1.6831237670898436,-0.28969840087890625,-15.86259541984733,-29.893129770992367,-5.969465648854962,1.0
10.050000667572021,-8.537723120117187,-0.01915361328125,0.0526724365234375,-41.69465648854962,40.42748091603053,-2.0,-9.995791931152343,-0.8164227661132812,0.19393033447265623,-2.6717557251908395,-31.022900763358777,-8.488549618320612,1.0
10.060001373291016,-10.735600244140624,3.3111808959960936,2.0254946044921875,-40.74809160305343,44.61068702290076,-3.618320610687023,-10.204087475585936,0.0143652099609375,1.1324573852539062,-0.8854961832061069,-30.091603053435115,-10.01526717557252,1.0
10.070000886917114,-10.081983190917969,2.039859814453125,0.2920926025390625,-42.595419847328245,42.47328244274809,-1.465648854961832,-9.679757312011718,1.0007762939453124,1.47482822265625,-5.099236641221374,-30.33587786259542,-11.648854961832061,1.0
10.08000111579895,-10.330980163574218,1.7717092285156248,1.1611878051757811,-45.41984732824427,43.61832061068702,-2.0,-9.7683427734375,-0.15083470458984374,1.7812860351562498,-3.0076335877862594,-28.610687022900763,-10.106870229007633,1.0
10.090000867843628,-9.05965908203125,-0.9457096557617187,0.9337386474609375,-39.74045801526717,42.0,-0.42748091603053434,-10.084377392578125,-0.5315127685546874,2.27927998046875,6.137404580152672,-35.083969465648856,-10.50381679389313,1.0
10.100001096725464,-9.797073193359374,0.4644751220703125,2.588131994628906,-23.16030534351145,48.54961832061068,-3.5419847328244276,-9.373299499511718,0.0909796630859375,2.6958710693359373,2.717557251908397,-41.05343511450382,-12.564885496183207,1.0
10.110000848770142,-8.051700183105469,-0.17238251953125,1.1252747802734375,-21.557251908396946,43.32824427480916,-3.1908396946564888,-8.262389929199218,0.9648632690429687,2.4253262817382812,-2.381679389312977,-41.16030534351145,-14.183206106870228,1.0
10.120000839233398,-10.218452685546874,2.4109610717773435,2.971204260253906,-18.35114503816794,47.29770992366412,-5.8320610687022905,-9.78031378173828,-0.93852705078125,2.9759926635742184,-3.877862595419847,-40.35114503816794,-11.755725190839694,1.0
10.130000591278076,-9.720458740234374,0.30406361083984373,2.1691467041015624,-16.33587786259542,44.396946564885496,-5.00763358778626,-9.138667736816405,-0.40222587890625,1.8100164550781248,8.763358778625955,-45.083969465648856,-13.053435114503817,1.0
10.140000343322754,-9.1554271484375,0.3495534423828125,2.1883003173828124,-3.4656488549618323,45.404580152671755,-5.526717557251908,-8.190563879394531,1.149216796875,1.5394716674804687,1.282442748091603,-45.954198473282446,-16.061068702290076,1.0
10.15000057220459,-11.729193933105469,5.906495495605468,4.125209460449218,-12.65648854961832,46.412213740458014,-9.877862595419847,-9.062053283691405,-1.1228805786132812,2.051830822753906,-0.3816793893129771,-39.93893129770992,-13.694656488549619,1.0
10.160000562667847,-11.247959399414063,5.250484240722656,4.153939880371094,-40.900763358778626,31.0381679389313,-8.549618320610687,-10.0748005859375,-2.039859814453125,2.214636535644531,18.198473282442748,-44.19847328244275,-11.86259541984733,1.0
10.170000791549683,-9.05965908203125,1.2713210815429687,1.9967641845703124,-40.229007633587784,18.412213740458014,-2.3053435114503817,-8.975862023925782,0.105344873046875,1.9608511596679685,17.801526717557252,-49.49618320610687,-15.129770992366412,1.0
10.18000078201294,-14.401122985839843,7.9272016967773435,5.398924743652343,-51.52671755725191,22.30534351145038,-9.236641221374045,-8.913612780761719,-0.8068459594726562,1.9297265380859374,7.66412213740458,-44.06106870229008,-14.213740458015268,1.0
10.190000534057617,-12.327744348144531,7.043741284179687,3.0645781249999997,-100.13740458015268,-6.763358778625954,-5.877862595419847,-10.237606298828124,-1.47482822265625,1.5370774658203123,25.099236641221374,-45.31297709923664,-13.267175572519085,1.0
10.200000762939453,-11.93270107421875,2.3630770385742186,2.252943762207031,-102.51908396946565,-21.236641221374047,3.5114503816793894,-8.695740429687499,0.19871873779296872,1.455674609375,20.931297709923665,-51.49618320610687,-14.702290076335878,1.0
10.210000991821289,-9.320627062988281,-1.5059528442382812,1.908178723144531,-86.29007633587786,-24.870229007633586,9.389312977099237,-9.267954626464844,-0.82360537109375,1.7788918334960937,15.419847328244275,-49.05343511450382,-12.473282442748092,0.0
10.220000743865967,-10.120290417480469,-1.8267758666992187,2.2673089721679687,-58.534351145038165,-18.091603053435115,8.381679389312977,-8.999804040527343,-0.47165772705078124,1.707065783691406,23.17557251908397,-52.80916030534351,-12.106870229007633,0.0
10.230000972747803,-7.50821640625,-4.601655590820312,1.1324573852539062,-28.748091603053435,-15.801526717557252,10.259541984732824,-9.284714038085937,-0.9696516723632812,2.3343466186523436,27.557251908396946,-52.732824427480914,-11.34351145038168,0.0
10.240000486373901,-7.721300354003906,-1.8698714965820311,1.7932570434570312,-4.6106870229007635,-11.038167938931299,5.603053435114504,-8.358157995605469,-0.28012159423828126,2.463633508300781,29.893129770992367,-54.274809160305345,-12.366412213740459,0.0
10.250000715255737,-8.240842114257813,-2.7198130859375,1.6328455322265625,15.312977099236642,-0.015267175572519083,2.7022900763358777,-8.839392529296875,-0.6081272216796875,2.6910826660156246,30.671755725190838,-52.88549618320611,-12.076335877862595,0.0
10.260000705718994,-7.1778165771484375,-1.5107412475585937,1.5562310791015623,38.42748091603053,9.84732824427481,-1.3893129770992367,-8.82981572265625,-0.37828386230468747,2.5953145996093747,35.11450381679389,-51.725190839694655,-12.412213740458014,0.0
10.270000696182251,-8.327033374023436,0.9720458740234375,1.8076222534179687,41.32824427480916,16.83969465648855,-7.129770992366412,-8.300697155761718,0.15322890625,3.5793314819335937,21.862595419847327,-48.091603053435115,-12.412213740458014,0.0
10.280000925064087,-9.145850341796875,2.3870190551757813,1.678335363769531,36.44274809160305,18.549618320610687,-7.66412213740458,-9.3852705078125,-1.1420341918945311,3.6655227416992187,24.595419847328245,-43.29770992366412,-11.587786259541986,0.0
10.290000915527344,-8.781931689453124,1.43652099609375,1.2234370483398436,35.43511450381679,20.38167938931298,-5.877862595419847,-9.97903251953125,-1.16837041015625,3.9647979492187497,30.442748091603054,-39.14503816793893,-12.091603053435115,0.0
10.30000114440918,-9.210493786621093,1.66636435546875,1.3215993164062498,37.80152671755725,23.83206106870229,-6.152671755725191,-9.09796630859375,-0.37828386230468747,2.961627453613281,29.16030534351145,-42.93129770992366,-12.351145038167939,0.0
10.310000658035278,-9.65342109375,2.7269956909179687,1.5035586425781249,37.63358778625954,24.27480916030534,-5.694656488549619,-10.175357055664062,-0.7350199096679687,3.708618371582031,29.00763358778626,-43.770992366412216,-10.01526717557252,0.0
10.320000886917114,-9.715670336914062,3.3016040893554686,1.4317325927734375,29.709923664122137,21.6793893129771,-4.213740458015267,-9.849745629882811,0.08140285644531249,3.447650390625,28.35114503816794,-40.656488549618324,-8.977099236641221,0.0
10.330000638961792,-10.594342346191405,3.210624426269531,1.66636435546875,21.022900763358777,19.633587786259543,-4.198473282442748,-10.122684619140625,-0.296881005859375,3.507505432128906,27.19083969465649,-40.18320610687023,-5.740458015267175,0.0
10.340000867843628,-10.216058483886718,3.42849677734375,1.915361328125,13.954198473282442,17.328244274809162,-4.8396946564885495,-8.82263311767578,1.180341418457031,2.920926025390625,29.69465648854962,-42.396946564885496,-6.6106870229007635,0.0
10.350000381469727,-10.421959826660157,3.0406361083984375,1.9680337646484374,4.8396946564885495,12.702290076335878,-4.931297709923665,-8.588001354980468,1.180341418457031,2.952050646972656,21.480916030534353,-41.86259541984733,-4.1679389312977095,0.0
10.360000848770142,-10.366893188476562,2.023100402832031,1.7262193969726563,-6.290076335877862,5.251908396946565,-3.6946564885496183,-9.732429748535155,0.5099649536132812,4.235342736816406,22.610687022900763,-42.091603053435115,-1.1755725190839694,0.0
10.37000060081482,-9.332598071289063,0.23223756103515625,1.5275006591796874,3.969465648854962,5.9541984732824424,-2.519083969465649,-9.80665,0.18435352783203124,4.053383410644531,20.442748091603054,-46.0,-0.366412213740458,0.0
10.380000591278076,-9.344569079589844,0.7972691528320313,1.8148048583984373,9.618320610687023,6.931297709923665,-4.396946564885496,-8.767566479492187,0.9337386474609375,3.39018955078125,16.82442748091603,-48.900763358778626,-0.9465648854961832,0.0
10.390000343322754,-9.5384994140625,1.7621324218749999,1.9871873779296874,12.305343511450381,8.320610687022901,-5.435114503816794,-7.987056738281249,1.3000515014648437,3.766079211425781,6.977099236641221,-46.213740458015266,-1.4961832061068703,0.0
10.400000810623169,-9.521740002441407,2.3535002319335936,1.8363526733398436,11.297709923664122,8.80916030534351,-4.748091603053435,-9.083601098632812,-0.105344873046875,3.574543078613281,3.7404580152671754,-43.25190839694657,1.465648854961832,0.0
10.410000562667847,-9.160215551757812,2.3439234252929686,1.637633935546875,8.83969465648855,9.358778625954198,-3.2519083969465647,-9.765948571777344,-0.33518823242187495,3.7421371948242186,8.366412213740459,-44.44274809160305,2.3206106870229006,0.0
10.420000553131104,-9.016563452148437,2.0877438476562498,1.5251064575195312,8.045801526717558,10.13740458015267,-2.366412213740458,-8.844180932617187,-0.07900865478515624,3.4835634155273434,7.251908396946565,-46.76335877862596,0.7480916030534351,0.0
10.43000054359436,-9.157821350097656,2.446874096679687,1.3814543579101561,7.038167938931298,11.114503816793894,-2.8091603053435112,-6.710947253417968,2.070984436035156,2.4013842651367185,-2.7480916030534353,-42.3206106870229,-1.8931297709923665,0.0
10.440000534057617,-9.574412438964844,3.0550013183593747,1.2617442749023438,4.564885496183206,12.763358778625955,-2.0763358778625953,-7.936778503417968,0.22026655273437498,3.268085266113281,-13.587786259541986,-31.633587786259543,1.2366412213740459,0.0
10.450000762939453,-9.411606726074218,2.7437551025390623,1.1133037719726562,-1.9236641221374047,12.458015267175572,-0.4580152671755725,-8.678981018066406,-0.40940848388671874,3.27526787109375,-10.534351145038167,-25.297709923664122,3.786259541984733,0.0
10.46000075340271,-9.909600671386718,2.1499930908203124,0.9552864624023437,-7.603053435114504,12.229007633587786,-0.7480916030534351,-9.028534460449219,-1.2761094848632812,3.2249896362304686,-7.862595419847328,-24.80916030534351,4.015267175572519,0.0
10.470000505447388,-9.356540087890625,1.5825672973632812,0.93852705078125,-5.4961832061068705,14.305343511450381,-1.1297709923664123,-9.090783703613281,-1.697488977050781,4.027047192382812,1.0229007633587786,-24.931297709923665,3.1603053435114505,0.0
10.480000495910645,-9.145850341796875,1.1061211669921875,0.689530078125,-3.7099236641221376,15.618320610687023,-2.198473282442748,-8.552088330078124,-0.6440402465820312,3.5027170288085934,1.5267175572519085,-22.68702290076336,0.6106870229007634,0.0
10.49000072479248,-9.72285294189453,1.5873557006835937,0.8164227661132812,-2.1374045801526718,17.862595419847327,-4.534351145038168,-8.17141026611328,-0.9265560424804687,3.0909143432617188,2.8091603053435112,-17.6793893129771,-0.9923664122137404,0.0
10.500000476837158,-9.97184991455078,1.5562310791015623,0.6272808349609375,-1.618320610687023,19.068702290076335,-5.572519083969466,-9.564835632324218,-2.4013842651367185,3.8139632446289062,11.587786259541986,-16.458015267175572,-0.5648854961832062,0.0
10.510000705718994,-9.399635717773437,0.97683427734375,0.4261678955078125,2.2290076335877864,20.610687022900763,-5.786259541984733,-8.813056311035156,-1.4796166259765624,3.4524387939453125,24.0,-20.85496183206107,-1.6030534351145038,0.0
10.52000093460083,-8.504204296874999,-0.7829039428710937,-0.24181436767578124,15.267175572519085,23.923664122137403,-5.770992366412214,-8.882488159179687,-1.4700398193359374,3.4668040039062498,31.404580152671755,-23.96946564885496,-2.33587786259542,0.0
10.530000686645508,-7.522581616210937,-0.5267243652343749,-0.5746083984375,33.20610687022901,30.80916030534351,-8.274809160305344,-8.269572534179687,-0.38786066894531246,3.3303345092773435,33.63358778625954,-24.12213740458015,-5.526717557251908,0.0
10.540000677108765,-8.279149340820313,1.2569558715820313,-0.10295067138671875,40.56488549618321,38.18320610687023,-13.068702290076336,-6.983886242675781,0.6081272216796875,2.925714428710937,25.358778625954198,-19.358778625954198,-9.19083969465649,0.0
10.550000667572021,-8.774749084472656,2.9544448486328125,0.24899697265624998,36.2442748091603,41.23664122137404,-16.702290076335878,-7.161057165527343,0.23702596435546874,2.7581203125,21.068702290076335,-13.007633587786259,-9.572519083969466,0.0
10.5600004196167,-9.244012609863281,2.748543505859375,0.5243301635742187,30.16793893129771,42.50381679389313,-16.641221374045802,-7.960720520019531,-0.28012159423828126,3.399766357421875,23.389312977099237,-6.6106870229007635,-8.442748091603054,0.0
10.570001125335693,-8.607154968261717,2.2481553588867187,0.4070142822265625,28.47328244274809,43.32824427480916,-16.641221374045802,-8.511386901855468,-1.0654197387695312,3.5721488769531247,18.50381679389313,-3.5267175572519083,-7.145038167938932,0.0
10.58000135421753,-10.036493359375,3.1603461914062496,1.3120225097656248,22.412213740458014,44.12213740458015,-18.16793893129771,-8.609549169921875,-1.2401964599609374,3.4524387939453125,21.6793893129771,-2.213740458015267,-8.106870229007633,0.0
10.590000629425049,-10.314220751953124,2.817975354003906,1.4867992309570313,16.366412213740457,41.25190839694657,-18.03053435114504,-8.329427575683594,-0.833182177734375,3.3303345092773435,25.389312977099237,-0.22900763358778625,-10.793893129770993,0.0
10.600000858306885,-9.595960253906249,2.636016027832031,1.656787548828125,16.396946564885496,38.68702290076336,-17.34351145038168,-7.115567333984375,0.13168109130859373,2.1547814941406247,25.740458015267176,3.2061068702290076,-14.763358778625955,0.0
10.610000848770142,-10.445901843261717,2.104503259277344,1.7525556152343749,12.183206106870228,36.70229007633588,-18.9618320610687,-6.481103894042969,0.30406361083984373,1.7860744384765623,19.786259541984734,6.564885496183206,-16.0,0.0
10.620001077651978,-10.079588989257813,1.5083470458984374,1.7501614135742187,10.748091603053435,32.62595419847328,-19.404580152671755,-6.320692382812499,0.7948749511718749,1.3527239379882812,22.198473282442748,12.274809160305344,-16.625954198473284,0.0
10.630000591278076,-10.098742602539062,1.47482822265625,2.1499930908203124,11.83206106870229,29.923664122137403,-20.290076335877863,-6.725312463378906,-0.13407529296874998,1.8100164550781248,13.389312977099237,19.221374045801525,-16.0,0.0
10.640000820159912,-10.560823522949217,2.023100402832031,2.789244934082031,11.511450381679388,27.389312977099237,-22.48854961832061,-6.720524060058593,0.2825157958984375,1.3335703247070312,10.259541984732824,25.51145038167939,-17.328244274809162,0.0
10.650000810623169,-9.560047229003906,0.4213794921875,2.664746447753906,15.267175572519085,23.31297709923664,-21.480916030534353,-6.715735656738281,-0.3280056274414062,0.9026140258789062,7.1603053435114505,34.44274809160305,-18.47328244274809,0.0
10.660000801086426,-10.467449658203124,1.8219874633789062,3.134009973144531,17.419847328244273,20.763358778625953,-24.213740458015266,-6.660669018554687,-2.0829554443359375,-1.1061211669921875,2.015267175572519,42.74809160305343,-19.66412213740458,0.0
10.670000791549683,-10.273519323730468,1.0606313354492187,3.361459130859375,19.984732824427482,16.47328244274809,-24.83969465648855,-5.568913061523437,-0.12449848632812499,-1.2832920898437499,7.267175572519084,39.51145038167939,-24.045801526717558,0.0
10.68000054359436,-10.01733974609375,1.3623007446289062,3.4859576171874997,26.82442748091603,12.625954198473282,-26.137404580152673,-5.533000036621093,0.45968671875,-1.218648645019531,0.9312977099236641,59.93893129770992,-25.49618320610687,0.0
10.690001010894775,-10.70686982421875,1.9752163696289062,3.890577697753906,26.38167938931298,8.290076335877863,-26.9618320610687,-6.617573388671874,-0.47644613037109373,-2.205059729003906,1.9236641221374047,75.09923664122137,-25.72519083969466,0.0
10.700000524520874,-11.350910070800781,1.9297265380859374,4.244919543457031,25.236641221374047,5.251908396946565,-28.16793893129771,-9.22485899658203,-2.8562825805664063,-0.7254431030273437,-18.53435114503817,89.00763358778626,-27.954198473282442,0.0
10.71000075340271,-12.358868969726561,2.4588451049804685,4.376600634765625,23.908396946564885,-3.450381679389313,-28.793893129770993,-14.317325927734375,-4.6064439941406246,4.620809204101562,15.312977099236642,93.6793893129771,-35.49618320610687,0.0
10.720000505447388,-12.334926953124999,2.1811177124023438,4.637568615722656,26.061068702290076,-10.366412213740459,-28.38167938931298,-17.2765591796875,-2.1787235107421874,11.281478222656249,18.65648854961832,49.786259541984734,-47.00763358778626,0.0
10.730000972747803,-12.50012686767578,2.829946362304687,5.123591552734375,26.12213740458015,-20.076335877862597,-26.83969465648855,-18.07382833251953,0.7326257080078125,22.062568298339844,96.12213740458016,94.6412213740458,-55.87786259541985,0.0
10.74000072479248,-11.880028637695311,2.023100402832031,5.913678100585937,24.931297709923665,-31.267175572519083,-22.061068702290076,-15.524003564453125,0.23702596435546874,10.817003100585938,48.458015267175576,56.10687022900763,-37.93893129770992,0.0
10.750000953674316,-11.384428894042967,0.8355763793945312,6.593631372070312,31.068702290076335,-40.916030534351144,-17.557251908396946,-10.426748229980468,2.3630770385742186,3.5146880371093747,62.0,48.656488549618324,-23.87786259541985,0.0
10.760000467300415,-11.104307299804686,0.062249243164062495,7.352593298339843,44.412213740458014,-52.19847328244275,-13.633587786259541,-7.388506323242187,6.591237170410156,-0.06943184814453125,30.870229007633586,59.83206106870229,-18.366412213740457,0.0
10.77000093460083,-10.496180078124999,-1.3551181396484375,7.529764221191406,65.48091603053435,-64.21374045801527,-8.931297709923664,-7.005434057617187,5.193023400878906,-1.5705962890624998,18.33587786259542,53.86259541984733,-12.977099236641221,0.0
10.780000925064087,-12.646173168945312,0.9959878906249999,8.884882360839843,71.5114503816794,-76.79389312977099,-9.022900763358779,-4.465186096191406,7.5465236328125,0.488417138671875,-7.862595419847328,62.47328244274809,-11.129770992366412,0.0
10.790000915527344,-13.615824841308592,2.511517541503906,9.567229833984374,61.45038167938932,-98.53435114503817,-8.885496183206106,-7.436390356445312,3.287238879394531,1.8650830932617186,-40.045801526717554,75.89312977099236,-3.3282442748091605,0.0
10.800000667572021,-15.638925244140625,3.268085266113281,9.665392102050781,42.2442748091603,-127.19083969465649,-4.076335877862595,-8.815450512695312,-0.93852705078125,1.5227122558593749,-55.64885496183206,82.79389312977099,1.5877862595419847,0.0
10.810001134872437,-16.85996809082031,3.0071172851562498,9.993397729492187,34.25954198473283,-150.44274809160305,1.5877862595419847,-10.618284362792968,-4.055777612304687,2.3415292236328122,-83.45038167938931,92.36641221374046,0.549618320610687,0.0
10.820000886917114,-17.717092285156248,3.2058360229492187,9.05965908203125,35.64885496183206,-170.99236641221373,12.259541984732824,-10.079588989257813,-3.1268273681640624,-0.354341845703125,-38.534351145038165,75.16030534351145,0.44274809160305345,0.0
10.83000111579895,-17.650054638671875,2.2553379638671873,6.682216833496093,38.10687022900763,-183.26717557251908,22.16793893129771,-11.382034692382812,-2.978386865234375,0.7326257080078125,-38.85496183206107,83.22137404580153,0.5038167938931297,0.0
10.840000867843628,-17.130512878417967,-0.07900865478515624,4.7117888671875,29.587786259541986,-193.08396946564886,25.64885496183206,-12.114660400390624,-5.7077767578125,1.7501614135742187,-20.0,83.08396946564885,5.404580152671755,0.0
10.850000619888306,-14.997279199218749,-2.70065947265625,0.5027823486328125,16.900763358778626,-195.46564885496184,21.251908396946565,-10.771513269042968,-5.647921716308593,2.501940734863281,3.4198473282442747,74.73282442748092,5.1603053435114505,0.0
10.8600013256073,-12.368445776367187,-4.766855505371093,-2.9472622436523435,13.725190839694656,-190.21374045801528,10.030534351145038,-6.979097839355468,-0.28969840087890625,-0.842758984375,12.946564885496183,54.16793893129771,-3.1603053435114505,0.0
10.87000060081482,-10.797849487304687,-3.5146880371093747,-4.070142822265625,18.778625954198475,-175.08396946564886,-2.0763358778625953,-8.870517150878905,0.469263525390625,0.49799394531249996,-12.473282442748092,66.10687022900764,-2.732824427480916,0.0
10.880000591278076,-9.981426721191406,-2.3678654418945313,-4.73094248046875,11.312977099236642,-162.41221374045801,-6.641221374045801,-8.315062365722655,0.5434837768554687,-0.354341845703125,-16.3206106870229,60.045801526717554,-2.198473282442748,0.0
10.890000820159912,-8.374917407226562,-2.300827795410156,-4.141968872070312,13.022900763358779,-138.3053435114504,-8.580152671755725,-10.244788903808594,-1.5777788940429687,0.7805097412109374,-30.18320610687023,67.66412213740458,1.6793893129770991,0.0
10.900000810623169,-8.339004382324218,-1.6519991455078125,-3.4811692138671875,20.793893129770993,-117.58778625954199,-7.801526717557252,-10.328585961914062,-2.528276953125,0.7062894897460937,-14.702290076335878,60.62595419847328,2.885496183206107,0.0
10.910000801086426,-8.382100012207031,-0.852335791015625,-2.4947581298828125,28.50381679389313,-96.03053435114504,-5.66412213740458,-11.14022032470703,-2.7533319091796873,1.3120225097656248,-10.946564885496183,61.17557251908397,5.8320610687022905,0.0
10.920001029968262,-7.551312036132812,-1.43652099609375,-2.0159177978515626,39.725190839694655,-80.50381679389314,-1.6641221374045803,-10.769119067382812,-3.7158009765625,0.9696516723632812,6.625954198473282,54.48854961832061,7.847328244274809,0.0
10.93000078201294,-7.4699091796875,-0.0909796630859375,-0.5386953735351562,50.87022900763359,-60.80916030534351,2.3206106870229006,-10.424354028320312,-2.3870190551757813,0.6584054565429687,12.763358778625955,50.06106870229008,6.442748091603053,0.0
10.940000534057617,-8.772354882812499,2.1715409057617188,1.1109095703125,44.67175572519084,-50.961832061068705,2.4427480916030535,-8.142679846191406,0.06943184814453125,-0.6775590698242188,-2.4427480916030535,49.83206106870229,3.7404580152671754,0.0
10.950001239776611,-9.60793126220703,4.350264416503906,2.1452046874999997,26.870229007633586,-48.3206106870229,4.656488549618321,-9.366116894531249,-1.199495031738281,-0.4477157104492187,-19.862595419847327,57.74045801526717,5.755725190839694,0.0
10.960000991821289,-8.576030346679687,3.6655227416992187,1.8171990600585937,0.16793893129770993,-52.88549618320611,11.221374045801527,-8.518569506835936,-2.674323254394531,1.2521674682617188,-19.52671755725191,59.25190839694657,8.732824427480915,0.0
10.970001220703125,-8.118737829589843,2.844311572265625,2.1404162841796874,-7.633587786259542,-49.083969465648856,16.641221374045802,-9.782707983398437,-2.403778466796875,0.055066638183593745,-10.091603053435115,57.41984732824427,9.053435114503817,0.0
10.980000972747803,-6.710947253417968,2.674323254394531,1.1635820068359375,-15.541984732824428,-46.93129770992366,18.610687022900763,-8.623914379882812,-0.17477672119140625,0.1484405029296875,-19.16030534351145,60.61068702290076,8.122137404580153,0.0
10.990001201629639,-7.4962453979492185,4.0988732421875,1.8698714965820311,-34.83969465648855,-46.99236641221374,18.15267175572519,-9.354145886230468,-1.687912170410156,0.7924807495117187,-17.72519083969466,62.152671755725194,11.541984732824428,0.0
11.000000715255737,-6.062118603515625,1.9704279663085937,1.3862427612304686,-49.954198473282446,-47.51145038167939,21.099236641221374,-10.002974536132811,-2.8514941772460936,1.3838485595703125,-10.183206106870228,61.083969465648856,14.16793893129771,0.0
11.010000944137573,-4.857835168457031,1.2210428466796874,1.2665326782226562,-48.70229007633588,-41.32824427480916,22.931297709923665,-9.552864624023437,-1.4939818359375,1.0127473022460938,-5.511450381679389,53.74045801526717,12.748091603053435,0.0
11.02000093460083,-3.778050219726562,0.11013327636718749,1.43652099609375,-44.88549618320611,-34.38167938931298,23.923664122137403,-11.372457885742186,-1.3958195678710936,1.62805712890625,-12.15267175572519,53.969465648854964,15.129770992366412,0.0
11.030000925064087,-4.13718046875,0.6368576416015624,2.389413256835937,-41.74045801526717,-26.80916030534351,23.297709923664122,-10.824185705566405,-2.1787235107421874,1.9919757812499999,-10.931297709923664,48.778625954198475,17.69465648854962,0.0
11.040000915527344,-3.892971899414062,-0.028730419921875,3.0023288818359375,-46.16793893129771,-22.916030534351144,22.137404580152673,-11.5304751953125,-3.840299462890625,2.023100402832031,-3.4198473282442747,46.30534351145038,18.83969465648855,0.0
11.0500009059906,-4.086902233886718,-0.9744400756835937,3.897760302734375,-40.01526717557252,-16.870229007633586,21.19083969465649,-10.230423693847655,-2.099714855957031,1.7645266235351562,6.702290076335878,32.656488549618324,15.17557251908397,0.0
11.060000658035278,-4.7572786987304685,0.6560112548828124,5.652710119628906,-30.137404580152673,-9.022900763358779,18.458015267175572,-10.740388647460938,-1.659181750488281,1.5873557006835937,2.885496183206107,30.35114503816794,13.969465648854962,0.0
11.070000648498535,-4.604049792480469,0.7110778930664062,6.584054565429687,-25.6793893129771,-7.083969465648855,19.587786259541986,-9.832986218261718,-1.3215993164062498,1.24498486328125,1.0381679389312977,25.557251908396946,12.534351145038167,0.0
11.080000877380371,-5.336675500488281,0.9935936889648437,7.376535314941406,-29.954198473282442,-8.625954198473282,20.16793893129771,-10.644620581054687,-1.235408056640625,1.7286135986328124,1.1297709923664123,24.9618320610687,13.34351145038168,0.0
11.090000629425049,-5.492298608398437,0.6847416748046875,8.037334973144532,-30.519083969465647,-11.557251908396946,21.862595419847327,-9.586383447265625,-0.7517793212890624,1.20667763671875,-3.49618320610687,21.068702290076335,11.557251908396946,0.0
11.100000858306885,-5.518634826660156,-0.373495458984375,8.410830432128906,-18.259541984732824,-11.404580152671755,23.755725190839694,-11.109095703125,-0.3806780639648437,2.176329309082031,-0.9923664122137404,23.389312977099237,12.244274809160306,0.0
11.110000610351562,-6.062118603515625,-0.5099649536132812,9.004592443847656,-11.114503816793894,-12.80916030534351,23.908396946564885,-10.321403356933594,-0.6751648681640625,1.199495031738281,-11.038167938931299,21.46564885496183,11.618320610687023,0.0
11.120000839233398,-6.79953271484375,0.02154781494140625,9.428366137695312,-2.030534351145038,-14.67175572519084,24.396946564885496,-10.453084448242187,-0.7398083129882812,0.7038952880859375,-13.801526717557252,20.412213740458014,12.091603053435115,0.0
11.130000591278076,-6.732495068359374,0.6153098266601562,8.111555224609374,-0.030534351145038167,-15.526717557251908,25.61832061068702,-9.967061511230469,-0.7852981445312499,0.9169792358398436,-20.68702290076336,17.938931297709924,12.946564885496183,0.0
11.14000129699707,-6.787561706542968,2.5953145996093747,3.306392492675781,-17.0381679389313,-14.351145038167939,21.862595419847327,-10.89122335205078,-3.1699229980468746,0.09576806640624999,-29.893129770992367,15.114503816793894,16.3206106870229,0.0
11.150001049041748,-4.9823336547851556,2.205059729003906,-5.537788439941406,-49.87786259541985,-5.770992366412214,17.14503816793893,-9.619902270507811,-1.7022773803710936,1.0223241088867188,-33.32824427480916,14.625954198473282,15.19083969465649,0.0
11.160000801086426,-3.19865341796875,1.6807295654296874,-10.153809240722655,-61.80152671755725,14.16793893129771,18.916030534351144,-10.127473022460936,-2.7150246826171873,0.5099649536132812,-41.02290076335878,12.83969465648855,16.85496183206107,0.0
11.170000314712524,-8.501810095214843,3.248931652832031,-4.939238024902344,-56.19847328244275,48.01526717557252,19.19083969465649,-10.603919152832031,-2.2457611572265623,0.6057330200195312,-44.87022900763359,14.0,16.80916030534351,0.0
11.180001020431519,-11.209652172851563,-0.3064578125,2.6695348510742187,-48.51908396946565,52.62595419847328,32.595419847328245,-12.035651745605469,-3.5434184570312497,-0.15562310791015624,-53.908396946564885,7.984732824427481,20.442748091603054,0.0
11.190000534057617,-13.991714501953124,0.4285620971679687,10.587159741210938,-3.7251908396946565,63.29770992366412,50.36641221374046,-12.478579052734375,-3.3782185424804685,0.5913678100585937,-47.70992366412214,3.6793893129770994,22.244274809160306,0.0
11.200000524520874,-14.927847351074218,4.8314989501953125,13.254300390625,15.236641221374045,66.1526717557252,58.30534351145038,-12.713210815429687,-4.029441394042968,0.1005564697265625,-54.396946564885496,-3.49618320610687,23.221374045801525,0.0
11.210001230239868,-15.607800622558592,7.240065820312499,7.522581616210937,-35.908396946564885,55.725190839694655,39.48091603053435,-10.79545528564453,-2.023100402832031,1.3144167114257812,-43.98473282442748,-7.404580152671755,20.80916030534351,0.0
11.220000505447388,-12.885593334960937,3.019088293457031,-0.6823474731445313,-67.81679389312977,51.98473282442748,34.18320610687023,-10.05564697265625,-2.032677209472656,1.0654197387695312,-49.66412213740458,-9.312977099236642,20.458015267175572,0.0
11.230000734329224,-12.84489190673828,0.3854664672851562,1.7310078002929687,-88.03053435114504,45.00763358778626,28.03053435114504,-10.802637890625,-2.5713725830078125,1.8291700683593748,-31.6793893129771,-12.366412213740459,20.33587786259542,0.0
11.24000096321106,-7.843404638671874,-6.734889270019531,1.944091748046875,-77.66412213740458,44.412213740458014,30.442748091603054,-10.919953771972656,-1.618480322265625,2.138022082519531,-28.12213740458015,-22.946564885496183,18.519083969465647,0.0
11.250000715255737,-6.461950280761719,-6.193799694824218,0.8738836059570312,-29.419847328244273,62.229007633587784,28.27480916030534,-10.788272680664061,-0.948103857421875,1.6232687255859375,-24.290076335877863,-29.389312977099237,15.450381679389313,0.0
11.260000705718994,-2.6408044311523438,-8.779537487792968,-0.7254431030273437,17.69465648854962,70.35114503816794,28.47328244274809,-11.583147631835937,0.10295067138671875,1.5562310791015623,-19.862595419847327,-40.79389312977099,13.236641221374045,0.0
11.270000696182251,-6.186617089843749,-3.1962592163085937,-0.028730419921875,74.90076335877863,98.87022900763358,22.015267175572518,-11.860875024414062,1.7812860351562498,0.9433154541015625,-24.85496183206107,-45.267175572519086,11.251908396946565,0.0
11.280000686645508,-10.527304699707031,6.488286499023437,1.9991583862304687,62.25954198473283,104.16793893129771,11.541984732824428,-12.54561669921875,2.978386865234375,0.8882488159179687,-37.31297709923664,-49.908396946564885,10.82442748091603,0.0
11.290001153945923,-13.048399047851563,10.9175595703125,3.0238766967773434,14.13740458015267,93.14503816793894,11.099236641221374,-13.314155432128905,2.6671406494140624,1.1611878051757811,-51.89312977099237,-50.19847328244275,12.13740458015267,0.0
11.300000667572021,-7.8912886718749995,0.7350199096679687,-2.1619640991210938,-10.061068702290076,73.08396946564885,25.69465648854962,-13.539210388183593,1.9512743530273435,0.8690952026367187,-56.79389312977099,-52.76335877862596,14.0,0.0
11.310001134872437,-8.25520732421875,-1.484405029296875,1.5251064575195312,25.83206106870229,91.34351145038168,25.114503816793892,-13.639766857910155,-0.4572925170898437,1.0749965454101562,-55.9236641221374,-58.01526717557252,15.34351145038168,0.0
11.320001125335693,-7.048529687499999,-4.043806604003906,-0.24181436767578124,46.29007633587786,94.04580152671755,20.412213740458014,-13.6756798828125,-0.09576806640624999,0.4070142822265625,-45.14503816793893,-65.46564885496183,10.549618320610687,0.0
11.330000877380371,-10.445901843261717,3.0621839233398433,2.446874096679687,75.23664122137404,106.0,16.16793893129771,-13.326126440429686,-0.4644751220703125,1.1516109985351561,-40.87022900763359,-68.35114503816794,6.763358778625954,0.0
11.340000867843628,-9.394847314453125,3.794809631347656,2.1595698974609374,57.221374045801525,96.33587786259542,14.51908396946565,-13.309367028808593,-2.422932080078125,1.9895815795898437,-28.702290076335878,-69.52671755725191,5.099236641221374,0.0
11.350000619888306,-11.719617126464843,6.617573388671874,2.863465185546875,39.06870229007634,86.90076335877863,10.900763358778626,-12.50012686767578,-1.7980454467773437,1.350329736328125,-6.702290076335878,-78.83969465648855,2.427480916030534,0.0
11.360000848770142,-11.654973681640625,8.547299926757812,2.770091320800781,7.099236641221374,72.25954198473282,8.80916030534351,-11.343727465820312,0.7110778930664062,1.3072341064453123,-5.038167938931298,-82.68702290076335,-0.5343511450381679,0.0
11.37000060081482,-10.496180078124999,7.831433630371094,1.8028338500976562,-32.16793893129771,50.44274809160305,11.603053435114504,-10.75714805908203,0.8810662109374999,1.0486603271484374,-12.0,-75.98473282442748,-0.21374045801526717,0.0
11.380000591278076,-11.860875024414062,6.6151791870117185,2.3151930053710936,-57.41984732824427,38.29007633587786,12.67175572519084,-10.596736547851561,-0.2059013427734375,0.07422025146484375,-8.778625954198473,-74.83969465648855,1.251908396946565,0.0
11.390000581741333,-9.900023864746093,2.1619640991210938,1.2138602416992186,-51.38931297709924,31.541984732824428,16.748091603053435,-9.7683427734375,1.5538368774414062,-0.44532150878906246,-8.870229007633588,-76.42748091603053,-1.9541984732824427,0.0
11.40000057220459,-9.514557397460937,1.2856862915039062,1.6424223388671875,-46.19847328244275,28.900763358778626,18.091603053435115,-11.621454858398437,-1.16837041015625,0.74699091796875,-5.9541984732824424,-67.87786259541984,-0.3053435114503817,0.0
11.410000324249268,-9.392453112792968,1.3359645263671873,1.6615759521484375,-43.847328244274806,29.419847328244273,15.083969465648854,-10.658985791015624,-0.22266075439453123,-0.3064578125,13.450381679389313,-73.14503816793894,-4.824427480916031,0.0
11.420000553131104,-9.787496386718749,0.8690952026367187,1.4030021728515625,-42.19847328244275,29.49618320610687,12.106870229007633,-10.893617553710937,-0.02633621826171875,0.22744915771484372,9.404580152671755,-67.2824427480916,-8.244274809160306,0.0
11.43000054359436,-9.574412438964844,0.8810662109374999,1.4437036010742186,-42.091603053435115,30.564885496183205,8.916030534351146,-9.888052856445311,0.6871358764648438,-0.35194764404296874,16.610687022900763,-66.51908396946565,-10.595419847328245,0.0
11.440000534057617,-8.95670841064453,0.011971008300781249,1.2593500732421874,-39.786259541984734,30.3206106870229,6.564885496183206,-9.121908325195312,1.599326708984375,-0.08140285644531249,7.206106870229007,-59.63358778625954,-12.641221374045802,0.0
11.450001001358032,-9.208099584960937,0.4644751220703125,1.3000515014648437,-36.0763358778626,31.267175572519083,4.625954198473282,-9.215282189941405,0.59376201171875,0.09816226806640624,8.396946564885496,-54.229007633587784,-11.282442748091603,0.0
11.46000051498413,-9.627084875488281,0.3711012573242187,1.6352397338867186,-36.54961832061068,30.671755725190838,2.16793893129771,-8.429984045410155,1.7525556152343749,0.2753331909179687,9.221374045801527,-53.7557251908397,-11.49618320610687,0.0
11.470000982284546,-9.840168823242188,0.17238251953125,1.5442600708007812,-25.49618320610687,31.083969465648856,2.351145038167939,-7.6614453125,2.3319524169921872,0.9888052856445312,-9.923664122137405,-49.48091603053435,-10.83969465648855,0.0
11.480000495910645,-11.219228979492186,1.448492004394531,1.8004396484374998,-28.0,29.6793893129771,0.13740458015267176,-8.099584216308592,-0.03591302490234375,1.0606313354492187,-12.045801526717558,-43.05343511450382,-7.114503816793893,0.0
11.49000096321106,-9.909600671386718,-0.05985504150390625,1.668758557128906,-30.259541984732824,24.9618320610687,-0.7022900763358778,-8.726865051269531,-0.373495458984375,1.1731588134765625,2.381679389312977,-43.98473282442748,-6.0,0.0
11.500000715255737,-11.623849060058593,1.9129671264648436,2.645592834472656,-18.290076335877863,26.717557251908396,-3.099236641221374,-8.233659509277343,0.3016694091796875,1.467645617675781,1.3129770992366412,-45.7557251908397,-6.625954198473282,0.0
11.510000705718994,-10.498574279785156,2.770091320800781,2.310404602050781,-34.44274809160305,15.32824427480916,-3.8473282442748094,-8.092401611328125,0.9983820922851562,1.5490484741210937,-2.33587786259542,-39.98473282442748,-6.549618320610687,0.0
11.520000457763672,-11.738770739746093,4.220977526855468,3.785232824707031,-40.47328244274809,12.305343511450381,-4.366412213740458,-8.470685473632813,-0.1867477294921875,1.3814543579101561,-0.9923664122137404,-35.63358778625954,-3.7557251908396947,0.0
11.530000686645508,-10.158597644042969,2.427720483398437,2.3774422485351563,-54.93129770992366,-1.9541984732824427,-1.2366412213740459,-8.932766394042968,-0.04548983154296875,1.4341267944335936,5.083969465648855,-40.2442748091603,-2.7480916030534353,0.0
11.540000677108765,-12.588712329101561,4.096479040527344,3.5577836669921874,-54.87022900763359,-1.5419847328244274,-1.8015267175572518,-7.671022119140624,1.5251064575195312,1.6448165405273436,-1.8015267175572518,-38.2442748091603,-4.717557251908397,0.0
11.550000667572021,-10.59194814453125,2.8898014038085935,2.090138049316406,-69.6030534351145,-15.938931297709924,1.1450381679389312,-8.149862451171874,-0.16519991455078123,1.1923124267578125,-11.526717557251908,-31.96946564885496,-2.183206106870229,0.0
11.560000658035278,-10.505756884765624,1.0773907470703123,1.9608511596679685,-61.908396946564885,-16.80916030534351,5.435114503816794,-9.241618408203124,-1.0893617553710937,1.9895815795898437,-1.4045801526717556,-31.435114503816795,0.5648854961832062,0.0
11.570000648498535,-8.353369592285155,-1.66636435546875,1.1133037719726562,-41.86259541984733,-14.82442748091603,8.488549618320612,-8.607154968261717,-0.9050082275390624,1.0199299072265624,9.816793893129772,-35.282442748091604,-0.6870229007633588,0.0
11.580000877380371,-7.860164050292968,-2.6982652709960937,1.1372457885742187,-5.282442748091603,-1.297709923664122,7.343511450381679,-7.481880187988281,-0.4165910888671875,0.9097966308593749,3.3282442748091605,-33.83206106870229,-3.572519083969466,0.0
11.590000629425049,-8.394071020507813,-0.29927520751953124,1.7453730102539062,4.641221374045801,3.618320610687023,1.4045801526717556,-8.82981572265625,-1.8602946899414061,1.9800047729492187,11.206106870229007,-28.244274809160306,-1.618320610687023,0.0
11.600000858306885,-7.1778165771484375,-1.7501614135742187,1.1659762084960936,25.0381679389313,10.641221374045802,1.1908396946564885,-8.070853796386718,-0.7493851196289062,2.212242333984375,26.33587786259542,-29.17557251908397,-2.1374045801526718,0.0
11.610000610351562,-9.085995300292968,0.5674257934570313,2.185906115722656,34.51908396946565,18.916030534351144,-5.755725190839694,-8.633491186523438,-0.93852705078125,2.272097375488281,22.702290076335878,-29.69465648854962,-4.351145038167939,0.0
11.62000060081482,-9.773131176757811,1.9823989746093749,2.4349030883789062,33.31297709923664,20.564885496183205,-9.404580152671755,-8.82263311767578,-0.45968671875,2.5258827514648434,25.72519083969466,-26.99236641221374,-6.290076335877862,0.0
11.630000591278076,-9.662997900390625,1.6615759521484375,2.31758720703125,35.25190839694657,21.297709923664122,-9.923664122137405,-8.793902697753905,-0.5793968017578125,2.8993782104492185,9.022900763358779,-23.801526717557252,-5.740458015267175,0.0
11.640000581741333,-9.639055883789062,2.1739351074218747,2.5641899780273434,33.80152671755725,19.923664122137403,-9.877862595419847,-8.951920007324219,-0.4333505004882812,2.767697119140625,24.778625954198475,-21.69465648854962,-5.740458015267175,0.0
11.65000033378601,-8.939948999023438,1.7980454467773437,2.4660277099609376,34.396946564885496,18.885496183206108,-9.587786259541986,-9.411606726074218,-0.4213794921875,2.8706477905273435,27.16030534351145,-23.480916030534353,-6.244274809160306,0.0
11.660000562667847,-9.828197814941406,2.1930887207031247,2.2960393920898436,36.94656488549618,17.099236641221374,-9.664122137404581,-9.160215551757812,-0.06703764648437499,2.779668127441406,24.885496183206108,-24.229007633587788,-6.977099236641221,0.0
11.670000553131104,-9.655815295410155,2.4660277099609376,2.233790148925781,34.93129770992366,13.557251908396946,-8.564885496183207,-9.093177905273437,0.07422025146484375,2.578555187988281,23.770992366412212,-24.38167938931298,-7.068702290076335,0.0
11.68000054359436,-10.441113439941406,3.1220389648437497,2.2960393920898436,30.65648854961832,12.396946564885496,-8.50381679389313,-8.607154968261717,0.7062894897460937,2.588131994628906,24.946564885496183,-22.85496183206107,-7.022900763358779,0.0
11.690000534057617,-10.268730920410155,3.277662072753906,2.152387292480469,21.633587786259543,6.870229007633588,-6.854961832061068,-8.894459167480468,0.4908113403320312,2.461239306640625,22.35114503816794,-22.106870229007633,-4.900763358778626,0.0
11.700000524520874,-9.734823950195311,2.5354595581054684,2.1691467041015624,20.091603053435115,5.557251908396947,-5.877862595419847,-8.736441857910156,0.6967126831054687,2.5474305664062498,20.610687022900763,-19.923664122137403,-4.458015267175573,0.0
11.71000075340271,-9.720458740234374,2.1356278808593747,1.8195932617187498,15.236641221374045,2.2442748091603053,-5.633587786259542,-9.04050546875,0.32082302246093747,2.616862414550781,18.99236641221374,-18.290076335877863,-3.2061068702290076,0.0
11.720098495483398,-9.868899243164062,2.0638018310546875,1.7812860351562498,15.664122137404581,2.4427480916030535,-6.015267175572519,-9.088389501953124,0.0,2.8730419921875,18.748091603053435,-16.916030534351144,-2.7938931297709924,0.0
11.730000972747803,-9.545682019042967,1.9967641845703124,1.5849614990234373,17.374045801526716,3.6946564885496183,-5.9541984732824424,-8.269572534179687,1.1109095703125,2.7150246826171873,19.83206106870229,-17.61832061068702,-4.442748091603053,0.0
11.74000072479248,-9.789890588378906,2.250549560546875,1.5370774658203123,15.557251908396946,4.412213740458015,-7.099236641221374,-8.690952026367187,0.9720458740234375,2.2074539306640624,16.916030534351144,-16.229007633587788,-4.198473282442748,0.0
11.750001192092896,-9.45470235595703,2.1906945190429687,1.5155296508789062,13.618320610687023,5.297709923664122,-7.068702290076335,-8.59278975830078,0.6919242797851562,2.626439221191406,11.557251908396946,-13.312977099236642,-4.351145038167939,0.0
11.760001182556152,-9.756371765136718,2.7054478759765623,1.6424223388671875,8.229007633587786,5.66412213740458,-8.15267175572519,-8.650250598144531,0.4477157104492187,2.6503812377929687,9.664122137404581,-11.664122137404581,-3.9389312977099236,0.0
11.77000093460083,-9.404424121093749,2.2960393920898436,1.7214309936523438,6.717557251908397,6.595419847328245,-8.580152671755725,-8.755595471191405,0.06464344482421874,2.6982652709960937,8.442748091603054,-10.732824427480915,-4.244274809160306,0.0
11.780000448226929,-9.387664709472656,2.0661960327148434,1.4772224243164063,5.00763358778626,6.5038167938931295,-8.83969465648855,-8.892064965820312,0.05027823486328125,2.7581203125,8.01526717557252,-9.557251908396946,-4.67175572519084,0.0
11.790000677108765,-9.234435803222656,1.8435352783203125,1.7262193969726563,6.290076335877862,7.251908396946565,-9.679389312977099,-8.920795385742187,-0.25139117431640623,2.8802245971679685,8.351145038167939,-8.564885496183207,-5.358778625954199,0.0
11.800000667572021,-9.562441430664062,1.9823989746093749,1.9632453613281249,7.374045801526718,7.603053435114504,-10.50381679389313,-9.289502441406249,-1.2713210815429687,3.1699229980468746,12.045801526717558,-8.183206106870228,-5.022900763358779,0.0
11.810000658035278,-9.356540087890625,1.4245499877929686,1.5777788940429687,10.427480916030534,7.435114503816794,-9.725190839694656,-8.556876733398436,-0.5219359619140624,2.7820623291015623,17.51145038167939,-12.961832061068701,-7.190839694656488,0.0
11.820000886917114,-9.006986645507812,0.6200982299804687,1.0582371337890624,19.587786259541986,9.312977099236642,-9.435114503816793,-8.116343627929687,-0.22744915771484372,2.6815058593749996,18.198473282442748,-14.0,-8.534351145038167,0.0
11.830000638961792,-9.550470422363281,1.3359645263671873,1.2042834350585936,27.709923664122137,15.068702290076336,-11.267175572519085,-7.9846625366210935,0.062249243164062495,2.6527754394531247,18.412213740458014,-12.748091603053435,-9.221374045801527,0.0
11.840000867843628,-9.888052856445311,2.070984436035156,1.0007762939453124,26.045801526717558,15.84732824427481,-13.129770992366412,-8.901641772460938,-0.41419688720703124,3.1004911499023438,26.213740458015266,-10.442748091603054,-8.763358778625955,0.0
11.850000619888306,-9.727641345214844,2.214636535644531,0.8930372192382812,20.82442748091603,14.885496183206106,-13.221374045801527,-9.248801013183593,-0.8858546142578124,3.2034418212890623,27.34351145038168,-12.885496183206106,-9.49618320610687,0.0
11.860000848770142,-10.275913525390624,2.978386865234375,1.180341418457031,18.290076335877863,15.877862595419847,-13.465648854961833,-8.88009395751953,-0.18914193115234373,3.284844677734375,30.85496183206107,-14.854961832061068,-11.908396946564885,0.0
11.87000060081482,-9.648632690429688,2.4947581298828125,0.8906430175781249,21.740458015267176,18.35114503816794,-12.67175572519084,-8.497021691894531,0.5913678100585937,2.7437551025390623,26.702290076335878,-14.213740458015268,-14.412213740458014,0.0
11.880000591278076,-8.71489404296875,1.936909143066406,0.4213794921875,20.03053435114504,18.885496183206108,-11.755725190839694,-8.145074047851562,0.5458779785156249,2.6982652709960937,19.206106870229007,-10.534351145038167,-14.580152671755725,0.0
11.890000820159912,-9.425971936035156,2.3247698120117186,0.584185205078125,15.358778625954198,19.64885496183206,-13.099236641221374,-8.046911779785155,0.9026140258789062,2.463633508300781,18.778625954198475,-7.343511450381679,-14.290076335877863,0.0
11.90000057220459,-8.640673791503906,1.8171990600585937,0.4213794921875,16.27480916030534,21.862595419847327,-12.274809160305344,-8.257601525878906,0.18914193115234373,2.6958710693359373,9.877862595419847,-2.183206106870229,-13.801526717557252,0.0
11.910000801086426,-9.514557397460937,2.446874096679687,0.814028564453125,15.98473282442748,26.03053435114504,-14.16793893129771,-9.093177905273437,-0.9911994873046874,2.923320227050781,15.709923664122137,1.3587786259541985,-12.748091603053435,0.0
11.920001029968262,-8.94473740234375,2.1308394775390624,0.8164227661132812,14.900763358778626,26.50381679389313,-14.534351145038167,-8.851363537597656,-0.603338818359375,2.896984008789062,18.625954198473284,0.6717557251908397,-14.183206106870228,0.0
11.930001258850098,-10.194510668945313,1.668758557128906,0.8259995727539062,11.709923664122137,27.587786259541986,-17.16030534351145,-8.607154968261717,-0.5339069702148437,2.5426421630859375,20.50381679389313,2.519083969465649,-16.03053435114504,0.0
11.940000534057617,-9.239224206542968,1.7501614135742187,0.928950244140625,14.67175572519084,27.480916030534353,-17.709923664122137,-8.480262280273436,-0.3327940307617187,2.446874096679687,22.076335877862597,4.625954198473282,-17.00763358778626,0.0
11.950001001358032,-9.682151513671874,1.1659762084960936,0.6153098266601562,15.129770992366412,28.33587786259542,-18.48854961832061,-8.461108666992187,-0.22266075439453123,2.31758720703125,22.412213740458014,6.67175572519084,-18.03053435114504,0.0
11.96000051498413,-9.342174877929686,1.7286135986328124,0.7134720947265625,17.923664122137403,29.480916030534353,-19.389312977099237,-8.042123376464843,0.17238251953125,2.1595698974609374,20.717557251908396,8.748091603053435,-18.870229007633586,0.0
11.970001220703125,-9.0021982421875,0.8499415893554687,0.33758243408203126,19.251908396946565,29.572519083969464,-19.19083969465649,-8.497021691894531,-0.13168109130859373,2.3343466186523436,22.0,12.01526717557252,-18.366412213740457,0.0
11.980000495910645,-9.524134204101562,1.1180921752929687,0.5099649536132812,23.61832061068702,33.847328244274806,-21.328244274809162,-8.382100012207031,0.02633621826171875,2.442085693359375,22.3206106870229,14.259541984732824,-18.641221374045802,0.0
11.99000072479248,-9.797073193359374,1.8243816650390623,0.6464344482421874,24.763358778625953,36.79389312977099,-22.9618320610687,-8.391676818847655,0.011971008300781249,2.2266075439453124,21.923664122137403,16.229007633587788,-19.0381679389313,0.0
12.000000715255737,-9.236830004882812,2.080561242675781,0.5027823486328125,22.442748091603054,36.778625954198475,-23.83206106870229,-8.180987072753906,0.031124621582031248,2.1212626708984375,21.83206106870229,18.137404580152673,-19.16030534351145,0.0
12.010000705718994,-9.567229833984374,1.2665326782226562,0.5267243652343749,18.38167938931298,36.045801526717554,-23.603053435114504,-8.142679846191406,0.0383072265625,1.908178723144531,21.954198473282442,20.732824427480917,-19.31297709923664,0.0
12.02000093460083,-8.942343200683593,1.637633935546875,0.833182177734375,19.893129770992367,36.36641221374046,-23.480916030534353,-7.1395093505859375,1.1540052001953125,1.24498486328125,17.31297709923664,21.923664122137403,-21.389312977099237,0.0
12.030000925064087,-9.325415466308593,1.467645617675781,1.0630255371093749,19.52671755725191,36.74809160305343,-23.328244274809162,-7.280767248535156,0.852335791015625,1.5107412475585937,5.038167938931298,35.06870229007634,-22.244274809160306,0.0
12.040000677108765,-10.09395419921875,2.4516625,1.5514426757812498,17.87786259541985,36.97709923664122,-22.778625954198475,-8.166621862792969,-0.63206923828125,2.6671406494140624,3.435114503816794,38.94656488549618,-20.580152671755727,0.0
12.0500009059906,-9.344569079589844,1.89620771484375,1.8650830932617186,19.954198473282442,35.19083969465649,-20.564885496183205,-8.432378247070313,-0.8379705810546875,1.8746598999023436,13.969465648854962,37.786259541984734,-21.81679389312977,0.0
12.060000658035278,-9.744400756835937,2.592920397949219,2.418143676757812,22.671755725190838,33.603053435114504,-20.213740458015266,-7.3478048950195305,0.852335791015625,0.11013327636718749,4.106870229007634,38.68702290076336,-25.52671755725191,0.0
12.070000648498535,-10.50815108642578,3.3111808959960936,2.980781066894531,19.66412213740458,29.69465648854962,-19.389312977099237,-8.961496813964843,-0.7757213378906249,1.4437036010742186,1.9236641221374047,53.23664122137404,-22.900763358778626,0.0
12.08000111579895,-10.979808813476561,3.0693665283203124,3.6343981201171873,14.82442748091603,24.106870229007633,-16.442748091603054,-11.597512841796874,-2.2960393920898436,2.461239306640625,22.427480916030536,52.42748091603053,-18.30534351145038,0.0
12.090000629425049,-10.996568225097656,2.521094348144531,4.378994836425781,14.82442748091603,17.755725190839694,-14.641221374045802,-11.164162341308593,0.07422025146484375,3.3159692993164063,40.76335877862596,44.18320610687023,-19.587786259541986,0.0
12.100000858306885,-10.606313354492187,1.7453730102539062,4.271255761718749,20.0,8.793893129770993,-13.312977099236642,-11.348515869140625,1.6160861206054686,3.816357446289062,32.61068702290076,42.35114503816794,-23.129770992366414,0.0
12.110000610351562,-11.939883679199218,2.7054478759765623,5.329492895507812,19.053435114503817,1.9389312977099236,-14.305343511450381,-12.413935607910156,0.8882488159179687,6.1842228881835934,24.259541984732824,37.81679389312977,-21.64885496183206,0.0
12.120001077651978,-11.745953344726562,2.446874096679687,6.098031628417968,15.938931297709924,-8.946564885496183,-12.916030534351146,-11.767501159667969,1.388636962890625,4.321533996582031,23.068702290076335,38.396946564885496,-21.862595419847327,0.0
12.130000829696655,-10.886434948730468,0.7637503295898437,5.9783215454101555,12.916030534351146,-24.50381679389313,-11.007633587786259,-10.369287390136718,2.0470424194335934,2.5665841796874997,8.15267175572519,37.29770992366412,-21.770992366412212,0.0
12.140000820159912,-10.881646545410156,-0.1771709228515625,6.375759020996093,26.580152671755727,-34.3206106870229,-10.80916030534351,-10.27830772705078,0.24899697265624998,2.1260510742187497,-0.366412213740458,43.587786259541986,-18.18320610687023,0.0
12.150000810623169,-10.71884083251953,-0.8714894042968749,7.015010864257812,41.282442748091604,-44.61068702290076,-11.389312977099237,-10.27830772705078,-1.1372457885742187,-0.8379705810546875,11.694656488549619,31.64885496183206,-15.633587786259541,0.0
12.160000801086426,-11.353304272460937,0.3064578125,7.706935144042968,56.44274809160305,-53.847328244274806,-12.931297709923664,-7.666233715820312,1.2210428466796874,-0.7733271362304687,11.49618320610687,30.076335877862597,-19.72519083969466,0.0
12.17000126838684,-13.029245434570312,2.7533319091796873,8.815450512695312,50.54961832061068,-69.64885496183206,-13.648854961832061,-8.233659509277343,1.8818425048828125,-0.5386953735351562,-10.183206106870228,41.57251908396947,-19.099236641221374,0.0
12.18000054359436,-14.506467858886717,4.474762902832031,9.119514123535156,34.717557251908396,-92.8854961832061,-8.732824427480915,-9.437942944335937,-0.7445967163085937,0.44053310546874996,-24.931297709923665,54.717557251908396,-11.618320610687023,0.0
12.190000534057617,-15.768212133789062,4.383783239746093,9.993397729492187,16.458015267175572,-118.50381679389314,-0.0,-11.535263598632811,-3.4620156005859375,0.9696516723632812,-14.290076335877863,54.36641221374046,-4.961832061068702,0.0
12.200000524520874,-16.160861206054687,2.913743420410156,10.09395419921875,18.778625954198475,-137.8320610687023,9.679389312977099,-10.749965454101561,-2.0302830078125,1.0462661254882812,-7.8320610687022905,53.69465648854962,-7.526717557251908,0.0
12.21000075340271,-17.92778203125,3.756502404785156,9.119514123535156,21.480916030534353,-158.24427480916032,15.770992366412214,-11.571176623535155,-2.5163059448242184,1.7501614135742187,4.33587786259542,51.908396946564885,-6.290076335877862,0.0
12.220000505447388,-17.65244884033203,2.6096798095703124,7.922413293457031,21.786259541984734,-174.6259541984733,23.236641221374047,-8.614337573242187,1.4030021728515625,0.5746083984375,2.0916030534351147,43.02290076335878,-9.465648854961833,0.0
12.230000734329224,-16.658855151367188,1.005564697265625,7.091625317382812,21.053435114503817,-187.40458015267177,26.091603053435115,-9.900023864746093,0.15083470458984374,1.5011644409179687,-17.34351145038168,51.083969465648856,-4.33587786259542,0.0
12.240000486373901,-15.58385860595703,-0.3806780639648437,5.092466931152344,6.824427480916031,-197.87786259541986,26.259541984732824,-7.086836914062499,3.2513258544921873,1.0103531005859374,-19.114503816793892,45.70992366412214,-4.717557251908397,0.0
12.250000715255737,-13.429077111816406,-1.9967641845703124,1.1061211669921875,-12.15267175572519,-199.6030534351145,22.85496183206107,-9.363722692871093,1.2401964599609374,1.6472107421875,-55.48091603053435,58.58015267175573,3.2213740458015265,0.0
12.260000944137573,-12.34689796142578,-3.076549133300781,-2.142810485839844,-35.02290076335878,-200.3206106870229,17.0381679389313,-8.068459594726562,1.4724340209960938,0.9744400756835937,-63.02290076335878,57.52671755725191,6.061068702290076,0.0
12.27000093460083,-9.277531433105468,-4.321533996582031,-3.902548706054687,-35.38931297709924,-187.31297709923663,10.625954198473282,-9.629479077148437,0.35673604736328124,0.1580173095703125,-74.76335877862596,62.25954198473283,8.763358778625955,0.0
12.280000925064087,-7.575254052734374,-5.406107348632812,-4.6351744140625,-29.17557251908397,-168.35114503816794,1.7099236641221374,-9.813832604980469,-1.675941162109375,0.8451531860351562,-61.847328244274806,59.14503816793893,10.65648854961832,0.0
12.290000677108765,-6.8593877563476555,-5.820304235839844,-4.319139794921875,-5.00763358778626,-141.80152671755727,-6.641221374045801,-10.441113439941406,-4.153939880371094,0.6392518432617187,-54.42748091603053,59.19083969465649,11.48091603053435,0.0
12.300000429153442,-6.366182214355469,-4.6255976074218745,-3.9432501342773434,25.66412213740458,-118.10687022900764,-12.702290076335878,-9.095572106933593,-2.920926025390625,-0.7541735229492187,-36.045801526717554,47.12977099236641,7.893129770992366,0.0
12.310000658035278,-7.615955480957031,-1.467645617675781,-2.5258827514648434,44.35114503816794,-92.94656488549619,-17.61832061068702,-10.398017810058594,-3.6439749267578123,-0.316034619140625,-38.01526717557252,50.916030534351144,8.427480916030534,0.0
12.320000886917114,-8.339004382324218,-0.30885201416015623,-0.699106884765625,48.778625954198475,-78.27480916030534,-20.229007633587788,-9.337386474609374,-3.114856359863281,-1.2689268798828124,-33.19083969465649,43.9236641221374,6.961832061068702,0.0
12.330000877380371,-9.009380847167968,1.6903063720703124,0.5817910034179687,52.54961832061068,-64.33587786259542,-17.603053435114504,-9.464279162597656,-3.7110125732421873,-1.024718310546875,-35.32824427480916,46.68702290076336,7.786259541984733,0.0
12.340000867843628,-9.974244116210937,3.3399113159179685,1.7549498168945312,42.3206106870229,-58.36641221374046,-14.396946564885496,-9.354145886230468,-1.5227122558593749,-0.7254431030273437,-32.85496183206107,48.534351145038165,6.854961832061068,0.0
12.350000619888306,-10.843339318847656,4.932055419921875,2.7174188842773437,22.80916030534351,-55.099236641221374,-8.961832061068701,-9.145850341796875,-1.8219874633789062,-0.3591302490234375,-39.099236641221374,54.97709923664122,8.793893129770993,0.0
12.36000108718872,-10.079588989257813,3.699041564941406,2.2768857788085937,3.1297709923664123,-59.31297709923664,-0.4732824427480916,-8.580818749999999,-2.5546131713867184,-0.02154781494140625,-29.17557251908397,53.45038167938932,12.045801526717558,0.0
12.37000060081482,-9.41639512939453,2.8514941772460936,2.233790148925781,-4.106870229007634,-55.17557251908397,6.015267175572519,-9.974244116210937,-2.597708801269531,-0.16280571289062498,-22.671755725190838,55.038167938931295,14.946564885496183,0.0
12.380000591278076,-9.627084875488281,3.7014357666015623,1.886630908203125,-20.18320610687023,-54.61068702290076,8.473282442748092,-8.856151940917968,-1.0534487304687499,-0.6823474731445313,-20.0,54.19847328244275,13.908396946564885,0.0
12.390000820159912,-8.777143286132812,3.5003228271484375,1.4772224243164063,-34.06106870229008,-54.12213740458015,12.351145038167939,-8.511386901855468,-0.6081272216796875,-0.16280571289062498,-29.0381679389313,58.19847328244275,16.12213740458015,0.0
12.400000810623169,-7.544129431152343,2.4205378784179685,0.9600748657226562,-45.80152671755725,-54.091603053435115,16.9618320610687,-9.555258825683593,-2.7533319091796873,0.031124621582031248,-27.908396946564885,62.13740458015267,19.297709923664122,0.0
12.410000801086426,-6.710947253417968,1.695094775390625,1.3287819213867187,-52.67175572519084,-48.93129770992366,18.748091603053435,-9.299079248046874,-3.3638533325195312,0.5482721801757812,-11.450381679389313,58.916030534351144,20.458015267175572,0.0
12.420000314712524,-4.525041137695312,-0.6464344482421874,0.6272808349609375,-48.091603053435115,-44.79389312977099,20.35114503816794,-9.34696328125,-2.43250888671875,-0.04548983154296875,-3.66412213740458,55.11450381679389,18.9618320610687,0.0
12.43000078201294,-3.9791631591796874,-0.5147533569335937,1.2856862915039062,-35.86259541984733,-34.70229007633588,19.603053435114504,-9.8449572265625,-1.209071838378906,-0.24660277099609373,-8.82442748091603,55.57251908396947,18.076335877862597,0.0
12.440000534057617,-4.007893579101562,0.0383072265625,2.0973206542968748,-33.41984732824427,-26.793893129770993,17.450381679389313,-10.64222637939453,-3.5817256835937497,0.6153098266601562,-4.778625954198473,58.13740458015267,20.244274809160306,0.0
12.450000762939453,-4.836287353515624,0.36631285400390623,2.9472622436523435,-35.83206106870229,-20.396946564885496,16.015267175572518,-9.4618849609375,-3.0550013183593747,0.6703764648437499,16.229007633587788,45.3587786259542,18.53435114503817,0.0
12.46000051498413,-4.53940634765625,0.02154781494140625,4.266467358398438,-33.23664122137404,-14.16793893129771,15.465648854961833,-10.596736547851561,-2.3774422485351563,0.2920926025390625,27.954198473282442,40.961832061068705,17.068702290076335,0.0
12.470001220703125,-3.7900212280273435,-0.1867477294921875,5.080495922851562,-25.129770992366414,-9.86259541984733,16.061068702290076,-10.024522351074218,-1.4221557861328125,0.3327940307617187,24.885496183206108,38.13740458015267,15.17557251908397,0.0
12.480000495910645,-3.1794998046874996,-0.74699091796875,6.011840368652344,-18.595419847328245,-8.381679389312977,18.27480916030534,-10.955866796875,-1.6448165405273436,0.7900865478515624,28.564885496183205,37.80152671755725,15.938931297709924,0.0
12.490000486373901,-3.6918589599609373,0.7996633544921875,7.879317663574218,-4.091603053435114,-1.083969465648855,19.435114503816795,-10.302249743652343,-0.9935936889648437,1.0797849487304687,23.19083969465649,34.50381679389313,15.664122137404581,0.0
12.500000476837158,-4.623203405761719,1.6304513305664061,9.361328491210937,-4.213740458015267,-5.221374045801527,20.38167938931298,-10.66856259765625,-0.4955997436523437,1.199495031738281,22.916030534351144,31.541984732824428,15.053435114503817,0.0
12.510000705718994,-4.8650177734375,1.5969325073242187,10.357316381835936,-0.4122137404580153,-8.946564885496183,24.83969465648855,-10.297461340332031,-0.43574470214843747,1.465251416015625,17.6793893129771,28.35114503816794,15.129770992366412,0.0
12.52000117301941,-5.492298608398437,1.2952630981445312,11.516109985351562,11.49618320610687,-12.229007633587786,30.091603053435115,-11.707646118164062,-0.316034619140625,2.521094348144531,19.557251908396946,27.893129770992367,15.511450381679388,0.0
12.530001163482666,-5.7843912109375,1.1348515869140625,11.889605444335936,22.0,-15.404580152671755,35.38931297709924,-10.654197387695312,-0.5267243652343749,1.7477672119140624,6.916030534351145,24.198473282442748,14.473282442748092,0.0
12.540001630783081,-5.386953735351562,1.4867992309570313,9.49300958251953,21.14503816793893,-17.374045801526716,37.12977099236641,-10.766724865722656,0.0,1.5346832641601562,4.977099236641221,20.03053435114504,13.770992366412214,0.0
12.550000667572021,-3.4955344238281247,2.499546533203125,1.3263877197265623,-2.2442748091603053,-11.83206106870229,31.49618320610687,-10.40041201171875,-0.22026655273437498,1.7022773803710936,-3.4198473282442747,17.083969465648856,13.816793893129772,0.0
12.560000658035278,-2.427720483398437,4.019864587402344,-7.924807495117187,-48.13740458015267,0.2748091603053435,17.49618320610687,-10.87206973876953,-1.4915876342773438,1.7741034301757812,-11.648854961832061,14.702290076335878,14.763358778625955,0.0
12.570001363754272,-2.023100402832031,1.3766659545898436,-11.487379565429686,-62.595419847328245,21.770992366412212,18.213740458015266,-10.409988818359375,-0.5099649536132812,1.5203180541992187,-20.946564885496183,11.34351145038168,14.229007633587786,0.0
12.580000877380371,-10.455478649902343,2.578555187988281,-0.6584054565429687,-57.89312977099237,40.67175572519084,21.083969465648856,-12.662932580566405,-2.3151930053710936,1.455674609375,-43.12977099236641,4.549618320610687,18.366412213740457,0.0
12.590001106262207,-16.079458349609375,0.45968671875,13.048399047851563,-29.755725190839694,45.12977099236641,39.587786259541986,-11.961431494140625,0.7230489013671875,0.7972691528320313,-43.74045801526717,-1.0381679389312977,16.35114503816794,0.0
12.600000858306885,-15.265429785156249,2.138022082519531,13.304578625488281,-2.687022900763359,51.404580152671755,48.458015267175576,-13.268665600585937,-1.0989385620117187,1.0295067138671874,-59.11450381679389,-4.916030534351145,19.72519083969466,0.0
12.610000610351562,-13.455413330078125,2.961627453613281,4.127603662109375,-33.69465648854962,47.57251908396947,29.099236641221374,-12.066776367187499,-0.948103857421875,0.9313444458007812,-39.98473282442748,-13.786259541984732,16.946564885496183,0.0
12.620001316070557,-12.715605017089842,2.3487118286132813,-0.9864110839843749,-65.70992366412214,42.99236641221374,19.64885496183206,-12.380416784667968,-2.5665841796874997,2.8467057739257813,-45.80152671755725,-24.885496183206108,16.916030534351144,0.0
12.630001068115234,-9.5384994140625,-3.402160559082031,0.74699091796875,-67.2824427480916,40.74809160305343,23.541984732824428,-11.578359228515625,-1.3575123413085937,2.379836450195312,-37.786259541984734,-38.12213740458015,12.702290076335878,0.0
12.640000581741333,-7.343016491699219,-4.350264416503906,1.4221557861328125,-45.770992366412216,51.29770992366412,22.213740458015266,-12.19366905517578,-2.7581203125,2.5617957763671875,-34.229007633587784,-47.23664122137404,12.01526717557252,0.0
12.65000057220459,-7.9272016967773435,-2.6791116577148437,1.5801730957031248,-20.763358778625953,59.9236641221374,17.541984732824428,-11.729193933105469,-0.16519991455078123,1.898601916503906,-18.885496183206108,-62.13740458015267,7.511450381679389,0.0
12.660001039505005,-6.344634399414062,-3.881000891113281,0.41419688720703124,9.98473282442748,62.030534351145036,17.755725190839694,-12.437877624511717,1.0773907470703123,1.4820108276367188,-37.25190839694657,-67.43511450381679,6.396946564885496,0.0
12.67000126838684,-8.003816149902343,-0.7637503295898437,0.689530078125,34.93129770992366,71.78625954198473,15.969465648854962,-13.295001818847656,0.411802685546875,0.833182177734375,-40.97709923664122,-72.47328244274809,7.099236641221374,0.0
12.680001020431519,-6.368576416015625,0.08379705810546874,-0.12449848632812499,43.98473282442748,75.0381679389313,17.419847328244273,-13.524845178222655,1.5514426757812498,0.23702596435546874,-50.01526717557252,-78.42748091603053,5.526717557251908,0.0
12.690001249313354,-9.272743029785156,2.8562825805664063,1.2617442749023438,57.3587786259542,90.45801526717557,17.389312977099237,-14.444218615722656,0.09337386474609374,0.4213794921875,-50.56488549618321,-77.80152671755725,7.0534351145038165,0.0
12.700001001358032,-7.702146740722656,0.277727392578125,-0.9265560424804687,53.87786259541985,93.0381679389313,21.84732824427481,-13.500903161621093,0.02154781494140625,-0.2657563842773437,-48.2442748091603,-81.31297709923665,5.511450381679389,0.0
12.710000991821289,-9.93354268798828,2.3295582153320313,1.8435352783203125,60.97709923664122,104.82442748091603,19.96946564885496,-12.947842578125,-0.15083470458984374,0.7110778930664062,-45.603053435114504,-80.59541984732824,4.198473282442748,0.0
12.720000505447388,-5.925649108886718,-1.0989385620117187,0.9600748657226562,58.50381679389313,100.77862595419847,20.091603053435115,-12.50730947265625,-1.0295067138671874,0.8379705810546875,-36.70229007633588,-80.77862595419847,2.0763358778625953,0.0
12.730000734329224,-10.184933862304687,2.0638018310546875,2.8514941772460936,79.63358778625954,116.82442748091603,14.67175572519084,-12.064382165527343,-1.0366893188476562,0.373495458984375,-17.801526717557252,-85.1145038167939,-1.8625954198473282,0.0
12.74000072479248,-9.591171850585937,2.0087351928710935,0.718260498046875,63.37404580152672,106.9618320610687,9.816793893129772,-10.900800158691405,-0.143652099609375,0.699106884765625,-16.47328244274809,-86.09160305343511,-7.404580152671755,0.0
12.750000953674316,-12.061987963867187,5.2433016357421875,2.8131869506835936,49.49618320610687,104.01526717557252,5.572519083969466,-10.800243688964843,-0.507570751953125,1.1252747802734375,-14.183206106870228,-84.58015267175573,-9.145038167938932,0.0
12.760001182556152,-11.226411584472656,6.519411120605469,3.31357509765625,10.183206106870228,85.81679389312977,1.1603053435114503,-11.358092675781249,-2.427720483398437,0.9648632690429687,-1.1145038167938932,-88.65648854961832,-9.450381679389313,0.0
12.770000696182251,-11.046846459960937,4.8889597900390624,2.482787121582031,-15.786259541984732,66.54961832061069,-0.7480916030534351,-10.369287390136718,-0.016759411621093748,0.38307226562499996,19.923664122137403,-96.68702290076335,-12.488549618320612,0.0
12.780001401901245,-11.180921752929686,6.890512377929687,3.8570588745117185,-42.68702290076336,53.9236641221374,-4.885496183206107,-10.350133776855468,-0.3447650390625,1.1540052001953125,1.7557251908396947,-94.2442748091603,-13.19083969465649,0.0
12.790001153945923,-8.626308581542968,1.0821791503906248,0.7805097412109374,-63.11450381679389,33.12977099236641,0.8549618320610687,-9.873687646484374,-0.28490999755859375,-0.7852981445312499,15.86259541984733,-94.65648854961832,-13.358778625954198,0.0
12.800000429153442,-10.058041174316406,0.4572925170898437,1.43652099609375,-52.35114503816794,32.58015267175573,1.0076335877862594,-10.869675537109375,-1.5370774658203123,-0.00718260498046875,10.641221374045802,-86.97709923664122,-11.526717557251908,0.0
12.810000658035278,-8.762778076171875,-0.7948749511718749,1.3335703247070312,-38.01526717557252,36.396946564885496,2.33587786259542,-9.402029919433593,0.6919242797851562,-2.0374656127929685,21.251908396946565,-88.10687022900764,-14.534351145038167,0.0
12.820001125335693,-10.534487304687499,1.2234370483398436,2.0470424194335934,-34.030534351145036,37.93893129770992,0.24427480916030533,-10.122684619140625,-0.16519991455078123,-0.814028564453125,20.778625954198475,-79.69465648854961,-14.106870229007633,0.0
12.830000638961792,-9.208099584960937,0.20350714111328125,1.3838485595703125,-26.732824427480917,38.656488549618324,0.7175572519083969,-9.057264880371093,0.8738836059570312,-0.6943184814453125,17.14503816793893,-75.19083969465649,-15.587786259541986,0.0
12.840001344680786,-10.053252770996092,0.9935936889648437,1.8052280517578123,-25.14503816793893,39.93893129770992,-1.8931297709923665,-9.598354455566406,0.0718260498046875,0.10773907470703124,13.251908396946565,-66.6412213740458,-14.885496183206106,0.0
12.850000619888306,-9.117119921875,1.0007762939453124,1.8698714965820311,-19.114503816793892,40.30534351145038,-3.6030534351145036,-8.2743609375,1.8315642700195311,-0.4477157104492187,6.229007633587786,-61.083969465648856,-16.778625954198475,0.0
12.860000610351562,-11.525686791992188,3.9839515624999997,2.6695348510742187,-26.977099236641223,38.732824427480914,-8.091603053435115,-9.65342109375,-0.40462008056640625,1.20667763671875,-3.6946564885496183,-53.465648854961835,-12.748091603053435,0.0
12.870000839233398,-8.779537487792968,0.7254431030273437,1.5490484741210937,-21.389312977099237,34.36641221374046,-3.984732824427481,-9.035717065429687,-0.8882488159179687,0.4381389038085937,9.969465648854962,-49.725190839694655,-15.114503816793894,0.0
12.880000591278076,-10.266336718749999,2.750937707519531,3.028665100097656,-22.595419847328245,31.587786259541986,-5.4961832061068705,-9.354145886230468,-0.33039982910156246,1.5155296508789062,7.557251908396947,-51.343511450381676,-17.068702290076335,0.0
12.890001058578491,-9.026140258789061,3.227383837890625,2.7365724975585937,-36.18320610687023,23.87786259541985,-5.770992366412214,-8.259995727539062,-0.30885201416015623,0.622492431640625,6.442748091603053,-45.61832061068702,-19.221374045801525,0.0
12.90000057220459,-11.789048974609374,4.843469958496094,4.405331054687499,-37.038167938931295,24.82442748091603,-5.923664122137405,-8.70771143798828,-1.4341267944335936,1.656787548828125,14.488549618320612,-42.229007633587784,-17.6793893129771,0.0
12.910000801086426,-10.443507641601562,2.1452046874999997,2.5354595581054684,-44.458015267175576,14.67175572519084,-3.0229007633587788,-9.390058911132812,-1.7788918334960937,1.915361328125,26.763358778625953,-46.56488549618321,-18.748091603053435,0.0
12.920000791549683,-12.136208215332031,4.46279189453125,4.086902233886718,-45.52671755725191,12.351145038167939,-3.7404580152671754,-7.826645227050781,0.3112462158203125,1.3192051147460937,21.69465648854962,-49.87786259541985,-22.198473282442748,0.0
12.930001258850098,-10.802637890625,3.380612744140625,2.808398547363281,-58.70229007633588,0.9465648854961832,-0.7633587786259542,-8.705317236328124,-0.5482721801757812,1.9967641845703124,18.9618320610687,-44.79389312977099,-19.541984732824428,0.0
12.940000534057617,-10.314220751953124,1.149216796875,2.6695348510742187,-52.29007633587786,-1.4961832061068703,4.076335877862595,-9.241618408203124,-0.36391865234375,1.5705962890624998,26.885496183206108,-45.17557251908397,-17.603053435114504,0.0
12.950001001358032,-8.74601866455078,-1.4030021728515625,2.195482922363281,-36.30534351145038,-1.3587786259541985,6.2748091603053435,-8.518569506835936,0.7110778930664062,2.176329309082031,24.53435114503817,-49.099236641221374,-18.213740458015266,0.0
12.96000051498413,-7.501033801269531,-3.1507693847656246,1.6041151123046875,-5.969465648854962,6.2748091603053435,6.900763358778626,-9.196128576660156,-0.22505495605468748,2.4875755249023435,19.709923664122137,-43.23664122137404,-16.931297709923665,0.0
12.970000743865967,-9.660603698730467,-0.1149216796875,1.9584569580078124,5.9541984732824424,12.992366412213741,1.7251908396946565,-10.050858569335936,-1.4149731811523436,2.2170307373046874,32.48854961832061,-42.88549618320611,-14.992366412213741,0.0
12.980000495910645,-7.678204724121093,-1.0917559570312498,1.2856862915039062,19.114503816793892,17.770992366412212,1.7099236641221374,-8.106766821289062,1.4891934326171874,2.04943662109375,40.97709923664122,-45.81679389312977,-19.6793893129771,0.0
12.99000072479248,-8.853757739257812,0.9002198242187499,1.8339584716796873,28.427480916030536,24.50381679389313,-2.549618320610687,-8.29351455078125,0.507570751953125,2.6216508178710938,17.740458015267176,-41.847328244274806,-19.068702290076335,0.0
13.000000476837158,-8.645462194824217,2.1547814941406247,1.5586252807617187,25.81679389312977,26.778625954198475,-4.916030534351145,-8.12113203125,-0.1149216796875,2.375048046875,26.763358778625953,-32.83969465648855,-17.984732824427482,0.0
13.010000705718994,-8.432378247070313,1.3718775512695311,1.458068811035156,26.35114503816794,29.068702290076335,-5.099236641221374,-9.727641345214844,-0.842758984375,3.5098996337890624,22.763358778625953,-34.213740458015266,-15.404580152671755,0.0
13.020000457763672,-8.688557824707031,1.3144167114257812,1.1707646118164061,30.366412213740457,31.72519083969466,-6.900763358778626,-8.444349255371094,-0.00718260498046875,2.3774422485351563,37.00763358778626,-36.01526717557252,-18.931297709923665,0.0
13.030000925064087,-9.294290844726563,1.9393033447265624,1.4820108276367188,33.6793893129771,35.31297709923664,-7.679389312977099,-9.404424121093749,-0.23223756103515625,3.411737365722656,25.404580152671755,-36.68702290076336,-18.15267175572519,0.0
13.040000677108765,-9.68454571533203,2.6431986328124997,1.5514426757812498,31.46564885496183,35.725190839694655,-8.106870229007633,-8.667010009765624,0.46208092041015625,2.6599580444335937,29.572519083969464,-34.045801526717554,-18.458015267175572,0.0
13.0500009059906,-9.928754284667969,3.4524387939453125,1.9416975463867185,24.18320610687023,33.587786259541986,-7.9541984732824424,-8.774749084472656,0.6607996582031249,2.920926025390625,24.137404580152673,-32.67175572519084,-15.83206106870229,0.0
13.060000658035278,-10.568006127929687,3.392583752441406,1.9728221679687499,16.198473282442748,31.83206106870229,-7.8320610687022905,-9.315838659667968,0.35194764404296874,3.3638533325195312,17.893129770992367,-30.80916030534351,-12.0,0.0
13.070000648498535,-10.01015714111328,2.760514514160156,1.8195932617187498,12.0,28.549618320610687,-6.961832061068702,-8.834604125976561,0.9361328491210937,3.1651345947265623,13.389312977099237,-30.80916030534351,-9.312977099236642,0.0
13.080000400543213,-9.665392102050781,1.6615759521484375,1.5179238525390624,13.34351145038168,26.65648854961832,-6.351145038167939,-8.384494213867187,1.1228805786132812,2.8993782104492185,11.007633587786259,-29.46564885496183,-8.106870229007633,0.0
13.090000629425049,-9.222464794921875,1.7717092285156248,1.2210428466796874,11.297709923664122,23.83206106870229,-5.8320610687022905,-9.035717065429687,0.6775590698242188,3.191470812988281,11.923664122137405,-28.900763358778626,-6.33587786259542,0.0
13.100000858306885,-9.435548742675781,2.3822306518554686,1.5849614990234373,7.099236641221374,23.129770992366414,-6.717557251908397,-7.292738256835937,3.2704794677734372,2.442085693359375,4.442748091603053,-24.106870229007633,-6.809160305343512,0.0
13.110000610351562,-9.227253198242186,1.5418658691406248,1.4532804077148436,7.923664122137405,22.870229007633586,-6.916030534351145,-8.671798413085938,0.21787235107421873,2.96881005859375,3.435114503816794,-21.923664122137403,-3.9083969465648853,0.0
13.12000060081482,-9.950302099609374,2.3319524169921872,1.917755529785156,1.5419847328244274,21.908396946564885,-9.48091603053435,-9.631873278808593,-0.7948749511718749,3.447650390625,11.32824427480916,-23.69465648854962,-2.030534351145038,0.0
13.130000829696655,-9.191340173339842,0.9816226806640624,1.3335703247070312,3.1603053435114505,20.427480916030536,-9.083969465648854,-8.971073620605468,-0.45010991210937495,3.105279553222656,20.47328244274809,-30.412213740458014,-3.053435114503817,0.0
13.140000581741333,-9.251195214843749,0.9217676391601562,1.216254443359375,10.412213740458014,21.81679389312977,-10.335877862595419,-8.93755479736328,-0.1197100830078125,3.622427111816406,21.938931297709924,-33.083969465648856,-5.022900763358779,0.0
13.15000057220459,-9.05965908203125,1.7310078002929687,1.1947066284179686,15.282442748091603,24.458015267175572,-11.48091603053435,-7.893682873535155,0.9097966308593749,2.89219560546875,14.0,-30.610687022900763,-7.7251908396946565,0.0
13.160000562667847,-9.270348828125,2.583343591308594,1.218648645019531,13.358778625954198,25.87786259541985,-12.335877862595419,-7.764395983886718,0.03591302490234375,2.6240450195312497,7.511450381679389,-24.12213740458015,-7.404580152671755,0.0
13.170000791549683,-9.315838659667968,2.3127988037109373,0.8355763793945312,6.061068702290076,26.18320610687023,-12.122137404580153,-8.74601866455078,-0.8068459594726562,3.1316157714843746,12.412213740458014,-23.81679389312977,-5.267175572519084,0.0
13.180000305175781,-8.161833459472655,0.8882488159179687,0.6488286499023437,12.977099236641221,30.061068702290076,-11.618320610687023,-8.01818135986328,-0.354341845703125,2.817975354003906,19.49618320610687,-25.69465648854962,-6.290076335877862,0.0
13.190001010894775,-8.705317236328124,1.8195932617187498,1.0271125122070313,17.755725190839694,35.14503816793893,-14.961832061068701,-7.319074475097656,0.44532150878906246,2.8371289672851563,17.66412213740458,-25.129770992366414,-8.030534351145038,0.0
13.200000524520874,-8.813056311035156,2.664746447753906,0.8643067993164062,16.519083969465647,36.916030534351144,-16.396946564885496,-7.242460021972656,0.5698199951171875,2.703053674316406,9.465648854961833,-19.557251908396946,-8.442748091603054,0.0
13.21000075340271,-10.117896215820313,3.318363500976562,1.3670891479492187,6.458015267175573,38.0763358778626,-17.450381679389313,-7.81467421875,-0.51714755859375,3.047818713378906,3.2977099236641223,-11.893129770992367,-6.076335877862595,0.0
13.220000505447388,-8.767566479492187,2.616862414550781,1.005564697265625,1.7099236641221374,36.030534351145036,-14.916030534351146,-7.438784558105469,-0.28730419921875,2.7748797241210936,5.603053435114504,-9.374045801526718,-5.022900763358779,0.0
13.230000734329224,-9.931148486328125,1.956062756347656,1.3096283081054687,-1.1755725190839694,37.41984732824427,-14.900763358778626,-7.9846625366210935,-0.6464344482421874,2.6695348510742187,13.541984732824428,-7.557251908396947,-3.8931297709923665,0.0
13.240000486373901,-9.325415466308593,2.2361843505859373,1.2210428466796874,1.2213740458015268,38.44274809160305,-15.32824427480916,-7.149086157226562,-0.3495534423828125,2.4851813232421875,17.267175572519083,-7.312977099236641,-5.603053435114504,0.0
13.250000476837158,-9.713276135253906,1.5442600708007812,1.6543933471679686,-1.83206106870229,37.541984732824424,-15.312977099236642,-7.532158422851562,-0.8714894042968749,2.645592834472656,17.786259541984734,-5.969465648854962,-6.33587786259542,0.0
13.260000705718994,-9.02135185546875,1.5801730957031248,1.1923124267578125,-0.9923664122137404,34.44274809160305,-16.137404580152673,-6.533776330566406,-0.0143652099609375,2.0087351928710935,18.641221374045802,-4.396946564885496,-8.473282442748092,0.0
13.270000457763672,-9.49300958251953,1.879448303222656,1.3958195678710936,-6.320610687022901,32.74809160305343,-16.717557251908396,-6.1267620483398435,0.2154781494140625,2.032677209472656,4.977099236641221,0.5190839694656488,-9.297709923664122,0.0
13.280000448226929,-10.292672937011718,2.1021090576171875,2.051830822753906,-5.572519083969466,32.74809160305343,-17.96946564885496,-6.074089611816406,0.3399766357421875,1.6639701538085936,6.885496183206107,8.412213740458014,-9.038167938931299,0.0
13.290000677108765,-10.328585961914062,1.5107412475585937,2.499546533203125,-2.8244274809160306,33.12977099236641,-17.96946564885496,-6.476315490722656,-0.6296750366210937,1.6304513305664061,0.24427480916030533,15.435114503816793,-8.213740458015268,0.0
13.300000667572021,-10.587159741210938,1.5921441040039062,2.798821740722656,-1.099236641221374,31.587786259541986,-18.65648854961832,-6.2392895263671875,-0.4165910888671875,1.2641384765625,-0.5343511450381679,23.389312977099237,-9.404580152671755,0.0
13.310000658035278,-10.98699141845703,1.2761094848632812,2.6384102294921874,0.8854961832061069,29.52671755725191,-18.870229007633586,-6.172251879882812,-0.5913678100585937,0.37828386230468747,2.030534351145038,27.114503816793892,-10.335877862595419,0.0
13.320001125335693,-10.230423693847655,0.70868369140625,2.3726538452148436,3.9389312977099236,25.69465648854962,-18.213740458015266,-5.815515832519531,-0.45010991210937495,0.4333505004882812,18.47328244274809,35.11450381679389,-10.65648854961832,0.0
13.330000638961792,-9.782707983398437,0.7493851196289062,2.5617957763671875,8.687022900763358,22.82442748091603,-18.213740458015266,-6.119579443359375,-0.08140285644531249,-0.59376201171875,5.893129770992366,44.42748091603053,-12.748091603053435,0.0
13.340000867843628,-10.711658227539061,1.3383587280273437,2.85388837890625,8.610687022900763,18.427480916030536,-19.64885496183206,-7.376535314941406,-0.9576806640625,-0.143652099609375,4.3816793893129775,56.83969465648855,-14.13740458015267,0.0
13.350000619888306,-11.820173596191406,2.123656872558594,3.450044592285156,5.450381679389313,14.290076335877863,-22.16793893129771,-11.010933435058593,-2.1811177124023438,2.4253262817382812,10.320610687022901,60.87022900763359,-17.96946564885496,0.0
13.360000848770142,-11.525686791992188,1.3192051147460937,3.1651345947265623,13.099236641221374,9.206106870229007,-22.48854961832061,-16.500837841796873,-5.358223315429687,7.074865905761718,19.541984732824428,48.25954198473283,-25.14503816793893,0.0
13.37000060081482,-12.198457458496094,2.501940734863281,3.3327287109375,13.068702290076336,2.183206106870229,-23.801526717557252,-17.484854724121092,0.6464344482421874,18.21508623046875,-15.679389312977099,35.16030534351145,-38.229007633587784,0.0
13.380000591278076,-11.427524523925781,2.3511060302734372,3.2800562744140622,17.419847328244273,-3.4656488549618323,-20.38167938931298,-16.903063720703123,-1.5897499023437498,9.299079248046874,15.511450381679388,52.62595419847328,-40.85496183206107,0.0
13.390000820159912,-9.974244116210937,1.16837041015625,3.4524387939453125,21.893129770992367,-10.183206106870228,-15.755725190839694,-13.888763830566406,-0.411802685546875,8.595183959960938,35.786259541984734,39.31297709923664,-31.557251908396946,0.0
13.40000057220459,-10.512939489746094,1.927332336425781,3.995922570800781,24.931297709923665,-16.3206106870229,-14.427480916030534,-11.267113012695312,-0.0430956298828125,3.5601778686523438,46.83969465648855,36.152671755725194,-20.65648854961832,0.0
13.410000801086426,-9.713276135253906,0.26815058593749996,4.1754876953124995,34.412213740458014,-22.38167938931298,-11.84732824427481,-8.67658681640625,2.722207287597656,-0.6416460449218749,45.25190839694657,28.595419847328245,-20.229007633587788,0.0
13.420029878616333,-9.861716638183593,-0.00718260498046875,4.067748620605468,44.274809160305345,-30.366412213740457,-11.648854961832061,-6.337451794433593,4.797980126953124,-3.758896606445312,60.42748091603053,29.099236641221374,-25.0381679389313,0.0
13.430000305175781,-10.319009155273436,-0.07422025146484375,4.091690637207031,54.412213740458014,-34.0763358778626,-12.717557251908397,-5.0206408813476555,4.898536596679687,-1.5179238525390624,4.091603053435114,41.908396946564885,-23.51145038167939,0.0
13.440000534057617,-11.396399902343749,0.8020575561523438,4.378994836425781,53.38931297709924,-39.6793893129771,-15.129770992366412,-6.718129858398437,2.511517541503906,0.7206546997070312,-19.221374045801525,53.404580152671755,-14.16793893129771,0.0
13.450001001358032,-12.310984936523436,1.1276689819335937,3.976768957519531,35.45038167938932,-53.48091603053435,-16.061068702290076,-8.195352282714843,1.6017209106445311,1.3192051147460937,-4.351145038167939,61.63358778625954,-9.923664122137405,0.0
13.46000051498413,-13.036428039550781,0.41419688720703124,4.290409374999999,29.770992366412212,-63.954198473282446,-16.53435114503817,-8.990227233886719,0.04548983154296875,0.928950244140625,-38.82442748091603,68.53435114503817,-10.564885496183207,0.0
13.470000743865967,-14.23113466796875,0.5530605834960938,4.185064501953125,27.6793893129771,-75.17557251908397,-16.229007633587788,-11.427524523925781,-3.327940307617187,1.1851298217773436,-30.85496183206107,74.47328244274809,-6.030534351145038,0.0
13.480000495910645,-13.333309045410155,-0.718260498046875,3.7397429931640622,29.00763358778626,-84.62595419847328,-12.51908396946565,-10.579977136230468,-0.967257470703125,2.1715409057617188,-19.221374045801525,72.29007633587786,-6.748091603053435,0.0
13.49000096321106,-14.003685510253906,-0.26336218261718747,4.065354418945312,34.68702290076336,-91.87786259541984,-11.725190839694656,-10.232817895507813,-0.6272808349609375,1.0582371337890624,-25.404580152671755,72.73282442748092,-5.633587786259542,0.0
13.500000715255737,-13.905523242187499,-0.06943184814453125,4.04141240234375,35.038167938931295,-100.56488549618321,-8.351145038167939,-11.267113012695312,-2.2266075439453124,2.5641899780273434,-19.984732824427482,74.73282442748092,0.24427480916030533,0.0
13.510000705718994,-13.184868542480467,-0.36631285400390623,4.094084838867187,38.274809160305345,-107.31297709923665,-3.1755725190839694,-8.379705810546875,-0.2537853759765625,2.612074011230469,-13.312977099236642,68.35114503816794,-0.9618320610687023,0.0
13.520000696182251,-13.795389965820311,0.833182177734375,4.015076184082031,44.48854961832061,-111.54198473282443,0.32061068702290074,-7.793126403808594,0.38307226562499996,1.2665326782226562,-31.374045801526716,67.95419847328245,-1.5419847328244274,0.0
13.530000925064087,-13.512874169921874,1.7381904052734374,4.46279189453125,43.908396946564885,-116.79389312977099,6.6106870229007635,-9.34696328125,-1.5275006591796874,1.5682020874023437,-45.25190839694657,77.31297709923665,3.312977099236641,0.0
13.540000677108765,-12.464213842773436,2.166752502441406,4.161122485351562,40.29007633587786,-122.27480916030534,14.717557251908397,-5.679046337890624,1.1085153686523437,-0.13646949462890623,-49.343511450381676,66.68702290076335,-2.1526717557251906,0.0
13.550000667572021,-10.723629235839843,1.1348515869140625,3.438073583984375,36.82442748091603,-123.14503816793894,17.267175572519083,-10.13226142578125,0.7015010864257812,0.4213794921875,-76.70229007633588,86.47328244274809,3.312977099236641,0.0
13.560001134872437,-10.89840595703125,0.9457096557617187,3.5625720703124997,15.770992366412214,-128.2290076335878,14.870229007633588,-12.143390820312499,-5.391742138671875,1.6352397338867186,-61.786259541984734,89.17557251908397,11.938931297709924,0.0
13.570000886917114,-9.157821350097656,-2.636016027832031,2.24097275390625,-0.0916030534351145,-129.58778625954199,13.694656488549619,-10.694898815917968,-5.123591552734375,1.8028338500976562,-27.31297709923664,74.93129770992367,11.648854961832061,0.0
13.58000135421753,-8.781931689453124,-3.7014357666015623,0.55545478515625,5.450381679389313,-124.16793893129771,6.152671755725191,-10.733206042480468,-3.019088293457031,1.2593500732421874,-21.572519083969464,76.21374045801527,10.122137404580153,0.0
13.590000867843628,-9.390058911132812,-2.461239306640625,-0.21068974609375,7.236641221374046,-121.23664122137404,-2.1068702290076335,-9.677363110351562,-3.189076611328125,1.3766659545898436,-8.259541984732824,66.73282442748092,8.961832061068701,0.0
13.600000619888306,-8.635885388183594,-2.2074539306640624,-0.45968671875,11.465648854961833,-114.29007633587786,-6.732824427480916,-9.756371765136718,-4.2688615600585935,1.4915876342773438,1.5419847328244274,59.221374045801525,8.427480916030534,0.0
13.610000610351562,-8.532934716796875,-1.4963760375976562,-0.49320554199218747,16.12213740458015,-109.16030534351145,-9.465648854961833,-8.183381274414062,-0.04548983154296875,-0.22026655273437498,7.343511450381679,43.908396946564885,3.4198473282442747,0.0
13.620000839233398,-7.943961108398437,-0.8307879760742187,-0.20829554443359374,25.0381679389313,-99.20610687022901,-9.16030534351145,-9.294290844726563,0.430956298828125,0.7302315063476562,-16.412213740458014,52.656488549618324,4.396946564885496,0.0
13.630000591278076,-8.892064965820312,0.5386953735351562,0.4165910888671875,20.977099236641223,-92.61068702290076,-8.946564885496183,-9.425971936035156,-2.04943662109375,1.2713210815429687,-17.46564885496183,51.29770992366412,7.740458015267175,0.0
13.640000820159912,-8.667010009765624,0.055066638183593745,0.7829039428710937,12.076335877862595,-85.6793893129771,-8.0,-10.065223779296874,-2.7078420776367187,0.7134720947265625,-5.770992366412214,44.54961832061068,7.633587786259542,0.0
13.65000057220459,-7.637503295898437,-1.0630255371093749,0.1149216796875,15.221374045801527,-79.5114503816794,-7.374045801526718,-10.120290417480469,0.258573779296875,-0.24660277099609373,-12.351145038167939,45.343511450381676,5.557251908396947,0.0
13.660000562667847,-7.3478048950195305,-1.1611878051757811,0.34715924072265625,20.68702290076336,-69.61832061068702,-8.045801526717558,-9.878476049804688,-1.687912170410156,0.055066638183593745,-20.900763358778626,49.23664122137404,7.00763358778626,0.0
13.670000553131104,-7.690175732421874,-0.7278373046875,1.24498486328125,20.458015267175572,-60.76335877862596,-9.938931297709924,-8.853757739257812,-2.1787235107421874,0.47644613037109373,-12.717557251908397,46.29007633587786,7.541984732824427,0.0
13.68000078201294,-6.404489440917969,-1.89620771484375,1.0606313354492187,26.564885496183205,-55.770992366412216,-9.938931297709924,-9.490615380859374,-2.061407629394531,0.009576806640625,-14.15267175572519,45.98473282442748,8.274809160305344,0.0
13.690001249313354,-6.9910688476562495,-0.047884033203124995,2.099714855957031,36.54961832061068,-45.69465648854962,-11.099236641221374,-8.655039001464843,-1.0989385620117187,-0.4572925170898437,-16.33587786259542,44.79389312977099,7.679389312977099,0.0
13.700000524520874,-9.382876306152344,2.501940734863281,3.1004911499023438,27.83206106870229,-43.282442748091604,-14.229007633587786,-10.01015714111328,-0.7278373046875,0.30885201416015623,-24.3206106870229,49.63358778625954,10.0,0.0
13.71000075340271,-8.619125976562499,3.0023288818359375,3.2321722412109373,12.16793893129771,-47.038167938931295,-10.213740458015268,-9.708487731933593,-3.1507693847656246,0.46686932373046874,-22.35114503816794,50.916030534351144,11.648854961832061,0.0
13.720000743865967,-7.426813549804687,1.2114660400390624,2.616862414550781,9.007633587786259,-47.74045801526717,-3.49618320610687,-9.923965881347655,-3.0885201416015624,0.15322890625,-5.862595419847328,45.89312977099237,11.465648854961833,0.0
13.730000972747803,-6.789955908203124,1.0965443603515623,2.4492682983398435,13.251908396946565,-43.38931297709924,-1.465648854961832,-9.758765966796874,-1.4939818359375,-1.0486603271484374,-5.7251908396946565,42.67175572519084,9.633587786259541,0.0
13.740000486373901,-6.868964562988281,1.0821791503906248,2.1619640991210938,10.625954198473282,-42.213740458015266,-0.5343511450381679,-10.335768566894531,-3.028665100097656,0.46686932373046874,-7.557251908396947,51.12977099236641,13.145038167938932,0.0
13.750000953674316,-7.979874133300781,0.9217676391601562,2.319981408691406,5.7251908396946565,-38.961832061068705,2.1068702290076335,-12.727576025390624,-16.163255407714843,12.48097325439453,50.961832061068705,51.37404580152672,14.870229007633588,0.0
13.760001182556152,-8.437166650390624,-0.38786066894531246,2.288856787109375,2.213740458015267,-36.900763358778626,1.9389312977099236,-11.67652149658203,-15.6293484375,2.6791116577148437,137.81679389312978,2.717557251908397,18.946564885496183,0.0
13.77000093460083,-4.441244079589843,-5.233724829101562,-1.1324573852539062,13.938931297709924,-37.282442748091604,1.4961832061068703,-9.457096557617186,-4.264073156738281,2.4133552734375,184.10687022900763,-30.015267175572518,3.0839694656488548,0.0
13.780000925064087,-6.823474731445312,1.209071838378906,1.8435352783203125,35.74045801526717,-22.396946564885496,-3.5419847328244276,-9.047688073730468,1.0606313354492187,-1.189918225097656,127.41984732824427,-33.282442748091604,-9.32824427480916,0.0
13.790000677108765,-8.901641772460938,4.548983154296875,4.036623999023437,3.3587786259541983,-27.450381679389313,-7.267175572519084,-8.528146313476562,2.549824768066406,-1.1324573852539062,114.36641221374046,-26.977099236641223,-13.068702290076336,0.0
13.80000114440918,-7.920019091796875,3.938461730957031,4.3430818115234375,-28.82442748091603,-31.786259541984734,-3.2213740458015265,-9.622296472167967,4.141968872070312,-0.02633621826171875,74.79389312977099,-15.679389312977099,-10.488549618320612,0.0
13.810000896453857,-7.448361364746093,3.7158009765625,4.484339709472656,-46.74809160305343,-33.45038167938932,2.1374045801526718,-9.986215124511718,5.334281298828125,0.5530605834960938,28.717557251908396,-7.480916030534351,-5.404580152671755,0.0
13.820001363754272,-6.512228515625,2.7557261108398436,4.673481640625,-55.9236641221374,-31.480916030534353,8.13740458015267,-11.362881079101562,3.0502129150390624,1.438915197753906,-4.030534351145038,1.1145038167938932,2.7938931297709924,0.0
13.830000877380371,-8.013392956542969,2.906560815429687,5.755660791015624,-56.778625954198475,-22.99236641221374,11.740458015267176,-10.211270080566406,0.6823474731445313,0.9792284790039062,-5.541984732824427,7.969465648854962,4.091603053435114,0.0
13.840001106262207,-5.073313317871094,0.7948749511718749,4.697423657226563,-54.50381679389313,-22.900763358778626,17.83206106870229,-9.586383447265625,0.565031591796875,1.1324573852539062,-18.35114503816794,9.83206106870229,5.374045801526718,0.0
13.850000858306885,-5.274426257324219,0.6584054565429687,4.853046765136718,-40.42748091603053,-13.282442748091603,21.49618320610687,-9.270348828125,-1.1372457885742187,0.74699091796875,-28.35114503816794,12.122137404580153,6.458015267175573,0.0
13.860000848770142,-4.5322237426757805,0.18435352783203124,4.7764323120117185,-24.18320610687023,-1.9389312977099236,25.572519083969464,-10.019733947753906,-2.748543505859375,1.3287819213867187,-24.564885496183205,10.931297709923664,8.80916030534351,0.0
13.870000839233398,-6.021417175292968,1.39821376953125,5.686228942871093,-28.717557251908396,0.4580152671755725,24.244274809160306,-9.200916979980468,-1.7788918334960937,0.814028564453125,-25.557251908396946,6.259541984732825,6.625954198473282,0.0
13.880000591278076,-7.182604980468749,2.418143676757812,5.786785412597656,-32.25954198473283,0.9007633587786259,23.419847328244273,-9.315838659667968,-1.8267758666992187,0.7781155395507812,-32.18320610687023,5.587786259541985,6.580152671755725,0.0
13.890000581741333,-6.023811376953125,1.5538368774414062,5.774814404296874,-32.396946564885496,0.2900763358778626,27.31297709923664,-9.181763366699219,-1.4772224243164063,0.39743747558593745,-33.099236641221374,6.580152671755725,6.473282442748092,0.0
13.90000057220459,-6.440402465820312,2.0278888061523435,6.062118603515625,-30.748091603053435,4.396946564885496,27.69465648854962,-9.023746057128905,-1.2928688964843749,-0.0430956298828125,-38.458015267175576,5.633587786259542,5.801526717557252,0.0
13.910000801086426,-5.046977099609375,-0.2825157958984375,5.125985754394531,-29.740458015267176,5.343511450381679,30.671755725190838,-9.512163195800781,-1.2114660400390624,-0.1292868896484375,-41.93893129770992,8.030534351145038,6.473282442748092,0.0
13.920000791549683,-5.413289953613281,-0.0383072265625,4.924872814941406,-19.755725190839694,14.870229007633588,30.778625954198475,-9.773131176757811,-0.5698199951171875,-0.25139117431640623,-43.38931297709924,10.183206106870228,7.4961832061068705,0.0
13.93000054359436,-5.209782812499999,-0.39264907226562495,4.520252734375,-14.381679389312977,22.3206106870229,31.34351145038168,-9.76116016845703,-0.430956298828125,-0.37828386230468747,-46.19847328244275,13.251908396946565,9.954198473282442,0.0
13.940000534057617,-5.197811804199218,-1.3527239379882812,4.608838195800781,-10.16793893129771,27.603053435114504,31.923664122137403,-10.271125122070313,-1.01514150390625,-0.06943184814453125,-46.25954198473283,17.633587786259543,13.038167938931299,0.0
13.950000762939453,-5.9950809570312495,-1.675941162109375,4.106055847167968,-6.763358778625954,35.267175572519086,31.053435114503817,-10.484209069824217,-2.1978771240234374,0.011971008300781249,-41.31297709923664,18.12213740458015,14.748091603053435,0.0
13.96000075340271,-6.344634399414062,-2.920926025390625,3.0454245117187497,-3.6946564885496183,43.465648854961835,30.396946564885496,-9.662997900390625,-1.158793603515625,-0.5027823486328125,-36.74809160305343,16.35114503816794,14.122137404580153,0.0
13.970000743865967,-8.40125362548828,-1.3934253662109375,2.9041666137695312,10.625954198473282,56.68702290076336,31.00763358778626,-9.528922607421874,-1.5873557006835937,-0.6512228515624999,-38.33587786259542,17.66412213740458,14.320610687022901,0.0
13.980000495910645,-9.89523546142578,-1.848323681640625,4.309562988281249,24.977099236641223,62.38167938931298,34.229007633587784,-9.830592016601562,-1.0845733520507812,-0.6009446166992187,-42.18320610687023,19.083969465648856,15.083969465648854,0.0
13.99000096321106,-13.158532324218749,1.7022773803710936,7.702146740722656,50.10687022900763,70.70229007633588,42.2442748091603,-9.593566052246093,-0.8834604125976562,-0.5267243652343749,-54.87022900763359,21.81679389312977,16.30534351145038,0.0
14.000000238418579,-12.528857287597656,3.303998291015625,8.348581188964843,57.48091603053435,67.78625954198473,50.732824427480914,-10.460267053222656,-2.032677209472656,-0.4955997436523437,-60.35114503816794,23.862595419847327,18.885496183206108,0.0
14.010000944137573,-12.880804931640624,4.414907861328125,6.179434484863281,41.31297709923664,64.35114503816794,47.87786259541985,-10.793061083984375,-4.11802685546875,1.01514150390625,-44.58015267175573,22.870229007633586,14.290076335877863,0.0
14.02000093460083,-10.129867224121092,3.9624037475585934,1.936909143066406,3.3893129770992365,55.587786259541986,33.61832061068702,-10.024522351074218,-3.5506010620117183,1.2737152832031249,-31.954198473282442,13.007633587786259,17.740458015267176,0.0
14.030000925064087,-10.982203015136719,4.062960217285156,0.32082302246093747,-19.267175572519083,55.43511450381679,26.763358778625953,-9.536105212402344,-2.4301146850585935,1.2689268798828124,-26.580152671755727,7.145038167938932,16.85496183206107,0.0
14.040000677108765,-9.03332286376953,1.0917559570312498,1.4508862060546874,-37.32824427480916,48.94656488549618,28.12213740458015,-10.024522351074218,-1.4532804077148436,1.9895815795898437,-28.83969465648855,2.3053435114503817,14.763358778625955,0.0
14.0500009059906,-9.131485131835937,-0.2346317626953125,1.5011644409179687,-36.87022900763359,55.6793893129771,28.30534351145038,-11.042058056640624,-2.3223756103515623,2.389413256835937,-23.16030534351145,-0.061068702290076333,15.572519083969466,0.0
14.060001134872437,-8.252813122558594,-2.0470424194335934,0.6105214233398437,-34.97709923664122,57.69465648854962,26.3206106870229,-11.276689819335937,-0.5602431884765625,1.9991583862304687,-17.541984732824428,-11.679389312977099,13.740458015267176,0.0
14.070000886917114,-9.423577734375,-0.2753331909179687,1.3766659545898436,-25.404580152671755,65.55725190839695,22.82442748091603,-11.44667813720703,1.1563994018554686,2.0566192260742184,-26.0,-20.748091603053435,12.595419847328245,0.0
14.080000877380371,-7.8170684204101555,-2.588131994628906,-0.277727392578125,-17.114503816793892,67.52671755725191,23.206106870229007,-11.820173596191406,1.7884686401367187,2.3151930053710936,-40.47328244274809,-25.099236641221374,13.893129770992367,0.0
14.090000867843628,-9.674968908691406,-0.967257470703125,0.7326257080078125,-0.22900763358778625,79.93893129770993,19.69465648854962,-12.351686364746094,0.8403647827148437,2.9089550170898435,-51.55725190839695,-31.251908396946565,18.137404580152673,0.0
14.100000858306885,-9.897629663085937,1.1516109985351561,1.8267758666992187,-8.610687022900763,80.33587786259542,13.740458015267176,-11.966219897460936,2.157175695800781,2.77727392578125,-59.00763358778626,-41.725190839694655,18.03053435114504,0.0
14.110000610351562,-11.743559143066406,3.5027170288085934,3.038241906738281,-14.900763358778626,80.67175572519083,9.648854961832061,-11.563994018554688,2.4899697265625,2.7246014892578123,-58.732824427480914,-45.51145038167939,16.900763358778626,0.0
14.120000839233398,-9.016563452148437,0.5315127685546874,1.3311761230468748,-21.6793893129771,72.38167938931298,10.763358778625955,-11.729193933105469,1.4149731811523436,2.9975404785156248,-70.62595419847328,-51.221374045801525,17.14503816793893,0.0
14.130000591278076,-9.909600671386718,2.3247698120117186,1.936909143066406,-12.641221374045802,75.46564885496183,8.916030534351146,-12.205640063476562,-0.33518823242187495,2.9185318237304685,-80.58015267175573,-57.43511450381679,17.64885496183206,0.0
14.140000581741333,-9.521740002441407,2.73896669921875,1.695094775390625,-18.519083969465647,68.76335877862596,8.717557251908397,-12.63420216064453,-2.916137622070312,2.7748797241210936,-65.86259541984732,-64.27480916030534,15.068702290076336,0.0
14.15000057220459,-9.6917283203125,4.2305543334960936,1.8076222534179687,-25.068702290076335,62.85496183206107,8.977099236641221,-13.175291735839844,-3.1459809814453124,2.398990063476562,-40.58015267175573,-78.10687022900764,8.778625954198473,0.0
14.160000562667847,-9.265560424804686,3.864241479492187,1.2497732666015624,-36.534351145038165,54.458015267175576,10.183206106870228,-12.605471740722656,-2.023100402832031,2.437297290039062,-39.61832061068702,-89.74045801526718,1.7251908396946565,0.0
14.170000791549683,-9.449913952636718,3.3973721557617185,2.080561242675781,-41.083969465648856,49.43511450381679,10.473282442748092,-13.072341064453123,-3.2728736694335936,2.70065947265625,-30.85496183206107,-93.6030534351145,-3.145038167938931,0.0
14.18000054359436,-10.235212097167969,3.3111808959960936,2.50912333984375,-52.045801526717554,40.778625954198475,9.86259541984733,-12.378022583007812,-1.7477672119140624,1.0989385620117187,-10.580152671755725,-98.13740458015268,-9.893129770992367,0.0
14.190001010894775,-10.165780249023436,2.70065947265625,2.2290017456054687,-59.64885496183206,32.42748091603053,9.557251908396946,-12.638990563964843,-1.6112977172851561,1.5203180541992187,-4.793893129770993,-104.03053435114504,-11.541984732824428,0.0
14.200000524520874,-9.543287817382812,0.5099649536132812,1.7166425903320313,-54.06106870229008,27.69465648854962,11.17557251908397,-11.324573852539062,0.086191259765625,1.0630255371093749,4.1679389312977095,-106.01526717557252,-14.0,0.0
14.21000075340271,-9.418789331054686,-0.35673604736328124,2.0278888061523435,-43.63358778625954,28.213740458015266,11.389312977099237,-11.379640490722656,-0.34237083740234375,0.93852705078125,12.992366412213741,-104.83969465648855,-14.076335877862595,0.0
14.220001220703125,-8.02536396484375,-1.695094775390625,1.5586252807617187,-17.541984732824428,32.67175572519084,11.770992366412214,-10.137049829101562,0.5865794067382812,0.9552864624023437,10.595419847328245,-102.54961832061069,-15.16030534351145,0.0
14.230000972747803,-10.754753857421875,1.637633935546875,3.394977954101562,-15.17557251908397,35.908396946564885,5.816793893129771,-10.582371337890624,-0.20350714111328125,0.277727392578125,16.65648854961832,-96.87022900763358,-16.82442748091603,0.0
14.240000486373901,-10.972626208496093,3.172317199707031,3.0980969482421874,-21.740458015267176,33.19083969465649,1.1297709923664123,-10.558429321289061,-0.29448680419921874,0.040701428222656245,14.290076335877863,-88.35114503816794,-18.12213740458015,0.0
14.250490188598633,-9.991003527832031,0.814028564453125,1.675941162109375,-21.709923664122137,28.48854961832061,0.44274809160305345,-10.639832177734375,0.02154781494140625,-0.584185205078125,19.083969465648856,-82.77862595419847,-20.931297709923665,0.0
14.260000944137573,-8.508992700195313,-1.889025109863281,0.7302315063476562,-2.5801526717557253,28.580152671755727,1.8931297709923665,-9.751583361816406,-0.4644751220703125,-0.18914193115234373,11.16030534351145,-73.16030534351145,-22.38167938931298,0.0
14.27000093460083,-11.200075366210937,4.745307690429687,4.7381250854492185,-1.786259541984733,34.0,-3.786259541984733,-10.793061083984375,-2.070984436035156,0.5674257934570313,21.66412213740458,-67.49618320610686,-21.34351145038168,0.0
14.280000686645508,-10.826579907226561,3.2034418212890623,1.5107412475585937,-8.061068702290076,28.916030534351144,-2.900763358778626,-9.3852705078125,-0.1149216796875,-0.5961562133789062,31.61832061068702,-66.10687022900764,-24.35114503816794,0.0
14.290000915527344,-9.689334118652344,1.4317325927734375,1.4987702392578124,-9.786259541984732,23.96946564885496,-0.8396946564885496,-9.586383447265625,-0.967257470703125,0.6727706665039062,27.541984732824428,-61.81679389312977,-22.18320610687023,0.0
14.300000667572021,-11.944672082519531,5.413289953613281,3.660734338378906,-16.30534351145038,26.763358778625953,-7.099236641221374,-10.168174450683592,-0.9026140258789062,0.689530078125,41.61832061068702,-56.595419847328245,-20.564885496183205,0.0
14.310000658035278,-10.029310754394531,4.11802685546875,1.6136919189453125,-40.58015267175573,12.900763358778626,-6.8396946564885495,-9.064447485351561,0.6153098266601562,0.38307226562499996,37.55725190839695,-57.16030534351145,-23.633587786259543,0.0
14.320001125335693,-9.756371765136718,-0.5410895751953124,0.584185205078125,-29.572519083969464,9.84732824427481,-1.8015267175572518,-9.6151138671875,-0.2537853759765625,1.5011644409179687,32.44274809160305,-52.045801526717554,-21.251908396946565,0.0
14.33000111579895,-10.8409451171875,1.6136919189453125,2.2098481323242187,-15.297709923664122,16.213740458015266,-3.877862595419847,-9.425971936035156,-0.24660277099609373,1.6017209106445311,36.25954198473283,-52.01526717557252,-20.977099236641223,0.0
14.340001106262207,-11.008539233398437,3.821145849609375,2.6096798095703124,-24.50381679389313,11.84732824427481,-5.9541984732824424,-9.270348828125,-0.040701428222656245,2.1715409057617188,36.19847328244275,-51.954198473282446,-20.99236641221374,0.0
14.350001335144043,-10.16338604736328,1.3024457031249999,1.455674609375,-25.740458015267176,5.374045801526718,-1.7099236641221374,-9.90241806640625,-0.13646949462890623,2.559401574707031,43.81679389312977,-52.534351145038165,-18.045801526717558,0.0
14.36000108718872,-10.271125122070313,0.7709329345703124,1.9728221679687499,-13.17557251908397,9.603053435114504,-2.122137404580153,-8.947131604003905,0.5793968017578125,2.7198130859375,32.778625954198475,-55.05343511450382,-17.603053435114504,0.0
14.370001077651978,-9.631873278808593,0.5315127685546874,1.917755529785156,-11.206106870229007,7.633587786259542,-4.5038167938931295,-9.291896643066405,-0.22266075439453123,2.2457611572265623,41.786259541984734,-52.82442748091603,-16.16793893129771,0.0
14.380001068115234,-8.671798413085938,-1.1444283935546875,1.4891934326171874,4.854961832061068,10.885496183206106,-3.9389312977099236,-8.317456567382813,1.0438719238281249,2.176329309082031,40.18320610687023,-53.83206106870229,-17.52671755725191,0.0
14.390000820159912,-7.6087728759765625,-1.5107412475585937,1.2042834350585936,29.908396946564885,18.595419847328245,-5.0534351145038165,-8.911218579101561,-0.7757213378906249,2.8323405639648436,34.900763358778626,-51.83206106870229,-15.618320610687023,0.0
14.40000057220459,-8.343792785644531,-0.0383072265625,1.6352397338867186,40.2442748091603,25.435114503816795,-9.083969465648854,-8.161833459472655,-0.1580173095703125,2.559401574707031,41.87786259541985,-51.17557251908397,-17.6793893129771,0.0
14.410000801086426,-9.188945971679686,1.6352397338867186,1.8435352783203125,38.76335877862596,27.404580152671755,-12.51908396946565,-7.5537062377929685,0.181959326171875,3.2417490478515623,34.717557251908396,-47.52671755725191,-18.946564885496183,0.0
14.420000553131104,-8.535328918457031,1.446097802734375,1.4915876342773438,35.587786259541986,25.893129770992367,-10.778625954198473,-8.762778076171875,-0.8810662109374999,3.754108203125,40.48854961832061,-46.091603053435115,-16.732824427480917,0.0
14.43000078201294,-9.030928662109375,0.9121908325195311,1.8004396484374998,39.89312977099237,30.27480916030534,-11.419847328244275,-8.022969763183593,0.8882488159179687,3.0789433349609374,38.99236641221374,-46.48854961832061,-18.748091603053435,0.0
14.440000295639038,-9.052476477050782,1.7166425903320313,1.7501614135742187,45.05343511450382,32.61068702290076,-12.946564885496183,-7.568071447753906,0.2705447875976562,2.8275521606445313,27.740458015267176,-40.274809160305345,-17.709923664122137,0.0
14.450001001358032,-8.966285217285156,2.152387292480469,1.5658078857421873,42.13740458015267,31.068702290076335,-12.870229007633588,-8.724470849609375,-0.28012159423828126,3.2800562744140622,32.38167938931298,-36.35114503816794,-14.625954198473282,0.0
14.460000276565552,-10.548852514648438,3.593696691894531,2.4349030883789062,37.05343511450382,32.534351145038165,-15.282442748091603,-9.5384994140625,-0.19871873779296872,3.5984850952148437,35.32824427480916,-39.23664122137404,-12.106870229007633,0.0
14.470001220703125,-10.20169327392578,3.6152445068359373,2.128445275878906,22.198473282442748,23.786259541984734,-14.01526717557252,-8.039729174804688,1.438915197753906,2.750937707519531,41.3587786259542,-40.76335877862596,-13.648854961832061,0.0
14.480000495910645,-9.931148486328125,3.2513258544921873,2.2960393920898436,22.244274809160306,22.259541984732824,-12.244274809160306,-7.934384301757812,2.4516625,3.172317199707031,21.053435114503817,-36.76335877862596,-13.053435114503817,0.0
14.49000072479248,-8.901641772460938,1.5275006591796874,1.4939818359375,24.595419847328245,20.366412213740457,-9.053435114503817,-8.420407238769531,0.47884033203125,2.9640216552734375,8.106870229007633,-29.557251908396946,-9.17557251908397,0.0
14.500000715255737,-9.672574707031249,2.3965958618164063,1.6136919189453125,25.435114503816795,21.84732824427481,-10.030534351145038,-9.567229833984374,-0.9097966308593749,3.5410242553710933,15.938931297709924,-29.984732824427482,-6.320610687022901,0.0
14.510000467300415,-9.162609753417968,2.568978381347656,1.68551796875,19.740458015267176,20.641221374045802,-10.213740458015268,-9.076418493652342,-0.2154781494140625,3.189076611328125,21.954198473282442,-33.16030534351145,-7.511450381679389,0.0
14.52000117301941,-9.392453112792968,2.3247698120117186,1.35990654296875,18.458015267175572,19.786259541984734,-10.290076335877863,-8.111555224609374,0.2609679809570312,3.0741549316406247,17.480916030534353,-32.19847328244275,-9.358778625954198,0.0
14.530000925064087,-9.0021982421875,2.398990063476562,1.0893617553710937,16.885496183206108,21.541984732824428,-9.786259541984732,-7.694964135742187,0.031124621582031248,3.227383837890625,6.259541984732825,-27.099236641221374,-10.106870229007633,0.0
14.540001392364502,-9.404424121093749,3.1579519897460937,1.0797849487304687,10.458015267175572,23.6793893129771,-10.213740458015268,-6.320692382812499,0.7565677246093749,2.4971523315429685,7.068702290076335,-20.778625954198475,-11.648854961832061,0.0
14.55000114440918,-8.722076647949219,1.189918225097656,0.4165910888671875,4.977099236641221,24.091603053435115,-9.236641221374045,-8.14028564453125,-1.3192051147460937,3.3351229125976563,7.129770992366412,-15.816793893129772,-7.603053435114504,0.0
14.560001373291016,-7.455543969726562,-0.086191259765625,0.011971008300781249,15.526717557251908,29.541984732824428,-9.129770992366412,-7.953537915039062,-1.0726023437499999,3.450044592285156,11.633587786259541,-13.145038167938932,-7.038167938931298,0.0
14.570001125335693,-8.427589843749999,-0.1484405029296875,0.18914193115234373,25.52671755725191,37.69465648854962,-13.038167938931299,-7.682993127441406,-1.3120225097656248,2.9831752685546875,16.564885496183205,-12.732824427480915,-8.0,0.0
14.580000400543213,-9.5384994140625,1.2473790649414063,0.4908113403320312,28.931297709923665,44.091603053435115,-17.022900763358777,-7.029376074218749,0.06464344482421874,2.5905261962890624,27.328244274809162,-11.587786259541986,-10.366412213740459,0.0
14.590000867843628,-9.315838659667968,1.467645617675781,0.4860229370117187,27.450381679389313,45.25190839694657,-18.259541984732824,-6.83783994140625,0.11731588134765625,2.839523168945312,20.137404580152673,-10.305343511450381,-11.938931297709924,0.0
14.600000858306885,-9.785102185058593,1.889025109863281,0.8882488159179687,25.31297709923664,46.778625954198475,-20.15267175572519,-6.979097839355468,0.02633621826171875,2.8036101440429686,15.32824427480916,-3.7404580152671754,-11.053435114503817,0.0
14.610000610351562,-9.165003955078124,1.7741034301757812,0.7493851196289062,20.564885496183205,45.6793893129771,-20.229007633587788,-7.4699091796875,-0.26815058593749996,2.8993782104492185,16.412213740458014,-0.366412213740458,-9.114503816793894,0.0
14.620000839233398,-8.863334545898438,1.6543933471679686,1.407790576171875,17.923664122137403,48.595419847328245,-18.30534351145038,-7.096413720703125,0.1867477294921875,2.8203695556640622,15.374045801526718,0.9007633587786259,-8.961832061068701,0.0
14.630000591278076,-9.004592443847656,2.032677209472656,1.0342951171875,14.702290076335878,43.969465648854964,-21.389312977099237,-6.988674645996094,-0.00239420166015625,2.4779987182617185,13.801526717557252,5.114503816793893,-9.083969465648854,0.0
14.640000581741333,-9.306261853027344,1.905784521484375,1.2880804931640624,11.19083969465649,42.778625954198475,-20.702290076335878,-6.835445739746094,-0.01915361328125,2.3965958618164063,11.694656488549619,8.702290076335878,-9.511450381679388,0.0
14.65000057220459,-9.969455712890625,1.85790048828125,1.6232687255859375,9.755725190839694,42.412213740458014,-21.51145038167939,-7.101202124023437,-0.5506663818359374,2.5067291381835934,11.877862595419847,13.435114503816793,-10.0,0.0
14.660000801086426,-9.02135185546875,2.020706201171875,1.5873557006835937,10.351145038167939,39.61832061068702,-21.14503816793893,-7.287949853515625,-0.3495534423828125,2.93050283203125,11.404580152671755,12.870229007633588,-11.389312977099237,0.0
14.670000791549683,-9.8449572265625,2.722207287597656,2.291250988769531,7.3893129770992365,38.396946564885496,-22.99236641221374,-7.551312036132812,-0.36631285400390623,3.373430139160156,10.793893129770993,11.938931297709924,-12.625954198473282,0.0
14.68000078201294,-10.893617553710937,2.7629087158203123,3.0334535034179684,3.6793893129770994,36.35114503816794,-24.03053435114504,-7.228094812011718,-0.277727392578125,2.8131869506835936,5.908396946564886,21.49618320610687,-15.206106870229007,0.0
14.690000295639038,-11.180921752929686,2.882618798828125,3.670311145019531,0.33587786259541985,32.534351145038165,-25.0381679389313,-7.4603323730468745,-0.7924807495117187,1.2952630981445312,2.183206106870229,34.79389312977099,-20.0,0.0
14.700000762939453,-10.505756884765624,1.3934253662109375,3.801992236328125,-1.618320610687023,23.786259541984734,-24.290076335877863,-7.649474304199218,-2.916137622070312,-5.607220288085937,16.03053435114504,50.0,-32.50381679389313,0.0
14.710000991821289,-11.473014355468749,2.01112939453125,4.637568615722656,-2.3206106870229006,16.748091603053435,-25.66412213740458,-7.809885815429687,-2.418143676757812,-2.6815058593749996,6.900763358778626,54.0763358778626,-34.51908396946565,0.0
14.720000505447388,-12.370839978027343,2.070984436035156,5.741295581054687,-1.816793893129771,8.13740458015267,-25.267175572519083,-8.2360537109375,-1.2425906616210938,0.4381389038085937,7.66412213740458,63.267175572519086,-34.25954198473283,0.0
14.730000734329224,-13.072341064453123,1.429338391113281,6.797138513183594,3.1297709923664123,-2.9770992366412212,-22.16793893129771,-12.80658468017578,-3.7205893798828122,5.829881042480468,11.908396946564885,52.396946564885496,-33.74045801526717,0.0
14.740000486373901,-13.951013073730469,0.41419688720703124,8.214505895996094,12.15267175572519,-18.458015267175572,-18.137404580152673,-15.557522387695311,-8.099584216308592,2.808398547363281,-29.587786259541986,55.86259541984733,-28.793893129770993,0.0
14.750001192092896,-14.041992736816406,-0.6607996582031249,9.191340173339842,29.938931297709924,-34.48854961832061,-13.282442748091603,-14.097059374999999,-2.114080065917969,5.061342309570312,12.885496183206106,65.43511450381679,-33.02290076335878,0.0
14.760001182556152,-14.85602130126953,-0.852335791015625,9.756371765136718,45.98473282442748,-53.12977099236641,-8.549618320610687,-13.151349719238281,-1.0893617553710937,2.080561242675781,5.770992366412214,60.3206106870229,-9.648854961832061,0.0
14.770000696182251,-14.903905334472656,-1.1923124267578125,10.091559997558592,68.12213740458016,-69.66412213740458,-2.564885496183206,-11.133037719726563,-1.6208745239257811,-2.829946362304687,21.740458015267176,57.20610687022901,-14.793893129770993,0.0
14.780000686645508,-14.238317272949217,-0.55545478515625,9.988609326171874,77.87786259541984,-94.77862595419847,2.2748091603053435,-10.611101757812499,1.465251416015625,1.4820108276367188,36.35114503816794,35.25190839694657,-6.580152671755725,0.0
14.790000677108765,-14.662090966796875,0.622492431640625,10.481814868164061,79.6030534351145,-119.45038167938931,5.068702290076335,-8.382100012207031,1.5370774658203123,2.4157494750976563,29.51145038167939,39.55725190839695,-5.00763358778626,0.0
