timestamp,Thigh_L_Acc_X,Thigh_L_Acc_Y,Thigh_L_Acc_Z,Thigh_L_Gyr_X,Thigh_L_Gyr_Y,Thigh_L_Gyr_Z,Thigh_R_Acc_X,Thigh_R_Acc_Y,Thigh_R_Acc_Z,Thigh_R_Gyr_X,Thigh_R_Gyr_Y,Thigh_R_Gyr_Z,gpio_output
10.000000476837158,-13.13219610595703,-1.1133037719726562,7.362170104980469,15.648854961832061,3.7557251908396947,26.16793893129771,-9.402029919433593,-2.0661960327148434,0.17477672119140625,-22.916030534351144,-35.221374045801525,30.12213740458015,0.0
10.010000705718994,-14.00129130859375,0.622492431640625,9.97184991455078,26.076335877862597,-6.885496183206107,25.83206106870229,-8.894459167480468,-1.2785036865234374,0.55545478515625,-24.53435114503817,-34.900763358778626,26.442748091603054,1.0
10.02000093460083,-13.603853833007811,3.0933085449218747,7.108384729003906,26.045801526717558,-18.33587786259542,26.702290076335878,-9.215282189941405,-2.1883003173828124,0.7733271362304687,-25.938931297709924,-30.442748091603054,24.442748091603054,1.0
10.030160427093506,-11.949460485839843,2.7437551025390623,2.6216508178710938,9.282442748091603,-26.47328244274809,24.137404580152673,-9.828197814941406,-3.1651345947265623,1.3742717529296875,-23.938931297709924,-28.50381679389313,22.83969465648855,1.0
10.040000915527344,-11.37006368408203,3.1364041748046874,-1.0510545288085937,-8.473282442748092,-25.755725190839694,18.549618320610687,-9.387664709472656,-2.7940333374023436,0.8571241943359375,-19.908396946564885,-30.549618320610687,19.709923664122137,1.0
10.050000667572021,-10.062829577636718,3.5290532470703124,-2.6527754394531247,-33.11450381679389,-18.99236641221374,12.793893129770993,-9.545682019042967,-2.6312276245117188,0.47644613037109373,-14.65648854961832,-29.450381679389313,18.80916030534351,1.0
10.060000658035278,-8.74601866455078,3.0789433349609374,-2.7461493041992187,-53.038167938931295,-10.778625954198473,10.51908396946565,-10.151415039062499,-1.7956512451171873,0.22026655273437498,-16.15267175572519,-29.49618320610687,16.244274809160306,1.0
10.070107698440552,-8.032546569824218,1.9105729248046874,-2.786850732421875,-61.05343511450382,-1.3740458015267176,10.916030534351146,-11.097124694824219,-1.4772224243164063,0.3064578125,-18.27480916030534,-29.31297709923664,14.366412213740459,1.0
10.080000877380371,-8.793902697753905,2.070984436035156,-2.2361843505859373,-65.32824427480917,8.916030534351146,11.022900763358779,-11.980585107421874,-1.0893617553710937,0.02633621826171875,-25.801526717557252,-26.641221374045802,12.259541984732824,1.0
10.090000867843628,-7.931990100097655,-0.47884033203125,-2.4660277099609376,-58.56488549618321,15.725190839694656,13.740458015267176,-12.433089221191405,-0.8212111694335937,-0.009576806640625,-33.17557251908397,-24.0,10.870229007633588,1.0
10.100000858306885,-7.9295958984374995,-0.9576806640625,-1.3958195678710936,-44.51908396946565,27.0381679389313,12.65648854961832,-13.031639636230468,-1.6352397338867186,0.4525041137695312,-32.68702290076336,-19.72519083969466,11.679389312977099,1.0
10.11000394821167,-9.047688073730468,-0.8188169677734375,-0.4213794921875,-35.17557251908397,36.595419847328245,7.984732824427481,-13.002909216308593,-2.099714855957031,0.296881005859375,-22.213740458015266,-23.389312977099237,10.13740458015267,1.0
10.12000060081482,-9.528922607421874,-0.0383072265625,0.08140285644531249,-26.82442748091603,42.19847328244275,1.9236641221374047,-13.160926525878905,-2.133233679199219,1.0175357055664063,-17.16030534351145,-20.091603053435115,8.091603053435115,1.0
10.130000591278076,-10.16338604736328,1.2473790649414063,0.603338818359375,-24.83969465648855,44.458015267175576,-2.198473282442748,-11.501744775390625,-1.4628572143554686,1.9943699829101562,-3.9236641221374047,-21.221374045801525,5.358778625954199,1.0
10.140015602111816,-10.256759912109374,1.5370774658203123,0.3136404174804687,-27.251908396946565,43.55725190839695,-3.5419847328244276,-11.939883679199218,-1.3575123413085937,1.8818425048828125,-7.6183206106870225,-24.83969465648855,3.312977099236641,1.0
10.150001049041748,-10.091559997558592,1.5586252807617187,0.7278373046875,-27.17557251908397,41.81679389312977,-3.801526717557252,-11.133037719726563,-2.070984436035156,2.1595698974609374,-3.1603053435114505,-25.053435114503817,4.137404580152672,1.0
10.160001039505005,-9.713276135253906,1.5514426757812498,0.8283937744140625,-29.251908396946565,40.18320610687023,-4.152671755725191,-10.87925234375,-1.707065783691406,2.7341782958984373,9.84732824427481,-28.671755725190838,4.5038167938931295,1.0
10.17000436782837,-8.884882360839843,0.7972691528320313,0.0718260498046875,-27.16030534351145,37.725190839694655,-3.404580152671756,-9.5001921875,0.22744915771484372,1.8339584716796873,13.877862595419847,-32.10687022900763,2.015267175572519,1.0
10.18000078201294,-9.4618849609375,1.7788918334960937,0.373495458984375,-28.48854961832061,37.05343511450382,-3.068702290076336,-8.86812294921875,1.0845733520507812,1.905784521484375,2.7938931297709924,-29.938931297709924,3.801526717557252,1.0
10.190008878707886,-9.945513696289062,3.9240965209960934,1.1372457885742187,-38.61068702290076,35.7557251908397,-3.7557251908396947,-9.188945971679686,-0.028730419921875,2.262520568847656,3.2213740458015265,-27.068702290076335,9.083969465648854,1.0
10.200000762939453,-10.314220751953124,3.450044592285156,0.5889736083984375,-55.38931297709924,27.16030534351145,-0.7633587786259542,-9.358934289550781,-0.00239420166015625,2.114080065917969,12.045801526717558,-27.709923664122137,11.557251908396946,1.0
10.210088014602661,-10.002974536132811,1.7429788085937499,0.5985504150390625,-54.42748091603053,25.389312977099237,3.0381679389312977,-9.497797985839844,-1.0295067138671874,2.6503812377929687,17.053435114503817,-30.03053435114504,13.770992366412214,0.0
10.220000743865967,-8.844180932617187,-0.488417138671875,0.39743747558593745,-44.82442748091603,25.633587786259543,5.206106870229007,-9.251195214843749,0.6775590698242188,1.9847931762695312,28.53435114503817,-35.404580152671755,12.0,0.0
10.230000734329224,-9.117119921875,-0.239420166015625,0.35673604736328124,-34.595419847328245,27.51145038167939,3.3282442748091605,-7.955932116699218,1.4245499877929686,1.5705962890624998,9.435114503816793,-35.51145038167939,10.870229007633588,0.0
10.24000072479248,-9.730035546875,0.9193734375,0.8858546142578124,-28.18320610687023,28.427480916030536,1.83206106870229,-8.971073620605468,0.6200982299804687,2.499546533203125,12.381679389312977,-31.862595419847327,14.076335877862595,0.0
10.250087022781372,-10.01733974609375,1.4796166259765624,0.9433154541015625,-27.862595419847327,27.236641221374047,1.5877862595419847,-9.437942944335937,0.38307226562499996,2.825157958984375,11.312977099236642,-34.30534351145038,15.32824427480916,0.0
10.260000944137573,-9.363722692871093,1.3287819213867187,1.0702081420898437,-24.198473282442748,25.633587786259543,1.7557251908396947,-7.666233715820312,1.8459294799804686,1.5514426757812498,0.6564885496183206,-32.732824427480914,12.916030534351146,0.0
10.270007848739624,-9.751583361816406,2.2266075439453124,1.3575123413085937,-23.61832061068702,25.954198473282442,1.0076335877862594,-8.288726147460936,1.1827356201171875,2.3415292236328122,-6.732824427480916,-26.076335877862597,15.893129770992367,0.0
10.280000925064087,-9.734823950195311,1.9776105712890624,0.9983820922851562,-26.045801526717558,22.870229007633586,1.816793893129771,-9.849745629882811,-0.4860229370117187,2.185906115722656,-4.885496183206107,-22.732824427480917,18.03053435114504,0.0
10.290000677108765,-8.650250598144531,0.30406361083984373,0.44053310546874996,-18.702290076335878,22.229007633587788,4.091603053435114,-9.018957653808593,-0.4285620971679687,2.6815058593749996,-1.3893129770992367,-25.633587786259543,16.061068702290076,0.0
10.3000009059906,-9.586383447265625,2.3295582153320313,0.9169792358398436,-15.541984732824428,24.82442748091603,1.8931297709923665,-9.361328491210937,-0.2609679809570312,2.4109610717773435,-12.274809160305344,-25.221374045801525,13.770992366412214,0.0
10.310000658035278,-9.86411083984375,3.871424084472656,1.3910311645507811,-16.80916030534351,25.770992366412212,1.7099236641221374,-7.850587243652344,1.5562310791015623,1.5777788940429687,-11.358778625954198,-16.625954198473284,10.061068702290076,0.0
10.320000886917114,-9.880870251464843,3.67749375,1.1827356201171875,-28.412213740458014,19.450381679389313,4.625954198473282,-9.765948571777344,-0.5578489868164063,2.5354595581054684,-21.923664122137403,-9.98473282442748,13.954198473282442,0.0
10.330000638961792,-10.158597644042969,2.2026655273437497,1.3958195678710936,-31.954198473282442,17.52671755725191,7.923664122137405,-10.077194787597655,-0.9313444458007812,2.2960393920898436,-20.091603053435115,-9.251908396946565,14.931297709923664,0.0
10.340000629425049,-10.280701928710936,1.0606313354492187,1.5801730957031248,-28.900763358778626,17.83206106870229,7.4961832061068705,-10.144232434082031,-0.7733271362304687,2.2002713256835937,-15.694656488549619,-9.83206106870229,13.32824427480916,0.0
10.350000619888306,-10.678139404296875,1.5610194824218748,1.4604630126953124,-26.366412213740457,17.251908396946565,4.900763358778626,-9.957484704589843,-0.8044517578125,1.8722656982421875,-12.549618320610687,-8.885496183206106,10.412213740458014,0.0
10.360000371932983,-9.952696301269532,1.5275006591796874,1.3934253662109375,-19.61832061068702,17.00763358778626,3.4198473282442747,-10.043675964355469,-1.0390835205078124,1.649604943847656,-11.694656488549619,-8.442748091603054,7.587786259541985,0.0
10.37000036239624,-9.981426721191406,1.6400281372070311,0.9361328491210937,-19.389312977099237,15.114503816793894,1.4961832061068703,-10.838550915527343,-1.89620771484375,2.5163059448242184,-5.6183206106870225,-6.656488549618321,5.282442748091603,0.0
10.380000591278076,-9.727641345214844,1.5059528442382812,0.59376201171875,-15.954198473282442,13.84732824427481,-0.061068702290076333,-10.194510668945313,-1.4628572143554686,0.5482721801757812,5.083969465648855,-10.625954198473282,0.9923664122137404,0.0
10.390000820159912,-9.291896643066405,1.4173673828125,0.3280056274414062,-9.679389312977099,15.267175572519085,-0.7633587786259542,-10.335768566894531,-0.5482721801757812,2.0278888061523435,1.786259541984733,-13.19083969465649,0.0916030534351145,0.0
10.40000057220459,-9.437942944335937,2.0374656127929685,0.181959326171875,-8.091603053435115,16.137404580152673,-1.5267175572519085,-9.82580361328125,0.00239420166015625,0.411802685546875,10.259541984732824,-9.419847328244275,-1.8473282442748091,0.0
10.410000801086426,-9.428366137695312,2.379836450195312,0.09576806640624999,-7.8320610687022905,16.717557251908396,-1.5725190839694656,-9.425971936035156,1.8100164550781248,1.3742717529296875,10.091603053435115,-10.641221374045802,-3.786259541984733,0.0
10.420000553131104,-9.397241516113281,2.616862414550781,-0.20829554443359374,-7.709923664122138,17.450381679389313,-1.1603053435114503,-9.023746057128905,2.3582886352539063,0.55545478515625,-1.297709923664122,-4.977099236641221,-2.946564885496183,0.0
10.43000078201294,-9.5384994140625,2.8131869506835936,-0.2561795776367187,-11.17557251908397,18.50381679389313,-1.5114503816793894,-9.05965908203125,1.5562310791015623,0.24899697265624998,-4.442748091603053,1.3129770992366412,-1.786259541984733,0.0
10.440000772476196,-9.567229833984374,2.6479870361328124,-0.33758243408203126,-15.236641221374045,19.17557251908397,-0.9465648854961832,-8.643067993164061,1.0606313354492187,0.5961562133789062,-20.259541984732824,4.458015267175573,-1.5725190839694656,0.0
10.450000762939453,-9.859322436523437,2.6671406494140624,-0.19153613281249998,-19.66412213740458,19.14503816793893,-1.3893129770992367,-10.127473022460936,-1.149216796875,2.4684219116210935,-19.00763358778626,10.778625954198473,2.6106870229007635,0.0
10.46000051498413,-9.78031378173828,2.379836450195312,-0.29448680419921874,-22.778625954198475,18.870229007633586,-1.2061068702290076,-9.591171850585937,-0.15562310791015624,1.6160861206054686,-4.366412213740458,10.305343511450381,-0.4580152671755725,0.0
10.470000505447388,-9.773131176757811,1.8842367065429686,-0.16519991455078123,-22.137404580152673,19.64885496183206,-1.3893129770992367,-8.671798413085938,0.4740519287109375,1.5514426757812498,-5.6183206106870225,10.854961832061068,-4.366412213740458,0.0
10.480000495910645,-9.387664709472656,1.3958195678710936,-0.32561142578124996,-18.916030534351144,19.786259541984734,-2.030534351145038,-8.2743609375,1.2234370483398436,1.2210428466796874,-9.816793893129772,14.870229007633588,-4.885496183206107,0.0
10.49000072479248,-9.916783276367187,1.599326708984375,-0.07422025146484375,-20.33587786259542,19.87786259541985,-3.6946564885496183,-7.75721337890625,1.37906015625,1.3072341064453123,-18.213740458015266,20.763358778625953,-3.8931297709923665,0.0
10.500000476837158,-10.096348400878906,1.7166425903320313,0.0909796630859375,-20.18320610687023,19.587786259541986,-4.0458015267175576,-9.33978067626953,0.6847416748046875,2.1068974609374997,-20.442748091603054,23.389312977099237,0.6870229007633588,0.0
10.510000944137573,-10.180145458984374,1.6256629272460936,0.047884033203124995,-20.870229007633586,18.244274809160306,-3.9236641221374047,-8.384494213867187,1.5011644409179687,1.7980454467773437,-17.862595419847327,26.12213740458015,0.7175572519083969,0.0
10.520000696182251,-9.95987890625,1.2138602416992186,0.2657563842773437,-16.549618320610687,18.38167938931298,-4.305343511450381,-8.650250598144531,2.0374656127929685,1.9536685546875,-28.213740458015266,30.015267175572518,1.7099236641221374,0.0
10.530000686645508,-9.873687646484374,1.4532804077148436,0.33758243408203126,-13.282442748091603,17.633587786259543,-4.656488549618321,-9.042899670410156,1.407790576171875,1.85790048828125,-37.099236641221374,33.038167938931295,3.435114503816794,0.0
10.540000915527344,-9.744400756835937,1.5897499023437498,0.3495534423828125,-10.045801526717558,17.099236641221374,-4.625954198473282,-9.576806640625,0.25139117431640623,2.559401574707031,-36.97709923664122,33.52671755725191,6.106870229007634,0.0
10.550000667572021,-9.943119494628906,1.3910311645507811,0.10773907470703124,-7.587786259541985,16.015267175572518,-4.916030534351145,-9.428366137695312,-0.3806780639648437,2.001552587890625,-18.106870229007633,30.076335877862597,5.022900763358779,0.0
10.560000896453857,-9.655815295410155,1.1923124267578125,0.07422025146484375,-2.7480916030534353,16.045801526717558,-5.4961832061068705,-9.897629663085937,-1.5107412475585937,2.748543505859375,-22.53435114503817,23.84732824427481,4.961832061068702,0.0
10.570000648498535,-9.821015209960937,1.5945383056640625,0.12689268798828124,-0.22900763358778625,15.48091603053435,-6.6106870229007635,-9.275137231445312,-0.6679822631835937,2.4109610717773435,-17.251908396946565,20.671755725190838,1.9541984732824427,0.0
10.580000638961792,-9.464279162597656,1.5179238525390624,0.23223756103515625,2.4885496183206106,15.358778625954198,-7.068702290076335,-9.382876306152344,-0.7206546997070312,2.3870190551757813,-17.404580152671755,21.61832061068702,1.251908396946565,0.0
10.590000867843628,-9.406818322753905,1.85790048828125,0.3447650390625,3.0381679389312977,15.038167938931299,-7.572519083969466,-9.430760339355468,-0.8571241943359375,2.3319524169921872,-17.572519083969464,22.519083969465647,0.33587786259541985,0.0
10.600000619888306,-9.6917283203125,2.437297290039062,0.488417138671875,1.465648854961832,14.65648854961832,-7.572519083969466,-9.366116894531249,-0.5506663818359374,2.1811177124023438,-15.312977099236642,22.091603053435115,-0.33587786259541985,0.0
10.610000848770142,-9.72285294189453,3.447650390625,1.0821791503906248,-3.8931297709923665,12.80916030534351,-8.381679389312977,-9.0788126953125,-0.201112939453125,1.5921441040039062,-14.229007633587786,23.480916030534353,-1.9541984732824427,0.0
10.620000839233398,-8.767566479492187,2.061407629394531,0.5746083984375,-8.15267175572519,7.4961832061068705,-5.923664122137405,-10.062829577636718,-1.5298948608398437,2.1619640991210938,-22.412213740458014,28.33587786259542,-2.1374045801526718,0.0
10.630000352859497,-9.018957653808593,0.82360537109375,0.0909796630859375,-6.6106870229007635,4.458015267175573,-3.786259541984733,-10.034099157714843,-1.89620771484375,1.4939818359375,-10.16793893129771,28.977099236641223,-4.2748091603053435,0.0
10.640000581741333,-10.230423693847655,2.748543505859375,1.5155296508789062,-1.618320610687023,9.068702290076336,-7.236641221374046,-9.679757312011718,-0.9074024291992187,1.898601916503906,-1.618320610687023,25.801526717557252,-7.816793893129771,0.0
10.650000810623169,-10.146626635742187,3.4931402221679684,1.8148048583984373,-7.786259541984733,5.251908396946565,-7.984732824427481,-8.853757739257812,0.3184288208007812,2.118868469238281,-7.893129770992366,28.99236641221374,-10.82442748091603,0.0
10.660000801086426,-10.86009873046875,2.664746447753906,1.484405029296875,-13.98473282442748,-0.7022900763358778,-7.022900763358779,-9.014169250488282,0.0047884033203125,2.578555187988281,-17.297709923664122,29.862595419847327,-9.86259541984733,0.0
10.670000791549683,-9.79946739501953,1.659181750488281,0.9696516723632812,-13.740458015267176,-5.221374045801527,-5.206106870229007,-10.05564697265625,-0.26815058593749996,2.674323254394531,-11.893129770992367,33.41984732824427,-8.82442748091603,0.0
10.68000078201294,-9.466673364257812,2.6815058593749996,1.8818425048828125,-15.587786259541986,-7.083969465648855,-6.152671755725191,-9.028534460449219,0.3495534423828125,2.693476867675781,-14.16793893129771,34.778625954198475,-9.969465648854962,0.0
10.690000772476196,-10.314220751953124,2.5474305664062498,2.250549560546875,-21.64885496183206,-12.717557251908397,-6.778625954198473,-10.649408984374999,-1.1324573852539062,2.3343466186523436,-16.442748091603054,36.30534351145038,-9.297709923664122,0.0
10.700000524520874,-10.127473022460936,1.7884686401367187,2.6240450195312497,-22.717557251908396,-17.17557251908397,-5.908396946564886,-9.430760339355468,-0.11013327636718749,2.518700146484375,-10.198473282442748,35.969465648854964,-10.702290076335878,0.0
10.71000051498413,-10.793061083984375,2.5258827514648434,3.564966271972656,-22.106870229007633,-20.82442748091603,-6.977099236641221,-10.134655627441406,-2.1212626708984375,3.0909143432617188,-5.9541984732824424,32.0763358778626,-11.053435114503817,0.0
10.720000743865967,-10.259154113769531,2.01112939453125,3.0597897216796874,-22.33587786259542,-31.603053435114504,-4.152671755725191,-8.827421520996094,-1.4006079711914061,3.861847277832031,-0.8702290076335878,27.34351145038168,-12.641221374045802,0.0
10.730000495910645,-9.734823950195311,1.2497732666015624,2.722207287597656,-13.694656488549619,-35.29770992366412,-1.6030534351145038,-8.59278975830078,-1.429338391113281,2.9041666137695312,-3.1603053435114505,21.51145038167939,-13.32824427480916,0.0
10.74000072479248,-10.120290417480469,1.8339584716796873,3.2609026611328122,-8.488549618320612,-38.47328244274809,-1.2213740458015268,-8.736441857910156,-0.9552864624023437,2.157175695800781,2.595419847328244,25.00763358778626,-13.679389312977099,0.0
10.750000715255737,-10.486603271484375,1.8195932617187498,3.4428619873046875,-5.938931297709924,-43.43511450381679,0.7938931297709924,-8.504204296874999,-0.5913678100585937,3.0238766967773434,-3.068702290076336,25.17557251908397,-12.946564885496183,0.0
10.760000944137573,-10.472238061523436,1.7764976318359373,3.1268273681640624,-1.786259541984733,-47.83206106870229,3.816793893129771,-8.157045056152343,-0.7589619262695312,3.6152445068359373,3.435114503816794,22.50381679389313,-11.267175572519085,0.0
10.770000457763672,-9.351751684570312,1.4891934326171874,2.5570073730468748,3.83206106870229,-52.0763358778626,6.977099236641221,-9.181763366699219,-1.8555062866210936,3.306392492675781,5.282442748091603,20.33587786259542,-9.038167938931299,0.0
10.780000925064087,-9.2320416015625,1.5298948608398437,2.6144682128906247,12.870229007633588,-54.47328244274809,9.007633587786259,-8.99501563720703,-2.0781670410156248,3.7924154296875,18.48854961832061,18.106870229007633,-9.32824427480916,0.0
10.790000915527344,-9.648632690429688,1.426944189453125,2.8467057739257813,15.740458015267176,-57.12977099236641,10.16793893129771,-7.9463553100585935,-1.8291700683593748,3.153163586425781,14.900763358778626,14.916030534351146,-9.954198473282442,0.0
10.8000009059906,-8.990227233886719,0.055066638183593745,2.786850732421875,20.30534351145038,-61.11450381679389,11.053435114503817,-7.256825231933593,-0.70868369140625,2.1787235107421874,17.984732824427482,9.206106870229007,-11.419847328244275,0.0
10.8100004196167,-9.138667736816405,-0.1005564697265625,3.756502404785156,30.564885496183205,-63.02290076335878,9.709923664122137,-6.41646044921875,-0.07900865478515624,2.0757728393554684,11.206106870229007,10.702290076335878,-10.961832061068701,0.0
10.820000648498535,-9.421183532714844,0.93852705078125,3.6583401367187496,39.404580152671755,-65.14503816793894,10.045801526717558,-7.611167077636718,-1.5945383056640625,2.090138049316406,7.267175572519084,14.488549618320612,-7.511450381679389,0.0
10.830000638961792,-8.544905725097657,-0.24660277099609373,2.3415292236328122,42.717557251908396,-68.91603053435115,12.717557251908397,-6.68461103515625,0.00718260498046875,1.9488801513671874,11.053435114503817,15.908396946564885,-8.076335877862595,0.0
10.840000867843628,-7.1203557373046875,-1.7238251953125,1.2042834350585936,51.14503816793893,-65.7557251908397,10.396946564885496,-6.344634399414062,0.12449848632812499,1.5849614990234373,1.0381679389312977,25.236641221374047,-5.938931297709924,0.0
10.850000619888306,-6.236895324707031,-2.147598889160156,-0.24660277099609373,50.25954198473283,-59.83206106870229,2.351145038167939,-7.034164477539062,-1.4053963745117186,2.0638018310546875,7.038167938931298,25.84732824427481,-3.3740458015267176,0.0
10.860000848770142,-7.800309008789062,-1.0486603271484374,-0.622492431640625,50.0763358778626,-50.717557251908396,-6.244274809160306,-7.79552060546875,-1.5298948608398437,1.4796166259765624,20.442748091603054,25.69465648854962,-2.564885496183206,0.0
10.87000036239624,-6.993463049316406,-1.7429788085937499,-0.6009446166992187,59.587786259541986,-45.74045801526717,-9.083969465648854,-6.016628771972656,0.59376201171875,1.2569558715820313,15.145038167938932,26.30534351145038,-5.312977099236641,0.0
10.880000591278076,-9.430760339355468,1.8076222534179687,0.8092401611328125,61.38931297709924,-38.33587786259542,-15.053435114503817,-8.353369592285155,-0.9169792358398436,1.2785036865234374,10.687022900763358,36.0,-4.656488549618321,0.0
10.890000820159912,-9.682151513671874,1.9680337646484374,1.0342951171875,55.37404580152672,-39.06870229007634,-15.49618320610687,-10.287884533691406,-1.9704279663085937,0.9121908325195311,23.709923664122137,35.725190839694655,-7.480916030534351,0.0
10.90000057220459,-10.558429321289061,2.712630480957031,1.7597382202148437,53.05343511450382,-38.595419847328245,-17.572519083969464,-10.963049401855468,-0.3854664672851562,-0.17956512451171874,20.244274809160306,33.89312977099237,-13.786259541984732,0.0
10.910000562667847,-10.24000050048828,1.7405846069335937,1.944091748046875,56.94656488549618,-39.083969465648856,-17.34351145038168,-12.856862915039061,-1.3551181396484375,1.0797849487304687,6.809160305343512,40.656488549618324,-17.068702290076335,0.0
10.920000553131104,-9.967061511230469,0.5482721801757812,2.039859814453125,67.16030534351145,-38.67175572519084,-17.541984732824428,-15.626954235839843,-3.2034418212890623,3.0526071166992184,15.557251908396946,35.98473282442748,-21.633587786259543,0.0
10.93000078201294,-10.800243688964843,1.9608511596679685,2.786850732421875,72.53435114503817,-38.29007633587786,-20.442748091603054,-17.029956408691405,-3.754108203125,5.2456958374023435,18.48854961832061,21.419847328244273,-27.64885496183206,0.0
10.940000534057617,-12.033257543945313,4.108450048828125,3.9504327392578125,66.58015267175573,-42.717557251908396,-21.114503816793892,-17.70512127685547,-3.095702746582031,7.017405065917968,20.793893129770993,2.732824427480916,-27.083969465648856,0.0
10.950000286102295,-11.942277880859374,3.39018955078125,4.189852905273438,63.57251908396947,-47.343511450381676,-17.14503816793893,-15.0164328125,-1.3527239379882812,6.2201359130859375,27.541984732824428,-15.877862595419847,-21.66412213740458,0.0
10.96000075340271,-12.203245861816406,3.5721488769531247,4.8698061767578125,64.10687022900764,-50.396946564885496,-14.82442748091603,-13.089100476074218,0.6200982299804687,3.2632968627929686,22.83969465648855,-14.778625954198473,-18.549618320610687,0.0
10.970000505447388,-12.921506359863281,5.590460876464843,6.320692382812499,56.88549618320611,-56.51908396946565,-14.091603053435115,-11.326968054199218,0.4955997436523437,2.1116858642578125,16.27480916030534,-22.106870229007633,-12.717557251908397,0.0
10.980000495910645,-11.054029064941405,2.398990063476562,5.200206005859375,50.29007633587786,-68.3206106870229,-5.175572519083969,-9.497797985839844,0.6392518432617187,-0.13168109130859373,14.900763358778626,-22.061068702290076,-9.84732824427481,0.0
10.990000486373901,-13.160926525878905,4.328716601562499,7.268796240234375,43.45038167938932,-71.00763358778626,-4.091603053435114,-8.147468249511718,0.5243301635742187,-1.3000515014648437,12.885496183206106,-15.48091603053435,-7.709923664122138,0.0
11.000000476837158,-13.728352319335936,4.69263525390625,7.292738256835937,20.778625954198475,-90.3206106870229,-1.7404580152671756,-6.816292126464844,0.26336218261718747,-1.8028338500976562,20.458015267175572,-10.580152671755725,-5.435114503816794,0.0
11.010000705718994,-13.263877197265625,3.9312791259765625,6.373364819335937,11.32824427480916,-106.0,4.763358778625954,-6.7085530517578125,-0.3687070556640625,-2.023100402832031,20.885496183206108,-3.648854961832061,-3.8473282442748094,0.0
11.02000117301941,-12.504915270996094,2.549824768066406,5.5641246582031245,5.1603053435114505,-118.62595419847328,10.473282442748092,-6.490680700683593,-1.0630255371093749,-1.9871873779296874,17.84732824427481,3.1297709923664123,-3.8473282442748094,0.0
11.030000925064087,-12.310984936523436,2.023100402832031,3.6463691284179687,2.427480916030534,-127.32824427480917,14.687022900763358,-7.510610607910156,-2.712630480957031,-1.5801730957031248,17.81679389312977,10.580152671755725,-4.67175572519084,0.0
11.040001153945923,-11.379640490722656,0.37828386230468747,2.0638018310546875,-3.8473282442748094,-134.29007633587787,16.916030534351144,-8.204929089355469,-3.3159692993164063,-1.5394716674804687,22.061068702290076,14.473282442748092,-7.862595419847328,0.0
11.050342321395874,-10.098742602539062,-0.3495534423828125,-0.7302315063476562,-5.4961832061068705,-133.95419847328245,18.30534351145038,-10.053252770996092,-4.465186096191406,-0.23223756103515625,23.00763358778626,23.61832061068702,-10.80916030534351,0.0
11.060001134872437,-8.623914379882812,-1.0965443603515623,-3.0909143432617188,-4.366412213740458,-127.92366412213741,21.770992366412212,-11.0707884765625,-5.355829113769531,0.4525041137695312,28.015267175572518,25.709923664122137,-11.282442748091603,0.0
11.070000648498535,-8.066065393066406,-2.6240450195312497,-3.086125939941406,4.351145038167939,-115.86259541984732,23.16030534351145,-11.3389390625,-5.015852478027344,1.62805712890625,34.68702290076336,23.297709923664122,-8.061068702290076,0.0
11.080000638961792,-7.275978845214843,-3.497928625488281,-2.6982652709960937,20.53435114503817,-102.93129770992367,23.46564885496183,-11.3772462890625,-3.5889082885742187,0.6105214233398437,51.06870229007634,17.755725190839694,-4.33587786259542,0.0
11.090000629425049,-6.4834980957031245,-3.361459130859375,-2.4205378784179685,34.88549618320611,-86.4885496183206,18.793893129770993,-11.896788049316406,-2.779668127441406,1.7669208251953124,47.80152671755725,15.938931297709924,-4.717557251908397,0.0
11.100000619888306,-7.491456994628906,-1.5418658691406248,-1.9201497314453124,44.44274809160305,-68.21374045801527,11.969465648854962,-11.9135474609375,-2.6527754394531247,1.1947066284179686,55.49618320610687,10.625954198473282,-0.6106870229007634,0.0
11.110000610351562,-6.6702458251953125,-0.30885201416015623,-1.8626888916015625,57.343511450381676,-48.50381679389313,9.618320610687023,-11.801019982910155,-1.5825672973632812,1.1228805786132812,46.29007633587786,7.374045801526718,1.3435114503816794,0.0
11.12000060081482,-7.613561279296874,1.6519991455078125,-0.612915625,60.25954198473283,-29.84732824427481,7.7251908396946565,-10.733206042480468,-1.3407529296874998,0.8116343627929687,36.85496183206107,4.458015267175573,1.4809160305343512,0.0
11.130000591278076,-5.530605834960937,0.24660277099609373,-1.5298948608398437,53.45038167938932,-15.19083969465649,7.801526717557252,-9.794678991699218,-1.5394716674804687,0.7565677246093749,29.572519083969464,4.9465648854961835,1.7557251908396947,0.0
11.140000820159912,-7.086836914062499,1.5466542724609373,-0.1197100830078125,43.80152671755725,4.412213740458015,0.2900763358778626,-8.844180932617187,-1.7741034301757812,0.1771709228515625,24.427480916030536,5.984732824427481,0.4122137404580153,0.0
11.150000810623169,-8.508992700195313,2.252943762207031,0.4165910888671875,8.778625954198473,7.236641221374046,-8.793893129770993,-9.334992272949219,-3.6559459350585937,0.9241618408203125,27.908396946564885,7.8320610687022905,0.9312977099236641,0.0
11.160000324249268,-8.315062365722655,0.16998831787109375,0.2657563842773437,-6.305343511450381,11.893129770992367,-10.748091603053435,-9.502586389160156,-2.7269956909179687,0.12449848632812499,37.69465648854962,2.7022900763358777,-2.198473282442748,0.0
11.170000553131104,-6.3901242309570305,-1.9488801513671874,-0.8714894042968749,-0.366412213740458,24.580152671755727,-12.290076335877863,-8.815450512695312,-2.042254016113281,0.36631285400390623,34.74809160305343,-1.251908396946565,-5.374045801526718,0.0
11.18000078201294,-6.337451794433593,-0.7230489013671875,-0.6272808349609375,3.282442748091603,37.9236641221374,-19.34351145038168,-9.37808790283203,-1.5059528442382812,0.13168109130859373,30.702290076335878,0.015267175572519083,-6.183206106870229,0.0
11.190000772476196,-6.404489440917969,-0.6679822631835937,-0.8930372192382812,-4.183206106870229,46.18320610687023,-24.641221374045802,-8.844180932617187,-0.5434837768554687,0.25139117431640623,25.61832061068702,1.633587786259542,-6.412213740458015,0.0
11.200000524520874,-5.853823059082031,-0.7757213378906249,-0.8379705810546875,-4.0458015267175576,58.13740458015267,-29.435114503816795,-9.473855969238281,0.05985504150390625,-0.04548983154296875,16.290076335877863,7.206106870229007,-4.244274809160306,0.0
11.21000051498413,-5.592855078125,0.3280056274414062,-0.031124621582031248,-10.65648854961832,68.76335877862596,-35.70992366412214,-9.935936889648437,-0.4333505004882812,1.2114660400390624,8.091603053435115,11.557251908396946,-0.9465648854961832,0.0
11.220000505447388,-5.336675500488281,-0.5003881469726562,0.3399766357421875,-20.244274809160306,74.10687022900764,-40.2442748091603,-9.830592016601562,-0.9576806640625,1.927332336425781,-0.015267175572519083,11.98473282442748,1.5877862595419847,0.0
11.230000495910645,-3.9504327392578125,-1.848323681640625,-0.02154781494140625,-16.53435114503817,83.90839694656489,-44.29007633587786,-9.81862100830078,-0.9648632690429687,2.1499930908203124,-0.549618320610687,7.9541984732824424,2.8702290076335877,0.0
11.240000486373901,-3.9719805541992184,-2.1691467041015624,0.3495534423828125,-6.106870229007634,95.86259541984732,-49.29770992366412,-9.60793126220703,-0.852335791015625,2.5617957763671875,-0.6870229007633588,4.870229007633588,1.8473282442748091,0.0
11.250000476837158,-3.4356793823242184,-2.540247961425781,0.1388636962890625,6.412213740458015,104.70229007633588,-51.81679389312977,-9.399635717773437,-0.4572925170898437,2.7341782958984373,-2.7938931297709924,1.8931297709923665,1.282442748091603,0.0
11.260000944137573,-3.5769372802734374,-0.603338818359375,1.1659762084960936,26.748091603053435,121.08396946564885,-53.16030534351145,-9.344569079589844,-0.16759411621093748,3.1004911499023438,-6.580152671755725,-1.5572519083969465,0.5801526717557252,0.0
11.270000457763672,-5.942408520507812,1.35990654296875,1.3742717529296875,29.893129770992367,131.74045801526717,-54.229007633587784,-9.603142858886718,-0.2537853759765625,3.4428619873046875,-8.702290076335878,-4.67175572519084,0.5648854961832062,0.0
11.280000925064087,-6.004657763671875,2.942473840332031,1.6400281372070311,27.31297709923664,135.00763358778627,-50.38167938931298,-9.610325463867188,0.06703764648437499,3.6367923217773437,-12.916030534351146,-10.045801526717558,0.5648854961832062,0.0
11.290000438690186,-6.868964562988281,3.0119056884765625,2.5067291381835934,26.30534351145038,138.4732824427481,-41.80152671755725,-9.947907897949218,-0.21787235107421873,3.8857892944335934,-19.786259541984734,-15.053435114503817,2.351145038167939,0.0
11.30000114440918,-7.764395983886718,3.5338416503906247,4.010287780761718,31.52671755725191,140.19847328244273,-31.938931297709924,-10.39322940673828,-1.707065783691406,4.575319372558593,-21.755725190839694,-22.18320610687023,6.0458015267175576,0.0
11.3100004196167,-10.639832177734375,3.864241479492187,6.023811376953125,41.93893129770992,136.12213740458014,-19.557251908396946,-11.489773767089844,-3.399766357421875,4.927267016601562,-4.229007633587786,-39.55725190839695,9.145038167938932,0.0
11.320000886917114,-13.029245434570312,5.351040710449219,9.088389501953124,59.74045801526717,128.2290076335878,-4.183206106870229,-10.690110412597656,-2.5163059448242184,4.367023828124999,10.80916030534351,-52.62595419847328,10.061068702290076,0.0
11.330000638961792,-15.370774658203125,5.394136340332031,11.003750830078124,60.229007633587784,108.50381679389314,6.580152671755725,-9.239224206542968,-0.6967126831054687,2.806004345703125,-4.2748091603053435,-54.82442748091603,10.244274809160306,0.0
11.340000629425049,-17.420211279296876,7.161057165527343,14.441824414062499,50.01526717557252,80.13740458015268,11.358778625954198,-7.687781530761718,1.3120225097656248,1.7956512451171873,-6.427480916030534,-58.99236641221374,8.412213740458014,0.0
11.350000858306885,-18.267758666992187,7.208941198730468,12.715605017089842,32.19847328244275,43.83206106870229,18.12213740458015,-7.582436657714843,-0.0143652099609375,0.7829039428710937,-18.625954198473284,-52.29007633587786,13.633587786259541,0.0
11.360000848770142,-18.914193115234372,7.132326745605468,10.225635290527343,11.877862595419847,18.290076335877863,23.389312977099237,-7.690175732421874,-1.8746598999023436,2.398990063476562,1.282442748091603,-50.29007633587786,18.412213740458014,0.0
11.37000060081482,-18.253393457031247,4.046200805664062,7.2903440551757805,3.404580152671756,-6.229007633587786,30.076335877862597,-8.013392956542969,-1.5275006591796874,-0.047884033203124995,1.4961832061068703,-47.587786259541986,21.69465648854962,0.0
11.380000829696655,-17.707515478515624,3.392583752441406,5.597643481445312,27.984732824427482,-10.427480916030534,37.32824427480916,-6.940790612792968,-0.38307226562499996,-0.22744915771484372,-2.7022900763358777,-39.847328244274806,20.702290076335878,0.0
11.390000820159912,-16.80250725097656,4.4005426513671875,5.68862314453125,35.93893129770992,-20.48854961832061,41.80152671755725,-8.034940771484374,-2.6048914062499997,-0.06464344482421874,-13.022900763358779,-29.954198473282442,22.83969465648855,0.0
11.40000057220459,-16.08185255126953,5.853823059082031,6.830657336425781,29.46564885496183,-34.51908396946565,48.94656488549618,-9.038111267089842,-4.067748620605468,-0.5386953735351562,5.022900763358779,-26.03053435114504,23.328244274809162,0.0
11.410001039505005,-14.523227270507812,4.862623571777344,6.028599780273437,9.557251908396946,-45.45038167938932,53.86259541984733,-10.94868419189453,-5.078101721191406,0.5913678100585937,17.358778625954198,-23.770992366412212,20.946564885496183,0.0
11.420000553131104,-9.89523546142578,1.6543933471679686,2.9759926635742184,-25.786259541984734,-53.786259541984734,51.20610687022901,-11.14022032470703,-4.005499377441406,-0.1580173095703125,29.72519083969466,-23.96946564885496,20.16793893129771,0.0
11.43000078201294,-6.476315490722656,-1.455674609375,0.7422025146484375,-53.17557251908397,-56.213740458015266,37.17557251908397,-10.541669909667968,0.6847416748046875,-0.0383072265625,27.801526717557252,-19.862595419847327,15.801526717557252,0.0
11.440000534057617,-4.752490295410156,-2.3774422485351563,-1.7238251953125,-58.33587786259542,-53.221374045801525,22.53435114503817,-11.666944689941406,-1.6927005737304686,0.9576806640625,19.419847328244273,-10.687022900763358,13.404580152671755,0.0
11.450000524520874,-4.319139794921875,-2.664746447753906,-3.727771984863281,-51.282442748091604,-36.916030534351144,14.198473282442748,-12.164938635253906,-2.5234885498046875,0.4213794921875,25.740458015267176,-13.572519083969466,11.206106870229007,0.0
11.460000276565552,-3.9815573608398434,-2.262520568847656,-3.821145849609375,-33.343511450381676,-14.534351145038167,9.312977099236642,-11.417947717285156,-1.1156979736328125,0.20829554443359374,23.81679389312977,-13.282442748091603,5.862595419847328,0.0
11.470000505447388,-6.078878015136718,0.689530078125,-2.133233679199219,-24.30534351145038,6.885496183206107,3.236641221374046,-11.159373937988281,-0.3016694091796875,-0.3758896606445312,21.419847328244273,-12.335877862595419,3.6946564885496183,0.0
11.480000495910645,-7.436390356445312,1.9033903198242186,-2.473210314941406,-33.61832061068702,16.427480916030536,1.0687022900763359,-10.931924780273437,1.0821791503906248,0.0143652099609375,16.198473282442748,-10.992366412213741,3.8625954198473282,0.0
11.490000486373901,-8.774749084472656,1.3718775512695311,-2.185906115722656,-30.748091603053435,30.045801526717558,2.564885496183206,-10.764330664062498,1.158793603515625,0.6584054565429687,2.0916030534351147,-11.007633587786259,6.549618320610687,0.0
11.500000953674316,-10.204087475585936,1.7453730102539062,-1.0199299072265624,-29.46564885496183,41.66412213740458,1.3740458015267176,-10.685322009277343,0.8643067993164062,0.9097966308593749,-8.412213740458014,-10.946564885496183,8.534351145038167,0.0
11.510000705718994,-10.73799444580078,1.7094599853515624,0.17477672119140625,-32.33587786259542,48.534351145038165,-1.7099236641221374,-10.769119067382812,-0.22505495605468748,0.5578489868164063,-11.572519083969466,-9.84732824427481,10.396946564885496,0.0
11.52000093460083,-10.333374365234375,1.8267758666992187,0.5985504150390625,-36.916030534351144,49.11450381679389,-3.9389312977099236,-11.03248125,-0.0047884033203125,1.1755530151367186,-14.290076335877863,-9.954198473282442,12.335877862595419,0.0
11.530000686645508,-10.809820495605468,2.327164013671875,1.2856862915039062,-39.48091603053435,48.58015267175573,-5.221374045801527,-10.563217724609375,0.34715924072265625,1.47482822265625,-14.992366412213741,-10.305343511450381,12.381679389312977,0.0
11.540000915527344,-10.465055456542968,2.7269956909179687,1.407790576171875,-43.37404580152672,44.68702290076336,-6.030534351145038,-10.340556970214843,0.9552864624023437,2.2864625854492187,-15.526717557251908,-9.938931297709924,12.854961832061068,0.0
11.550000429153442,-10.766724865722656,3.6439749267578123,1.5346832641601562,-48.13740458015267,41.93893129770992,-6.137404580152672,-10.153809240722655,0.7709329345703124,2.288856787109375,-15.450381679389313,-8.274809160305344,13.206106870229007,0.0
11.560000658035278,-10.977414611816405,3.6008792968749996,1.714248388671875,-57.267175572519086,35.74045801526717,-4.793893129770993,-10.144232434082031,0.6296750366210937,1.908178723144531,-17.64885496183206,-8.412213740458014,14.534351145038167,0.0
11.570000648498535,-10.587159741210938,3.1747114013671873,1.6543933471679686,-58.717557251908396,31.389312977099237,-1.6946564885496183,-9.636661682128906,0.8930372192382812,2.157175695800781,-21.6793893129771,-8.717557251908397,15.618320610687023,0.0
11.580000638961792,-9.627084875488281,1.8698714965820311,0.7876923461914062,-62.18320610687023,24.48854961832061,0.9465648854961832,-9.76116016845703,0.7230489013671875,2.798821740722656,-23.14503816793893,-8.091603053435115,17.61832061068702,0.0
11.590000629425049,-9.878476049804688,1.43652099609375,0.6272808349609375,-60.29007633587786,22.916030534351144,2.2442748091603053,-9.473855969238281,1.0127473022460938,2.4899697265625,-27.083969465648856,-9.358778625954198,18.53435114503817,0.0
11.600000619888306,-9.528922607421874,1.2593500732421874,0.7062894897460937,-57.16030534351145,23.419847328244273,2.5343511450381677,-9.830592016601562,0.19632453613281248,2.418143676757812,-26.47328244274809,-9.679389312977099,19.83206106870229,0.0
11.610000848770142,-9.502586389160156,1.350329736328125,0.5363011718749999,-55.20610687022901,22.53435114503817,2.2290076335877864,-10.144232434082031,0.4908113403320312,2.4349030883789062,-28.427480916030536,-10.870229007633588,19.17557251908397,0.0
11.62000060081482,-9.320627062988281,0.699106884765625,0.40462008056640625,-50.85496183206107,21.51145038167939,2.6259541984732824,-10.35492218017578,0.4285620971679687,2.6408044311523438,-27.81679389312977,-12.427480916030534,18.0,0.0
11.630001068115234,-8.307879760742187,-0.4429273071289062,0.277727392578125,-32.732824427480914,25.221374045801525,4.412213740458015,-10.098742602539062,0.7110778930664062,2.6886884643554687,-31.603053435114504,-13.740458015267176,16.213740458015266,0.0
11.640001058578491,-8.712499841308594,0.06464344482421874,0.2609679809570312,-18.061068702290076,29.00763358778626,3.236641221374046,-10.050858569335936,0.14125789794921875,2.2074539306640624,-34.29007633587786,-15.053435114503817,14.610687022900763,0.0
11.650000810623169,-8.971073620605468,1.2138602416992186,0.7326257080078125,-12.0,30.625954198473284,1.6030534351145038,-10.091559997558592,-0.8403647827148437,1.2473790649414063,-32.595419847328245,-17.61832061068702,14.748091603053435,0.0
11.660000801086426,-9.414000927734374,1.7669208251953124,0.8475473876953125,-10.274809160305344,29.81679389312977,1.5419847328244274,-10.127473022460936,-0.6943184814453125,1.7525556152343749,-28.595419847328245,-18.213740458015266,13.007633587786259,0.0
11.670000791549683,-9.916783276367187,2.602497204589844,1.1707646118164061,-9.84732824427481,29.251908396946565,1.2061068702290076,-9.476250170898437,-1.3407529296874998,1.5251064575195312,-25.770992366412212,-18.259541984732824,10.763358778625955,0.0
11.68000054359436,-10.697293017578124,3.902548706054687,1.678335363769531,-17.31297709923664,25.893129770992367,0.732824427480916,-9.540893615722656,-1.0558429321289062,1.5370774658203123,-21.87786259541985,-18.412213740458014,9.251908396946565,0.0
11.690000772476196,-10.874463940429687,4.115632653808594,1.3263877197265623,-27.236641221374047,18.3206106870229,2.4122137404580153,-9.176974963378905,-0.5698199951171875,1.2976572998046874,-17.52671755725191,-18.595419847328245,6.854961832061068,0.0
11.700000762939453,-9.5384994140625,1.2785036865234374,0.229843359375,-26.48854961832061,13.007633587786259,5.908396946564886,-9.169792358398437,0.26815058593749996,1.3862427612304686,-14.992366412213741,-17.893129770992367,5.648854961832061,0.0
11.71000051498413,-10.338162768554687,2.7437551025390623,0.9026140258789062,-20.702290076335878,17.34351145038168,3.8931297709923665,-9.085995300292968,0.5410895751953124,1.3359645263671873,-17.129770992366414,-16.137404580152673,5.236641221374046,0.0
11.720000505447388,-10.043675964355469,2.8012159423828122,0.3902548706054687,-27.633587786259543,12.351145038167939,3.8625954198473282,-9.567229833984374,0.9600748657226562,1.3215993164062498,-15.419847328244275,-14.625954198473282,4.885496183206107,0.0
11.730000495910645,-9.792284790039062,1.656787548828125,-0.229843359375,-22.47328244274809,12.0,4.885496183206107,-9.521740002441407,1.1085153686523437,1.2641384765625,-19.954198473282442,-12.900763358778626,4.351145038167939,0.0
11.74000072479248,-10.426748229980468,2.090138049316406,0.0430956298828125,-20.931297709923665,13.801526717557252,3.7251908396946565,-9.8449572265625,0.6560112548828124,1.2497732666015624,-22.50381679389313,-11.099236641221374,4.152671755725191,0.0
11.750000476837158,-10.500968481445312,3.564966271972656,0.3327940307617187,-24.35114503816794,15.465648854961833,1.450381679389313,-9.543287817382812,0.8547299926757812,0.86191259765625,-24.595419847328245,-8.748091603053435,3.0839694656488548,0.0
11.760000944137573,-9.696516723632811,2.9759926635742184,-0.24181436767578124,-30.427480916030536,13.358778625954198,2.1526717557251906,-9.86411083984375,0.023942016601562498,0.8906430175781249,-22.65648854961832,-7.129770992366412,3.053435114503817,0.0
11.770000696182251,-9.114725720214842,1.5011644409179687,-0.6919242797851562,-29.419847328244273,14.854961832061068,3.267175572519084,-9.852139831542969,-0.3232172241210937,0.9457096557617187,-25.923664122137403,-6.702290076335878,2.183206106870229,0.0
11.780000925064087,-9.70369932861328,2.0973206542968748,-0.076614453125,-23.709923664122137,21.572519083969464,0.42748091603053434,-9.87608184814453,-0.26815058593749996,1.0390835205078124,-23.450381679389313,-5.801526717557252,1.6793893129770991,0.0
11.790000677108765,-9.78031378173828,2.1978771240234374,0.17238251953125,-22.198473282442748,24.99236641221374,-0.6717557251908397,-9.878476049804688,-0.10295067138671875,1.4245499877929686,-21.099236641221374,-4.809160305343512,0.9007633587786259,0.0
11.80000114440918,-10.302249743652343,2.7533319091796873,-0.05746083984375,-24.198473282442748,26.366412213740457,-1.1145038167938932,-9.85692823486328,0.0718260498046875,1.70467158203125,-22.198473282442748,-4.900763358778626,0.3053435114503817,0.0
11.810007572174072,-10.199299072265624,2.844311572265625,-0.06464344482421874,-27.572519083969464,26.33587786259542,-0.33587786259541985,-9.782707983398437,0.2609679809570312,2.0446482177734375,-23.6793893129771,-5.374045801526718,-0.183206106870229,0.0
11.820000886917114,-10.256759912109374,2.9927520751953125,-0.20350714111328125,-37.099236641221374,24.85496183206107,-0.5343511450381679,-9.68454571533203,0.35673604736328124,2.0183119995117185,-26.290076335877863,-5.877862595419847,-0.7480916030534351,0.0
11.830000638961792,-10.474632263183594,2.952050646972656,0.3854664672851562,-38.01526717557252,27.022900763358777,-1.0534351145038168,-9.33978067626953,0.7398083129882812,1.879448303222656,-27.022900763358777,-5.770992366412214,-0.8549618320610687,0.0
11.840000629425049,-10.137049829101562,2.6001030029296874,0.11731588134765625,-46.01526717557252,22.519083969465647,-0.7175572519083969,-9.524134204101562,0.3711012573242187,2.1978771240234374,-31.96946564885496,-4.534351145038168,0.0916030534351145,0.0
11.850000619888306,-10.081983190917969,1.7932570434570312,0.05027823486328125,-45.05343511450382,21.114503816793892,-0.33587786259541985,-9.612719665527344,0.34715924072265625,2.0661960327148434,-32.36641221374046,-4.458015267175573,0.5801526717557252,0.0
11.860000610351562,-9.840168823242188,1.3479355346679687,-0.009576806640625,-40.412213740458014,20.85496183206107,-0.13740458015267176,-9.057264880371093,0.6703764648437499,1.8148048583984373,-35.25190839694657,-2.7938931297709924,0.549618320610687,0.0
11.870009660720825,-9.935936889648437,1.1875240234375,0.18914193115234373,-35.81679389312977,20.65648854961832,-0.7786259541984732,-9.150638745117186,0.4429273071289062,1.848323681640625,-38.01526717557252,-0.7175572519083969,1.0076335877862594,0.0
11.880000591278076,-9.478644372558593,1.1156979736328125,0.33758243408203126,-29.801526717557252,20.442748091603054,-1.2061068702290076,-9.0788126953125,0.21068974609375,1.7334020019531249,-36.83969465648855,0.8396946564885496,2.2442748091603053,0.0
11.890000820159912,-10.204087475585936,2.128445275878906,0.6919242797851562,-36.01526717557252,15.32824427480916,-3.145038167938931,-9.330203869628905,-0.1388636962890625,1.8626888916015625,-36.68702290076336,1.7404580152671756,1.8625954198473282,0.0
11.900000810623169,-9.478644372558593,0.9313444458007812,0.8858546142578124,-29.954198473282442,13.541984732824428,-1.9083969465648856,-8.94473740234375,0.06464344482421874,1.6543933471679686,-35.587786259541986,2.0916030534351147,1.5267175572519085,0.0
11.910000801086426,-9.93354268798828,1.2832920898437499,0.9935936889648437,-25.19083969465649,11.236641221374045,-2.854961832061069,-8.932766394042968,-0.3399766357421875,1.5658078857421873,-35.61832061068702,3.954198473282443,1.786259541984733,0.0
11.920000791549683,-9.325415466308593,0.7541735229492187,0.7422025146484375,-16.045801526717558,8.641221374045802,-2.4427480916030535,-8.750807067871094,-0.5770026000976562,1.4030021728515625,-32.83969465648855,5.786259541984733,0.8702290076335878,0.0
11.93000864982605,-9.641450085449218,1.7286135986328124,0.9409212524414062,-11.404580152671755,8.15267175572519,-2.9923664122137406,-8.971073620605468,-1.0702081420898437,1.4173673828125,-30.85496183206107,8.183206106870228,-0.015267175572519083,0.0
11.940000534057617,-9.880870251464843,3.347093920898437,1.3192051147460937,-14.488549618320612,5.038167938931298,-4.061068702290076,-8.882488159179687,-1.2689268798828124,1.2856862915039062,-26.27480916030534,10.030534351145038,-0.5648854961832062,0.0
11.950000524520874,-10.943895788574219,3.0621839233398433,1.4508862060546874,-19.435114503816795,0.42748091603053434,-2.6259541984732824,-8.951920007324219,-1.120486376953125,1.3000515014648437,-22.396946564885496,11.877862595419847,-1.4351145038167938,0.0
11.96000051498413,-9.524134204101562,1.5777788940429687,0.19153613281249998,-17.221374045801525,-6.198473282442748,1.0229007633587786,-8.80347950439453,-1.0726023437499999,1.2330138549804688,-19.221374045801525,14.16793893129771,-1.5877862595419847,0.0
11.970000505447388,-10.05564697265625,1.3024457031249999,0.6081272216796875,-13.816793893129772,-4.458015267175573,0.4580152671755725,-8.772354882812499,-1.429338391113281,1.4245499877929686,-15.923664122137405,16.137404580152673,-2.595419847328244,0.0
11.980000495910645,-9.04050546875,1.1851298217773436,0.19393033447265623,-8.51908396946565,-6.625954198473282,0.8396946564885496,-8.652644799804687,-0.9744400756835937,1.4317325927734375,-11.526717557251908,18.33587786259542,-2.549618320610687,0.0
11.990000486373901,-10.445901843261717,2.0638018310546875,0.28490999755859375,-8.625954198473282,-5.068702290076335,-1.3282442748091603,-8.84178673095703,-0.9624690673828125,1.350329736328125,-8.061068702290076,21.984732824427482,-3.435114503816794,0.0
12.000000953674316,-10.05564697265625,1.2521674682617188,0.062249243164062495,-11.755725190839694,-7.603053435114504,-0.9770992366412213,-8.145074047851562,-1.5035586425781249,1.3527239379882812,-7.236641221374046,21.404580152671755,-4.625954198473282,0.0
12.010000705718994,-9.153032946777342,0.6727706665039062,0.13168109130859373,-4.091603053435114,-6.549618320610687,-1.2366412213740459,-8.801085302734375,-1.6160861206054686,1.7645266235351562,4.931297709923665,22.3206106870229,-4.213740458015267,0.0
12.02000093460083,-10.060435375976562,0.5961562133789062,0.5315127685546874,1.7099236641221374,-4.5038167938931295,-3.236641221374046,-8.334215979003906,-0.277727392578125,1.695094775390625,-0.13740458015267176,24.610687022900763,-7.770992366412214,0.0
12.030000686645508,-11.111489904785156,2.3247698120117186,1.2114660400390624,3.7251908396946565,-2.7480916030534353,-6.1679389312977095,-8.190563879394531,-0.814028564453125,1.7645266235351562,-4.442748091603053,28.53435114503817,-7.801526717557252,0.0
12.040001153945923,-9.873687646484374,2.1356278808593747,0.5770026000976562,-0.6870229007633588,-8.045801526717558,-4.717557251908397,-10.251971508789062,-1.7214309936523438,2.602497204589844,7.114503816793893,31.984732824427482,-4.8396946564885495,0.0
12.050000667572021,-9.047688073730468,1.8818425048828125,0.7398083129882812,2.6412213740458017,-9.98473282442748,-3.099236641221374,-10.134655627441406,-0.9935936889648437,2.6479870361328124,11.694656488549619,30.12213740458015,-6.977099236641221,0.0
12.060000658035278,-9.797073193359374,2.1906945190429687,1.1875240234375,6.229007633587786,-8.01526717557252,-3.114503816793893,-9.121908325195312,-1.3407529296874998,2.3822306518554686,8.51908396946565,26.27480916030534,-8.290076335877863,0.0
12.070000648498535,-10.13226142578125,2.104503259277344,1.1156979736328125,7.740458015267175,-7.755725190839694,-3.435114503816794,-8.743624462890624,0.6919242797851562,2.384624853515625,16.641221374045802,25.358778625954198,-10.82442748091603,0.0
12.080000877380371,-10.168174450683592,2.4971523315429685,1.177947216796875,8.931297709923664,-6.961832061068702,-4.305343511450381,-9.198522778320312,-0.15083470458984374,2.080561242675781,1.6946564885496183,30.610687022900763,-9.679389312977099,0.0
12.090000629425049,-9.447519750976562,2.114080065917969,1.2210428466796874,8.412213740458014,-8.763358778625955,-3.816793893129771,-9.279925634765624,-0.28012159423828126,2.8323405639648436,-1.099236641221374,31.17557251908397,-8.595419847328245,0.0
12.100000858306885,-9.030928662109375,0.9959878906249999,0.6536170532226562,8.977099236641221,-11.282442748091603,-2.9618320610687023,-10.568006127929687,-2.549824768066406,3.366247534179687,5.526717557251908,28.549618320610687,-6.0458015267175576,0.0
12.110000848770142,-9.907206469726562,1.2832920898437499,0.6871358764648438,11.221374045801527,-11.358778625954198,-4.6106870229007635,-11.001356628417968,-2.0973206542968748,3.6750995483398436,28.580152671755727,20.198473282442748,-7.114503816793893,0.0
12.120000839233398,-8.525752111816406,0.36631285400390623,1.0534487304687499,22.763358778625953,-8.305343511450381,-5.1603053435114505,-9.83777462158203,-1.6831237670898436,3.7517140014648436,26.198473282442748,14.702290076335878,-8.366412213740459,0.0
12.130000352859497,-9.291896643066405,1.1037269653320312,0.8954314208984374,26.65648854961832,-8.290076335877863,-7.557251908396947,-9.672574707031249,-1.0031704956054688,2.9568390502929685,34.717557251908396,5.923664122137405,-9.618320610687023,0.0
12.140000581741333,-9.176974963378905,1.4508862060546874,1.2593500732421874,31.83206106870229,-8.702290076335878,-8.16793893129771,-9.988609326171874,-1.3335703247070312,3.2225954345703123,29.068702290076335,6.305343511450381,-11.083969465648854,0.0
12.150000810623169,-9.658209497070311,1.8339584716796873,1.2138602416992186,36.2442748091603,-9.526717557251908,-7.877862595419847,-9.4618849609375,-2.0925322509765625,2.446874096679687,27.587786259541986,6.213740458015267,-12.82442748091603,0.0
12.160000562667847,-9.64623848876953,2.1308394775390624,1.5562310791015623,37.770992366412216,-11.099236641221374,-7.206106870229007,-8.949525805664061,-2.01112939453125,2.442085693359375,28.213740458015266,5.557251908396947,-14.259541984732824,0.0
12.170000791549683,-10.060435375976562,2.118868469238281,1.6615759521484375,36.68702290076336,-13.908396946564885,-7.038167938931298,-8.540117321777343,-1.9632453613281249,1.8171990600585937,32.83969465648855,5.221374045801527,-14.961832061068701,0.0
12.180000305175781,-9.85692823486328,1.8100164550781248,1.9393033447265624,35.603053435114504,-16.35114503816794,-7.32824427480916,-8.63109698486328,-1.4963760375976562,2.176329309082031,37.19083969465649,3.66412213740458,-14.458015267175572,0.0
12.190000534057617,-9.509768994140625,1.3168109130859373,2.195482922363281,37.404580152671755,-19.282442748091604,-7.450381679389313,-8.238447912597655,-1.3742717529296875,1.675941162109375,40.82442748091603,3.618320610687023,-13.740458015267176,0.0
12.200000524520874,-9.911994873046874,2.3247698120117186,2.868253588867187,38.06106870229008,-20.549618320610687,-9.206106870229007,-8.157045056152343,-0.6847416748046875,2.0374656127929685,41.847328244274806,5.251908396946565,-13.694656488549619,0.0
12.21000075340271,-8.779537487792968,0.7781155395507812,2.269703173828125,38.44274809160305,-24.702290076335878,-8.030534351145038,-7.793126403808594,-0.32561142578124996,1.6400281372070311,39.083969465648856,6.0458015267175576,-14.580152671755725,0.0
12.220000505447388,-8.453926062011718,-0.49799394531249996,2.4899697265625,37.55725190839695,-31.51145038167939,-8.641221374045802,-7.551312036132812,-0.43574470214843747,1.455674609375,34.99236641221374,8.931297709923664,-15.267175572519085,0.0
12.230000495910645,-7.692569934082031,-0.9217676391601562,1.5059528442382812,41.51145038167939,-30.33587786259542,-8.83969465648855,-7.362170104980469,-0.105344873046875,1.426944189453125,32.61068702290076,11.816793893129772,-15.725190839694656,0.0
12.24000072479248,-9.964667309570311,1.0366893188476562,1.6065093139648436,43.43511450381679,-25.46564885496183,-13.48091603053435,-7.101202124023437,-0.05746083984375,0.6584054565429687,29.435114503816795,14.687022900763358,-15.954198473282442,0.0
12.250000715255737,-9.102754711914063,1.0821791503906248,2.152387292480469,45.282442748091604,-25.435114503816795,-15.038167938931299,-5.5090580200195305,1.9919757812499999,-1.139639990234375,15.068702290076336,19.84732824427481,-18.916030534351144,0.0
12.260000944137573,-8.75320126953125,1.180341418457031,1.9129671264648436,42.50381679389313,-26.198473282442748,-14.854961832061068,-7.323862878417969,1.4796166259765624,-0.8475473876953125,-4.656488549618321,38.274809160305345,-18.442748091603054,0.0
12.270000457763672,-8.844180932617187,0.9720458740234375,1.9823989746093749,45.87786259541985,-21.740458015267176,-15.297709923664122,-6.514622717285156,1.905784521484375,-0.6009446166992187,-23.633587786259543,49.83206106870229,-19.404580152671755,0.0
12.280001163482666,-10.448296044921875,3.201047619628906,2.6910826660156246,31.31297709923664,-20.83969465648855,-18.03053435114504,-9.196128576660156,-1.6136919189453125,0.02154781494140625,-27.83206106870229,62.30534351145038,-15.786259541984732,0.0
12.290000677108765,-10.43153663330078,2.281674182128906,2.722207287597656,23.954198473282442,-25.52671755725191,-16.610687022900763,-9.564835632324218,-0.6631938598632812,0.8738836059570312,-18.396946564885496,59.267175572519086,-17.87786259541985,0.0
12.3000009059906,-10.524910498046875,2.4109610717773435,4.197035510253906,22.65648854961832,-29.81679389312977,-17.893129770992367,-11.920730065917969,-2.099714855957031,2.767697119140625,-22.045801526717558,64.76335877862596,-19.786259541984734,0.0
12.310000896453857,-10.27830772705078,1.0342951171875,4.163516687011718,23.0381679389313,-37.55725190839695,-16.366412213740457,-13.318943835449218,-2.1068974609374997,4.587290380859375,-7.770992366412214,54.99236641221374,-23.96946564885496,0.0
12.320000648498535,-11.652579479980469,1.944091748046875,5.1690813842773435,30.82442748091603,-41.41984732824427,-20.27480916030534,-14.604630126953124,-0.6296750366210937,6.947973217773437,-3.2213740458015265,43.64885496183206,-26.778625954198475,0.0
12.330000877380371,-11.750741748046874,3.3327287109375,6.586448767089843,32.58015267175573,-49.86259541984733,-21.64885496183206,-16.61815372314453,-2.5953145996093747,7.747636572265624,8.244274809160306,17.282442748091604,-23.52671755725191,0.0
12.340000867843628,-11.587936035156249,3.5529952636718747,7.297526660156249,27.419847328244273,-66.53435114503817,-18.717557251908396,-15.059528442382812,-1.4867992309570313,6.490680700683593,38.19847328244275,3.236641221374046,-18.427480916030536,0.0
12.350000619888306,-10.639832177734375,2.8658593872070313,7.790732202148437,36.091603053435115,-82.04580152671755,-16.137404580152673,-13.919888452148436,0.41898529052734373,3.057395520019531,40.16793893129771,0.9007633587786259,-14.335877862595419,0.0
12.360000848770142,-9.414000927734374,-0.3327940307617187,8.046911779785155,60.274809160305345,-90.97709923664122,-11.816793893129772,-12.471396447753905,0.8954314208984374,0.9409212524414062,28.03053435114504,-16.106870229007633,-12.213740458015268,0.0
12.37000036239624,-11.133037719726563,3.9408559326171875,7.876923461914062,50.900763358778626,-108.76335877862596,-12.396946564885496,-10.709264025878905,-1.0797849487304687,-0.16998831787109375,38.274809160305345,-16.106870229007633,-5.648854961832061,0.0
12.380000591278076,-12.907141149902342,5.123591552734375,8.508992700195313,19.908396946564885,-134.10687022900763,-13.374045801526718,-8.719682446289061,-0.5482721801757812,-0.3112462158203125,45.02290076335878,-17.480916030534353,-2.015267175572519,0.0
12.390000820159912,-12.801796276855468,2.8323405639648436,7.089231115722656,4.366412213740458,-156.77862595419847,-3.3740458015267176,-7.187393383789062,-1.0845733520507812,-1.1085153686523437,44.67175572519084,-14.473282442748092,-0.6717557251908397,0.0
12.40000033378601,-12.995726611328124,0.7948749511718749,4.211400720214844,6.778625954198473,-173.00763358778627,3.3893129770992365,-6.658274816894531,-1.6472107421875,-1.235408056640625,43.55725190839695,-9.770992366412214,-1.4809160305343512,0.0
12.410001039505005,-12.406753002929687,-0.6392518432617187,2.104503259277344,6.595419847328245,-182.38167938931298,3.4198473282442747,-7.0102224609374995,-2.133233679199219,-0.181959326171875,42.0763358778626,-5.770992366412214,-2.9160305343511452,0.0
12.420000553131104,-12.624625354003905,-1.5945383056640625,-0.1292868896484375,8.870229007633588,-186.6412213740458,2.687022900763359,-7.3932947265625,-2.4061726684570313,-0.13168109130859373,40.29007633587786,-1.3893129770992367,-8.13740458015267,0.0
12.43000078201294,-12.437877624511717,-2.4133552734375,-1.7956512451171873,16.015267175572518,-181.14503816793894,2.045801526717557,-9.220070593261719,-3.526659045410156,0.15562310791015624,38.10687022900763,5.267175572519084,-11.435114503816793,0.0
12.440000534057617,-11.6837041015625,-3.327940307617187,-3.1866824096679687,26.03053435114504,-168.59541984732823,1.4351145038167938,-11.133037719726563,-3.9647979492187497,1.8267758666992187,36.33587786259542,8.045801526717558,-13.801526717557252,0.0
12.450000524520874,-12.605471740722656,-2.592920397949219,-2.4349030883789062,43.587786259541986,-141.78625954198472,-2.763358778625954,-12.04044014892578,-3.5601778686523438,1.47482822265625,21.34351145038168,3.648854961832061,-10.427480916030534,0.0
12.46000051498413,-10.335768566894531,0.0430956298828125,-3.246537451171875,45.38931297709924,-126.16793893129771,-4.5038167938931295,-11.358092675781249,-2.152387292480469,1.5322890624999999,18.68702290076336,-1.2213740458015268,-11.755725190839694,0.0
12.470000267028809,-10.436325036621094,0.02154781494140625,-2.5354595581054684,61.25190839694657,-100.33587786259542,-0.015267175572519083,-11.348515869140625,-2.9376854370117185,1.7693150268554687,19.84732824427481,-5.847328244274809,-6.122137404580153,0.0
12.480000734329224,-9.088389501953124,0.7517793212890624,-2.5761609863281247,72.29007633587786,-74.04580152671755,2.4427480916030535,-10.17056865234375,-1.0271125122070313,1.6735469604492186,8.870229007633588,-9.221374045801527,-5.251908396946565,0.0
12.49000072479248,-7.503428002929687,2.1715409057617188,-1.697488977050781,62.48854961832061,-48.18320610687023,1.6488549618320612,-9.157821350097656,-0.833182177734375,1.3718775512695311,-0.5954198473282443,-10.51908396946565,-4.106870229007634,0.0
12.500000476837158,-7.8529814453124995,2.7629087158203123,0.12210428466796874,40.83969465648855,-28.778625954198475,-1.9236641221374047,-8.06367119140625,-1.2904746948242187,1.4006079711914061,-11.114503816793894,-12.259541984732824,-4.778625954198473,0.0
12.510000705718994,-7.108384729003906,2.389413256835937,0.18435352783203124,18.671755725190838,-16.763358778625953,-5.145038167938932,-7.685387329101562,-1.637633935546875,0.8475473876953125,-18.229007633587788,-12.961832061068701,-6.9465648854961835,0.0
12.52000117301941,-6.368576416015625,2.272097375488281,-0.3495534423828125,-6.6106870229007635,-9.038167938931299,-7.083969465648855,-7.812280017089844,-1.656787548828125,-0.25139117431640623,-19.893129770992367,-11.068702290076336,-8.274809160305344,0.0
12.530000448226929,-6.442796667480469,1.3335703247070312,0.34715924072265625,-24.061068702290076,-3.0839694656488548,-8.778625954198473,-8.078036401367187,-1.8195932617187498,-0.8667010009765624,-20.076335877862597,-8.702290076335878,-8.381679389312977,0.0
12.540001153945923,-6.45476767578125,1.4006079711914061,0.201112939453125,-35.541984732824424,2.0916030534351147,-9.633587786259541,-8.262389929199218,-1.1635820068359375,-1.6017209106445311,-20.045801526717558,-5.343511450381679,-8.396946564885496,0.0
12.550000667572021,-5.705382556152343,0.5123591552734374,-0.143652099609375,-40.50381679389313,8.763358778625955,-9.664122137404581,-8.942343200683593,-1.5610194824218748,-1.5634136840820312,-19.450381679389313,0.4122137404580153,-6.8396946564885495,0.0
12.560000896453857,-4.1946413085937495,-1.5011644409179687,-1.2880804931640624,-34.48854961832061,15.374045801526718,-8.595419847328245,-10.20887587890625,-3.0214824951171875,-0.6512228515624999,-11.267175572519085,5.236641221374046,-3.9236641221374047,0.0
12.570000886917114,-4.493916516113281,-1.8698714965820311,-1.2713210815429687,-23.404580152671755,31.068702290076335,-12.442748091603054,-11.757924353027343,-3.0980969482421874,-0.22026655273437498,4.076335877862595,7.206106870229007,-2.0916030534351147,0.0
12.580000638961792,-4.534617944335937,-1.3287819213867187,-1.6065093139648436,-12.900763358778626,44.656488549618324,-18.015267175572518,-10.828974108886719,-2.530671154785156,-0.24899697265624998,16.625954198473284,2.7480916030534353,-3.4198473282442747,0.0
12.590000629425049,-5.085284326171875,0.033518823242187495,-1.4891934326171874,-10.473282442748092,56.19847328244275,-22.396946564885496,-10.733206042480468,-2.023100402832031,0.373495458984375,21.114503816793892,3.3893129770992365,-2.183206106870229,0.0
12.600000619888306,-4.879382983398437,0.21068974609375,-1.668758557128906,-14.702290076335878,66.0,-23.358778625954198,-10.498574279785156,-0.603338818359375,0.24899697265624998,18.885496183206108,2.6259541984732824,-0.6106870229007634,0.0
12.610000848770142,-3.708618371582031,-0.4908113403320312,-2.1787235107421874,-14.50381679389313,77.16030534351145,-21.267175572519083,-10.414777221679687,0.8858546142578124,0.8643067993164062,12.274809160305344,7.083969465648855,0.6412213740458015,0.0
12.620000839233398,-5.315127685546875,1.2641384765625,-3.7421371948242186,-28.53435114503817,90.18320610687023,-22.80916030534351,-9.861716638183593,-1.0438719238281249,1.956062756347656,0.9770992366412213,13.435114503816793,5.709923664122138,0.0
12.630000591278076,-5.200206005859375,-0.7398083129882812,-1.8914193115234375,-27.099236641221374,103.26717557251908,-22.412213740458014,-9.892841259765625,-2.7964275390625,2.327164013671875,4.8396946564885495,9.633587786259541,8.564885496183207,0.0
12.640000581741333,-5.530605834960937,-1.0773907470703123,-1.5849614990234373,-20.53435114503817,117.78625954198473,-22.061068702290076,-9.698910925292969,-2.882618798828125,2.5641899780273434,8.900763358778626,5.7251908396946565,6.122137404580153,0.0
12.650000810623169,-6.452373474121093,-0.3711012573242187,-1.3072341064453123,-13.633587786259541,129.2824427480916,-21.251908396946565,-9.394847314453125,-2.942473840332031,2.118868469238281,13.022900763358779,3.5114503816793894,3.3435114503816794,0.0
12.660000562667847,-8.279149340820313,0.1197100830078125,0.4955997436523437,-11.129770992366412,138.21374045801528,-20.65648854961832,-9.18655177001953,-3.248931652832031,1.695094775390625,13.267175572519085,1.0381679389312977,0.8244274809160306,0.0
12.670001029968262,-9.200916979980468,-0.14604630126953125,1.7980454467773437,-6.412213740458015,142.13740458015266,-18.519083969465647,-9.87608184814453,-3.9719805541992184,1.9728221679687499,17.19083969465649,-0.015267175572519083,-1.083969465648855,0.0
12.68000054359436,-8.932766394042968,-1.446097802734375,4.3239281982421875,7.4961832061068705,145.74045801526717,-15.954198473282442,-9.698910925292969,-3.421314172363281,1.350329736328125,21.984732824427482,-2.9770992366412212,-4.8396946564885495,0.0
12.690000534057617,-11.257536206054686,-0.9935936889648437,5.633556506347656,24.16793893129771,143.23664122137404,-15.282442748091603,-9.943119494628906,-3.5218706420898434,1.4508862060546874,28.82442748091603,-4.076335877862595,-6.8396946564885495,0.0
12.700000524520874,-12.421118212890624,0.258573779296875,7.587225061035156,44.99236641221374,136.19847328244273,-12.595419847328245,-10.369287390136718,-3.9336733276367184,1.6256629272460936,40.70229007633588,-5.0534351145038165,-7.923664122137405,0.0
12.71000075340271,-12.761094848632812,0.9433154541015625,9.050082275390624,67.2824427480916,123.55725190839695,-8.122137404580153,-10.781090075683593,-2.6575638427734374,2.3391350219726563,47.74045801526717,-13.526717557251908,-6.961832061068702,0.0
12.720000505447388,-13.350068457031249,2.9376854370117185,10.536881506347656,83.45038167938931,109.37404580152672,-3.053435114503817,-9.495403784179686,-0.7589619262695312,1.5586252807617187,58.396946564885496,-14.198473282442748,-8.82442748091603,0.0
12.730000495910645,-14.317325927734375,4.759672900390624,10.893617553710937,84.3206106870229,86.03053435114504,2.687022900763359,-9.967061511230469,0.38786066894531246,0.948103857421875,52.74809160305343,-15.32824427480916,-4.748091603053435,0.0
12.740000486373901,-14.899116931152342,6.174646081542968,11.461043347167967,72.3969465648855,62.87022900763359,6.076335877862595,-8.750807067871094,2.2649147705078123,0.6081272216796875,42.83969465648855,-13.16030534351145,-2.9770992366412212,0.0
12.750000476837158,-15.155296508789062,8.44674345703125,10.544064111328124,37.770992366412216,29.419847328244273,8.13740458015267,-8.882488159179687,2.6408044311523438,0.3112462158203125,25.61832061068702,-9.129770992366412,1.6793893129770991,0.0
12.760000944137573,-14.523227270507812,5.815515832519531,8.94473740234375,0.4732824427480916,0.8396946564885496,14.778625954198473,-8.47786807861328,2.1499930908203124,0.05027823486328125,-3.8931297709923665,-4.8396946564885495,7.358778625954199,0.0
12.770000696182251,-13.199233752441405,2.0781670410156248,6.591237170410156,3.1908396946564888,-8.717557251908397,20.213740458015266,-9.873687646484374,-1.4700398193359374,0.8906430175781249,-16.48854961832061,4.290076335877862,15.694656488549619,0.0
12.780000925064087,-12.27028350830078,1.0438719238281249,4.309562988281249,8.687022900763358,-16.580152671755727,25.34351145038168,-9.200916979980468,-1.6735469604492186,0.6177040283203125,-15.86259541984733,3.572519083969466,18.35114503816794,0.0
12.790000915527344,-11.152191333007812,1.3766659545898436,3.229778039550781,17.251908396946565,-21.83206106870229,30.33587786259542,-10.587159741210938,-2.1715409057617188,1.1851298217773436,1.5419847328244274,7.7251908396946565,21.61832061068702,0.0
12.800001382827759,-10.47702646484375,0.296881005859375,1.8267758666992187,26.35114503816794,-12.183206106870228,35.282442748091604,-9.725247143554688,-2.0063409912109376,0.622492431640625,-3.2519083969465647,1.0229007633587786,20.732824427480917,0.0
12.810000896453857,-11.212046374511718,1.9967641845703124,2.4947581298828125,19.328244274809162,-4.854961832061068,31.801526717557252,-9.662997900390625,-1.3311761230468748,0.8212111694335937,-8.885496183206106,2.366412213740458,18.641221374045802,0.0
12.820000648498535,-10.965443603515624,0.5506663818359374,4.932055419921875,-0.15267175572519084,-6.732824427480916,26.85496183206107,-8.458714465332031,-0.3184288208007812,0.01915361328125,-23.81679389312977,4.534351145038168,16.290076335877863,0.0
12.830000400543213,-10.273519323730468,-0.17238251953125,4.8123453369140625,-12.946564885496183,-9.526717557251908,21.72519083969466,-10.89122335205078,-2.3726538452148436,0.32082302246093747,-28.83969465648855,12.076335877862595,19.19083969465649,0.0
12.840000629425049,-9.964667309570311,0.29927520751953124,2.5378537597656248,-22.229007633587788,-11.053435114503817,16.549618320610687,-10.134655627441406,-3.0214824951171875,0.3711012573242187,-30.99236641221374,6.732824427480916,19.251908396946565,0.0
12.850000619888306,-9.56962403564453,0.7948749511718749,0.5626373901367188,-29.34351145038168,-6.290076335877862,12.900763358778626,-10.8409451171875,-3.265691064453125,0.6536170532226562,-25.236641221374047,8.748091603053435,18.83969465648855,0.0
12.860000848770142,-9.521740002441407,2.7246014892578123,-1.1109095703125,-38.62595419847328,-1.633587786259542,7.862595419847328,-11.037269653320312,-3.0166940917968748,1.8435352783203125,-26.68702290076336,4.625954198473282,18.519083969465647,0.0
12.87000060081482,-9.53131680908203,3.3494881225585935,-2.051830822753906,-55.61832061068702,3.816793893129771,5.297709923664122,-10.723629235839843,-2.729389892578125,2.0350714111328125,-29.114503816793892,1.8931297709923665,16.9618320610687,0.0
12.880000591278076,-9.406818322753905,2.7365724975585937,-2.5474305664062498,-69.64885496183206,10.01526717557252,4.778625954198473,-9.586383447265625,-2.243366955566406,1.8315642700195311,-24.213740458015266,-2.3053435114503817,14.931297709923664,0.0
12.890001058578491,-9.126696728515624,0.6560112548828124,-2.8754361938476563,-78.85496183206106,17.404580152671755,6.824427480916031,-11.243170996093749,-3.9695863525390624,3.418919970703125,-24.30534351145038,-8.0,15.786259541984732,0.0
12.90000057220459,-8.386888415527343,-2.50912333984375,-2.9759926635742184,-66.9618320610687,30.15267175572519,9.297709923664122,-9.974244116210937,-1.1156979736328125,1.1252747802734375,-15.404580152671755,-20.412213740458014,14.992366412213741,0.0
12.910000801086426,-7.915230688476562,-1.388636962890625,-1.8818425048828125,-53.57251908396947,43.16030534351145,6.687022900763359,-10.16338604736328,-1.5251064575195312,2.6503812377929687,-27.633587786259543,-22.748091603053435,11.068702290076336,0.0
12.920000553131104,-8.547299926757812,-1.1707646118164061,-1.2018892333984375,-50.76335877862596,49.603053435114504,5.847328244274809,-10.812214697265624,-1.936909143066406,2.863465185546875,-17.099236641221374,-25.52671755725191,11.908396946564885,0.0
12.93000078201294,-8.444349255371094,-1.254561669921875,-0.4740519287109375,-39.52671755725191,56.19847328244275,4.763358778625954,-10.160991845703125,-1.6065093139648436,3.210624426269531,-25.022900763358777,-32.50381679389313,10.335877862595419,0.0
12.940000534057617,-9.011775048828124,-0.469263525390625,0.13646949462890623,-36.213740458015266,58.900763358778626,2.6412213740458017,-10.369287390136718,-1.5442600708007812,2.43250888671875,-13.725190839694656,-36.0763358778626,8.442748091603054,0.0
12.950000524520874,-9.4618849609375,0.009576806640625,0.16759411621093748,-39.282442748091604,57.61832061068702,0.061068702290076333,-10.168174450683592,-0.34715924072265625,1.139639990234375,-15.98473282442748,-40.213740458015266,5.8320610687022905,0.0
12.96000051498413,-9.533711010742186,-0.062249243164062495,0.11013327636718749,-40.58015267175573,54.51908396946565,-1.816793893129771,-9.26316622314453,1.429338391113281,0.42377369384765623,-32.38167938931298,-41.099236641221374,4.732824427480916,0.0
12.970000505447388,-9.70369932861328,0.1580173095703125,0.6081272216796875,-41.587786259541986,52.732824427480914,-2.351145038167939,-9.753977563476562,0.32561142578124996,1.1037269653320312,-43.541984732824424,-36.10687022900763,11.954198473282442,0.0
12.980000495910645,-9.746794958496093,0.9313444458007812,0.35673604736328124,-44.12213740458015,47.14503816793893,-0.8091603053435115,-10.292672937011718,-1.5322890624999999,0.8690952026367187,-29.633587786259543,-35.16030534351145,16.580152671755727,0.0
12.990000486373901,-10.108319409179687,1.407790576171875,0.3902548706054687,-40.29007633587786,44.62595419847328,0.21374045801526717,-10.544064111328124,-1.3144167114257812,1.1851298217773436,-26.03053435114504,-38.25954198473283,18.732824427480917,0.0
13.000000953674316,-10.62307276611328,1.4963760375976562,0.258573779296875,-43.465648854961835,38.12213740458015,3.2977099236641223,-9.765948571777344,0.4955997436523437,1.5921441040039062,-29.221374045801525,-38.76335877862596,19.022900763358777,0.0
13.010000705718994,-11.037269653320312,1.678335363769531,0.40940848388671874,-45.6793893129771,35.81679389312977,5.679389312977099,-10.615890161132812,-1.0749965454101562,1.936909143066406,-30.48854961832061,-36.3206106870229,25.52671755725191,0.0
13.02000093460083,-11.793837377929687,1.838746875,1.35990654296875,-57.38931297709924,29.19083969465649,5.847328244274809,-10.733206042480468,-2.1068974609374997,1.5131354492187499,-17.923664122137403,-38.16793893129771,29.236641221374047,0.0
13.030000686645508,-11.123460913085937,0.30406361083984373,1.1755530151367186,-53.11450381679389,25.66412213740458,6.366412213740458,-10.24718310546875,-1.1156979736328125,2.094926452636719,-11.389312977099237,-43.267175572519086,28.259541984732824,0.0
13.040001153945923,-10.479420666503906,0.16519991455078123,0.8595183959960937,-43.17557251908397,23.633587786259543,5.541984732824427,-10.287884533691406,-0.3806780639648437,2.2864625854492187,-20.30534351145038,-45.20610687022901,25.66412213740458,0.0
13.050000667572021,-10.237606298828124,0.9720458740234375,0.70868369140625,-38.62595419847328,21.801526717557252,3.816793893129771,-9.64623848876953,-0.23223756103515625,1.7908628417968748,-23.31297709923664,-39.29770992366412,23.786259541984734,0.0
13.060000658035278,-9.739612353515625,0.6177040283203125,0.1388636962890625,-34.717557251908396,19.908396946564885,4.717557251908397,-12.131419812011718,-1.8171990600585937,2.971204260253906,-21.862595419847327,-39.74045801526717,27.389312977099237,0.0
13.070000648498535,-9.586383447265625,0.4333505004882812,0.181959326171875,-19.022900763358777,25.84732824427481,5.374045801526718,-11.774683764648437,-2.4205378784179685,2.8562825805664063,-19.69465648854962,-45.55725190839695,24.900763358778626,0.0
13.080000638961792,-8.66940421142578,1.0295067138671874,-0.47644613037109373,-12.732824427480915,24.27480916030534,5.679389312977099,-11.693280908203125,-1.407790576171875,3.1220389648437497,-9.969465648854962,-49.969465648854964,18.977099236641223,0.0
13.090000867843628,-9.811438403320311,2.39420166015625,-0.0430956298828125,-14.13740458015267,24.27480916030534,4.442748091603053,-10.230423693847655,0.181959326171875,1.9632453613281249,-4.67175572519084,-49.465648854961835,11.526717557251908,0.0
13.100000858306885,-9.557653027343749,3.921702319335937,0.39743747558593745,-19.572519083969464,24.213740458015266,3.2977099236641223,-10.067617980957031,0.4165910888671875,0.7278373046875,-25.17557251908397,-46.94656488549618,9.969465648854962,0.0
13.110000610351562,-10.405200415039062,5.070919116210937,0.8954314208984374,-29.282442748091604,22.16793893129771,3.786259541984733,-9.423577734375,0.5602431884765625,-0.296881005859375,-25.16030534351145,-39.02290076335878,9.84732824427481,0.0
13.12000060081482,-10.149020837402343,3.5697546752929687,0.17956512451171874,-44.44274809160305,11.312977099236642,6.9465648854961835,-10.151415039062499,0.062249243164062495,0.0143652099609375,-16.870229007633586,-34.54961832061068,11.419847328244275,0.0
13.130229473114014,-10.319009155273436,2.96881005859375,0.02633621826171875,-43.38931297709924,9.419847328244275,8.320610687022901,-9.639055883789062,0.24899697265624998,0.9097966308593749,-17.267175572519083,-32.12213740458015,10.183206106870228,0.0
13.140000581741333,-9.686939916992188,1.68551796875,-0.16998831787109375,-34.458015267175576,8.83969465648855,9.114503816793894,-9.878476049804688,0.9050082275390624,0.316034619140625,-13.419847328244275,-31.0381679389313,10.076335877862595,0.0
13.150001049041748,-9.60793126220703,1.8435352783203125,-0.086191259765625,-28.38167938931298,8.076335877862595,8.610687022900763,-9.421183532714844,0.27293898925781246,0.1292868896484375,-15.526717557251908,-27.541984732824428,7.770992366412214,0.0
13.160000562667847,-9.579200842285156,1.8004396484374998,-0.009576806640625,-22.793893129770993,8.396946564885496,8.030534351145038,-10.105925207519531,0.4525041137695312,1.1348515869140625,-15.923664122137405,-22.48854961832061,8.030534351145038,0.0
13.170001029968262,-9.830592016601562,2.157175695800781,0.22505495605468748,-21.64885496183206,7.557251908396947,7.282442748091603,-9.018957653808593,1.4867992309570313,-0.4836287353515625,-19.770992366412212,-17.00763358778626,6.0,0.0
13.18000078201294,-9.399635717773437,1.637633935546875,0.016759411621093748,-17.740458015267176,7.6183206106870225,8.01526717557252,-9.452308154296874,-0.086191259765625,0.7302315063476562,-29.541984732824428,-9.007633587786259,8.290076335877863,0.0
13.190000534057617,-9.935936889648437,1.9416975463867185,0.0047884033203125,-18.763358778625953,6.885496183206107,7.099236641221374,-9.143456140136719,-0.17238251953125,0.13646949462890623,-24.47328244274809,-2.595419847328244,6.076335877862595,0.0
13.200000524520874,-9.490615380859374,1.6232687255859375,-0.29927520751953124,-16.061068702290076,7.908396946564886,7.267175572519084,-9.516951599121093,-0.27293898925781246,0.47884033203125,-19.64885496183206,-1.0381679389312977,5.6183206106870225,0.0
13.21000051498413,-9.473855969238281,1.649604943847656,-0.45968671875,-15.801526717557252,7.587786259541985,6.0,-9.102754711914063,0.0430956298828125,0.8044517578125,-20.80916030534351,-0.4122137404580153,3.5877862595419847,0.0
13.220000505447388,-9.181763366699219,1.2617442749023438,-0.6919242797851562,-14.274809160305344,8.335877862595419,5.3893129770992365,-9.188945971679686,-0.16041151123046873,1.254561669921875,-19.480916030534353,1.099236641221374,3.0839694656488548,0.0
13.230000495910645,-9.176974963378905,1.4987702392578124,-0.8403647827148437,-13.86259541984733,9.404580152671755,3.9236641221374047,-8.827421520996094,0.24181436767578124,1.5610194824218748,-18.65648854961832,2.5343511450381677,2.2748091603053435,0.0
13.24000072479248,-9.217676391601563,1.7118541870117185,-0.9959878906249999,-13.633587786259541,10.396946564885496,3.236641221374046,-8.91840118408203,0.258573779296875,1.8746598999023436,-20.946564885496183,3.267175572519084,2.7938931297709924,0.0
13.250000476837158,-9.275137231445312,2.023100402832031,-1.0103531005859374,-16.03053435114504,11.664122137404581,2.6412213740458017,-8.17859287109375,0.8068459594726562,1.8698714965820311,-24.366412213740457,5.587786259541985,2.1068702290076335,0.0
13.260000944137573,-9.354145886230468,1.8435352783203125,-1.1348515869140625,-17.419847328244273,12.320610687022901,2.16793893129771,-9.351751684570312,-1.1156979736328125,2.2457611572265623,-18.198473282442748,7.679389312977099,4.534351145038168,0.0
13.27000093460083,-9.212887988281249,1.5586252807617187,-1.177947216796875,-18.977099236641223,13.099236641221374,2.33587786259542,-8.949525805664061,-0.3806780639648437,2.1643583007812497,-20.610687022900763,1.9083969465648856,3.312977099236641,0.0
13.280000925064087,-9.193734375,1.5753846923828123,-1.3072341064453123,-17.603053435114504,15.068702290076336,1.4351145038167938,-8.437166650390624,0.3280056274414062,1.9416975463867185,-21.61832061068702,4.396946564885496,1.6946564885496183,0.0
13.290000677108765,-9.414000927734374,1.6400281372070311,-1.2880804931640624,-19.236641221374047,16.412213740458014,0.9618320610687023,-9.560047229003906,-1.0031704956054688,2.360682836914062,-33.221374045801525,8.67175572519084,3.1908396946564888,0.0
13.30000114440918,-9.598354455566406,1.5322890624999999,-1.0702081420898437,-21.34351145038168,16.946564885496183,0.7633587786259542,-8.923189587402343,-0.1484405029296875,2.4349030883789062,-29.755725190839694,7.740458015267175,3.1755725190839694,0.0
13.310000658035278,-10.079588989257813,1.438915197753906,-0.8355763793945312,-22.366412213740457,17.14503816793893,0.12213740458015267,-9.442731347656249,-1.0295067138671874,2.0254946044921875,-12.122137404580153,8.778625954198473,3.3893129770992365,0.0
13.320000410079956,-9.832986218261718,1.1228805786132812,-0.6560112548828124,-20.702290076335878,17.0381679389313,-0.22900763358778625,-9.162609753417968,-0.38786066894531246,2.262520568847656,-26.0,5.099236641221374,2.7022900763358777,0.0
13.330000638961792,-10.287884533691406,1.419761584472656,-0.373495458984375,-18.564885496183205,16.85496183206107,-1.282442748091603,-9.057264880371093,0.0718260498046875,2.1452046874999997,-21.84732824427481,8.427480916030534,2.3053435114503817,0.0
13.340000629425049,-10.029310754394531,1.2282254516601563,-0.25139117431640623,-16.259541984732824,16.580152671755727,-0.7786259541984732,-9.191340173339842,-0.19393033447265623,2.1021090576171875,-20.717557251908396,10.488549618320612,2.351145038167939,0.0
13.350000619888306,-9.955090502929687,1.5562310791015623,0.016759411621093748,-15.221374045801527,15.893129770992367,-2.0916030534351147,-9.176974963378905,-0.5434837768554687,1.915361328125,-22.885496183206108,11.206106870229007,2.931297709923664,0.0
13.360000848770142,-9.911994873046874,2.47081611328125,0.3711012573242187,-17.587786259541986,14.213740458015268,-3.053435114503817,-9.361328491210937,-0.5578489868164063,1.7884686401367187,-22.564885496183205,13.221374045801527,3.068702290076336,0.0
13.37000060081482,-10.101136804199218,1.5705962890624998,0.29927520751953124,-18.595419847328245,11.98473282442748,-2.519083969465649,-9.289502441406249,-0.4525041137695312,1.7956512451171873,-19.46564885496183,14.01526717557252,3.2519083969465647,0.0
13.380000591278076,-11.054029064941405,3.845087866210937,0.737414111328125,-28.076335877862597,5.603053435114504,-3.969465648854962,-9.68454571533203,-1.0510545288085937,1.5849614990234373,-18.15267175572519,15.511450381679388,3.3587786259541983,0.0
13.390000820159912,-10.13226142578125,1.9895815795898437,0.3280056274414062,-29.068702290076335,1.1145038167938932,-1.633587786259542,-9.402029919433593,-0.5530605834960938,1.7645266235351562,-14.305343511450381,17.31297709923664,2.687022900763359,0.0
13.40000057220459,-9.313444458007812,0.55545478515625,0.016759411621093748,-18.076335877862597,1.1297709923664123,0.4122137404580153,-9.4618849609375,-1.0965443603515623,1.7357962036132812,-14.854961832061068,18.9618320610687,3.1755725190839694,0.0
13.410000801086426,-10.644620581054687,1.3359645263671873,0.1005564697265625,-11.435114503816793,3.2519083969465647,-1.5877862595419847,-9.481038574218749,-1.2856862915039062,1.7501614135742187,-10.320610687022901,19.557251908396946,2.351145038167939,0.0
13.420000553131104,-10.405200415039062,1.4053963745117186,0.023942016601562498,-11.923664122137405,0.44274809160305345,-1.816793893129771,-9.418789331054686,-1.3934253662109375,1.5921441040039062,-5.572519083969466,19.786259541984734,0.9007633587786259,0.0
13.43000078201294,-10.735600244140624,1.7597382202148437,0.4860229370117187,-10.274809160305344,0.6717557251908397,-2.7022900763358777,-9.112331518554686,-1.6112977172851561,1.5658078857421873,-0.916030534351145,21.557251908396946,-1.618320610687023,0.0
13.440000534057617,-9.868899243164062,1.1156979736328125,0.4285620971679687,-10.16793893129771,-3.49618320610687,-2.427480916030534,-8.930372192382812,-1.177947216796875,1.6041151123046875,1.7099236641221374,21.862595419847327,-3.6793893129770994,0.0
13.450000524520874,-10.520122094726561,2.2673089721679687,0.9888052856445312,-11.114503816793894,-4.091603053435114,-4.656488549618321,-7.960720520019531,-0.3854664672851562,1.4724340209960938,-9.083969465648854,26.82442748091603,-5.8320610687022905,0.0
13.46000051498413,-10.826579907226561,2.3678654418945313,1.2928688964843749,-18.03053435114504,-10.16793893129771,-4.717557251908397,-9.272743029785156,-1.6232687255859375,1.4628572143554686,-9.068702290076336,31.83206106870229,-4.595419847328245,0.0
13.470000505447388,-10.491391674804687,2.085349645996094,1.6519991455078125,-19.358778625954198,-14.65648854961832,-3.5114503816793894,-8.267178332519531,-0.8355763793945312,1.9321207397460936,-4.549618320610687,33.05343511450382,-6.656488549618321,0.0
13.480000734329224,-9.749189160156249,1.189918225097656,1.369483349609375,-15.007633587786259,-18.564885496183205,-2.2290076335877864,-8.813056311035156,-1.2330138549804688,2.2577321655273437,-12.213740458015268,34.6412213740458,-6.778625954198473,0.0
13.490000486373901,-9.938331091308592,0.9002198242187499,1.3144167114257812,-9.007633587786259,-19.267175572519083,-2.7786259541984735,-8.609549169921875,-1.5753846923828123,1.7597382202148437,-3.5267175572519083,33.31297709923664,-6.9465648854961835,0.0
13.500000476837158,-9.437942944335937,0.8283937744140625,1.4221557861328125,-4.198473282442748,-22.763358778625953,-3.8931297709923665,-10.268730920410155,-2.9568390502929685,3.1459809814453124,7.66412213740458,29.908396946564885,-4.198473282442748,0.0
13.510000705718994,-9.366116894531249,0.15562310791015624,1.2713210815429687,2.9770992366412212,-24.16793893129771,-4.732824427480916,-9.414000927734374,-1.1444283935546875,2.8610709838867185,34.50381679389313,19.61832061068702,-6.732824427480916,0.0
13.52000093460083,-9.677363110351562,1.20667763671875,2.2002713256835937,8.961832061068701,-23.49618320610687,-7.755725190839694,-9.425971936035156,-0.7757213378906249,2.710236279296875,29.603053435114504,16.366412213740457,-7.603053435114504,0.0
13.530000925064087,-9.976638317871092,0.9457096557617187,1.8938135131835936,13.282442748091603,-26.137404580152673,-6.99236641221374,-8.556876733398436,0.55545478515625,2.770091320800781,29.374045801526716,17.84732824427481,-8.854961832061068,0.0
13.540000915527344,-8.8872765625,1.0869675537109373,1.7693150268554687,19.51145038167939,-27.72519083969466,-5.282442748091603,-9.179369165039063,-0.40462008056640625,2.9831752685546875,16.564885496183205,16.778625954198475,-6.564885496183206,0.0
13.5500009059906,-9.3852705078125,1.6041151123046875,2.583343591308594,21.908396946564885,-26.519083969465647,-5.801526717557252,-8.820238916015624,0.040701428222656245,2.7174188842773437,21.908396946564885,14.183206106870228,-5.786259541984733,0.0
13.560000896453857,-10.601524951171875,2.7820623291015623,2.961627453613281,22.396946564885496,-26.83969465648855,-6.3816793893129775,-8.590395556640624,0.38786066894531246,2.501940734863281,18.580152671755727,14.488549618320612,-6.412213740458015,0.0
13.570000410079956,-10.146626635742187,2.3295582153320313,2.482787121582031,17.099236641221374,-32.97709923664122,-3.6030534351145036,-8.300697155761718,-0.08379705810546874,2.4205378784179685,6.549618320610687,18.259541984732824,-6.152671755725191,0.0
13.580000877380371,-9.004592443847656,2.070984436035156,2.4756045166015626,15.801526717557252,-37.3587786259542,-1.3282442748091603,-7.996633544921875,-0.3495534423828125,2.8131869506835936,8.198473282442748,18.564885496183205,-5.633587786259542,0.0
13.590000867843628,-9.842563024902343,2.020706201171875,2.932897033691406,13.389312977099237,-38.50381679389313,-1.4961832061068703,-8.003816149902343,-0.46686932373046874,1.7764976318359373,7.358778625954199,18.244274809160306,-6.793893129770993,0.0
13.600000619888306,-8.504204296874999,1.7573440185546874,2.0925322509765625,13.297709923664122,-44.12213740458015,-0.8244274809160306,-7.41244833984375,-0.18914193115234373,2.0063409912109376,-0.5801526717557252,22.38167938931298,-8.625954198473282,0.0
13.610000610351562,-8.796296899414061,0.97683427734375,1.637633935546875,9.206106870229007,-46.87022900763359,-2.16793893129771,-7.4603323730468745,-0.47644613037109373,2.118868469238281,-9.923664122137405,24.977099236641223,-8.229007633587786,0.0
13.62000060081482,-8.825027319335938,-0.028730419921875,1.1156979736328125,13.618320610687023,-45.786259541984734,-4.473282442748092,-8.379705810546875,-2.0278888061523435,2.5809493896484375,-2.8702290076335877,27.267175572519083,-7.236641221374046,0.0
13.630000352859497,-7.4794859863281244,-2.370259643554687,-0.38786066894531246,24.290076335877863,-45.57251908396947,-4.900763358778626,-7.637503295898437,-0.6512228515624999,2.81558115234375,14.580152671755725,22.702290076335878,-11.374045801526718,0.0
13.640000820159912,-8.185775476074218,-0.7110778930664062,-0.02154781494140625,44.61068702290076,-33.61832061068702,-11.404580152671755,-7.754819177246094,-0.4261678955078125,2.2074539306640624,1.9083969465648856,22.610687022900763,-14.045801526717558,0.0
13.650000810623169,-8.59997236328125,1.9776105712890624,0.08379705810546874,44.01526717557252,-30.717557251908396,-13.465648854961833,-7.9104422851562495,-0.9193734375,2.2840683837890623,-9.557251908396946,27.557251908396946,-13.877862595419847,0.0
13.660000562667847,-9.648632690429688,3.380612744140625,-0.13407529296874998,38.56488549618321,-29.00763358778626,-12.82442748091603,-8.67658681640625,-2.365471240234375,2.2385785522460937,-9.770992366412214,30.458015267175572,-13.251908396946565,0.0
13.670000791549683,-9.057264880371093,2.2936451904296873,-0.258573779296875,36.534351145038165,-28.641221374045802,-9.938931297709924,-9.457096557617186,-2.1643583007812497,1.7621324218749999,2.4732824427480917,28.16793893129771,-17.251908396946565,0.0
13.68000054359436,-9.8449572265625,2.6695348510742187,0.21308394775390624,31.31297709923664,-25.893129770992367,-11.893129770992367,-8.67658681640625,-1.5634136840820312,1.4628572143554686,2.732824427480916,26.458015267175572,-21.557251908396946,0.0
13.690000534057617,-9.928754284667969,2.1212626708984375,0.8906430175781249,31.755725190839694,-24.18320610687023,-12.030534351145038,-8.360552197265624,0.2154781494140625,0.7302315063476562,-8.381679389312977,29.87786259541985,-24.30534351145038,0.0
13.700000524520874,-10.819397302246093,2.877830395507812,1.886630908203125,27.587786259541986,-24.610687022900763,-13.068702290076336,-10.850521923828124,-2.0757728393554684,0.488417138671875,-20.015267175572518,39.725190839694655,-23.14503816793893,0.0
13.71000075340271,-11.003750830078124,1.1563994018554686,2.252943762207031,25.786259541984734,-31.14503816793893,-11.786259541984732,-12.746729638671875,-2.6479870361328124,2.013523596191406,-10.290076335877863,36.62595419847328,-26.03053435114504,0.0
13.720000505447388,-11.643002673339844,0.814028564453125,4.11802685546875,42.6412213740458,-30.68702290076336,-14.564885496183207,-13.996502905273436,-2.0302830078125,4.515464331054687,-7.450381679389313,30.763358778625953,-30.82442748091603,0.0
13.730000257492065,-12.006921325683592,2.3032219970703123,5.681440539550781,45.17557251908397,-35.93893129770992,-16.931297709923665,-14.966154577636718,-0.258573779296875,6.064512805175781,-3.786259541984733,20.27480916030534,-32.274809160305345,0.0
13.74002456665039,-12.957419384765624,4.141968872070312,7.115567333984375,33.74045801526717,-51.29770992366412,-16.106870229007633,-16.345214733886717,-0.6392518432617187,7.862558251953125,-1.2366412213740459,-3.5572519083969465,-23.34351145038168,0.0
13.750000715255737,-12.38520518798828,2.0638018310546875,6.983886242675781,19.786259541984734,-75.61832061068702,-11.450381679389313,-13.931859460449218,0.39743747558593745,6.4667386840820305,24.85496183206107,-9.923664122137405,-16.244274809160306,0.0
13.760000944137573,-12.035651745605469,-1.7597382202148437,8.418013037109375,47.45038167938932,-82.38167938931298,-11.526717557251908,-11.724405529785155,2.7341782958984373,2.741360900878906,7.862595419847328,-6.473282442748092,-11.679389312977099,0.0
13.770000457763672,-11.350910070800781,1.5849614990234373,9.028534460449219,36.0763358778626,-99.2824427480916,-17.374045801526716,-11.525686791992188,1.0821791503906248,2.269703173828125,15.32824427480916,-21.49618320610687,-8.50381679389313,0.0
13.780000925064087,-11.85608662109375,3.201047619628906,8.044517578125,11.389312977099237,-128.36641221374046,-22.50381679389313,-9.8449572265625,0.39743747558593745,0.8858546142578124,20.27480916030534,-21.87786259541985,-6.061068702290076,0.0
13.790000677108765,-10.989385620117186,1.8243816650390623,6.244077929687499,-6.015267175572519,-151.78625954198472,-20.259541984732824,-8.269572534179687,-0.36391865234375,-0.11252747802734374,12.549618320610687,-16.85496183206107,-4.549618320610687,0.0
13.800000667572021,-10.156203442382813,-0.7781155395507812,3.5984850952148437,-12.534351145038167,-166.04580152671755,-18.671755725190838,-6.957550024414062,-2.446874096679687,-2.8275521606445313,25.450381679389313,-13.404580152671755,-4.656488549618321,0.0
13.810001134872437,-9.267954626464844,-2.5450363647460934,1.4939818359375,-12.01526717557252,-174.82442748091603,-21.83206106870229,-6.5960255737304685,-3.8666356811523435,-2.4109610717773435,38.01526717557252,-6.732824427480916,-7.022900763358779,0.0
13.820000886917114,-9.593566052246093,-3.909731311035156,-0.9074024291992187,2.5343511450381677,-175.32824427480915,-22.244274809160306,-7.1586629638671875,-5.1690813842773435,-2.50912333984375,50.70229007633588,0.42748091603053434,-15.374045801526718,0.0
13.830000638961792,-10.309432348632813,-3.8690298828125,-2.901772412109375,27.786259541984734,-167.34351145038167,-21.251908396946565,-8.470685473632813,-7.340622290039062,-1.9776105712890624,66.7175572519084,8.15267175572519,-15.725190839694656,0.0
13.840000629425049,-11.02529864501953,-3.5697546752929687,-3.2704794677734372,52.0763358778626,-156.4885496183206,-21.389312977099237,-9.938331091308592,-7.673416320800781,-1.6448165405273436,75.57251908396947,9.221374045801527,-20.091603053435115,0.0
13.850000619888306,-10.663774194335938,-4.00310517578125,-2.6336218261718747,75.6793893129771,-140.59541984732823,-20.35114503816794,-11.235988391113281,-5.633556506347656,-0.7924807495117187,86.3969465648855,10.916030534351146,-21.221374045801525,0.0
13.860000848770142,-12.131419812011718,-1.9632453613281249,-2.499546533203125,90.06106870229007,-125.6030534351145,-24.198473282442748,-11.85608662109375,-3.497928625488281,-0.5027823486328125,90.90076335877863,12.702290076335878,-16.641221374045802,0.0
13.870194435119629,-13.28542501220703,-0.5602431884765625,-1.5777788940429687,100.01526717557252,-107.98473282442748,-25.587786259541986,-12.265495104980468,-2.6719290527343746,0.011971008300781249,87.06870229007633,12.335877862595419,-7.022900763358779,0.0
13.880000591278076,-13.108254089355468,1.714248388671875,-1.3000515014648437,103.83206106870229,-91.54198473282443,-21.66412213740458,-11.748347546386718,-1.47482822265625,-0.7517793212890624,77.45038167938931,12.80916030534351,-6.0458015267175576,0.0
13.890000820159912,-11.640608471679688,2.360682836914062,-1.4173673828125,95.74045801526718,-77.48091603053435,-16.442748091603054,-10.601524951171875,0.086191259765625,0.316034619140625,70.76335877862596,13.801526717557252,-3.3740458015267176,0.0
13.90000057220459,-10.295067138671874,3.1411925781249996,-1.0319009155273438,83.77099236641222,-60.56488549618321,-10.992366412213741,-9.619902270507811,0.6655880615234374,0.4740519287109375,53.17557251908397,15.221374045801527,-1.2671755725190839,0.0
13.910001039505005,-8.147468249511718,1.5466542724609373,-1.0797849487304687,73.23664122137404,-40.12213740458015,-4.748091603053435,-8.705317236328124,-0.2346317626953125,0.05027823486328125,37.31297709923664,15.877862595419847,-0.2595419847328244,0.0
13.920000553131104,-8.010998754882811,1.2856862915039062,-0.814028564453125,58.61068702290076,-24.18320610687023,-4.183206106870229,-8.913612780761719,-1.3239935180664062,-0.4644751220703125,29.328244274809162,18.946564885496183,0.5801526717557252,0.0
13.93000078201294,-7.886500268554687,0.9026140258789062,-0.3950432739257812,46.916030534351144,-9.007633587786259,-6.488549618320611,-8.645462194824217,-1.8698714965820311,-0.8810662109374999,27.786259541984734,20.778625954198475,0.916030534351145,0.0
13.940000772476196,-6.998251452636718,0.6153098266601562,-0.12449848632812499,37.49618320610687,6.931297709923665,-10.15267175572519,-8.834604125976561,-2.099714855957031,-1.3383587280273437,26.748091603053435,21.69465648854962,-0.015267175572519083,0.0
13.950000524520874,-6.902483386230468,1.0821791503906248,-0.19393033447265623,18.48854961832061,12.320610687022901,-15.49618320610687,-9.344569079589844,-2.001552587890625,-1.2904746948242187,27.14503816793893,24.48854961832061,-0.7480916030534351,0.0
13.96000051498413,-6.713341455078124,0.23702596435546874,-0.26336218261718747,6.687022900763359,20.106870229007633,-17.419847328244273,-9.208099584960937,-1.3527239379882812,-1.2593500732421874,22.061068702290076,26.9618320610687,-1.9236641221374047,0.0
13.970000505447388,-6.198588098144531,0.0526724365234375,-0.612915625,6.931297709923665,34.10687022900763,-20.0,-9.753977563476562,-1.189918225097656,-1.199495031738281,20.290076335877863,30.946564885496183,-1.6641221374045803,0.0
13.980000495910645,-6.253654736328125,0.5530605834960938,-0.4525041137695312,-0.07633587786259542,45.61832061068702,-24.671755725190838,-9.828197814941406,-1.0414777221679687,-0.7302315063476562,17.099236641221374,33.00763358778626,-1.3740458015267176,0.0
13.990000486373901,-5.027823486328125,-0.4525041137695312,-1.5586252807617187,-0.5343511450381679,55.00763358778626,-26.244274809160306,-10.228029492187499,-1.2114660400390624,-0.09816226806640624,19.51145038167939,33.80152671755725,0.916030534351145,0.0
14.000000953674316,-4.661510632324219,-0.028730419921875,-2.059013427734375,0.07633587786259542,70.07633587786259,-28.12213740458015,-9.976638317871092,-1.0103531005859374,0.20829554443359374,18.916030534351144,33.31297709923664,2.2595419847328246,0.0
14.010000944137573,-4.192247106933594,-0.1771709228515625,-2.2577321655273437,-1.4045801526717556,82.94656488549619,-29.419847328244273,-9.586383447265625,-0.5099649536132812,0.239420166015625,19.00763358778626,31.480916030534353,3.3587786259541983,0.0
14.02000093460083,-4.4196962646484375,0.6105214233398437,-2.3151930053710936,-2.9770992366412212,97.38931297709924,-29.435114503816795,-10.065223779296874,-1.3168109130859373,0.9888052856445312,13.923664122137405,30.15267175572519,5.969465648854962,0.0
14.030000686645508,-5.310339282226562,1.4149731811523436,-1.9033903198242186,-13.038167938931299,108.56488549618321,-30.03053435114504,-10.060435375976562,-1.85790048828125,1.2282254516601563,21.541984732824428,26.213740458015266,6.320610687022901,0.0
14.040000915527344,-5.798756420898437,1.189918225097656,-2.0566192260742184,-21.633587786259543,120.50381679389314,-27.81679389312977,-10.268730920410155,-2.0183119995117185,1.7429788085937499,21.083969465648856,20.9618320610687,6.717557251908397,0.0
14.050000667572021,-6.564900952148437,2.094926452636719,-1.7717092285156248,-25.358778625954198,132.44274809160305,-24.9618320610687,-9.988609326171874,-1.6543933471679686,2.2098481323242187,14.290076335877863,15.572519083969466,5.435114503816794,0.0
14.060000896453857,-7.8170684204101555,3.3159692993164063,-1.149216796875,-36.58015267175573,141.2824427480916,-20.625954198473284,-10.412383020019531,-1.7262193969726563,2.39420166015625,14.244274809160306,12.82442748091603,4.885496183206107,0.0
14.070000648498535,-7.939172705078125,2.4301146850585935,-0.1867477294921875,-43.81679389312977,147.25190839694656,-11.511450381679388,-10.510545288085936,-1.7693150268554687,2.645592834472656,8.50381679389313,7.190839694656488,5.1603053435114505,0.0
14.080000638961792,-9.433154541015625,1.6424223388671875,1.7118541870117185,-37.969465648854964,152.93129770992365,-2.519083969465649,-10.939107385253905,-2.0254946044921875,2.959233251953125,1.7709923664122138,2.0763358778625953,5.190839694656488,0.0
14.09000039100647,-10.714052429199219,1.3455413330078123,6.229712719726562,-24.076335877862597,152.24427480916032,6.106870229007634,-11.015721838378905,-2.094926452636719,3.0980969482421874,-1.465648854961832,-3.8625954198473282,4.900763358778626,0.0
14.100000858306885,-12.210428466796873,0.23223756103515625,7.560888842773437,6.106870229007634,145.32824427480915,16.16793893129771,-10.900800158691405,-1.7788918334960937,3.284844677734375,-4.977099236641221,-9.572519083969466,3.7709923664122136,0.0
14.110000371932983,-12.71081661376953,-0.3854664672851562,9.497797985839844,36.70229007633588,136.10687022900763,22.03053435114504,-10.275913525390624,-1.0678139404296874,3.1771056030273437,-9.129770992366412,-14.916030534351146,2.4427480916030535,0.0
14.12000036239624,-13.742717529296874,0.8499415893554687,12.083535778808592,52.35114503816794,119.19083969465649,21.862595419847327,-9.811438403320311,-0.9361328491210937,3.0334535034179684,-14.83969465648855,-18.549618320610687,1.2061068702290076,0.0
14.130000591278076,-15.2845833984375,2.1978771240234374,15.16247911376953,56.19847328244275,89.74045801526718,18.244274809160306,-8.801085302734375,-0.5051765502929687,2.437297290039062,-15.84732824427481,-21.541984732824428,-1.9389312977099236,0.0
14.140000581741333,-14.573505505371093,2.6767174560546874,13.939042065429687,49.80152671755725,54.412213740458014,14.793893129770993,-8.389282617187499,-0.047884033203124995,1.5490484741210937,-31.17557251908397,-22.38167938931298,-2.6106870229007635,0.0
14.15000033378601,-13.922282653808592,3.2513258544921873,11.039663854980468,31.801526717557252,23.404580152671755,11.34351145038168,-8.310273962402343,-1.6735469604492186,1.5107412475585937,-36.76335877862596,-21.297709923664122,0.7175572519083969,0.0
14.160000801086426,-11.547234606933593,0.9552864624023437,8.161833459472655,15.679389312977099,-3.3587786259541983,10.442748091603054,-9.6917283203125,-3.7134067749023436,0.8690952026367187,-25.557251908396946,-26.198473282442748,3.1908396946564888,0.0
14.170000791549683,-10.824185705566405,-1.8195932617187498,5.892130285644531,25.099236641221374,-16.717557251908396,10.320610687022901,-7.771578588867187,-2.0159177978515626,0.0430956298828125,-10.748091603053435,-27.267175572519083,0.3816793893129771,0.0
14.18000054359436,-11.382034692382812,-1.7621324218749999,4.352658618164062,48.16793893129771,-19.374045801526716,12.900763358778626,-8.566453540039062,-3.1076737548828124,0.9313444458007812,-9.541984732824428,-26.213740458015266,3.8473282442748094,0.0
14.190000772476196,-11.750741748046874,0.22505495605468748,2.592920397949219,57.282442748091604,-21.083969465648856,16.259541984732824,-10.386046801757812,-4.390965844726562,2.109291662597656,0.0916030534351145,-28.16793893129771,5.32824427480916,0.0
14.200000762939453,-11.501744775390625,2.157175695800781,1.3048399047851562,47.725190839694655,-20.564885496183205,18.076335877862597,-8.441955053710936,-2.896984008789062,2.35589443359375,10.732824427480915,-32.16793893129771,6.763358778625954,0.0
14.21000075340271,-12.67250938720703,3.394977954101562,3.447650390625,17.51145038167939,-25.221374045801525,16.85496183206107,-9.773131176757811,-3.019088293457031,2.231395947265625,29.709923664122137,-37.45038167938932,4.213740458015267,0.0
14.220000743865967,-11.736376538085937,0.4381389038085937,4.900930798339844,4.351145038167939,-29.083969465648856,17.603053435114504,-8.480262280273436,0.02633621826171875,-0.076614453125,30.38167938931298,-40.30534351145038,-0.061068702290076333,0.0
14.230000734329224,-11.863269226074218,1.4604630126953124,5.57370146484375,4.1679389312977095,-28.015267175572518,16.015267175572518,-8.109161022949218,1.8339584716796873,-0.699106884765625,13.84732824427481,-31.923664122137403,0.030534351145038167,0.0
14.240000486373901,-9.823409411621093,1.687912170410156,3.0933085449218747,-6.3816793893129775,-34.88549618320611,16.916030534351144,-7.903259680175781,2.3415292236328122,-0.5746083984375,-5.557251908396947,-27.755725190839694,4.870229007633588,0.0
14.250000476837158,-9.94072529296875,1.2976572998046874,0.5626373901367188,-11.83206106870229,-32.656488549618324,18.9618320610687,-9.176974963378905,0.239420166015625,0.5434837768554687,-16.732824427480917,-20.12213740458015,11.236641221374045,0.0
14.260000944137573,-8.513781103515624,1.3742717529296875,-1.9584569580078124,-11.969465648854962,-28.9618320610687,20.213740458015266,-10.16338604736328,-1.8938135131835936,0.6584054565429687,-19.770992366412212,-18.045801526717558,15.84732824427481,0.0
14.27000093460083,-9.169792358398437,2.3678654418945313,-2.978386865234375,-16.015267175572518,-19.633587786259543,18.595419847328245,-10.141838232421874,-1.7788918334960937,0.8499415893554687,-16.931297709923665,-19.221374045801525,16.85496183206107,0.0
14.280000925064087,-9.490615380859374,3.7900212280273435,-2.748543505859375,-25.083969465648856,-6.122137404580153,16.549618320610687,-10.232817895507813,-2.039859814453125,0.5746083984375,-17.740458015267176,-17.87786259541985,18.0,0.0
14.290000677108765,-9.291896643066405,3.1794998046874996,-2.3127988037109373,-44.0,0.732824427480916,15.17557251908397,-10.63025537109375,-2.8131869506835936,0.3447650390625,-16.38167938931298,-16.061068702290076,19.099236641221374,0.0
14.3000009059906,-9.265560424804686,2.1068974609374997,-1.2808978881835937,-57.64885496183206,5.816793893129771,14.488549618320612,-10.038887561035155,-2.0542250244140625,-0.055066638183593745,-14.183206106870228,-16.53435114503817,17.69465648854962,0.0
14.310000658035278,-9.334992272949219,0.5506663818359374,-0.6775590698242188,-64.65648854961832,10.80916030534351,13.099236641221374,-9.9981861328125,-2.0781670410156248,-0.16998831787109375,-12.961832061068701,-14.595419847328245,16.3206106870229,0.0
14.320000886917114,-7.876923461914062,-2.4349030883789062,-1.1061211669921875,-54.44274809160305,17.358778625954198,13.770992366412214,-9.811438403320311,-1.0989385620117187,0.27293898925781246,-11.572519083969466,-13.770992366412214,15.877862595419847,0.0
14.330000638961792,-7.433996154785156,-2.980781066894531,-0.46208092041015625,-39.19083969465649,25.587786259541986,9.84732824427481,-9.581595043945311,-1.6136919189453125,-0.07422025146484375,-14.412213740458014,-12.534351145038167,15.893129770992367,0.0
14.340000867843628,-7.8721350585937495,-1.7693150268554687,-0.011971008300781249,-26.16793893129771,31.72519083969466,4.198473282442748,-9.97903251953125,-2.4109610717773435,0.9026140258789062,-14.900763358778626,-13.068702290076336,16.16793893129771,0.0
14.350000619888306,-8.552088330078124,-1.0031704956054688,0.4477157104492187,-16.564885496183205,37.19083969465649,-0.5648854961832062,-10.560823522949217,-1.8195932617187498,0.6296750366210937,-0.8549618320610687,-15.557251908396946,13.435114503816793,0.0
14.360000371932983,-9.648632690429688,0.40222587890625,0.565031591796875,-8.458015267175572,40.99236641221374,-3.282442748091603,-10.436325036621094,-1.0414777221679687,1.0414777221679687,2.183206106870229,-17.908396946564885,11.17557251908397,0.0
14.37000060081482,-10.78348427734375,2.061407629394531,1.3215993164062498,-14.061068702290076,39.847328244274806,-4.061068702290076,-10.022128149414062,-0.3064578125,1.0438719238281249,3.9389312977099236,-19.49618320610687,10.274809160305344,0.0
14.380000591278076,-11.382034692382812,1.85790048828125,1.0390835205078124,-22.015267175572518,35.89312977099237,-2.7938931297709924,-9.560047229003906,0.6631938598632812,0.4525041137695312,-6.656488549618321,-22.38167938931298,9.770992366412214,0.0
14.390000820159912,-11.192892761230468,3.028665100097656,1.7573440185546874,-28.717557251908396,35.25190839694657,-2.687022900763359,-10.259154113769531,0.7062894897460937,1.1348515869140625,-20.793893129770993,-19.51145038167939,13.98473282442748,0.0
14.40000057220459,-11.801019982910155,3.612850305175781,1.9680337646484374,-41.74045801526717,32.42748091603053,-2.7786259541984735,-10.378864196777343,0.2609679809570312,1.2952630981445312,-28.519083969465647,-13.98473282442748,16.16793893129771,0.0
14.410000801086426,-11.81777939453125,4.134786267089844,2.0542250244140625,-53.083969465648856,27.34351145038168,-2.0610687022900764,-11.405976708984374,-0.8403647827148437,1.5945383056640625,-21.34351145038168,-12.900763358778626,18.580152671755727,0.0
14.420000553131104,-10.338162768554687,2.3918074584960936,0.6440402465820312,-61.267175572519086,18.977099236641223,1.297709923664122,-10.529698901367187,0.0718260498046875,1.6543933471679686,-27.34351145038168,-13.954198473282442,16.946564885496183,0.0
14.430001020431519,-10.436325036621094,1.6615759521484375,0.469263525390625,-57.63358778625954,17.709923664122137,3.2061068702290076,-10.888829150390624,-0.7350199096679687,1.7022773803710936,-26.33587786259542,-12.412213740458014,18.38167938931298,0.0
14.440000772476196,-9.7683427734375,0.7326257080078125,0.16519991455078123,-51.52671755725191,17.206106870229007,4.290076335877862,-11.123460913085937,-1.7597382202148437,1.5131354492187499,-14.091603053435115,-17.374045801526716,17.96946564885496,0.0
14.450000762939453,-8.300697155761718,-1.4939818359375,-0.7589619262695312,-35.02290076335878,18.549618320610687,6.3816793893129775,-11.389217297363281,-1.8818425048828125,1.9728221679687499,-1.7404580152671756,-23.954198473282442,16.366412213740457,0.0
14.460000276565552,-8.410830432128906,-0.7613561279296874,-0.6440402465820312,-19.984732824427482,22.85496183206107,4.061068702290076,-11.994950317382811,-2.1356278808593747,3.268085266113281,6.885496183206107,-32.29007633587786,14.16793893129771,0.0
14.470000505447388,-8.365340600585936,0.6584054565429687,-0.0143652099609375,-13.755725190839694,25.740458015267176,0.21374045801526717,-13.041216442871093,1.1133037719726562,-1.5538368774414062,11.404580152671755,-130.51908396946564,6.625954198473282,0.0
14.480000734329224,-9.234435803222656,2.1787235107421874,0.23223756103515625,-15.435114503816793,24.793893129770993,-1.4961832061068703,-11.099518896484375,-0.737414111328125,2.9735984619140625,1.282442748091603,-42.595419847328245,8.595419847328245,0.0
14.49000072479248,-10.726023437499999,3.699041564941406,0.9217676391601562,-28.717557251908396,19.46564885496183,-1.4351145038167938,-11.755530151367187,0.21787235107421873,3.27526787109375,-6.0458015267175576,-40.213740458015266,10.702290076335878,0.0
14.500027894973755,-10.160991845703125,2.3487118286132813,0.8403647827148437,-30.229007633587788,16.366412213740457,2.6717557251908395,-12.459425439453124,-0.5913678100585937,3.2441432495117186,-1.3740458015267176,-45.61832061068702,11.969465648854962,0.0
14.510003566741943,-9.665392102050781,1.6903063720703124,0.8188169677734375,-24.50381679389313,15.48091603053435,4.900763358778626,-10.714052429199219,-0.15083470458984374,4.146757275390625,-6.2748091603053435,-55.80152671755725,8.412213740458014,0.0
14.52000117301941,-9.572018237304688,1.35990654296875,0.26815058593749996,-18.015267175572518,14.641221374045802,5.511450381679389,-10.338162768554687,0.7398083129882812,3.4859576171874997,-15.068702290076336,-54.10687022900763,6.442748091603053,0.0
14.530000925064087,-10.35492218017578,2.1811177124023438,0.41898529052734373,-17.96946564885496,13.86259541984733,4.931297709923665,-11.243170996093749,-1.5849614990234373,4.211400720214844,-3.2519083969465647,-49.6793893129771,9.557251908396946,0.0
14.540086030960083,-9.363722692871093,1.37906015625,0.5339069702148437,-17.34351145038168,11.786259541984732,5.9541984732824424,-10.620678564453124,-0.9433154541015625,4.465186096191406,-2.9618320610687023,-61.70992366412214,7.572519083969466,0.0
14.550010681152344,-9.41639512939453,0.842758984375,0.3447650390625,-13.129770992366412,10.916030534351146,5.679389312977099,-9.193734375,1.1875240234375,3.143586779785156,-9.511450381679388,-65.63358778625954,2.763358778625954,0.0
14.560001134872437,-9.603142858886718,1.2713210815429687,0.18435352783203124,-10.488549618320612,11.099236641221374,4.5038167938931295,-9.718064538574218,0.55545478515625,3.418919970703125,-11.267175572519085,-61.541984732824424,4.33587786259542,0.0
14.570000886917114,-9.701305126953125,1.3575123413085937,-0.009576806640625,-11.587786259541986,9.603053435114504,4.732824427480916,-10.220846887207031,0.076614453125,2.770091320800781,-3.114503816793893,-63.64885496183206,3.618320610687023,0.0
14.580000877380371,-9.382876306152344,1.3670891479492187,-0.19632453613281248,-9.648854961832061,9.84732824427481,4.229007633587786,-8.422801440429687,1.22583125,2.1883003173828124,-12.977099236641221,-63.45038167938932,0.4732824427480916,0.0
14.590003967285156,-9.852139831542969,2.346317626953125,0.06943184814453125,-11.83206106870229,9.877862595419847,3.6793893129770994,-9.550470422363281,0.6847416748046875,2.023100402832031,-15.84732824427481,-59.00763358778626,3.648854961832061,0.0
14.600000858306885,-9.548076220703125,2.5378537597656248,0.13407529296874998,-15.618320610687023,9.954198473282442,4.641221374045801,-9.617508068847656,0.622492431640625,1.7357962036132812,-9.893129770992367,-57.23664122137404,6.030534351145038,0.0
14.6100013256073,-9.414000927734374,2.729389892578125,0.2154781494140625,-17.740458015267176,10.106870229007633,5.633587786259542,-8.173804467773436,1.70467158203125,0.5195417602539062,-23.480916030534353,-55.89312977099237,5.175572519083969,0.0
14.620117425918579,-9.210493786621093,2.798821740722656,0.21068974609375,-18.3206106870229,10.80916030534351,6.961832061068702,-7.781155395507812,1.0702081420898437,0.5817910034179687,-31.801526717557252,-43.93893129770992,8.458015267175572,0.0
14.630007028579712,-9.86411083984375,3.1651345947265623,0.6272808349609375,-25.603053435114504,10.687022900763358,8.885496183206106,-8.78432589111328,0.5626373901367188,0.0526724365234375,-27.267175572519083,-37.70992366412214,12.15267175572519,0.0
14.640000820159912,-9.634267480468749,2.5354595581054684,0.7350199096679687,-28.38167938931298,10.213740458015268,10.65648854961832,-8.566453540039062,0.5099649536132812,1.8818425048828125,-25.083969465648856,-38.961832061068705,13.770992366412214,0.0
14.650001049041748,-9.94072529296875,2.0183119995117185,0.9193734375,-29.099236641221374,10.122137404580153,10.564885496183207,-8.729259252929687,0.06464344482421874,1.419761584472656,-29.770992366412212,-36.83969465648855,13.083969465648854,0.0
14.660001039505005,-10.024522351074218,1.7549498168945312,1.0103531005859374,-29.297709923664122,10.717557251908397,8.748091603053435,-8.406042028808594,0.689530078125,-0.33518823242187495,-31.572519083969464,-28.18320610687023,9.954198473282442,0.0
14.670006036758423,-9.981426721191406,1.0462661254882812,0.7781155395507812,-28.3206106870229,11.267175572519085,6.717557251908397,-7.893682873535155,-0.05027823486328125,0.6584054565429687,-41.25190839694657,-27.0381679389313,9.083969465648854,0.0
14.68000054359436,-9.916783276367187,0.9169792358398436,0.5626373901367188,-24.641221374045802,13.17557251908397,4.870229007633588,-9.095572106933593,-1.3024457031249999,0.9504980590820312,-37.69465648854962,-16.549618320610687,9.526717557251908,0.0
14.69000792503357,-9.713276135253906,1.0582371337890624,0.3495534423828125,-27.923664122137403,13.404580152671755,2.4427480916030535,-8.054094384765625,-0.7757213378906249,1.1037269653320312,-39.51145038167939,-16.47328244274809,6.030534351145038,0.0
14.700000524520874,-9.74200655517578,1.9704279663085937,0.26336218261718747,-30.778625954198475,13.419847328244275,-0.183206106870229,-8.86094034423828,-1.216254443359375,0.8403647827148437,-35.66412213740458,-11.236641221374045,4.748091603053435,0.0
14.710002660751343,-9.555258825683593,1.5753846923828123,0.09576806640624999,-33.19083969465649,13.511450381679388,-0.13740458015267176,-8.772354882812499,-1.1133037719726562,0.6344634399414062,-33.52671755725191,-8.320610687022901,2.931297709923664,0.0
14.720000743865967,-9.315838659667968,1.1085153686523437,-0.229843359375,-30.244274809160306,14.961832061068701,-0.3053435114503817,-8.59997236328125,-1.0773907470703123,1.2593500732421874,-29.52671755725191,-5.847328244274809,1.5877862595419847,0.0
14.73000431060791,-8.736441857910156,-0.29927520751953124,-0.86191259765625,-23.51145038167939,16.732824427480917,0.6870229007633588,-8.437166650390624,-0.9002198242187499,0.7757213378906249,-27.557251908396946,-1.9083969465648856,0.6106870229007634,0.0
14.740000486373901,-9.689334118652344,0.5410895751953124,-0.40462008056640625,-15.068702290076336,21.236641221374047,-2.351145038167939,-8.350975390624999,-1.1444283935546875,1.39821376953125,-22.83969465648855,3.5877862595419847,0.7022900763358778,0.0
14.750004768371582,-10.345345373535155,1.6927005737304686,0.086191259765625,-16.076335877862597,22.83969465648855,-4.625954198473282,-8.238447912597655,-0.7996633544921875,1.3239935180664062,-18.946564885496183,19.221374045801525,-0.7480916030534351,0.0
14.760001420974731,-10.441113439941406,2.2098481323242187,0.3064578125,-14.977099236641221,23.053435114503817,-5.083969465648855,-8.317456567382813,-0.3184288208007812,1.697488977050781,-27.374045801526716,18.18320610687023,1.3740458015267176,0.0
