timestamp,Thigh_L_Acc_X,Thigh_L_Acc_Y,Thigh_L_Acc_Z,Thigh_L_Gyr_X,Thigh_L_Gyr_Y,Thigh_L_Gyr_Z,Thigh_R_Acc_X,Thigh_R_Acc_Y,Thigh_R_Acc_Z,Thigh_R_Gyr_X,Thigh_R_Gyr_Y,Thigh_R_Gyr_Z,gpio_output
10.000000953674316,-8.429984045410155,0.9361328491210937,-0.27293898925781246,-4.3816793893129775,64.93129770992367,11.923664122137405,-13.527239379882811,1.0941501586914062,0.296881005859375,-47.20610687022901,-56.62595419847328,15.267175572519085,0.0
10.010000705718994,-10.520122094726561,2.798821740722656,0.9121908325195311,-6.320610687022901,68.3969465648855,6.519083969465649,-13.158532324218749,1.419761584472656,-0.17238251953125,-52.045801526717554,-62.534351145038165,12.366412213740459,1.0
10.020001411437988,-11.176133349609374,3.0789433349609374,0.7398083129882812,-16.213740458015266,64.09160305343511,4.6106870229007635,-12.684480395507812,2.104503259277344,-0.47644613037109373,-61.099236641221374,-65.40458015267176,9.587786259541986,1.0
10.030000686645508,-11.513715783691406,3.2513258544921873,1.1540052001953125,-26.045801526717558,59.038167938931295,2.3969465648854964,-12.234370483398436,1.3551181396484375,-0.26336218261718747,-66.12213740458016,-63.48091603053435,9.877862595419847,1.0
10.040001153945923,-9.991003527832031,1.5753846923828123,0.08140285644531249,-29.96946564885496,53.038167938931295,3.236641221374046,-12.320561743164061,-0.0909796630859375,-0.09816226806640624,-61.29770992366412,-63.7557251908397,11.465648854961833,1.0
10.0500009059906,-9.756371765136718,0.9744400756835937,-0.031124621582031248,-22.519083969465647,53.70992366412214,3.0839694656488548,-11.511321582031249,0.05746083984375,0.02633621826171875,-54.19847328244275,-67.19083969465649,9.679389312977099,1.0
10.060001134872437,-8.47786807861328,0.5123591552734374,-0.33039982910156246,-15.603053435114504,52.44274809160305,4.015267175572519,-9.89523546142578,0.9720458740234375,-0.565031591796875,-54.82442748091603,-69.55725190839695,7.435114503816794,1.0
10.070001125335693,-10.199299072265624,1.905784521484375,-0.12210428466796874,-6.396946564885496,58.56488549618321,2.9770992366412212,-9.375693701171874,0.3495534423828125,-1.0917559570312498,-58.80916030534351,-64.04580152671755,4.809160305343512,1.0
10.08000111579895,-9.641450085449218,1.3551181396484375,-0.19393033447265623,-9.419847328244275,56.18320610687023,3.053435114503817,-9.368511096191405,0.02154781494140625,-1.3838485595703125,-54.29007633587786,-58.213740458015266,3.801526717557252,1.0
10.090000867843628,-10.326191760253906,1.458068811035156,-0.009576806640625,-8.580152671755725,57.98473282442748,1.9541984732824427,-11.010933435058593,-3.220201232910156,-0.488417138671875,-52.656488549618324,-55.603053435114504,4.687022900763359,1.0
10.100000619888306,-9.315838659667968,0.8834604125976562,0.2154781494140625,-11.007633587786259,55.32824427480916,1.297709923664122,-9.13627353515625,0.33518823242187495,-1.3335703247070312,-35.465648854961835,-58.3206106870229,0.2595419847328244,1.0
10.110000610351562,-9.469067565917967,0.737414111328125,0.46208092041015625,-3.312977099236641,57.51145038167939,-0.4580152671755725,-8.520963708496094,1.2880804931640624,-1.0702081420898437,-32.88549618320611,-46.76335877862596,-2.763358778625954,1.0
10.12000060081482,-9.478644372558593,0.5698199951171875,0.21068974609375,-2.213740458015267,56.030534351145036,-1.7557251908396947,-9.945513696289062,-0.23223756103515625,-0.10295067138671875,-30.85496183206107,-37.969465648854964,-0.9007633587786259,1.0
10.130000829696655,-9.612719665527344,0.5291185668945312,-0.03591302490234375,1.7099236641221374,55.02290076335878,-3.7709923664122136,-9.17458076171875,-0.5674257934570313,-0.48123453369140623,-20.16793893129771,-35.587786259541986,-2.4427480916030535,1.0
10.140000820159912,-9.847351428222655,0.4165910888671875,0.41419688720703124,7.343511450381679,54.13740458015267,-5.557251908396947,-9.964667309570311,-0.718260498046875,0.28490999755859375,-20.16793893129771,-35.48091603053435,-1.786259541984733,1.0
10.150001049041748,-9.306261853027344,0.7493851196289062,-0.105344873046875,11.633587786259541,51.61832061068702,-6.396946564885496,-9.605537060546874,-0.8355763793945312,0.8667010009765624,-10.16793893129771,-33.14503816793893,-2.7786259541984735,1.0
10.160000801086426,-10.426748229980468,2.7629087158203123,0.7876923461914062,10.305343511450381,50.68702290076336,-8.83969465648855,-9.7683427734375,-1.209071838378906,0.833182177734375,-6.778625954198473,-32.13740458015267,-3.450381679389313,1.0
10.170001029968262,-10.577582934570312,2.559401574707031,0.70868369140625,4.290076335877862,45.404580152671755,-8.351145038167939,-8.571241943359375,-1.3383587280273437,0.18914193115234373,-7.6183206106870225,-32.12213740458015,-6.106870229007634,1.0
10.18000078201294,-10.845733520507812,2.418143676757812,0.7326257080078125,4.625954198473282,44.3206106870229,-7.190839694656488,-8.398859423828124,-1.5083470458984374,0.20350714111328125,-2.2595419847328246,-26.65648854961832,-6.534351145038168,1.0
10.190001010894775,-10.627861169433594,2.913743420410156,1.0414777221679687,-0.5801526717557252,39.66412213740458,-6.977099236641221,-9.198522778320312,-2.2385785522460937,0.10773907470703124,11.603053435114504,-27.587786259541986,-6.396946564885496,1.0
10.200001001358032,-11.245565197753905,3.0142998901367184,1.3192051147460937,-3.786259541984733,36.213740458015266,-6.702290076335878,-9.555258825683593,-2.674323254394531,0.9840168823242187,31.083969465648856,-30.015267175572518,-7.893129770992366,1.0
10.21000075340271,-10.826579907226561,3.6918589599609373,1.4820108276367188,-11.297709923664122,30.03053435114504,-6.351145038167939,-9.296685046386719,-1.5346832641601562,1.216254443359375,35.52671755725191,-39.267175572519086,-9.786259541984732,0.0
10.220000743865967,-10.041281762695311,2.1547814941406247,0.7398083129882812,-12.320610687022901,24.671755725190838,-2.900763358778626,-8.032546569824218,-0.7062894897460937,0.6464344482421874,33.25190839694657,-35.38931297709924,-13.374045801526718,0.0
10.230000972747803,-9.974244116210937,1.8291700683593748,0.8499415893554687,-11.419847328244275,23.49618320610687,-1.7251908396946565,-10.014945544433592,-2.2098481323242187,0.8882488159179687,36.030534351145036,-34.38167938931298,-11.83206106870229,0.0
10.24000096321106,-10.402806213378906,2.0781670410156248,1.465251416015625,-14.15267175572519,21.801526717557252,-2.6717557251908395,-9.478644372558593,-1.8650830932617186,0.9145850341796874,49.48091603053435,-34.76335877862596,-13.694656488549619,0.0
10.250000715255737,-9.72285294189453,1.4221557861328125,0.8188169677734375,-9.282442748091603,19.66412213740458,-2.6412213740458017,-8.99501563720703,-0.1005564697265625,1.448492004394531,46.87022900763359,-38.85496183206107,-16.65648854961832,0.0
10.260000944137573,-10.091559997558592,1.9752163696289062,1.0319009155273438,-7.893129770992366,18.549618320610687,-3.068702290076336,-9.030928662109375,-0.7110778930664062,1.675941162109375,40.61068702290076,-36.213740458015266,-16.427480916030536,0.0
10.27000093460083,-10.072406384277343,2.3056161987304686,1.0965443603515623,-8.885496183206106,16.625954198473284,-1.984732824427481,-9.572018237304688,-0.9864110839843749,1.8004396484374998,48.85496183206107,-33.343511450381676,-15.465648854961833,0.0
10.280000686645508,-10.096348400878906,2.5665841796874997,0.9600748657226562,-10.82442748091603,15.145038167938932,-1.8473282442748091,-9.239224206542968,0.076614453125,1.6831237670898436,48.83969465648855,-36.76335877862596,-17.297709923664122,0.0
10.290000915527344,-9.404424121093749,1.7549498168945312,0.7062894897460937,-6.427480916030534,14.351145038167939,0.030534351145038167,-8.55448253173828,1.3862427612304686,2.133233679199219,40.0763358778626,-35.23664122137404,-18.16793893129771,0.0
10.30000114440918,-9.6917283203125,1.9033903198242186,0.8978256225585937,-6.763358778625954,13.709923664122137,-0.15267175572519084,-9.564835632324218,0.023942016601562498,2.4684219116210935,33.64885496183206,-30.595419847328245,-15.282442748091603,0.0
10.310000896453857,-9.828197814941406,1.668758557128906,0.9744400756835937,-7.450381679389313,11.34351145038168,-0.8244274809160306,-9.897629663085937,-0.02633621826171875,2.370259643554687,42.12213740458015,-31.17557251908397,-14.198473282442748,0.0
10.320001125335693,-10.022128149414062,1.5418658691406248,1.1156979736328125,-5.6183206106870225,9.49618320610687,-0.9312977099236641,-10.271125122070313,-0.08140285644531249,2.817975354003906,38.87022900763359,-35.43511450381679,-13.541984732824428,0.0
10.330000877380371,-9.435548742675781,0.7781155395507812,0.8762778076171874,2.931297709923664,9.068702290076336,-0.07633587786259542,-9.543287817382812,0.928950244140625,2.588131994628906,34.900763358778626,-35.25190839694657,-14.793893129770993,0.0
10.340001106262207,-9.713276135253906,1.2330138549804688,1.1348515869140625,8.01526717557252,8.82442748091603,-0.7480916030534351,-9.4618849609375,1.2378022583007813,2.4253262817382812,20.595419847328245,-30.82442748091603,-13.038167938931299,0.0
10.350000858306885,-10.0748005859375,1.484405029296875,1.3239935180664062,10.625954198473282,6.809160305343512,-1.1450381679389312,-8.992621435546875,1.1061211669921875,2.003946789550781,19.358778625954198,-26.12213740458015,-11.389312977099237,0.0
10.360000848770142,-10.206481677246094,1.7573440185546874,1.43652099609375,10.625954198473282,4.6106870229007635,-0.9312977099236641,-9.72285294189453,0.20829554443359374,2.530671154785156,19.328244274809162,-25.83206106870229,-9.557251908396946,0.0
10.370000839233398,-9.777919580078125,1.3311761230468748,1.197100830078125,15.404580152671755,2.1068702290076335,-0.07633587786259542,-9.732429748535155,0.1388636962890625,2.2457611572265623,21.709923664122137,-27.908396946564885,-9.511450381679388,0.0
10.380000829696655,-9.677363110351562,1.7956512451171873,1.149216796875,20.763358778625953,1.9083969465648856,-0.42748091603053434,-9.117119921875,0.612915625,1.656787548828125,17.984732824427482,-28.778625954198475,-10.335877862595419,0.0
10.390000820159912,-9.947907897949218,3.294421484375,1.5083470458984374,17.435114503816795,0.48854961832061067,-1.3740458015267176,-8.916006982421875,0.8068459594726562,2.233790148925781,9.17557251908397,-25.358778625954198,-9.511450381679388,0.0
10.400000810623169,-9.150638745117186,2.039859814453125,0.7541735229492187,14.396946564885496,-3.3893129770992365,0.9007633587786259,-9.191340173339842,-0.14125789794921875,1.9776105712890624,-5.938931297709924,-20.671755725190838,-7.312977099236641,0.0
10.410001039505005,-9.888052856445311,2.501940734863281,0.8307879760742187,9.465648854961833,-4.977099236641221,1.4198473282442747,-9.394847314453125,-0.584185205078125,2.360682836914062,-8.946564885496183,-17.84732824427481,-4.977099236641221,0.0
10.420000553131104,-9.014169250488282,0.7900865478515624,0.36152445068359373,17.17557251908397,-2.519083969465649,3.312977099236641,-8.271966735839843,0.86191259765625,2.1715409057617188,3.49618320610687,-15.419847328244275,-6.122137404580153,0.0
10.43000078201294,-9.5001921875,2.2768857788085937,0.7972691528320313,19.66412213740458,0.22900763358778625,1.0229007633587786,-9.038111267089842,-0.6584054565429687,2.3056161987304686,-4.488549618320611,-11.938931297709924,-5.740458015267175,0.0
10.440000772476196,-9.765948571777344,2.384624853515625,0.6464344482421874,13.86259541984733,-2.0,1.0229007633587786,-9.770736975097655,-1.8842367065429686,2.6312276245117188,4.900763358778626,-11.389312977099237,-4.564885496183206,0.0
10.450001001358032,-9.6151138671875,2.2960393920898436,0.6464344482421874,13.282442748091603,-2.5343511450381677,1.1755725190839694,-9.129090930175781,-1.197100830078125,2.7724855224609373,9.068702290076336,-15.557251908396946,-6.519083969465649,0.0
10.46000075340271,-9.617508068847656,2.1356278808593747,0.6416460449218749,14.229007633587786,-1.9541984732824427,1.1450381679389312,-8.336610180664062,0.04548983154296875,2.2936451904296873,23.69465648854962,-13.053435114503817,-10.076335877862595,0.0
10.470000743865967,-9.70369932861328,2.042254016113281,0.6248866333007812,14.16793893129771,-1.9694656488549618,0.42748091603053434,-9.332598071289063,-1.2928688964843749,2.104503259277344,21.206106870229007,-12.198473282442748,-8.732824427480915,0.0
10.480000734329224,-9.464279162597656,1.7262193969726563,0.3806780639648437,13.603053435114504,-1.5877862595419847,-0.0,-9.241618408203124,-1.3096283081054687,2.2864625854492187,16.290076335877863,-13.526717557251908,-8.335877862595419,0.0
10.49000072479248,-9.464279162597656,1.668758557128906,0.32082302246093747,14.061068702290076,-0.061068702290076333,-0.6870229007633588,-8.403647827148436,0.24899697265624998,2.2673089721679687,20.076335877862597,-11.511450381679388,-9.603053435114504,0.0
10.500000715255737,-9.490615380859374,1.6735469604492186,0.19871873779296872,14.259541984732824,1.1755725190839694,-1.1450381679389312,-8.774749084472656,-0.19871873779296872,2.379836450195312,17.633587786259543,-7.175572519083969,-8.534351145038167,0.0
10.510001182556152,-9.983820922851562,2.3056161987304686,0.49320554199218747,11.83206106870229,2.7480916030534353,-2.366412213740458,-9.1554271484375,-0.3399766357421875,2.6527754394531247,21.740458015267176,-6.534351145038168,-7.190839694656488,0.0
10.520000696182251,-9.351751684570312,1.3623007446289062,0.16759411621093748,10.595419847328245,1.4351145038167938,-2.122137404580153,-8.786720092773438,0.19871873779296872,2.693476867675781,22.458015267175572,-5.862595419847328,-8.16793893129771,0.0
10.530000925064087,-9.275137231445312,1.8124106567382812,0.11731588134765625,11.770992366412214,1.8015267175572518,-3.236641221374046,-9.267954626464844,-0.48123453369140623,2.858676782226562,23.96946564885496,-3.83206106870229,-7.7251908396946565,0.0
10.540001392364502,-9.679757312011718,2.0661960327148434,0.24181436767578124,9.099236641221374,2.030534351145038,-4.427480916030534,-8.884882360839843,-0.2825157958984375,2.7581203125,23.786259541984734,-3.0229007633587788,-8.229007633587786,0.0
10.5500009059906,-9.447519750976562,1.7549498168945312,0.1388636962890625,12.351145038167939,2.931297709923664,-4.2748091603053435,-8.91840118408203,-0.27293898925781246,2.750937707519531,22.82442748091603,-3.0076335877862594,-8.229007633587786,0.0
10.560001373291016,-9.672574707031249,2.1643583007812497,0.1580173095703125,12.290076335877863,3.2213740458015265,-4.412213740458015,-8.741230261230468,0.09816226806640624,2.588131994628906,21.923664122137403,-1.282442748091603,-8.366412213740459,0.0
10.570001363754272,-9.583989245605467,2.1116858642578125,0.2059013427734375,13.251908396946565,3.7557251908396947,-4.1679389312977095,-8.935160595703124,0.031124621582031248,2.7533319091796873,23.404580152671755,0.5038167938931297,-7.6183206106870225,0.0
10.58000135421753,-9.476250170898437,1.9488801513671874,0.2657563842773437,12.030534351145038,3.3893129770992365,-4.061068702290076,-8.947131604003905,0.26815058593749996,2.6767174560546874,22.015267175572518,1.5572519083969465,-7.282442748091603,0.0
10.590000867843628,-9.344569079589844,1.9225439331054686,0.35194764404296874,12.305343511450381,3.6030534351145036,-4.717557251908397,-8.8489693359375,0.2753331909179687,2.7748797241210936,21.34351145038168,2.4732824427480917,-7.129770992366412,0.0
10.600000858306885,-9.490615380859374,1.8363526733398436,0.38786066894531246,12.580152671755725,3.1908396946564888,-5.435114503816794,-8.8872765625,0.42377369384765623,2.741360900878906,19.572519083969464,3.618320610687023,-7.404580152671755,0.0
10.610000848770142,-9.502586389160156,1.8291700683593748,0.3495534423828125,14.076335877862595,3.5877862595419847,-6.015267175572519,-9.267954626464844,-0.10773907470703124,2.999934680175781,17.801526717557252,4.99236641221374,-6.763358778625954,0.0
10.62000060081482,-9.739612353515625,1.8028338500976562,0.40222587890625,14.213740458015268,3.2061068702290076,-7.022900763358779,-8.932766394042968,0.040701428222656245,2.9041666137695312,16.412213740458014,4.763358778625954,-7.312977099236641,0.0
10.630000829696655,-9.445125549316407,1.7453730102539062,0.63206923828125,16.564885496183205,3.0229007633587788,-8.259541984732824,-8.987833032226561,-0.05027823486328125,2.9041666137695312,14.687022900763358,5.129770992366412,-7.648854961832061,0.0
10.640000820159912,-9.330203869628905,1.668758557128906,0.7757213378906249,17.328244274809162,2.717557251908397,-8.992366412213741,-8.975862023925782,-0.16041151123046873,2.683900061035156,14.045801526717558,6.1679389312977095,-7.908396946564886,0.0
10.65000057220459,-9.37808790283203,1.678335363769531,0.9145850341796874,18.641221374045802,1.83206106870229,-10.01526717557252,-8.916006982421875,-0.1149216796875,2.7341782958984373,12.83969465648855,6.824427480916031,-8.870229007633588,0.0
10.660000562667847,-9.337386474609374,1.6352397338867186,1.1851298217773436,20.213740458015266,0.9923664122137404,-11.374045801526718,-8.91840118408203,-0.19632453613281248,2.693476867675781,10.335877862595419,7.648854961832061,-10.610687022900763,0.0
10.670001029968262,-9.572018237304688,1.5155296508789062,1.3048399047851562,21.862595419847327,-0.061068702290076333,-12.427480916030534,-8.882488159179687,-0.373495458984375,2.73896669921875,8.259541984732824,9.465648854961833,-12.702290076335878,0.0
10.68000078201294,-9.672574707031249,1.3718775512695311,1.4628572143554686,23.770992366412212,-1.8473282442748091,-13.48091603053435,-8.932766394042968,-0.4381389038085937,2.5043349365234375,9.282442748091603,10.51908396946565,-13.954198473282442,0.0
10.690001249313354,-9.945513696289062,1.5777788940429687,1.4867992309570313,25.633587786259543,-3.282442748091603,-14.961832061068701,-8.769960681152343,-0.0047884033203125,2.147598889160156,10.916030534351146,11.511450381679388,-14.595419847328245,0.0
10.700000524520874,-9.591171850585937,1.2737152832031249,1.5251064575195312,29.61832061068702,-5.450381679389313,-15.511450381679388,-8.681375219726561,0.718260498046875,2.1835119140624997,12.229007633587786,12.091603053435115,-14.122137404580153,0.0
10.710000991821289,-9.514557397460937,1.4867992309570313,1.5825672973632812,32.6412213740458,-6.793893129770993,-16.946564885496183,-8.418013037109375,0.679953271484375,2.0183119995117185,10.01526717557252,12.198473282442748,-11.679389312977099,0.0
10.720000743865967,-9.686939916992188,2.961627453613281,2.2361843505859373,29.755725190839694,-8.931297709923664,-18.85496183206107,-8.33182177734375,0.4572925170898437,1.8028338500976562,7.297709923664122,14.534351145038167,-11.267175572519085,0.0
10.730000734329224,-9.332598071289063,2.987963671875,2.1715409057617188,19.358778625954198,-17.17557251908397,-18.366412213740457,-8.44674345703125,0.04548983154296875,1.3096283081054687,6.488549618320611,17.0381679389313,-10.793893129770993,0.0
10.74000072479248,-9.995791931152343,2.6815058593749996,2.482787121582031,15.618320610687023,-20.198473282442748,-17.61832061068702,-8.305485559082031,-0.46686932373046874,1.2330138549804688,4.961832061068702,20.015267175572518,-10.198473282442748,0.0
10.750000715255737,-9.184157568359375,2.281674182128906,2.1835119140624997,16.916030534351144,-24.977099236641223,-15.969465648854962,-8.221688500976562,-0.8068459594726562,1.1180921752929687,4.916030534351145,23.00763358778626,-10.473282442748092,0.0
10.760000944137573,-10.081983190917969,3.0645781249999997,2.85388837890625,14.045801526717558,-27.954198473282442,-16.213740458015266,-7.975085729980468,-1.6639701538085936,-0.033518823242187495,-1.297709923664122,27.83206106870229,-11.17557251908397,0.0
10.77000093460083,-9.631873278808593,2.923320227050781,2.9735984619140625,10.885496183206106,-33.603053435114504,-13.923664122137405,-6.414066247558593,-0.23223756103515625,-0.8643067993164062,1.3893129770992367,26.366412213740457,-13.770992366412214,0.0
10.780000686645508,-9.734823950195311,2.887407202148437,3.1842882080078123,13.374045801526718,-38.534351145038165,-11.099236641221374,-7.352593298339843,-0.07900865478515624,0.1292868896484375,1.5419847328244274,39.20610687022901,-12.305343511450381,0.0
10.790000677108765,-10.311826550292968,3.574543078613281,3.883395092773437,9.34351145038168,-43.45038167938932,-9.251908396946565,-8.09479581298828,-0.411802685546875,0.6200982299804687,-5.038167938931298,45.847328244274806,-13.557251908396946,0.0
10.80000114440918,-11.398794104003905,3.687070556640625,4.572925170898437,0.7938931297709924,-52.74809160305343,-7.603053435114504,-9.593566052246093,-1.659181750488281,1.6352397338867186,-3.954198473282443,50.50381679389313,-15.465648854961833,0.0
10.810000896453857,-11.06360587158203,2.8993782104492185,4.752490295410156,-2.0,-63.55725190839695,-4.396946564885496,-12.531251489257812,-3.488351818847656,4.278438366699218,2.1526717557251906,43.55725190839695,-17.923664122137403,0.0
10.820001125335693,-12.275071911621094,3.3494881225585935,5.647921716308593,-4.793893129770993,-75.72519083969466,-4.641221374045801,-14.724340209960937,-2.4564509033203126,6.078878015136718,22.061068702290076,32.88549618320611,-26.244274809160306,0.0
10.830000638961792,-12.593500732421875,2.9831752685546875,5.892130285644531,-4.854961832061068,-89.37404580152672,-3.282442748091603,-14.403517187499999,-2.3726538452148436,5.8083332275390624,23.068702290076335,22.65648854961832,-32.67175572519084,0.0
10.840000629425049,-12.811373083496093,2.808398547363281,6.1267620483398435,-2.9618320610687023,-102.76335877862596,-0.366412213740458,-15.859191796874999,-2.4971523315429685,5.674257934570313,16.931297709923665,29.282442748091604,-31.34351145038168,0.0
10.850000619888306,-13.436259716796874,2.1595698974609374,7.208941198730468,-2.7786259541984735,-118.3206106870229,1.786259541984733,-13.716381311035155,-0.5123591552734374,2.7174188842773437,16.519083969465647,29.34351145038168,-18.27480916030534,0.0
10.860000610351562,-13.405135095214844,1.426944189453125,7.524975817871093,-0.549618320610687,-132.12213740458014,4.9465648854961835,-10.472238061523436,2.480392919921875,0.44053310546874996,37.282442748091604,16.85496183206107,-16.50381679389313,0.0
10.87000060081482,-13.436259716796874,0.8307879760742187,7.321468676757812,-2.16793893129771,-147.32824427480915,6.564885496183206,-8.647856396484375,4.197035510253906,-0.6823474731445313,14.106870229007633,15.84732824427481,-9.435114503816793,0.0
10.880000591278076,-14.250288281249999,0.5363011718749999,7.750030773925781,-4.5038167938931295,-160.18320610687022,7.984732824427481,-7.4411787597656245,5.487510205078125,-0.44053310546874996,-5.374045801526718,25.236641221374047,-4.99236641221374,0.0
10.890000820159912,-15.210363146972655,-0.5219359619140624,6.943184814453125,-5.557251908396947,-172.3053435114504,9.32824427480916,-8.44674345703125,2.061407629394531,-0.5147533569335937,-27.435114503816795,35.37404580152672,1.9236641221374047,0.0
10.90000057220459,-14.688427185058593,-1.9871873779296874,6.2584431396484375,-4.442748091603053,-181.3587786259542,9.893129770992367,-9.07163009033203,-0.82360537109375,0.46686932373046874,-38.045801526717554,35.37404580152672,3.9236641221374047,0.0
10.910000562667847,-13.78341895751953,-2.9759926635742184,3.5482068603515624,4.900763358778626,-183.09923664122138,8.51908396946565,-8.810662109374999,-1.5945383056640625,0.258573779296875,-39.52671755725191,35.25190839694657,0.12213740458015267,0.0
10.920000791549683,-12.59589493408203,-3.1004911499023438,2.5737667846679684,10.900763358778626,-179.9236641221374,3.7404580152671754,-10.63025537109375,-4.050989208984375,1.3287819213867187,-33.099236641221374,38.12213740458015,-0.549618320610687,0.0
10.930001020431519,-11.85608662109375,-3.375824340820312,0.3495534423828125,18.50381679389313,-173.38931297709922,0.0916030534351145,-10.517727893066406,-5.011064074707031,1.1037269653320312,-13.312977099236642,33.11450381679389,-3.480916030534351,0.0
10.940000772476196,-10.24718310546875,-3.6248213134765623,-2.0159177978515626,32.94656488549618,-160.18320610687022,-2.1374045801526718,-8.429984045410155,-1.9823989746093749,0.5865794067382812,-7.022900763358779,30.778625954198475,-1.251908396946565,0.0
10.950001239776611,-8.535328918457031,-2.583343591308594,-2.942473840332031,44.30534351145038,-140.36641221374046,-5.4961832061068705,-9.095572106933593,-2.4133552734375,0.19393033447265623,-13.770992366412214,33.29770992366412,-4.396946564885496,0.0
10.96000075340271,-8.116343627929687,-1.2521674682617188,-3.347093920898437,44.12213740458015,-122.29007633587786,-10.030534351145038,-9.926360083007811,-2.9496564453125,0.9074024291992187,-11.618320610687023,32.47328244274809,-2.2595419847328246,0.0
10.970000743865967,-7.137115148925781,-0.8355763793945312,-3.912125512695312,43.93893129770992,-103.09923664122137,-12.0,-9.488221179199218,-1.8148048583984373,0.5674257934570313,-14.83969465648855,31.236641221374047,-3.0229007633587788,0.0
10.980000734329224,-6.754042883300781,0.3232172241210937,-3.27526787109375,46.961832061068705,-79.70992366412214,-13.48091603053435,-9.548076220703125,-2.7940333374023436,1.407790576171875,-18.427480916030536,32.68702290076336,-0.8549618320610687,0.0
10.99000072479248,-6.845022546386718,1.024718310546875,-2.262520568847656,38.87022900763359,-62.82442748091603,-13.022900763358779,-10.527304699707031,-3.7612908081054686,1.2401964599609374,-11.32824427480916,28.885496183206108,0.6717557251908397,0.0
11.000000715255737,-8.204929089355469,1.465251416015625,-0.18914193115234373,36.534351145038165,-43.89312977099237,-12.13740458015267,-9.485826977539062,-3.430890979003906,0.28012159423828126,-10.076335877862595,25.61832061068702,-0.732824427480916,0.0
11.010000944137573,-7.659051110839843,1.7525556152343749,0.39983167724609375,30.259541984732824,-34.274809160305345,-10.534351145038167,-9.0021982421875,-1.8339584716796873,0.10295067138671875,-8.610687022900763,27.69465648854962,-1.9694656488549618,0.0
11.020000696182251,-7.484274389648437,2.1260510742187497,1.1468225952148436,25.96946564885496,-21.87786259541985,-9.267175572519085,-9.02135185546875,-2.0350714111328125,0.2154781494140625,-16.732824427480917,30.229007633587788,0.13740458015267176,0.0
11.030000925064087,-8.2743609375,3.8139632446289062,1.5705962890624998,4.763358778625954,-18.641221374045802,-9.954198473282442,-9.018957653808593,-1.7405846069335937,1.0007762939453124,-16.30534351145038,36.16793893129771,2.030534351145038,0.0
11.040001392364502,-7.498639599609374,2.0159177978515626,0.8667010009765624,-10.748091603053435,-16.458015267175572,-4.488549618320611,-9.514557397460937,-2.8802245971679685,0.5267243652343749,-14.992366412213741,35.32824427480916,5.175572519083969,0.0
11.050000667572021,-7.311891870117187,1.7022773803710936,0.6392518432617187,-13.435114503816793,-8.564885496183207,-1.297709923664122,-9.37808790283203,-2.4756045166015626,1.695094775390625,-4.076335877862595,36.045801526717554,4.793893129770993,0.0
11.060001134872437,-7.333439685058593,1.8148048583984373,0.6392518432617187,-21.557251908396946,-3.2519083969465647,-0.5190839694656488,-10.038887561035155,-2.2457611572265623,0.6703764648437499,-12.320610687022901,36.30534351145038,6.106870229007634,0.0
11.070000886917114,-6.696582043457031,1.5083470458984374,0.28012159423828126,-24.595419847328245,3.114503816793893,2.16793893129771,-8.741230261230468,-1.4317325927734375,0.46686932373046874,-9.908396946564885,38.36641221374046,5.847328244274809,0.0
11.08000111579895,-6.744466076660156,1.9704279663085937,0.3280056274414062,-33.37404580152672,8.961832061068701,2.4122137404580153,-9.861716638183593,-1.707065783691406,0.4860229370117187,-16.48854961832061,39.64885496183206,8.641221374045802,0.0
11.090000867843628,-6.236895324707031,1.9416975463867185,0.2154781494140625,-43.847328244274806,14.335877862595419,3.3587786259541983,-9.03332286376953,-1.3000515014648437,0.5051765502929687,-20.061068702290076,42.76335877862596,9.954198473282442,0.0
11.100000619888306,-5.499481213378906,1.5155296508789062,0.0143652099609375,-50.6412213740458,20.85496183206107,5.206106870229007,-10.211270080566406,-2.93050283203125,0.6584054565429687,-24.33587786259542,44.42748091603053,13.145038167938932,0.0
11.11000108718872,-6.205770703124999,2.2074539306640624,0.5722141967773438,-66.07633587786259,26.732824427480917,5.099236641221374,-11.29344923095703,-4.6830584472656245,1.4987702392578124,-7.129770992366412,40.213740458015266,14.259541984732824,0.0
11.120000839233398,-5.815515832519531,1.0797849487304687,0.565031591796875,-75.3587786259542,30.99236641221374,6.198473282442748,-10.192116467285155,-3.2537200561523436,1.4245499877929686,9.32824427480916,33.43511450381679,12.580152671755725,0.0
11.130000829696655,-3.9839515624999997,-1.879448303222656,-0.5770026000976562,-66.83969465648855,40.732824427480914,10.290076335877863,-10.570400329589843,-3.7708676147460936,0.7445967163085937,-6.732824427480916,28.732824427480917,12.961832061068701,0.0
11.140000581741333,-4.666299035644531,-2.3965958618164063,0.28012159423828126,-49.3587786259542,59.37404580152672,9.923664122137405,-9.495403784179686,-1.8052280517578123,1.2114660400390624,5.099236641221374,25.96946564885496,10.83969465648855,0.0
11.150001049041748,-5.561730456542969,-1.3096283081054687,2.099714855957031,-43.45038167938932,71.12977099236642,5.984732824427481,-9.636661682128906,-1.8770541015625,0.9121908325195311,11.465648854961833,26.366412213740457,10.488549618320612,0.0
11.160000801086426,-5.9783215454101555,-1.3527239379882812,3.210624426269531,-36.82442748091603,78.74809160305344,5.6183206106870225,-10.026916552734374,-2.1739351074218747,1.62805712890625,14.305343511450381,24.977099236641223,11.358778625954198,0.0
11.170001029968262,-6.234501123046875,-1.1923124267578125,5.142745166015625,-27.419847328244273,83.55725190839695,6.183206106870229,-9.840168823242188,-2.0159177978515626,1.6136919189453125,11.099236641221374,21.46564885496183,11.221374045801527,0.0
11.180001020431519,-7.304709265136719,-0.45489831542968745,7.017405065917968,-16.33587786259542,85.17557251908397,7.816793893129771,-9.574412438964844,-1.714248388671875,1.3551181396484375,12.50381679389313,21.46564885496183,10.198473282442748,0.0
11.190000772476196,-8.032546569824218,-0.10773907470703124,8.276755139160155,-5.480916030534351,83.06870229007633,10.427480916030534,-10.153809240722655,-2.5474305664062498,1.4053963745117186,14.0,18.366412213740457,12.122137404580153,0.0
11.200001001358032,-8.623914379882812,-0.36152445068359373,9.153032946777342,6.290076335877862,79.1145038167939,14.229007633587786,-10.04846436767578,-1.7525556152343749,1.5059528442382812,11.694656488549619,19.022900763358777,11.572519083969466,0.0
11.210000991821289,-9.284714038085937,-0.3447650390625,9.564835632324218,21.740458015267176,74.7175572519084,19.557251908396946,-9.832986218261718,-1.7597382202148437,1.4101847778320311,12.916030534351146,18.900763358778626,12.244274809160306,0.0
11.220000982284546,-10.16338604736328,0.5219359619140624,9.732429748535155,34.70229007633588,67.86259541984732,25.206106870229007,-9.612719665527344,-1.3000515014648437,1.1348515869140625,9.297709923664122,19.282442748091604,13.511450381679388,0.0
11.230000972747803,-10.848127722167968,1.218648645019531,9.495403784179686,46.16793893129771,57.66412213740458,30.50381679389313,-9.502586389160156,-1.1372457885742187,1.0773907470703123,5.206106870229007,18.671755725190838,14.687022900763358,0.0
11.240000486373901,-11.006145031738281,2.9041666137695312,8.942343200683593,47.12977099236641,45.587786259541986,34.900763358778626,-8.832209924316405,-0.201112939453125,0.7781155395507812,-7.877862595419847,21.34351145038168,15.740458015267176,0.0
11.250000953674316,-11.707646118164062,3.845087866210937,8.01818135986328,43.86259541984733,36.42748091603053,39.725190839694655,-9.054870678710937,0.9840168823242187,0.24181436767578124,-24.458015267175572,29.587786259541986,18.198473282442748,0.0
11.260001420974731,-11.379640490722656,4.3622354248046875,4.955997436523437,32.68702290076336,28.916030534351144,45.6793893129771,-9.631873278808593,-0.3136404174804687,1.2785036865234374,-39.63358778625954,34.35114503816794,24.061068702290076,0.0
11.27000117301941,-9.952696301269532,3.641580725097656,1.22583125,15.221374045801527,26.259541984732824,44.79389312977099,-10.855310327148437,-3.0597897216796874,1.618480322265625,-33.81679389312977,35.587786259541986,28.427480916030536,0.0
11.280001401901245,-13.165714929199218,1.66636435546875,1.6160861206054686,-31.282442748091604,17.49618320610687,33.06870229007634,-11.087547888183593,-3.3327287109375,1.8602946899414061,-16.3206106870229,29.31297709923664,25.099236641221374,0.0
11.290001153945923,-12.713210815429687,-3.1411925781249996,3.564966271972656,-39.00763358778626,17.053435114503817,26.0,-10.101136804199218,-1.5562310791015623,2.185906115722656,-24.80916030534351,15.648854961832061,22.82442748091603,0.0
11.300001382827759,-12.397176196289061,-3.3016040893554686,4.903325,-27.114503816793892,24.290076335877863,14.595419847328245,-9.526528405761718,-1.20667763671875,2.085349645996094,-26.946564885496183,12.183206106870228,20.18320610687023,0.0
11.310000658035278,-11.384428894042967,-1.1085153686523437,3.246537451171875,-16.16793893129771,25.66412213740458,7.969465648854962,-10.510545288085936,-2.645592834472656,3.0119056884765625,-24.519083969465647,4.152671755725191,20.610687022900763,0.0
11.320001125335693,-9.785102185058593,1.9967641845703124,0.9026140258789062,-8.580152671755725,30.65648854961832,6.519083969465649,-9.911994873046874,-1.4030021728515625,2.9185318237304685,-16.16793893129771,-6.427480916030534,15.86259541984733,0.0
11.330000877380371,-9.382876306152344,4.115632653808594,-0.38307226562499996,-15.49618320610687,38.229007633587784,6.67175572519084,-9.744400756835937,0.34237083740234375,2.7341782958984373,-23.587786259541986,-17.083969465648856,12.0,0.0
11.340000629425049,-8.595183959960938,4.319139794921875,-1.0869675537109373,-29.49618320610687,42.29007633587786,9.114503816793894,-10.848127722167968,0.4525041137695312,2.5809493896484375,-34.61068702290076,-24.732824427480917,13.374045801526718,0.0
11.350000619888306,-7.975085729980468,3.0430303100585934,-0.5626373901367188,-40.25954198473283,47.725190839694655,11.435114503816793,-11.851298217773437,0.6823474731445313,2.3056161987304686,-44.12213740458015,-33.83206106870229,14.900763358778626,0.0
11.3600013256073,-6.284779357910156,1.5729904907226562,0.3495534423828125,-40.83969465648855,51.89312977099237,12.534351145038167,-12.370839978027343,1.0678139404296874,1.905784521484375,-55.29770992366412,-43.847328244274806,15.068702290076336,0.0
11.370001077651978,-6.272808349609375,0.031124621582031248,-0.2609679809570312,-22.763358778625953,59.847328244274806,13.877862595419847,-13.76426534423828,-0.5913678100585937,2.176329309082031,-60.44274809160305,-52.85496183206107,17.72519083969466,0.0
11.380000591278076,-7.821856823730468,2.379836450195312,0.17956512451171874,-15.49618320610687,66.3969465648855,9.618320610687023,-13.939042065429687,-0.33758243408203126,1.7477672119140624,-49.7557251908397,-66.16793893129771,16.061068702290076,0.0
11.390000581741333,-9.205705383300781,3.9791631591796874,0.9720458740234375,-18.870229007633586,65.6030534351145,7.755725190839694,-13.970166687011718,0.06464344482421874,1.5466542724609373,-41.20610687022901,-76.22900763358778,13.465648854961833,0.0
11.400000810623169,-10.35492218017578,3.825934252929687,1.2928688964843749,-25.954198473282442,62.0,7.557251908396947,-13.984531896972655,1.3168109130859373,0.5889736083984375,-38.44274809160305,-83.89312977099236,10.534351145038167,0.0
11.410001277923584,-10.498574279785156,3.0262708984374997,1.62805712890625,-33.847328244274806,54.97709923664122,6.396946564885496,-12.801796276855468,2.4971523315429685,-0.15562310791015624,-49.847328244274806,-87.69465648854961,6.687022900763359,0.0
11.420001029968262,-11.262324609375,2.858676782226562,1.4341267944335936,-38.33587786259542,48.595419847328245,4.305343511450381,-13.103465686035156,1.5921441040039062,-0.14604630126953125,-57.3587786259542,-85.55725190839695,7.541984732824427,0.0
11.43000078201294,-9.457096557617186,0.5243301635742187,0.6200982299804687,-35.00763358778626,40.99236641221374,5.679389312977099,-12.030863342285155,1.8219874633789062,-1.1827356201171875,-56.0763358778626,-84.38167938931298,7.282442748091603,0.0
11.440000534057617,-9.885658654785155,0.7302315063476562,0.469263525390625,-24.916030534351144,41.32824427480916,4.259541984732825,-11.420341918945311,1.5514426757812498,-1.216254443359375,-66.74809160305344,-80.53435114503817,7.8320610687022905,0.0
11.450000762939453,-8.777143286132812,-0.16998831787109375,-0.4836287353515625,-15.404580152671755,40.30534351145038,6.0458015267175576,-9.80665,1.3623007446289062,-1.2425906616210938,-54.25954198473283,-73.96946564885496,7.32824427480916,0.0
11.46000051498413,-9.284714038085937,0.603338818359375,-0.23223756103515625,-7.648854961832061,43.541984732824424,6.229007633587786,-10.503362683105468,-0.3806780639648437,-1.2737152832031249,-43.00763358778626,-65.0381679389313,8.961832061068701,0.0
11.470000267028809,-8.815450512695312,-0.2059013427734375,-0.488417138671875,-1.6488549618320612,45.221374045801525,6.534351145038168,-8.901641772460938,-0.44053310546874996,-0.39743747558593745,-41.541984732824424,-62.18320610687023,6.33587786259542,0.0
11.480000495910645,-9.665392102050781,0.8762778076171874,0.0718260498046875,4.137404580152672,48.732824427480914,5.206106870229007,-8.643067993164061,-0.5865794067382812,-0.8499415893554687,-35.083969465648856,-55.38931297709924,4.977099236641221,0.0
11.490000486373901,-9.3086560546875,0.5434837768554687,-0.15322890625,7.4961832061068705,50.229007633587784,4.5038167938931295,-8.425195642089843,-0.9169792358398436,-0.699106884765625,-29.328244274809162,-48.74809160305343,3.954198473282443,0.0
11.500000238418579,-9.916783276367187,0.7350199096679687,0.9409212524414062,12.320610687022901,51.63358778625954,2.9160305343511452,-7.64229169921875,0.6919242797851562,-1.3455413330078123,-26.977099236641223,-41.17557251908397,1.4045801526717556,0.0
11.510000705718994,-10.55364091796875,1.5203180541992187,0.7900865478515624,10.854961832061068,50.274809160305345,0.5038167938931297,-8.755595471191405,-0.12689268798828124,-0.9433154541015625,-16.549618320610687,-28.900763358778626,3.312977099236641,0.0
11.52000117301941,-9.765948571777344,1.3766659545898436,0.40222587890625,11.419847328244275,47.80152671755725,0.2900763358778626,-8.279149340820313,0.05746083984375,-0.7038952880859375,-22.259541984732824,-23.297709923664122,3.7099236641221376,0.0
11.530000686645508,-9.624690673828125,1.2282254516601563,0.7852981445312499,12.916030534351146,43.908396946564885,-1.0076335877862594,-8.777143286132812,-0.8188169677734375,-0.36152445068359373,-17.603053435114504,-18.198473282442748,4.5038167938931295,0.0
11.540000915527344,-10.13226142578125,1.6328455322265625,0.9169792358398436,11.938931297709924,42.61068702290076,-2.7938931297709924,-9.112331518554686,-1.707065783691406,0.05027823486328125,-6.366412213740458,-14.50381679389313,4.885496183206107,0.0
11.550000667572021,-9.617508068847656,1.7669208251953124,0.7613561279296874,12.885496183206106,36.717557251908396,-3.480916030534351,-8.650250598144531,-0.9600748657226562,0.2609679809570312,4.458015267175573,-15.053435114503817,1.9083969465648856,0.0
11.560000896453857,-9.433154541015625,1.9033903198242186,0.4908113403320312,12.259541984732824,32.99236641221374,-4.549618320610687,-9.22485899658203,-2.3056161987304686,-0.373495458984375,21.480916030534353,-11.389312977099237,0.732824427480916,0.0
11.570000648498535,-10.857704528808593,2.418143676757812,0.9552864624023437,7.648854961832061,30.85496183206107,-5.6183206106870225,-9.85692823486328,-2.7748797241210936,0.9313444458007812,31.893129770992367,-15.98473282442748,-1.4961832061068703,0.0
11.58000111579895,-10.309432348632813,2.2768857788085937,0.7015010864257812,7.770992366412214,26.65648854961832,-5.0534351145038165,-9.662997900390625,-2.3439234252929686,1.1133037719726562,37.969465648854964,-23.419847328244273,-2.900763358778626,0.0
11.590000629425049,-11.463437548828125,4.161122485351562,1.6424223388671875,4.931297709923665,28.48854961832061,-6.67175572519084,-9.576806640625,-1.5634136840820312,0.8667010009765624,40.48854961832061,-21.572519083969464,-7.022900763358779,0.0
11.600000858306885,-9.674968908691406,2.626439221191406,0.5099649536132812,1.6793893129770991,23.557251908396946,-4.0458015267175576,-8.949525805664061,-0.2753331909179687,0.7038952880859375,37.05343511450382,-20.82442748091603,-9.465648854961833,0.0
11.610000610351562,-9.854534033203125,2.39420166015625,0.51714755859375,-1.4809160305343512,22.3206106870229,-2.6412213740458017,-10.333374365234375,-1.429338391113281,1.7166425903320313,32.0763358778626,-18.885496183206108,-6.412213740458015,0.0
11.62000060081482,-9.916783276367187,2.2577321655273437,0.5410895751953124,-6.763358778625954,20.53435114503817,-3.236641221374046,-10.369287390136718,-1.4963760375976562,1.9895815795898437,42.916030534351144,-19.633587786259543,-6.809160305343512,0.0
11.630000591278076,-10.141838232421874,1.9871873779296874,0.4525041137695312,-9.251908396946565,19.52671755725191,-3.5114503816793894,-10.819397302246093,-1.5370774658203123,2.288856787109375,49.14503816793893,-24.82442748091603,-8.65648854961832,0.0
11.640000581741333,-9.679757312011718,1.7956512451171873,0.49799394531249996,-8.488549618320612,19.206106870229007,-3.2061068702290076,-9.60793126220703,0.13407529296874998,2.0566192260742184,51.93893129770992,-27.72519083969466,-12.290076335877863,0.0
11.65000057220459,-10.242394702148436,2.4301146850585935,0.7637503295898437,-10.320610687022901,19.755725190839694,-3.6946564885496183,-9.5001921875,1.0079588989257813,2.1308394775390624,41.038167938931295,-28.412213740458014,-12.488549618320612,0.0
11.660000562667847,-9.816226806640625,2.0925322509765625,0.7278373046875,-9.129770992366412,19.96946564885496,-2.717557251908397,-9.701305126953125,0.507570751953125,2.7724855224609373,38.30534351145038,-27.236641221374047,-10.748091603053435,0.0
11.670000791549683,-9.660603698730467,1.7741034301757812,0.5817910034179687,-11.648854961832061,17.83206106870229,-2.0763358778625953,-10.568006127929687,-0.16280571289062498,3.1555577880859373,39.221374045801525,-29.603053435114504,-9.541984732824428,0.0
11.68000054359436,-9.56962403564453,1.5538368774414062,0.5147533569335937,-10.427480916030534,17.206106870229007,-2.5801526717557253,-10.058041174316406,0.3232172241210937,2.789244934082031,40.12213740458015,-34.70229007633588,-10.580152671755725,0.0
11.690000772476196,-9.861716638183593,2.1619640991210938,0.6751648681640625,-10.763358778625955,17.404580152671755,-3.648854961832061,-9.04050546875,1.8291700683593748,2.8658593872070313,33.343511450381676,-35.770992366412216,-13.114503816793894,0.0
11.700000524520874,-9.320627062988281,1.455674609375,0.28490999755859375,-7.648854961832061,17.099236641221374,-2.9618320610687023,-9.476250170898437,1.4125789794921875,2.5737667846679684,20.03053435114504,-32.56488549618321,-11.221374045801527,0.0
11.710001468658447,-9.866505041503906,1.8914193115234375,0.39983167724609375,-9.465648854961833,17.14503816793893,-3.312977099236641,-10.335768566894531,0.11731588134765625,2.85388837890625,18.82442748091603,-32.534351145038165,-9.068702290076336,0.0
11.720000982284546,-9.665392102050781,1.6256629272460936,0.4285620971679687,-8.488549618320612,17.099236641221374,-3.2977099236641223,-9.868899243164062,0.9648632690429687,3.057395520019531,20.198473282442748,-34.961832061068705,-9.877862595419847,0.0
11.730000972747803,-9.821015209960937,1.889025109863281,0.5195417602539062,-8.091603053435115,17.31297709923664,-3.969465648854962,-9.289502441406249,1.4508862060546874,2.9281086303710935,7.679389312977099,-35.37404580152672,-11.083969465648854,0.0
11.740000486373901,-9.552864624023437,1.7693150268554687,0.5027823486328125,-7.450381679389313,16.99236641221374,-4.320610687022901,-8.513781103515624,1.5275006591796874,2.5330653564453125,-6.687022900763359,-29.709923664122137,-11.374045801526718,0.0
11.750000476837158,-10.031704956054687,2.5857377929687497,1.0366893188476562,-11.755725190839694,16.076335877862597,-4.778625954198473,-9.68454571533203,-0.16280571289062498,2.7916391357421872,-16.137404580152673,-26.916030534351144,-7.740458015267175,0.0
11.760000705718994,-9.368511096191405,0.9002198242187499,0.239420166015625,-15.312977099236642,11.541984732824428,-2.519083969465649,-9.009380847167968,-0.13168109130859373,2.3822306518554686,-7.00763358778626,-25.34351145038168,-8.16793893129771,0.0
11.77000093460083,-9.801861596679688,1.4939818359375,0.9337386474609375,-5.022900763358779,15.98473282442748,-3.145038167938931,-9.251195214843749,-0.07900865478515624,2.8514941772460936,-2.7786259541984735,-27.557251908396946,-8.396946564885496,0.0
11.780001163482666,-9.351751684570312,1.2928688964843749,0.7110778930664062,-2.854961832061069,14.931297709923664,-3.6946564885496183,-8.674192614746094,-0.25139117431640623,2.901772412109375,0.9007633587786259,-28.412213740458014,-10.381679389312977,0.0
11.790000677108765,-9.30147344970703,0.93852705078125,0.565031591796875,3.2061068702290076,14.854961832061068,-3.954198473282443,-7.8529814453124995,0.7733271362304687,2.4947581298828125,-0.5190839694656488,-27.46564885496183,-12.412213740458014,0.0
11.80000114440918,-10.206481677246094,2.6575638427734374,1.5658078857421873,4.702290076335878,18.30534351145038,-6.442748091603053,-8.520963708496094,-0.17956512451171874,2.597708801269531,-8.687022900763358,-23.389312977099237,-11.877862595419847,0.0
11.810000658035278,-9.512163195800781,2.887407202148437,1.5538368774414062,2.9770992366412212,16.015267175572518,-5.755725190839694,-7.788338000488281,0.6153098266601562,2.0566192260742184,-20.213740458015266,-19.587786259541986,-12.183206106870228,0.0
11.820000886917114,-10.026916552734374,2.7653029174804686,1.4341267944335936,-3.984732824427481,12.183206106870228,-5.1603053435114505,-8.762778076171875,-0.967257470703125,2.403778466796875,-22.53435114503817,-13.694656488549619,-9.557251908396946,0.0
11.830000638961792,-9.830592016601562,2.166752502441406,1.3072341064453123,-5.847328244274809,8.793893129770993,-3.2061068702290076,-8.84178673095703,-1.158793603515625,2.308010400390625,-12.65648854961832,-13.206106870229007,-10.229007633587786,0.0
11.840000629425049,-9.452308154296874,0.8595183959960937,0.8164227661132812,1.1755725190839694,7.862595419847328,-1.3435114503816794,-8.973467822265624,-1.5346832641601562,2.6336218261718747,-9.251908396946565,-13.49618320610687,-11.49618320610687,0.0
11.850000619888306,-10.12507882080078,1.9943699829101562,1.2785036865234374,11.206106870229007,11.938931297709924,-2.595419847328244,-9.023746057128905,-1.7381904052734374,2.636016027832031,-3.8931297709923665,-13.007633587786259,-13.312977099236642,0.0
11.860000610351562,-10.187328063964843,1.9752163696289062,1.2928688964843749,16.47328244274809,12.748091603053435,-3.404580152671756,-9.65342109375,-2.779668127441406,3.0909143432617188,2.9770992366412212,-11.755725190839694,-13.908396946564885,0.0
11.870000839233398,-10.510545288085936,2.7078420776367187,1.3838485595703125,15.86259541984733,12.335877862595419,-4.99236641221374,-9.397241516113281,-2.114080065917969,2.8898014038085935,16.16793893129771,-13.587786259541986,-15.908396946564885,0.0
11.880000591278076,-9.64623848876953,1.927332336425781,0.9792284790039062,16.82442748091603,10.183206106870228,-5.251908396946565,-9.004592443847656,-1.0821791503906248,3.153163586425781,21.374045801526716,-17.984732824427482,-18.061068702290076,0.0
11.890000581741333,-10.232817895507813,2.5139117431640625,1.1324573852539062,8.793893129770993,5.480916030534351,-7.4961832061068705,-9.447519750976562,-1.24498486328125,3.2537200561523436,30.244274809160306,-15.16030534351145,-18.47328244274809,0.0
11.90000057220459,-9.495403784179686,1.1037269653320312,0.38307226562499996,10.16793893129771,2.595419847328244,-5.969465648854962,-9.165003955078124,-0.8954314208984374,3.246537451171875,22.68702290076336,-16.564885496183205,-18.213740458015266,0.0
11.910000562667847,-9.509768994140625,1.3910311645507811,0.33758243408203126,15.49618320610687,4.106870229007634,-6.641221374045801,-8.951920007324219,-0.46686932373046874,3.162740393066406,34.091603053435115,-13.17557251908397,-18.48854961832061,0.0
11.920000553131104,-9.260772021484375,1.4508862060546874,0.2059013427734375,18.198473282442748,4.900763358778626,-6.885496183206107,-9.560047229003906,-1.0678139404296874,3.6296097167968746,32.412213740458014,-14.274809160305344,-17.129770992366414,0.0
11.930001020431519,-9.392453112792968,1.9847931762695312,0.32082302246093747,18.290076335877863,5.709923664122138,-7.923664122137405,-9.581595043945311,-0.7613561279296874,3.4644098022460934,33.81679389312977,-14.50381679389313,-17.480916030534353,0.0
11.940000534057617,-9.5384994140625,2.023100402832031,0.32561142578124996,18.458015267175572,6.656488549618321,-8.396946564885496,-9.579200842285156,-0.8044517578125,3.2154128295898436,37.86259541984733,-13.099236641221374,-17.328244274809162,0.0
11.950000762939453,-9.421183532714844,2.221819140625,0.373495458984375,16.99236641221374,6.580152671755725,-8.549618320610687,-8.755595471191405,-0.0047884033203125,3.1220389648437497,35.87786259541985,-11.053435114503817,-18.015267175572518,0.0
11.96000075340271,-9.564835632324218,2.1212626708984375,0.40940848388671874,15.145038167938932,5.893129770992366,-8.213740458015268,-8.659827404785156,-0.32082302246093747,3.208230224609375,25.31297709923664,-7.129770992366412,-16.53435114503817,0.0
11.970000505447388,-9.576806640625,1.905784521484375,0.4429273071289062,14.82442748091603,6.396946564885496,-7.66412213740458,-8.537723120117187,-0.4477157104492187,2.9975404785156248,29.328244274809162,-3.404580152671756,-15.251908396946565,0.0
11.980000734329224,-9.30147344970703,1.5203180541992187,0.5291185668945312,20.671755725190838,8.351145038167939,-7.526717557251908,-8.298302954101562,-0.35194764404296874,2.8610709838867185,31.64885496183206,-1.5419847328244274,-14.946564885496183,0.0
11.99000072479248,-9.880870251464843,2.4444798950195312,1.005564697265625,14.198473282442748,6.1679389312977095,-9.099236641221374,-8.17859287109375,-0.028730419921875,2.693476867675781,33.20610687022901,0.24427480916030533,-15.297709923664122,0.0
12.000000715255737,-8.980650427246093,0.5578489868164063,0.38786066894531246,21.603053435114504,4.259541984732825,-7.145038167938932,-8.099584216308592,-0.11252747802734374,2.760514514160156,33.099236641221374,3.8473282442748094,-14.564885496183207,0.0
12.010000705718994,-9.986215124511718,2.683900061035156,1.24498486328125,17.923664122137403,5.1603053435114505,-10.473282442748092,-8.145074047851562,-0.1867477294921875,2.7246014892578123,32.44274809160305,5.8320610687022905,-14.229007633587786,0.0
12.02000117301941,-9.777919580078125,1.62805712890625,1.0941501586914062,16.549618320610687,1.099236641221374,-9.145038167938932,-7.924807495117187,0.04548983154296875,2.6240450195312497,32.656488549618324,6.854961832061068,-13.877862595419847,0.0
12.030001401901245,-9.809044201660155,1.4006079711914061,1.0965443603515623,20.3206106870229,0.015267175572519083,-8.641221374045802,-7.8912886718749995,-0.09337386474609374,2.712630480957031,31.34351145038168,9.129770992366412,-12.885496183206106,0.0
12.040001392364502,-9.794678991699218,1.3096283081054687,1.2904746948242187,23.72519083969466,-0.2748091603053435,-8.961832061068701,-7.7596075805664055,0.05985504150390625,2.6144682128906247,30.549618320610687,10.427480916030534,-12.564885496183207,0.0
12.050000667572021,-9.804255798339844,1.5059528442382812,1.3670891479492187,25.435114503816795,-2.1526717557251906,-9.98473282442748,-7.690175732421874,0.16519991455078123,2.540247961425781,27.587786259541986,12.900763358778626,-11.389312977099237,0.0
12.060001134872437,-9.624690673828125,1.2761094848632812,1.5945383056640625,26.85496183206107,-3.83206106870229,-10.793893129770993,-8.52335791015625,-0.6536170532226562,2.868253588867187,23.69465648854962,14.427480916030534,-9.297709923664122,0.0
12.070000648498535,-9.689334118652344,1.4796166259765624,1.924938134765625,27.755725190839694,-5.129770992366412,-12.076335877862595,-8.21690009765625,-0.32561142578124996,2.5857377929687497,23.00763358778626,16.977099236641223,-9.068702290076336,0.0
12.08000135421753,-9.605537060546874,1.1133037719726562,2.104503259277344,29.541984732824428,-8.381679389312977,-12.488549618320612,-8.135497241210937,-0.2657563842773437,2.29843359375,30.38167938931298,18.53435114503817,-9.053435114503817,0.0
12.090001106262207,-9.555258825683593,1.3551181396484375,2.6216508178710938,33.49618320610687,-9.908396946564885,-12.992366412213741,-8.037334973144532,-0.25139117431640623,2.252943762207031,29.61832061068702,19.633587786259543,-9.34351145038168,0.0
12.100001096725464,-9.629479077148437,1.3766659545898436,2.7581203125,35.786259541984734,-13.450381679389313,-13.511450381679388,-7.0844427124023435,0.928950244140625,1.6208745239257811,28.106870229007633,24.045801526717558,-11.297709923664122,0.0
12.110000610351562,-9.928754284667969,2.0781670410156248,3.385401147460937,37.83206106870229,-16.442748091603054,-14.259541984732824,-7.410054138183593,0.0909796630859375,0.9313444458007812,27.740458015267176,31.14503816793893,-10.916030534351146,0.0
12.120001077651978,-9.734823950195311,1.7812860351562498,3.6367923217773437,38.091603053435115,-21.61832061068702,-13.770992366412214,-6.9719152343749995,0.354341845703125,1.3575123413085937,22.30534351145038,36.396946564885496,-11.587786259541986,0.0
12.130000829696655,-10.16338604736328,2.1404162841796874,4.017470385742187,38.58015267175573,-26.793893129770993,-13.801526717557252,-7.304709265136719,0.47644613037109373,0.7733271362304687,13.053435114503817,43.221374045801525,-11.83206106870229,0.0
12.140001058578491,-9.909600671386718,2.042254016113281,4.225765930175781,39.86259541984733,-32.50381679389313,-12.82442748091603,-7.041347082519531,1.3144167114257812,0.46208092041015625,8.732824427480915,52.62595419847328,-13.435114503816793,0.0
12.15000057220459,-11.094730493164063,4.575319372558593,5.607220288085937,33.343511450381676,-39.12977099236641,-14.564885496183207,-7.886500268554687,0.5578489868164063,-0.32561142578124996,1.9236641221374047,64.54961832061069,-14.564885496183207,0.0
12.160000562667847,-11.429918725585937,3.641580725097656,5.346252307128906,19.450381679389313,-54.88549618320611,-12.045801526717558,-10.656591589355468,-1.5466542724609373,-0.258573779296875,14.595419847328245,76.8854961832061,-18.458015267175572,0.0
12.170000791549683,-10.54645831298828,2.1547814941406247,4.908113403320312,24.625954198473284,-67.37404580152672,-9.84732824427481,-12.234370483398436,-2.31758720703125,1.6136919189453125,-1.9236641221374047,69.87786259541984,-27.893129770992367,0.0
12.18000054359436,-11.678915698242188,2.6503812377929687,5.307945080566406,34.396946564885496,-77.93893129770993,-11.358778625954198,-16.685191369628907,-6.289567761230469,5.195417602539062,6.564885496183206,65.19083969465649,-39.541984732824424,0.0
12.190000772476196,-11.9518546875,2.8730419921875,5.367800122070312,39.45038167938932,-91.12977099236642,-10.778625954198473,-17.113753466796872,-5.092466931152344,15.665261462402343,40.80916030534351,46.396946564885496,-51.05343511450382,0.0
12.200000524520874,-13.206416357421874,3.5146880371093747,5.274426257324219,46.0,-104.41221374045801,-8.351145038167939,-16.304513305664063,-5.137956762695312,6.519411120605469,33.98473282442748,38.33587786259542,-38.61068702290076,0.0
12.21000075340271,-14.104241979980468,3.1483751831054687,5.312733483886719,48.2442748091603,-118.07633587786259,-2.6717557251908395,-12.409147204589843,0.40462008056640625,4.084508032226562,41.74045801526717,31.587786259541986,-28.85496183206107,0.0
12.220000505447388,-14.669273571777342,2.674323254394531,4.936843823242187,45.541984732824424,-132.35114503816794,6.305343511450381,-10.220846887207031,2.9975404785156248,0.86191259765625,46.82442748091603,31.6793893129771,-12.16793893129771,0.0
12.230000495910645,-14.417882397460936,0.5099649536132812,5.578489868164062,42.18320610687023,-147.32824427480915,12.564885496183207,-7.613561279296874,3.890577697753906,-3.1411925781249996,56.74809160305343,31.053435114503817,-7.511450381679389,0.0
12.24000072479248,-14.800954663085937,-0.7278373046875,5.437231970214843,36.54961832061068,-159.89312977099237,14.748091603053435,-7.0102224609374995,3.584119885253906,-2.39420166015625,23.389312977099237,26.53435114503817,-2.2900763358778624,0.0
12.250000476837158,-15.045163232421874,-1.407790576171875,4.666299035644531,26.366412213740457,-170.7175572519084,14.061068702290076,-7.9846625366210935,1.2761094848632812,-1.8315642700195311,7.923664122137405,34.396946564885496,0.6564885496183206,0.0
12.260000944137573,-14.693215588378905,-2.6336218261718747,3.2417490478515623,16.83969465648855,-178.9618320610687,12.213740458015268,-9.536105212402344,-1.6711527587890624,-1.7286135986328124,4.8396946564885495,41.847328244274806,1.3129770992366412,0.0
12.270000696182251,-14.176068029785155,-3.2537200561523436,2.480392919921875,17.603053435114504,-182.27480916030535,10.0,-9.904812268066406,-1.5849614990234373,-1.01514150390625,5.648854961832061,42.534351145038165,-0.10687022900763359,0.0
12.280000686645508,-13.175291735839844,-3.6272155151367187,0.7134720947265625,23.51145038167939,-178.87022900763358,8.229007633587786,-10.488997473144531,-2.2074539306640624,-0.842758984375,4.091603053435114,50.29007633587786,0.6106870229007634,0.0
12.290000677108765,-12.136208215332031,-2.971204260253906,-0.5363011718749999,31.419847328244273,-171.40458015267177,7.190839694656488,-10.611101757812499,-2.834734765625,-1.1252747802734375,15.954198473282442,52.412213740458014,2.4580152671755724,0.0
12.3000009059906,-10.51533369140625,-2.31758720703125,-1.5921441040039062,44.93129770992366,-156.24427480916032,6.717557251908397,-10.319009155273436,-1.0342951171875,-0.5817910034179687,20.595419847328245,53.16030534351145,0.5038167938931297,0.0
12.310000658035278,-9.775525378417969,-1.4604630126953124,-2.6431986328124997,55.221374045801525,-139.17557251908397,4.870229007633588,-8.951920007324219,0.622492431640625,-0.49320554199218747,1.465648854961832,54.83969465648855,-2.122137404580153,0.0
12.320000886917114,-9.428366137695312,0.296881005859375,-3.0262708984374997,53.14503816793893,-121.55725190839695,1.1145038167938932,-9.49300958251953,-1.4820108276367188,-0.46686932373046874,-12.458015267175572,57.31297709923664,2.2290076335877864,0.0
12.330000400543213,-8.978256225585938,0.9265560424804687,-2.683900061035156,42.0,-106.01526717557252,0.015267175572519083,-8.765172277832031,-0.44053310546874996,-0.5051765502929687,-15.236641221374045,53.25190839694657,2.4885496183206106,0.0
12.340000629425049,-8.418013037109375,1.4149731811523436,-1.915361328125,33.12977099236641,-85.19083969465649,-1.618320610687023,-9.440337145996093,-1.2282254516601563,0.0383072265625,-26.885496183206108,58.16793893129771,5.694656488549619,0.0
12.350000858306885,-8.683769421386717,1.707065783691406,-0.6871358764648438,16.748091603053435,-72.62595419847328,-2.3206106870229006,-9.639055883789062,-2.8467057739257813,-0.07422025146484375,-22.12213740458015,53.64885496183206,7.358778625954199,0.0
12.360000848770142,-6.89530078125,0.22266075439453123,-0.35673604736328124,9.404580152671755,-57.06870229007634,-2.33587786259542,-8.736441857910156,-1.9297265380859374,-0.01915361328125,-18.99236641221374,49.7557251908397,4.977099236641221,0.0
12.370000839233398,-6.785167504882812,1.2018892333984375,0.47884033203125,1.83206106870229,-45.49618320610687,-4.977099236641221,-9.399635717773437,-1.898601916503906,0.3447650390625,-21.633587786259543,50.80916030534351,5.374045801526718,0.0
12.380000591278076,-7.216123803710937,1.6208745239257811,0.7900865478515624,-11.221374045801527,-40.13740458015267,-6.5038167938931295,-9.950302099609374,-2.8730419921875,0.32082302246093747,-15.251908396946565,49.66412213740458,6.702290076335878,0.0
12.39000129699707,-6.0908490234374995,0.3447650390625,0.3758896606445312,-18.229007633587788,-36.0,-4.763358778625954,-10.472238061523436,-2.4516625,0.5434837768554687,-14.473282442748092,44.36641221374046,7.099236641221374,0.0
12.400001049041748,-7.6087728759765625,1.3096283081054687,1.4221557861328125,-17.6793893129771,-24.03053435114504,-5.755725190839694,-10.149020837402343,-1.2808978881835937,0.6584054565429687,-23.52671755725191,41.64885496183206,6.427480916030534,0.0
12.410001277923584,-6.2584431396484375,1.6998831787109374,0.3016694091796875,-23.389312977099237,-22.717557251908396,-3.6946564885496183,-9.291896643066405,0.7805097412109374,0.6081272216796875,-30.47328244274809,42.732824427480914,6.33587786259542,0.0
12.420001029968262,-6.8569935546875,1.2641384765625,0.44053310546874996,-27.450381679389313,-15.709923664122137,-1.0381679389312977,-10.122684619140625,-0.584185205078125,0.8954314208984374,-49.25190839694657,46.213740458015266,10.961832061068701,0.0
12.430001020431519,-4.5322237426757805,-0.239420166015625,-0.6919242797851562,-26.610687022900763,-9.740458015267176,4.0458015267175576,-10.742782849121093,-2.2026655273437497,1.180341418457031,-44.458015267175576,44.30534351145038,14.564885496183207,0.0
12.440000534057617,-5.542576843261719,0.38307226562499996,0.1149216796875,-26.03053435114504,1.9083969465648856,3.801526717557252,-10.79545528564453,-3.2728736694335936,0.9241618408203125,-43.66412213740458,38.85496183206107,15.221374045801527,0.0
12.450001239776611,-4.951209033203125,-0.03591302490234375,-0.17477672119140625,-20.366412213740457,11.526717557251908,4.580152671755725,-10.448296044921875,-2.9855694702148434,1.6136919189453125,-38.93129770992366,33.52671755725191,13.83206106870229,0.0
12.46000075340271,-6.342240197753906,1.5155296508789062,0.8212111694335937,-28.3206106870229,18.53435114503817,3.053435114503817,-9.849745629882811,-1.7022773803710936,0.7541735229492187,-30.47328244274809,30.625954198473284,9.755725190839694,0.0
12.470000982284546,-6.37815322265625,1.3718775512695311,1.0295067138671874,-31.14503816793893,24.458015267175572,4.717557251908397,-10.314220751953124,-2.1930887207031247,1.1731588134765625,-38.732824427480914,28.595419847328245,9.022900763358779,0.0
12.480000734329224,-6.7085530517578125,1.4820108276367188,1.4891934326171874,-38.25954198473283,27.755725190839694,5.877862595419847,-10.453084448242187,-2.9664158569335934,0.8978256225585937,-31.572519083969464,27.31297709923664,7.694656488549619,0.0
12.490000486373901,-6.6319385986328125,0.8954314208984374,1.6543933471679686,-42.458015267175576,30.564885496183205,6.564885496183206,-11.188104357910156,-4.548983154296875,0.6703764648437499,-23.206106870229007,20.53435114503817,7.603053435114504,0.0
12.500000476837158,-6.5960255737304685,0.201112939453125,2.3726538452148436,-41.43511450381679,33.603053435114504,6.656488549618321,-10.031704956054687,-2.3415292236328122,0.44053310546874996,-23.435114503816795,13.755725190839694,5.770992366412214,0.0
12.510000944137573,-7.426813549804687,0.6105214233398437,3.679887951660156,-31.954198473282442,39.9236641221374,4.442748091603053,-10.062829577636718,-2.133233679199219,0.3758896606445312,-27.633587786259543,11.267175572519085,5.435114503816794,0.0
12.520000696182251,-8.350975390624999,0.7398083129882812,4.972756848144531,-31.786259541984734,40.80916030534351,3.0229007633587788,-10.067617980957031,-1.6615759521484375,0.7541735229492187,-24.427480916030536,9.664122137404581,7.083969465648855,0.0
12.530000686645508,-9.440337145996093,1.3239935180664062,6.143521459960938,-35.41984732824427,39.16030534351145,3.0229007633587788,-10.702081420898438,-3.7038299682617186,1.429338391113281,-29.14503816793893,6.564885496183206,10.51908396946565,0.0
12.540000915527344,-9.658209497070311,1.2785036865234374,7.0269818725585935,-35.55725190839695,35.49618320610687,5.1603053435114505,-10.644620581054687,-3.2225954345703123,0.25139117431640623,-14.732824427480915,0.12213740458015267,10.641221374045802,0.0
12.550000429153442,-9.471461767578125,1.6639701538085936,7.637503295898437,-28.12213740458015,34.13740458015267,7.511450381679389,-10.256759912109374,-2.4205378784179685,1.37906015625,-10.65648854961832,-3.3587786259541983,9.84732824427481,0.0
12.560001134872437,-7.967903124999999,0.20829554443359374,6.648698010253906,-22.85496183206107,27.69465648854962,12.458015267175572,-9.323021264648437,-2.6288334228515624,-0.05746083984375,5.022900763358779,-5.557251908396947,8.900763358778626,0.0
12.570000648498535,-8.319850769042969,1.7932570434570312,7.060500695800781,-9.755725190839694,31.389312977099237,14.870229007633588,-9.892841259765625,-1.0462661254882812,0.1292868896484375,-6.748091603053435,-7.786259541984733,9.145038167938932,0.0
12.580000877380371,-7.994239343261718,2.6479870361328124,6.763619689941406,-4.5038167938931295,30.47328244274809,18.641221374045802,-9.296685046386719,0.6105214233398437,-0.38786066894531246,-12.091603053435115,-4.320610687022901,6.99236641221374,0.0
12.590000629425049,-8.942343200683593,4.302380383300781,6.842628344726562,-15.86259541984733,26.564885496183205,21.709923664122137,-8.901641772460938,1.7573440185546874,-0.39743747558593745,-24.015267175572518,1.5877862595419847,7.923664122137405,0.0
12.600000619888306,-8.468291271972657,3.9743747558593747,5.8610056640625,-26.625954198473284,22.68702290076336,27.19083969465649,-9.710881933593749,0.32561142578124996,-0.00239420166015625,-37.64885496183206,9.450381679389313,11.404580152671755,0.0
12.61000108718872,-6.9168485961914055,2.128445275878906,4.000710974121094,-28.717557251908396,24.106870229007633,33.603053435114504,-9.969455712890625,-1.455674609375,0.20829554443359374,-40.229007633587784,10.198473282442748,13.709923664122137,0.0
12.620001077651978,-5.97592734375,2.1308394775390624,2.568978381347656,-26.763358778625953,32.62595419847328,35.66412213740458,-9.698910925292969,-1.5538368774414062,0.13646949462890623,-38.85496183206107,9.786259541984732,12.931297709923664,0.0
12.630001306533813,-5.501875415039062,2.9855694702148434,1.3742717529296875,-35.00763358778626,39.41984732824427,35.64885496183206,-10.019733947753906,-2.741360900878906,1.0486603271484374,-35.37404580152672,8.82442748091603,13.374045801526718,0.0
12.640001058578491,-5.394136340332031,2.5067291381835934,-0.4955997436523437,-47.25190839694657,48.47328244274809,36.38167938931298,-9.756371765136718,-2.418143676757812,1.180341418457031,-34.74809160305343,6.2748091603053435,12.198473282442748,0.0
12.650001049041748,-3.9336733276367184,1.0199299072265624,-2.446874096679687,-51.45038167938932,61.9236641221374,37.64885496183206,-9.962273107910155,-2.1906945190429687,1.6927005737304686,-32.51908396946565,5.0534351145038165,11.84732824427481,0.0
12.660000801086426,-5.566518859863281,-0.09576806640624999,-1.5753846923828123,-54.56488549618321,75.46564885496183,35.786259541984734,-10.32379755859375,-2.4444798950195312,2.250549560546875,-33.12977099236641,1.3587786259541985,12.778625954198473,0.0
12.670001029968262,-10.16338604736328,-1.886630908203125,1.70467158203125,-51.954198473282446,84.99236641221374,35.6793893129771,-11.566388220214844,-3.0119056884765625,2.8227637573242186,-29.83206106870229,-3.3740458015267176,14.50381679389313,0.0
12.68000054359436,-15.23909356689453,-2.664746447753906,4.972756848144531,-39.14503816793893,94.09160305343511,41.343511450381676,-12.212822668457031,-3.2632968627929686,3.181894006347656,-29.389312977099237,-10.625954198473282,15.83206106870229,0.0
12.690000772476196,-19.366697229003904,-0.3495534423828125,8.556876733398436,-26.458015267175572,96.76335877862596,44.16793893129771,-12.753912243652342,-2.9568390502929685,3.593696691894531,-28.65648854961832,-23.6793893129771,16.198473282442748,0.0
12.700000762939453,-20.453664782714842,1.668758557128906,9.447519750976562,-45.083969465648856,82.04580152671755,35.20610687022901,-11.437101330566406,-1.678335363769531,3.873818286132812,-31.52671755725191,-34.97709923664122,15.435114503816793,0.0
12.71000075340271,-19.361908825683592,1.848323681640625,6.224924316406249,-69.92366412213741,61.847328244274806,20.3206106870229,-10.254365710449218,-0.9744400756835937,4.192247106933594,-37.17557251908397,-44.33587786259542,13.84732824427481,0.0
12.720000505447388,-13.134590307617186,-2.4133552734375,-0.09337386474609374,-62.33587786259542,47.587786259541986,14.992366412213741,-9.402029919433593,-1.5442600708007812,4.627991809082031,-40.916030534351144,-52.62595419847328,10.977099236641221,0.0
12.730000495910645,-9.667786303710937,-3.897760302734375,-0.6871358764648438,-54.213740458015266,47.725190839694655,5.145038167938932,-9.540893615722656,-1.0031704956054688,4.199429711914062,-36.13740458015267,-58.091603053435115,5.7251908396946565,0.0
12.740000486373901,-7.41244833984375,-3.744531396484375,-0.4908113403320312,-35.7557251908397,52.50381679389313,-3.7251908396946565,-10.27830772705078,-0.7613561279296874,4.6447512207031245,-40.54961832061068,-69.69465648854961,2.4732824427480917,0.0
12.750000476837158,-6.136338854980468,-1.8028338500976562,-1.158793603515625,-12.931297709923664,55.51145038167939,-6.015267175572519,-11.130643518066405,0.7038952880859375,3.5338416503906247,-36.030534351145036,-78.65648854961832,-0.21374045801526717,0.0
12.760000944137573,-6.287173559570312,1.3838485595703125,-1.0869675537109373,1.4045801526717556,61.3587786259542,-4.687022900763359,-11.444283935546874,1.649604943847656,2.4061726684570313,-43.969465648854964,-83.48091603053435,-2.33587786259542,0.0
12.77000093460083,-7.237671618652343,3.488351818847656,-1.3838485595703125,0.5038167938931297,62.6412213740458,-0.916030534351145,-13.17050333251953,1.2569558715820313,1.1420341918945311,-42.13740458015267,-84.35114503816794,1.1297709923664123,0.0
12.780000686645508,-8.051700183105469,4.197035510253906,-0.39264907226562495,-6.931297709923665,63.954198473282446,4.427480916030534,-13.060370056152342,2.6144682128906247,-0.3806780639648437,-38.06106870229008,-84.45801526717557,1.465648854961832,0.0
12.790000915527344,-8.099584216308592,2.6958710693359373,0.0383072265625,-13.511450381679388,62.16793893129771,9.511450381679388,-13.378798876953125,2.5067291381835934,-0.9983820922851562,-46.99236641221374,-81.16030534351145,3.969465648854962,0.0
12.8000009059906,-8.846575134277343,1.5083470458984374,0.5961562133789062,-12.442748091603054,64.44274809160305,10.641221374045802,-12.677297790527343,2.147598889160156,-0.9624690673828125,-52.412213740458014,-72.12213740458016,7.587786259541985,0.0
12.810000896453857,-9.07163009033203,0.46208092041015625,0.8020575561523438,-13.221374045801527,62.67175572519084,7.251908396946565,-11.880028637695311,0.04548983154296875,-4.3454760131835934,-72.10687022900764,-64.94656488549619,9.374045801526718,0.0
12.820000886917114,-9.739612353515625,0.2825157958984375,1.0558429321289062,-8.870229007633588,61.57251908396947,2.595419847328244,-11.389217297363281,-0.4381389038085937,-1.5586252807617187,-55.11450381679389,-62.82442748091603,11.618320610687023,0.0
12.830000877380371,-8.743624462890624,-2.5378537597656248,-0.08858546142578125,5.358778625954199,58.10687022900763,0.9007633587786259,-9.236830004882812,-1.1252747802734375,-1.8363526733398436,-46.778625954198475,-54.732824427480914,8.625954198473282,0.0
12.840000629425049,-9.229647399902344,-2.0374656127929685,0.51714755859375,32.12213740458015,65.49618320610686,-2.3206106870229006,-8.228871105957031,-2.094926452636719,-1.9991583862304687,-40.50381679389313,-49.29770992366412,5.038167938931298,0.0
12.850000619888306,-9.083601098632812,-0.3447650390625,0.9169792358398436,43.847328244274806,66.62595419847328,-4.961832061068702,-7.953537915039062,-2.9089550170898435,-1.3239935180664062,-29.129770992366414,-42.2442748091603,0.8396946564885496,0.0
12.860000610351562,-10.359710583496094,2.231395947265625,1.2425906616210938,47.6793893129771,66.12213740458016,-5.129770992366412,-7.252036828613281,-3.1651345947265623,-2.365471240234375,-11.053435114503817,-34.35114503816794,-3.8473282442748094,0.0
12.870000839233398,-10.340556970214843,3.0597897216796874,0.699106884765625,42.87022900763359,62.717557251908396,-3.2519083969465647,-7.6087728759765625,-2.959233251953125,-1.66636435546875,1.7557251908396947,-30.229007633587788,-1.7404580152671756,0.0
12.880000829696655,-10.20169327392578,3.284844677734375,1.0917559570312498,33.12977099236641,57.57251908396947,-2.015267175572519,-8.02536396484375,-3.1411925781249996,-0.9696516723632812,21.709923664122137,-25.72519083969466,-2.2748091603053435,0.0
12.890000581741333,-10.192116467285155,2.8802245971679685,0.5793968017578125,24.198473282442748,51.16030534351145,-2.045801526717557,-8.020575561523437,-2.2744915771484373,0.5985504150390625,29.068702290076335,-28.366412213740457,-0.5648854961832062,0.0
12.90000057220459,-10.568006127929687,2.901772412109375,1.6998831787109374,19.984732824427482,46.29007633587786,-3.2061068702290076,-8.604760766601562,-2.039859814453125,0.49799394531249996,42.717557251908396,-29.770992366412212,-4.641221374045801,0.0
12.910001039505005,-10.110713610839843,2.1739351074218747,0.8906430175781249,18.549618320610687,40.0,-3.2519083969465647,-9.191340173339842,-1.9776105712890624,0.7302315063476562,54.01526717557252,-27.64885496183206,-7.816793893129771,0.0
12.920000553131104,-10.24718310546875,2.7174188842773437,1.1228805786132812,17.740458015267176,35.19083969465649,-3.312977099236641,-8.695740429687499,-0.7350199096679687,0.30885201416015623,58.48854961832061,-27.587786259541986,-12.931297709923664,0.0
12.93000078201294,-10.785878479003905,3.6559459350585937,1.5418658691406248,14.458015267175572,30.717557251908396,-2.4732824427480917,-9.79946739501953,-0.5698199951171875,1.0726023437499999,52.67175572519084,-24.717557251908396,-12.595419847328245,0.0
12.940000534057617,-10.8409451171875,2.645592834472656,1.3742717529296875,9.770992366412214,25.83206106870229,-0.916030534351145,-9.414000927734374,-0.105344873046875,1.0366893188476562,55.74045801526717,-20.27480916030534,-13.633587786259541,0.0
12.950001001358032,-11.549628808593749,3.9360675292968748,1.889025109863281,4.183206106870229,22.549618320610687,-0.9312977099236641,-9.9215716796875,-0.41419688720703124,1.8076222534179687,53.083969465648856,-19.00763358778626,-11.419847328244275,0.0
12.96000051498413,-10.067617980957031,1.9704279663085937,1.1013327636718748,-3.068702290076336,12.030534351145038,1.5114503816793894,-9.34696328125,0.055066638183593745,1.3431471313476562,63.43511450381679,-18.30534351145038,-12.213740458015268,0.0
12.970000743865967,-9.464279162597656,0.8499415893554687,0.9457096557617187,0.9770992366412213,8.80916030534351,3.4198473282442747,-10.742782849121093,-0.4860229370117187,3.124433166503906,60.12213740458015,-21.480916030534353,-9.816793893129772,0.0
12.980000495910645,-9.430760339355468,0.928950244140625,1.149216796875,5.129770992366412,7.557251908396947,3.0381679389312977,-9.667786303710937,-0.17238251953125,2.5617957763671875,63.43511450381679,-24.38167938931298,-11.267175572519085,0.0
12.990000486373901,-10.51533369140625,1.6400281372070311,1.5586252807617187,6.9465648854961835,6.396946564885496,1.9389312977099236,-10.149020837402343,0.16759411621093748,2.7461493041992187,59.465648854961835,-26.641221374045802,-12.076335877862595,0.0
13.000000476837158,-9.9981861328125,1.599326708984375,1.446097802734375,12.122137404580153,4.687022900763359,3.0839694656488548,-8.971073620605468,1.7429788085937499,2.4947581298828125,52.36641221374046,-26.396946564885496,-12.381679389312977,0.0
13.010000944137573,-10.412383020019531,2.0638018310546875,1.4173673828125,13.801526717557252,2.7786259541984735,4.442748091603053,-8.51617530517578,1.7166425903320313,1.9847931762695312,35.6793893129771,-22.65648854961832,-10.83969465648855,0.0
13.02000117301941,-10.599130749511717,2.2002713256835937,1.5131354492187499,11.19083969465649,-0.13740458015267176,5.4961832061068705,-9.011775048828124,1.2042834350585936,2.0254946044921875,34.595419847328245,-19.96946564885496,-8.061068702290076,0.0
13.030000686645508,-10.486603271484375,2.212242333984375,1.838746875,7.938931297709924,-3.572519083969466,5.740458015267175,-10.024522351074218,-0.0718260498046875,2.27927998046875,33.32824427480916,-21.328244274809162,-5.8320610687022905,0.0
13.040001153945923,-9.74200655517578,1.0342951171875,1.3934253662109375,14.458015267175572,-4.580152671755725,6.717557251908397,-10.259154113769531,-0.603338818359375,3.0310593017578125,30.3206106870229,-26.580152671755727,-5.465648854961832,0.0
13.0500009059906,-9.751583361816406,1.0678139404296874,1.1156979736328125,20.16793893129771,-5.0534351145038165,6.3816793893129775,-10.886434948730468,-0.9935936889648437,2.559401574707031,30.213740458015266,-30.85496183206107,-6.702290076335878,0.0
13.060001134872437,-9.375693701171874,0.9624690673828125,0.7302315063476562,27.14503816793893,-5.404580152671755,5.358778625954199,-10.867281335449219,-0.5913678100585937,2.29843359375,31.435114503816795,-33.38931297709924,-7.679389312977099,0.0
13.070000648498535,-9.878476049804688,2.863465185546875,1.024718310546875,28.427480916030536,-4.8396946564885495,3.5267175572519083,-9.95987890625,0.20350714111328125,2.1021090576171875,28.091603053435115,-33.70992366412214,-10.15267175572519,0.0
13.080000877380371,-9.507374792480467,3.1747114013671873,0.5386953735351562,17.51145038167939,-12.335877862595419,4.641221374045801,-9.588777648925781,0.9504980590820312,1.2785036865234374,18.793893129770993,-30.717557251908396,-10.381679389312977,0.0
13.090000629425049,-9.8449572265625,4.173093493652344,1.0462661254882812,8.625954198473282,-13.32824427480916,4.870229007633588,-8.8489693359375,1.5705962890624998,1.2952630981445312,18.99236641221374,-24.03053435114504,-8.763358778625955,0.0
13.100000619888306,-9.253589416503905,2.73896669921875,0.5770026000976562,1.6030534351145038,-18.061068702290076,7.66412213740458,-10.235212097167969,-0.5291185668945312,1.9033903198242186,8.381679389312977,-22.65648854961832,-4.870229007633588,0.0
13.110000610351562,-9.900023864746093,1.5729904907226562,0.7805097412109374,4.656488549618321,-14.65648854961832,8.381679389312977,-10.402806213378906,-0.7948749511718749,2.5570073730468748,3.145038167938931,-24.12213740458015,-3.5419847328244276,0.0
13.12000060081482,-8.652644799804687,0.08858546142578125,-0.2753331909179687,14.091603053435115,-12.83969465648855,9.49618320610687,-10.75714805908203,-2.0159177978515626,2.4396914916992185,8.030534351145038,-24.137404580152673,-3.572519083969466,0.0
13.130001306533813,-9.129090930175781,0.7924807495117187,0.023942016601562498,23.96946564885496,-5.00763358778626,6.412213740458015,-8.839392529296875,-0.9864110839843749,2.003946789550781,20.458015267175572,-24.778625954198475,-7.358778625954199,0.0
13.140001773834229,-9.449913952636718,1.6424223388671875,0.354341845703125,22.045801526717558,-2.6259541984732824,2.900763358778626,-9.217676391601563,-0.49320554199218747,2.360682836914062,20.106870229007633,-25.053435114503817,-7.572519083969466,0.0
13.150001287460327,-9.610325463867188,2.2098481323242187,0.5363011718749999,17.099236641221374,-1.4961832061068703,0.9618320610687023,-9.629479077148437,-0.7541735229492187,1.7094599853515624,18.778625954198475,-23.022900763358777,-8.51908396946565,0.0
13.160000562667847,-9.648632690429688,2.4971523315429685,0.603338818359375,10.717557251908397,-1.9541984732824427,0.8702290076335878,-9.133879333496093,-0.20829554443359374,1.6903063720703124,10.931297709923664,-22.259541984732824,-8.244274809160306,0.0
13.17000126838684,-9.5001921875,2.2026655273437497,0.4525041137695312,7.847328244274809,-1.450381679389313,1.6946564885496183,-8.212111694335936,1.0486603271484374,1.6041151123046875,9.893129770992367,-18.137404580152673,-8.702290076335878,0.0
13.180001020431519,-9.356540087890625,1.905784521484375,0.20829554443359374,6.549618320610687,0.15267175572519084,2.4122137404580153,-8.992621435546875,0.1771709228515625,1.848323681640625,16.53435114503817,-13.740458015267176,-7.00763358778626,0.0
13.190001487731934,-9.09796630859375,1.7405846069335937,0.10295067138671875,7.984732824427481,2.595419847328244,2.33587786259542,-9.10993731689453,-0.07900865478515624,2.1643583007812497,13.19083969465649,-12.732824427480915,-6.152671755725191,0.0
13.200001001358032,-9.797073193359374,2.7844565307617186,0.6919242797851562,4.488549618320611,4.3816793893129775,1.099236641221374,-9.239224206542968,-0.19393033447265623,2.3415292236328122,13.526717557251908,-11.86259541984733,-5.709923664122138,0.0
13.210001230239868,-9.07163009033203,1.8052280517578123,0.055066638183593745,3.7709923664122136,4.412213740458015,1.786259541984733,-8.74601866455078,0.09576806640624999,2.288856787109375,13.34351145038168,-11.16030534351145,-5.603053435114504,0.0
13.220000982284546,-9.495403784179686,2.492363928222656,0.277727392578125,-0.9923664122137404,5.358778625954199,-0.16793893129770993,-9.066841687011719,-0.09576806640624999,2.375048046875,15.83206106870229,-9.435114503816793,-4.9465648854961835,0.0
13.230000972747803,-9.734823950195311,2.176329309082031,0.33039982910156246,-5.129770992366412,4.702290076335878,-0.5190839694656488,-8.942343200683593,0.11252747802734374,2.379836450195312,14.290076335877863,-7.908396946564886,-4.580152671755725,0.0
13.24000096321106,-9.658209497070311,2.039859814453125,0.3687070556640625,-3.6793893129770994,6.442748091603053,-1.0076335877862594,-9.014169250488282,0.076614453125,2.4253262817382812,13.725190839694656,-6.9465648854961835,-4.183206106870229,0.0
13.250000476837158,-9.624690673828125,1.8698714965820311,0.3280056274414062,-3.8931297709923665,7.206106870229007,-1.3435114503816794,-9.006986645507812,0.17956512451171874,2.5234885498046875,11.923664122137405,-5.435114503816794,-3.9389312977099236,0.0
13.260000944137573,-9.471461767578125,1.8938135131835936,0.3399766357421875,-1.984732824427481,7.877862595419847,-1.5419847328244274,-9.047688073730468,0.26815058593749996,2.6479870361328124,11.770992366412214,-4.213740458015267,-3.404580152671756,0.0
13.270000696182251,-9.5001921875,1.946485949707031,0.4213794921875,-1.465648854961832,8.931297709923664,-1.9389312977099236,-8.963891015625,0.19632453613281248,2.674323254394531,10.061068702290076,-3.1603053435114505,-3.8625954198473282,0.0
13.280001640319824,-9.334992272949219,1.8746598999023436,0.41898529052734373,-0.6870229007633588,9.511450381679388,-2.50381679389313,-9.04050546875,0.21068974609375,2.7653029174804686,8.778625954198473,-2.1526717557251906,-3.816793893129771,0.0
13.290001153945923,-9.435548742675781,2.1787235107421874,0.6560112548828124,-0.6717557251908397,10.458015267175572,-3.2977099236641223,-9.188945971679686,0.033518823242187495,2.9448680419921875,8.0,-1.5725190839694656,-2.9923664122137406,0.0
13.300001382827759,-9.342174877929686,1.915361328125,0.5698199951171875,-0.3969465648854962,10.778625954198473,-3.618320610687023,-9.088389501953124,0.11252747802734374,2.925714428710937,7.221374045801527,-1.984732824427481,-3.282442748091603,0.0
13.310000896453857,-9.399635717773437,2.288856787109375,0.6512228515624999,0.15267175572519084,12.229007633587786,-4.0458015267175576,-8.74601866455078,0.6057330200195312,2.952050646972656,2.9770992366412212,-1.2366412213740459,-3.5267175572519083,0.0
13.320001125335693,-9.390058911132812,2.085349645996094,0.507570751953125,0.16793893129770993,12.0,-4.1679389312977095,-9.030928662109375,0.30885201416015623,2.9855694702148434,1.1145038167938932,0.15267175572519084,-3.7709923664122136,0.0
13.330000877380371,-9.3086560546875,1.438915197753906,0.3136404174804687,3.1297709923664123,12.83969465648855,-3.480916030534351,-9.076418493652342,-0.06943184814453125,3.0741549316406247,1.1755725190839694,0.15267175572519084,-3.4656488549618323,0.0
13.340000867843628,-9.574412438964844,1.7860744384765623,0.5770026000976562,12.229007633587786,18.610687022900763,-4.763358778625954,-8.939948999023438,-0.086191259765625,2.8993782104492185,-1.816793893129771,0.2748091603053435,-4.137404580152672,0.0
13.350000381469727,-9.698910925292969,2.592920397949219,0.7302315063476562,11.083969465648854,20.885496183206108,-6.885496183206107,-9.119514123535156,-0.36631285400390623,2.81558115234375,-3.0229007633587788,1.4351145038167938,-4.778625954198473,0.0
13.360000848770142,-9.545682019042967,2.920926025390625,0.7613561279296874,7.3893129770992365,20.47328244274809,-7.480916030534351,-9.129090930175781,-0.5267243652343749,2.741360900878906,-2.381679389312977,1.8473282442748091,-6.030534351145038,0.0
13.37000060081482,-9.169792358398437,2.147598889160156,0.44532150878906246,4.458015267175573,17.52671755725191,-6.0458015267175576,-9.052476477050782,-0.6200982299804687,2.5905261962890624,-2.045801526717557,1.8473282442748091,-7.297709923664122,0.0
13.380000591278076,-9.062053283691405,1.4772224243164063,0.02154781494140625,2.1068702290076335,16.061068702290076,-5.633587786259542,-8.99501563720703,-0.7302315063476562,2.540247961425781,-0.6259541984732825,2.7938931297709924,-7.984732824427481,0.0
13.39000153541565,-10.070012182617187,2.3582886352539063,0.49799394531249996,-0.16793893129770993,16.610687022900763,-7.312977099236641,-9.03332286376953,-0.7158662963867187,2.403778466796875,0.732824427480916,3.9083969465648853,-7.603053435114504,0.0
13.400001049041748,-10.16338604736328,2.4013842651367185,0.7589619262695312,3.786259541984733,19.068702290076335,-7.419847328244275,-9.035717065429687,-0.689530078125,2.281674182128906,2.6564885496183206,4.99236641221374,-8.381679389312977,0.0
13.410001039505005,-9.33978067626953,2.0446482177734375,0.3687070556640625,4.061068702290076,17.389312977099237,-7.068702290076335,-9.210493786621093,-0.6272808349609375,2.4301146850585935,4.534351145038168,6.106870229007634,-8.625954198473282,0.0
13.420000553131104,-9.916783276367187,3.0454245117187497,0.9026140258789062,-6.366412213740458,13.679389312977099,-7.435114503816794,-9.169792358398437,-0.5602431884765625,2.4013842651367185,6.0458015267175576,6.809160305343512,-8.717557251908397,0.0
13.430001258850098,-9.86411083984375,2.147598889160156,0.8978256225585937,-4.259541984732825,12.51908396946565,-5.068702290076335,-8.923189587402343,-0.6296750366210937,2.3056161987304686,6.152671755725191,7.648854961832061,-9.007633587786259,0.0
13.440001010894775,-9.605537060546874,1.8746598999023436,0.5482721801757812,-0.015267175572519083,12.65648854961832,-3.2061068702290076,-8.851363537597656,-0.6464344482421874,2.061407629394531,6.0458015267175576,9.221374045801527,-9.068702290076336,0.0
13.450000762939453,-9.65342109375,1.9033903198242186,0.411802685546875,2.198473282442748,13.297709923664122,-3.1908396946564888,-8.786720092773438,-0.5003881469726562,1.8938135131835936,7.312977099236641,11.34351145038168,-9.129770992366412,0.0
13.460000991821289,-9.68454571533203,1.8363526733398436,0.33518823242187495,2.351145038167939,13.618320610687023,-3.2519083969465647,-8.698134631347656,-0.3758896606445312,1.8148048583984373,7.9541984732824424,13.526717557251908,-9.19083969465649,0.0
13.470000743865967,-9.713276135253906,1.6256629272460936,0.5530605834960938,1.3893129770992367,12.091603053435115,-4.809160305343512,-8.63109698486328,-0.05985504150390625,1.6448165405273436,7.374045801526718,16.65648854961832,-9.48091603053435,0.0
13.480000734329224,-9.892841259765625,1.5251064575195312,0.8906430175781249,2.33587786259542,10.763358778625955,-5.6183206106870225,-8.465897070312499,0.07422025146484375,1.446097802734375,4.99236641221374,19.938931297709924,-9.633587786259541,0.0
13.49000072479248,-9.792284790039062,1.4987702392578124,1.1109095703125,3.9236641221374047,9.34351145038168,-6.885496183206107,-8.734047656249999,-0.4740519287109375,1.35990654296875,3.877862595419847,24.564885496183205,-8.793893129770993,0.0
13.500000476837158,-9.797073193359374,1.458068811035156,1.419761584472656,6.793893129770993,7.709923664122138,-8.076335877862595,-9.495403784179686,-0.8116343627929687,1.235408056640625,-0.44274809160305345,27.709923664122137,-8.213740458015268,0.0
13.510000705718994,-9.938331091308592,1.6065093139648436,1.4987702392578124,8.885496183206106,5.557251908396947,-9.572519083969466,-8.418013037109375,-0.12449848632812499,0.9576806640625,5.7251908396946565,31.435114503816795,-8.900763358778626,0.0
13.520000696182251,-9.809044201660155,1.0199299072265624,1.35990654296875,13.664122137404581,3.2977099236641223,-10.290076335877863,-8.552088330078124,0.3136404174804687,1.3838485595703125,5.236641221374046,33.969465648854964,-8.778625954198473,0.0
13.530000686645508,-9.97903251953125,1.455674609375,2.0374656127929685,18.061068702290076,1.7251908396946565,-11.755725190839694,-8.82263311767578,-0.24899697265624998,1.905784521484375,-8.580152671755725,38.0,-7.755725190839694,0.0
13.540000915527344,-10.110713610839843,1.3766659545898436,2.4349030883789062,20.458015267175572,-1.6946564885496183,-12.931297709923664,-8.597578161621094,0.22744915771484372,1.707065783691406,-6.519083969465649,41.9236641221374,-7.435114503816794,0.0
13.550000667572021,-10.295067138671874,1.7764976318359373,3.1316157714843746,21.954198473282442,-4.793893129770993,-14.549618320610687,-8.1594392578125,0.11731588134765625,0.9121908325195311,-6.5038167938931295,47.74045801526717,-7.893129770992366,0.0
13.560000896453857,-10.235212097167969,1.9488801513671874,3.4739866088867184,22.106870229007633,-11.17557251908397,-15.312977099236642,-7.843404638671874,0.45010991210937495,1.0773907470703123,-12.900763358778626,50.412213740458014,-7.099236641221374,0.0
13.570000648498535,-11.575965026855467,3.5529952636718747,4.587290380859375,13.114503816793894,-20.30534351145038,-17.69465648854962,-7.493851196289062,1.0007762939453124,0.22266075439453123,-21.770992366412212,57.64885496183206,-7.419847328244275,0.0
13.58000111579895,-10.666168395996094,3.1316157714843746,4.453215087890625,8.488549618320612,-32.717557251908396,-15.618320610687023,-9.251195214843749,-0.7924807495117187,0.277727392578125,-26.763358778625953,65.32824427480917,-5.557251908396947,0.0
13.590000629425049,-11.104307299804686,2.940079638671875,4.908113403320312,5.206106870229007,-42.88549618320611,-14.320610687022901,-8.78432589111328,-1.6017209106445311,2.01112939453125,-30.106870229007633,68.80916030534351,-6.6106870229007635,0.0
13.600000619888306,-11.142614526367186,2.5450363647460934,5.449202978515625,5.175572519083969,-54.80916030534351,-13.83206106870229,-9.981426721191406,-1.6232687255859375,1.6232687255859375,-26.366412213740457,67.6793893129771,-6.427480916030534,0.0
13.610000610351562,-10.884040747070312,2.767697119140625,5.6407391113281244,7.8320610687022905,-66.53435114503817,-13.374045801526718,-12.08592998046875,-3.6272155151367187,3.1316157714843746,-14.259541984732824,62.50381679389313,-3.83206106870229,0.0
13.62000060081482,-10.73799444580078,2.0661960327148434,5.315127685546875,9.221374045801527,-79.77099236641222,-12.763358778625955,-14.058752148437499,-3.517082238769531,4.809951135253906,10.793893129770993,54.87022900763359,-5.9541984732824424,0.0
13.630000591278076,-10.809820495605468,1.9800047729492187,5.293579870605469,20.396946564885496,-90.01526717557252,-11.450381679389313,-14.398728784179687,-2.1619640991210938,5.645527514648437,23.419847328244273,40.916030534351144,-11.129770992366412,0.0
13.640000581741333,-10.85291612548828,2.806004345703125,5.540182641601562,20.580152671755727,-103.2824427480916,-10.061068702290076,-15.634136840820311,-3.5338416503906247,5.983109948730468,27.51145038167939,27.282442748091604,-12.687022900763358,0.0
13.65000033378601,-11.49216796875,2.499546533203125,5.465962390136719,19.34351145038168,-117.05343511450381,-6.885496183206107,-13.005303417968749,-1.714248388671875,5.487510205078125,48.88549618320611,22.732824427480917,-13.954198473282442,0.0
13.660000801086426,-11.578359228515625,2.5043349365234375,4.762067102050781,23.297709923664122,-129.87786259541986,-3.0229007633587788,-9.765948571777344,0.21308394775390624,2.185906115722656,29.435114503816795,26.442748091603054,-11.694656488549619,0.0
13.670000791549683,-13.160926525878905,2.379836450195312,4.735730883789063,21.557251908396946,-142.04580152671755,0.21374045801526717,-9.351751684570312,-0.06464344482421874,2.674323254394531,17.068702290076335,25.83206106870229,-8.16793893129771,0.0
13.68000078201294,-13.960589880371092,1.0462661254882812,4.896142395019531,17.862595419847327,-154.3206106870229,2.045801526717557,-8.576030346679687,0.8188169677734375,0.45968671875,51.02290076335878,19.206106870229007,-4.030534351145038,0.0
13.690000772476196,-15.2845833984375,-0.9241618408203125,5.082890124511718,15.938931297709924,-165.86259541984734,0.2900763358778626,-8.195352282714843,0.15562310791015624,-0.38307226562499996,36.030534351145036,17.022900763358777,-5.908396946564886,0.0
13.700000762939453,-16.366762548828124,-1.5083470458984374,4.340687609863281,17.129770992366414,-174.6412213740458,-2.9770992366412212,-7.982268334960937,0.17956512451171874,-0.4429273071289062,17.786259541984734,18.18320610687023,-8.274809160305344,0.0
13.710000991821289,-15.91665263671875,-0.97683427734375,4.192247106933594,19.31297709923664,-179.3740458015267,-4.305343511450381,-8.52335791015625,0.201112939453125,-0.4908113403320312,6.8396946564885495,22.732824427480917,-10.259541984732824,0.0
13.720000743865967,-15.310919616699218,-1.2665326782226562,3.019088293457031,26.778625954198475,-180.0763358778626,-2.183206106870229,-9.414000927734374,-0.19871873779296872,-0.13168109130859373,-8.717557251908397,29.022900763358777,-7.801526717557252,0.0
13.730000257492065,-13.881581225585936,-1.8243816650390623,1.7788918334960937,31.480916030534353,-178.36641221374046,1.9694656488549618,-10.053252770996092,-1.6400281372070311,0.00718260498046875,-1.7251908396946565,31.755725190839694,-3.5877862595419847,0.0
13.740000486373901,-11.822567797851562,-2.6815058593749996,0.5195417602539062,39.69465648854962,-171.49618320610688,5.694656488549619,-10.307038146972655,-1.946485949707031,-0.430956298828125,5.145038167938932,30.83969465648855,-1.9389312977099236,0.0
13.750000953674316,-9.967061511230469,-2.389413256835937,-1.7357962036132812,54.19847328244275,-160.18320610687022,7.847328244274809,-9.651026892089844,-0.9816226806640624,-0.9217676391601562,5.679389312977099,27.923664122137403,-2.7786259541984735,0.0
13.760000944137573,-8.734047656249999,-1.5251064575195312,-2.5474305664062498,60.54961832061068,-145.54198473282443,7.190839694656488,-10.369287390136718,-0.4572925170898437,-0.9600748657226562,-1.3587786259541985,32.13740458015267,-0.183206106870229,0.0
13.77000117301941,-7.513004809570312,-0.3280056274414062,-3.0023288818359375,55.52671755725191,-132.54961832061068,2.549618320610687,-10.409988818359375,-1.4006079711914061,-0.5482721801757812,-8.229007633587786,36.091603053435115,3.312977099236641,0.0
13.780001163482666,-7.587225061035156,0.3711012573242187,-2.999934680175781,46.900763358778626,-116.47328244274809,-2.8396946564885495,-10.019733947753906,-2.6575638427734374,-0.201112939453125,-2.7938931297709924,37.64885496183206,5.847328244274809,0.0
13.790000677108765,-7.134720947265625,0.12689268798828124,-2.31758720703125,41.29770992366412,-98.0,-5.740458015267175,-9.107543115234375,-2.4684219116210935,-1.0295067138671874,-0.732824427480916,33.98473282442748,4.091603053435114,0.0
13.8000009059906,-7.4579381713867186,0.46208092041015625,-1.3527239379882812,42.68702290076336,-78.18320610687023,-8.15267175572519,-8.765172277832031,-1.687912170410156,-1.0271125122070313,-8.595419847328245,37.267175572519086,3.6030534351145036,0.0
13.810000896453857,-7.501033801269531,1.3431471313476562,-0.9169792358398436,36.36641221374046,-62.99236641221374,-9.206106870229007,-9.131485131835937,-1.3862427612304686,-1.2976572998046874,-16.229007633587788,41.11450381679389,4.564885496183206,0.0
13.820000886917114,-7.144297753906249,1.7884686401367187,-0.00718260498046875,27.81679389312977,-45.847328244274806,-8.366412213740459,-8.992621435546875,-2.597708801269531,-0.4908113403320312,-19.450381679389313,45.603053435114504,6.091603053435114,0.0
13.830000638961792,-7.9104422851562495,1.4125789794921875,0.25139117431640623,16.27480916030534,-33.786259541984734,-6.625954198473282,-9.330203869628905,-3.2609026611328122,0.1388636962890625,-12.488549618320612,42.97709923664122,6.702290076335878,0.0
13.840000629425049,-8.06367119140625,2.2385785522460937,0.9193734375,7.908396946564886,-20.47328244274809,-6.641221374045801,-9.37808790283203,-3.2225954345703123,0.08858546142578125,-7.038167938931298,39.49618320610687,6.229007633587786,0.0
13.850000858306885,-6.186617089843749,0.9002198242187499,-0.009576806640625,2.183206106870229,-11.572519083969466,-3.0381679389312977,-9.718064538574218,-1.8100164550781248,0.3447650390625,-3.8625954198473282,39.57251908396947,4.824427480916031,0.0
13.860000848770142,-7.225700610351562,2.829946362304687,0.718260498046875,-8.244274809160306,-2.213740458015267,-4.641221374045801,-9.4618849609375,-1.4101847778320311,0.2920926025390625,-13.251908396946565,37.603053435114504,5.526717557251908,0.0
13.87000060081482,-6.294356164550781,2.4756045166015626,0.2705447875976562,-23.236641221374047,1.9389312977099236,-2.4580152671755724,-9.018957653808593,-1.6112977172851561,1.458068811035156,-18.18320610687023,39.16030534351145,7.740458015267175,0.0
13.880000591278076,-6.392518432617187,2.389413256835937,0.2154781494140625,-38.44274809160305,7.0534351145038165,-0.9465648854961832,-9.634267480468749,-2.868253588867187,1.2114660400390624,-10.534351145038167,35.00763358778626,9.19083969465649,0.0
13.890000820159912,-5.7125651611328125,1.4963760375976562,-0.13646949462890623,-45.63358778625954,13.267175572519085,0.2595419847328244,-10.053252770996092,-2.6862942626953124,1.93451494140625,-7.877862595419847,27.236641221374047,9.801526717557252,0.0
13.900001049041748,-5.777208605957031,1.5418658691406248,-0.11731588134765625,-51.41984732824427,19.236641221374047,-0.4580152671755725,-10.371681591796875,-2.4157494750976563,1.2593500732421874,0.04580152671755725,21.17557251908397,8.030534351145038,0.0
13.910001277923584,-5.513846423339843,1.6903063720703124,0.20829554443359374,-57.541984732824424,26.702290076335878,-1.1603053435114503,-10.20887587890625,-1.1252747802734375,1.6065093139648436,-2.900763358778626,17.64885496183206,6.854961832061068,0.0
13.920000791549683,-5.849034655761718,2.147598889160156,0.3950432739257812,-61.98473282442748,33.099236641221374,-1.4809160305343512,-10.09395419921875,-0.8355763793945312,1.8938135131835936,-10.076335877862595,14.870229007633588,6.854961832061068,0.0
13.930001020431519,-6.459556079101562,2.9664158569335934,0.7541735229492187,-70.47328244274809,38.01526717557252,-0.4122137404580153,-10.302249743652343,-0.8978256225585937,2.118868469238281,-17.053435114503817,12.580152671755725,6.916030534351145,0.0
13.940001010894775,-6.818686328125,2.138022082519531,1.2497732666015624,-76.51908396946565,42.534351145038165,4.442748091603053,-9.809044201660155,-0.23223756103515625,1.4963760375976562,-24.244274809160306,8.748091603053435,5.816793893129771,0.0
13.950001001358032,-6.392518432617187,0.29927520751953124,1.8842367065429686,-63.32824427480916,54.534351145038165,10.748091603053435,-10.395623608398436,-1.4341267944335936,1.7453730102539062,-31.801526717557252,8.778625954198473,6.534351145038168,0.0
13.96000051498413,-5.896918688964844,0.3687070556640625,2.5617957763671875,-56.54961832061068,63.725190839694655,12.183206106870228,-9.737218151855469,-1.8602946899414061,1.8315642700195311,-30.396946564885496,6.6106870229007635,6.396946564885496,0.0
13.970000505447388,-6.528987927246093,0.6464344482421874,4.225765930175781,-57.083969465648856,68.04580152671755,12.488549618320612,-9.203311181640624,-1.2761094848632812,1.4820108276367188,-24.427480916030536,1.5267175572519085,4.977099236641221,0.0
13.980000734329224,-7.254431030273437,0.9193734375,6.354211206054687,-57.49618320610687,69.0381679389313,14.259541984732824,-9.363722692871093,-1.886630908203125,0.6727706665039062,-15.694656488549619,3.572519083969466,4.793893129770993,0.0
13.99000072479248,-7.180210778808593,1.62805712890625,7.343016491699219,-52.13740458015267,68.42748091603053,19.083969465648856,-10.079588989257813,-3.394977954101562,0.74699091796875,-27.72519083969466,2.198473282442748,6.290076335877862,0.0
14.000000476837158,-7.3549875,1.4508862060546874,8.616731774902343,-47.083969465648856,65.83206106870229,24.53435114503817,-9.241618408203124,-1.944091748046875,0.011971008300781249,-31.69465648854962,0.6564885496183206,5.587786259541985,0.0
14.010000944137573,-7.742848168945312,1.599326708984375,8.84178673095703,-42.030534351145036,61.770992366412216,29.31297709923664,-10.050858569335936,-2.568978381347656,0.1292868896484375,-13.816793893129772,6.3816793893129775,7.282442748091603,0.0
14.02000117301941,-7.570465649414062,-0.39264907226562495,9.394847314453125,-35.603053435114504,57.16030534351145,33.17557251908397,-10.120290417480469,-2.1715409057617188,0.4836287353515625,-9.84732824427481,5.480916030534351,8.351145038167939,0.0
14.030000448226929,-7.900865478515625,-0.5506663818359374,9.478644372558593,-23.786259541984734,54.12213740458015,31.801526717557252,-10.204087475585936,-1.7669208251953124,0.40940848388671874,-10.442748091603054,3.8473282442748094,8.931297709923664,0.0
14.040001153945923,-7.319074475097656,-1.4341267944335936,8.300697155761718,-10.580152671755725,48.732824427480914,31.633587786259543,-9.634267480468749,-0.45489831542968745,0.6775590698242188,-8.961832061068701,4.244274809160306,9.145038167938932,0.0
14.050000667572021,-6.825868933105468,-1.8507178833007811,6.782773303222656,-3.5114503816793894,45.282442748091604,28.65648854961832,-9.732429748535155,-0.8116343627929687,0.46686932373046874,-7.816793893129771,6.748091603053435,10.351145038167939,0.0
14.060001134872437,-7.225700610351562,-3.1962592163085937,5.45877978515625,-3.3893129770992365,44.213740458015266,21.87786259541985,-9.552864624023437,-0.3016694091796875,0.5674257934570313,-12.0,8.366412213740459,10.564885496183207,0.0
14.070001363754272,-7.943961108398437,-2.779668127441406,4.024652990722656,-0.10687022900763359,45.64885496183206,12.931297709923664,-10.330980163574218,-1.5322890624999999,0.9600748657226562,-16.763358778625953,9.022900763358779,13.17557251908397,0.0
14.08000111579895,-10.599130749511717,-1.3120225097656248,3.7517140014648436,5.236641221374046,47.32824427480916,8.488549618320612,-10.180145458984374,-1.8243816650390623,0.21308394775390624,-19.19083969465649,7.893129770992366,14.80916030534351,0.0
14.090001106262207,-14.391546179199217,1.1324573852539062,4.096479040527344,18.900763358778626,51.83206106870229,13.48091603053435,-10.139444030761718,-1.4245499877929686,-0.7972691528320313,-25.709923664122137,5.450381679389313,16.137404580152673,0.0
14.100000858306885,-17.7362458984375,2.7964275390625,6.294356164550781,31.251908396946565,54.88549618320611,23.541984732824428,-9.734823950195311,-1.9009961181640624,-0.469263525390625,-36.06106870229008,8.564885496183207,17.19083969465649,0.0
14.110058069229126,-18.298883288574217,4.402936853027343,7.6279264892578125,28.641221374045802,49.55725190839695,27.221374045801525,-9.404424121093749,-2.511517541503906,0.21787235107421873,-35.55725190839695,9.145038167938932,17.83206106870229,0.0
14.12000060081482,-15.485696337890625,5.118803149414062,6.217741711425781,13.083969465648854,39.55725190839695,25.17557251908397,-8.231265307617187,-2.8802245971679685,1.1947066284179686,-35.93893129770992,4.9465648854961835,16.229007633587788,0.0
14.130000829696655,-12.076353173828124,5.817910034179687,2.583343591308594,-14.442748091603054,29.358778625954198,22.198473282442748,-8.008604553222655,-2.2074539306640624,1.3311761230468748,-30.412213740458014,1.9541984732824427,15.541984732824428,0.0
14.140000820159912,-9.085995300292968,2.2266075439453124,0.36631285400390623,-32.656488549618324,23.572519083969464,22.946564885496183,-8.667010009765624,-1.7573440185546874,1.889025109863281,-29.297709923664122,-1.8625954198473282,12.580152671755725,0.0
14.150001049041748,-6.758831286621094,0.34237083740234375,-0.7924807495117187,-37.52671755725191,26.99236641221374,20.793893129770993,-9.679757312011718,-1.4125789794921875,2.310404602050781,-29.770992366412212,-7.083969465648855,12.290076335877863,0.0
14.160000801086426,-7.60398447265625,1.3862427612304686,-0.3184288208007812,-53.81679389312977,28.580152671755727,15.526717557251908,-10.038887561035155,-0.3711012573242187,1.7717092285156248,-33.11450381679389,-12.580152671755725,10.83969465648855,0.0
14.17000126838684,-6.919242797851562,0.3591302490234375,-0.8882488159179687,-57.847328244274806,28.396946564885496,20.015267175572518,-11.269507214355468,0.02154781494140625,2.291250988769531,-35.02290076335878,-19.450381679389313,12.106870229007633,0.0
14.180001020431519,-7.5153990112304685,-0.1484405029296875,-0.6200982299804687,-49.847328244274806,37.954198473282446,22.38167938931298,-12.322955944824217,0.8930372192382812,2.559401574707031,-40.916030534351144,-27.572519083969464,14.320610687022901,0.0
14.190001010894775,-9.009380847167968,1.608903515625,-0.13168109130859373,-46.82442748091603,45.32824427480916,20.396946564885496,-11.645396875,1.7741034301757812,1.4508862060546874,-57.02290076335878,-35.17557251908397,15.893129770992367,0.0
14.200000762939453,-9.749189160156249,1.3383587280273437,0.13407529296874998,-52.93129770992366,47.19083969465649,19.66412213740458,-12.411541406249999,0.7948749511718749,1.3168109130859373,-57.541984732824424,-37.87786259541985,19.083969465648856,0.0
14.210001230239868,-9.823409411621093,0.4836287353515625,0.6584054565429687,-47.12977099236641,51.954198473282446,18.290076335877863,-12.828132495117186,0.699106884765625,1.120486376953125,-62.47328244274809,-46.33587786259542,20.18320610687023,0.0
14.220000743865967,-10.505756884765624,1.4820108276367188,1.1540052001953125,-44.83969465648855,54.152671755725194,12.366412213740459,-11.736376538085937,1.3670891479492187,0.4860229370117187,-59.37404580152672,-50.6412213740458,16.244274809160306,0.0
14.230000495910645,-9.188945971679686,0.3711012573242187,1.0606313354492187,-41.06870229007634,49.969465648854964,11.358778625954198,-11.616666455078125,1.66636435546875,0.04548983154296875,-55.64885496183206,-51.954198473282446,13.083969465648854,0.0
14.240144968032837,-9.404424121093749,0.3232172241210937,1.1085153686523437,-27.374045801526716,53.17557251908397,9.16030534351145,-11.927912670898436,0.7302315063476562,-0.15562310791015624,-62.458015267175576,-54.396946564885496,11.526717557251908,0.0
14.250000715255737,-9.95987890625,2.233790148925781,1.0007762939453124,-23.740458015267176,51.29770992366412,6.213740458015267,-12.054805358886718,-0.02154781494140625,0.07900865478515624,-61.587786259541986,-56.229007633587784,10.381679389312977,0.0
14.260000944137573,-9.272743029785156,1.1659762084960936,-0.507570751953125,-18.83969465648855,46.61068702290076,8.412213740458014,-11.480196960449218,-0.009576806640625,-0.055066638183593745,-53.23664122137404,-57.847328244274806,9.129770992366412,0.0
14.270000696182251,-9.04050546875,1.1516109985351561,0.1292868896484375,-6.748091603053435,49.343511450381676,9.099236641221374,-10.848127722167968,-0.36631285400390623,0.0383072265625,-50.88549618320611,-61.37404580152672,7.709923664122138,0.0
14.280001163482666,-9.93354268798828,2.978386865234375,0.9050082275390624,-5.908396946564886,50.51908396946565,7.511450381679389,-12.20085166015625,-0.5578489868164063,0.7948749511718749,-45.587786259541986,-59.80152671755725,8.534351145038167,0.0
14.2900972366333,-8.413224633789062,1.3766659545898436,-0.2059013427734375,-4.061068702290076,46.30534351145038,10.030534351145038,-10.409988818359375,-0.4381389038085937,-0.15322890625,-45.41984732824427,-59.404580152671755,4.625954198473282,0.0
14.30000114440918,-9.677363110351562,1.3742717529296875,0.2561795776367187,4.030534351145038,51.00763358778626,9.007633587786259,-10.292672937011718,-1.3718775512695311,-0.229843359375,-37.45038167938932,-53.55725190839695,3.6793893129770994,0.0
14.310000896453857,-9.380482104492186,1.4532804077148436,0.5746083984375,5.145038167938932,50.70229007633588,6.961832061068702,-10.156203442382813,-0.5817910034179687,-0.7326257080078125,-27.740458015267176,-53.63358778625954,-0.061068702290076333,0.0
14.320001363754272,-9.447519750976562,1.5562310791015623,0.15322890625,12.030534351145038,51.83206106870229,4.656488549618321,-9.967061511230469,-0.19153613281249998,-0.11731588134765625,-31.984732824427482,-50.48854961832061,-3.312977099236641,0.0
14.33000111579895,-9.394847314453125,1.8171990600585937,0.24181436767578124,11.16030534351145,50.58015267175573,3.267175572519084,-10.838550915527343,-0.35194764404296874,0.6296750366210937,-29.251908396946565,-42.29007633587786,-2.50381679389313,0.0
14.340000867843628,-9.885658654785155,2.3487118286132813,0.201112939453125,7.9541984732824424,48.93129770992366,1.0687022900763359,-10.83376251220703,-1.20667763671875,0.7733271362304687,-19.022900763358777,-38.50381679389313,-2.9160305343511452,0.0
14.350000858306885,-9.74200655517578,2.2002713256835937,0.09576806640624999,6.717557251908397,46.213740458015266,0.9770992366412213,-10.740388647460938,-1.4820108276367188,1.39821376953125,-7.969465648854962,-41.51145038167939,-3.8473282442748094,0.0
14.360000848770142,-10.405200415039062,2.061407629394531,0.7398083129882812,6.3816793893129775,44.35114503816794,0.32061068702290074,-10.599130749511717,-1.2282254516601563,1.1156979736328125,1.4351145038167938,-42.916030534351144,-6.900763358778626,0.0
14.37000036239624,-10.216058483886718,3.373430139160156,1.5107412475585937,2.9160305343511452,42.0,-1.0229007633587786,-10.235212097167969,-0.9433154541015625,1.467645617675781,7.526717557251908,-40.42748091603053,-8.946564885496183,0.0
14.380000829696655,-10.465055456542968,2.7748797241210936,0.9528922607421875,-7.816793893129771,34.54961832061068,-0.5801526717557252,-9.04050546875,-0.11252747802734374,0.047884033203124995,13.816793893129772,-39.63358778625954,-12.67175572519084,0.0
14.390000820159912,-10.05564697265625,2.3367408203125,1.3096283081054687,-8.65648854961832,31.770992366412212,-0.030534351145038167,-8.91840118408203,0.14604630126953125,0.8858546142578124,8.045801526717558,-35.038167938931295,-12.748091603053435,0.0
14.40011477470398,-9.639055883789062,1.5059528442382812,0.3854664672851562,-10.702290076335878,25.6793893129771,2.2290076335877864,-8.17859287109375,-0.2442085693359375,0.46686932373046874,6.0,-31.31297709923664,-12.732824427480915,0.0
14.410001277923584,-11.195286962890624,1.9656395629882812,1.0438719238281249,-12.610687022900763,26.16793893129771,0.5954198473282443,-9.023746057128905,-0.6703764648437499,1.1228805786132812,17.908396946564885,-28.931297709923665,-11.541984732824428,0.0
14.420000553131104,-10.503362683105468,1.4915876342773438,1.0749965454101562,-9.083969465648854,23.557251908396946,0.8854961832061069,-9.200916979980468,-1.3623007446289062,1.6711527587890624,25.068702290076335,-30.106870229007633,-11.816793893129772,0.0
14.43000078201294,-9.560047229003906,0.8858546142578124,0.622492431640625,-8.83969465648855,19.603053435114504,1.5572519083969465,-8.540117321777343,-0.469263525390625,1.5442600708007812,31.374045801526716,-32.85496183206107,-12.793893129770993,0.0
14.440000772476196,-9.313444458007812,0.7709329345703124,0.6607996582031249,-7.419847328244275,17.69465648854962,1.1297709923664123,-8.020575561523437,0.08140285644531249,0.7876923461914062,29.129770992366414,-33.41984732824427,-14.763358778625955,0.0
14.450000762939453,-10.635043774414061,2.9376854370117185,1.8818425048828125,-13.267175572519085,16.442748091603054,-1.83206106870229,-8.32463917236328,0.7326257080078125,0.9935936889648437,23.022900763358777,-30.0,-14.488549618320612,0.0
14.46000051498413,-10.299855541992187,1.8267758666992187,1.1133037719726562,-15.099236641221374,12.50381679389313,-0.2748091603053435,-8.585607153320312,0.5578489868164063,1.2378022583007813,14.595419847328245,-27.83206106870229,-12.82442748091603,0.0
14.470000743865967,-9.655815295410155,1.5610194824218748,1.0199299072265624,-11.419847328244275,11.007633587786259,1.5877862595419847,-9.976638317871092,-0.6919242797851562,1.8507178833007811,10.931297709923664,-24.580152671755727,-9.038167938931299,0.0
14.480000734329224,-9.390058911132812,1.637633935546875,0.7829039428710937,-7.6183206106870225,10.381679389312977,1.83206106870229,-9.313444458007812,0.16519991455078123,1.0917559570312498,17.099236641221374,-25.083969465648856,-10.396946564885496,0.0
14.490000486373901,-9.26316622314453,1.6041151123046875,0.8188169677734375,-3.0229007633587788,10.625954198473282,1.4198473282442747,-10.031704956054687,-0.6464344482421874,1.6543933471679686,22.15267175572519,-25.740458015267176,-9.725190839694656,0.0
14.500000953674316,-8.966285217285156,0.4381389038085937,0.16041151123046873,3.633587786259542,10.366412213740459,1.5877862595419847,-9.7683427734375,-0.3184288208007812,1.66636435546875,25.954198473282442,-29.450381679389313,-12.122137404580153,0.0
14.510000705718994,-10.27830772705078,2.9376854370117185,1.3239935180664062,4.763358778625954,13.282442748091603,-2.3206106870229006,-9.483432775878907,0.16759411621093748,1.7693150268554687,20.16793893129771,-31.862595419847327,-13.282442748091603,0.0
14.520001411437988,-9.516951599121093,2.308010400390625,0.7900865478515624,4.519083969465649,10.763358778625955,-1.6641221374045803,-9.804255798339844,0.6296750366210937,1.7190367919921874,14.01526717557252,-28.85496183206107,-12.961832061068701,0.0
14.530001163482666,-10.175357055664062,3.0550013183593747,0.8858546142578124,0.16793893129770993,9.969465648854962,-1.6793893129770991,-9.375693701171874,-0.1197100830078125,1.8004396484374998,8.854961832061068,-23.954198473282442,-10.259541984732824,0.0
14.540001153945923,-9.909600671386718,2.281674182128906,0.5410895751953124,0.4580152671755725,9.664122137404581,0.15267175572519084,-9.76116016845703,-0.02633621826171875,2.1643583007812497,15.34351145038168,-26.564885496183205,-8.427480916030534,0.0
14.5500009059906,-9.682151513671874,1.9680337646484374,0.40940848388671874,0.8091603053435115,9.648854961832061,0.3816793893129771,-9.744400756835937,0.05746083984375,2.365471240234375,21.053435114503817,-28.641221374045802,-8.320610687022901,0.0
14.560001134872437,-9.464279162597656,1.6998831787109374,0.316034619140625,2.8702290076335877,9.954198473282442,0.6106870229007634,-9.859322436523437,0.076614453125,2.7581203125,24.091603053435115,-29.282442748091604,-9.664122137404581,0.0
14.570001125335693,-9.816226806640625,1.8602946899414061,0.4070142822265625,2.7938931297709924,10.80916030534351,-0.5190839694656488,-9.792284790039062,0.16041151123046873,2.224213342285156,18.3206106870229,-31.068702290076335,-10.01526717557252,0.0
14.580000877380371,-9.734823950195311,2.0183119995117185,0.2920926025390625,4.106870229007634,11.923664122137405,-0.9007633587786259,-9.33978067626953,1.4125789794921875,2.511517541503906,12.625954198473282,-29.770992366412212,-10.335877862595419,0.0
14.59000039100647,-9.746794958496093,2.2170307373046874,0.2753331909179687,2.0916030534351147,12.183206106870228,-1.1908396946564885,-10.007762939453125,-0.2561795776367187,2.6958710693359373,5.740458015267175,-25.52671755725191,-7.648854961832061,0.0
14.600000858306885,-10.091559997558592,2.7054478759765623,0.4381389038085937,-3.312977099236641,12.16793893129771,-1.1755725190839694,-9.548076220703125,-0.7015010864257812,2.4109610717773435,8.610687022900763,-26.732824427480917,-6.458015267175573,0.0
14.610000610351562,-9.662997900390625,2.061407629394531,0.22266075439453123,-4.2748091603053435,12.366412213740459,-0.6717557251908397,-10.180145458984374,-0.23702596435546874,3.3638533325195312,14.183206106870228,-30.458015267175572,-5.190839694656488,0.0
14.620000839233398,-9.332598071289063,1.6735469604492186,-0.076614453125,-3.816793893129771,12.351145038167939,-0.4122137404580153,-9.82580361328125,-0.0718260498046875,2.808398547363281,17.022900763358777,-32.35114503816794,-7.175572519083969,0.0
14.630000829696655,-9.507374792480467,1.9776105712890624,-0.19393033447265623,-3.7709923664122136,13.450381679389313,-1.633587786259542,-8.844180932617187,0.5578489868164063,2.530671154785156,13.32824427480916,-30.519083969465647,-8.595419847328245,0.0
14.640000820159912,-9.572018237304688,2.27927998046875,-0.05985504150390625,-4.931297709923665,14.442748091603054,-1.4809160305343512,-9.476250170898437,0.07900865478515624,2.346317626953125,5.648854961832061,-27.419847328244273,-7.297709923664122,0.0
14.65000057220459,-9.440337145996093,1.7525556152343749,-0.3016694091796875,-5.358778625954199,15.129770992366412,-0.04580152671755725,-8.8489693359375,-0.19393033447265623,2.858676782226562,4.229007633587786,-24.15267175572519,-4.885496183206107,0.0
14.660000562667847,-9.83777462158203,2.50912333984375,0.5123591552734374,-5.4961832061068705,17.603053435114504,-0.5648854961832062,-9.370905297851563,-0.9624690673828125,2.896984008789062,8.13740458015267,-25.81679389312977,-2.946564885496183,0.0
14.670001029968262,-9.567229833984374,2.2361843505859373,0.3711012573242187,-7.801526717557252,17.435114503816795,0.030534351145038167,-8.892064965820312,-1.1180921752929687,2.7054478759765623,15.526717557251908,-27.893129770992367,-3.8473282442748094,0.0
14.68000078201294,-9.612719665527344,1.618480322265625,0.4213794921875,-10.488549618320612,14.641221374045802,-0.2748091603053435,-8.741230261230468,-0.296881005859375,2.9975404785156248,14.458015267175572,-29.49618320610687,-5.679389312977099,0.0
14.690001010894775,-9.651026892089844,1.3359645263671873,0.55545478515625,-8.244274809160306,14.15267175572519,-1.0229007633587786,-8.097190014648437,-0.06943184814453125,2.6623522460937497,8.335877862595419,-27.450381679389313,-6.9465648854961835,0.0
14.700000762939453,-9.64623848876953,1.2808978881835937,0.5434837768554687,-5.511450381679389,14.427480916030534,-1.282442748091603,-7.979874133300781,0.13168109130859373,3.1196447631835937,-4.183206106870229,-24.12213740458015,-5.877862595419847,0.0
14.710001230239868,-9.823409411621093,1.3287819213867187,0.6153098266601562,-5.465648854961832,12.931297709923664,-2.030534351145038,-8.432378247070313,-0.6248866333007812,2.6815058593749996,6.091603053435114,-20.396946564885496,-5.358778625954199,0.0
14.720000743865967,-9.651026892089844,0.9026140258789062,0.3854664672851562,-1.297709923664122,12.15267175572519,-2.427480916030534,-8.796296899414061,-0.7613561279296874,2.798821740722656,8.778625954198473,-21.81679389312977,-5.694656488549619,0.0
14.730000972747803,-9.251195214843749,0.6775590698242188,0.49320554199218747,12.900763358778626,15.954198473282442,-3.480916030534351,-9.13627353515625,-1.7334020019531249,2.7940333374023436,7.755725190839694,-22.106870229007633,-6.351145038167939,0.0
14.74000096321106,-9.725247143554688,0.8906430175781249,0.5195417602539062,20.793893129770993,18.50381679389313,-5.938931297709924,-8.705317236328124,-1.5011644409179687,2.461239306640625,16.53435114503817,-20.931297709923665,-9.068702290076336,0.0
14.750000476837158,-9.636661682128906,1.3958195678710936,0.16041151123046873,23.633587786259543,16.870229007633586,-6.458015267175573,-9.619902270507811,-1.8626888916015625,2.8203695556640622,19.480916030534353,-21.221374045801525,-9.358778625954198,0.0
14.760000467300415,-9.325415466308593,2.3870190551757813,0.4285620971679687,25.358778625954198,16.870229007633586,-7.175572519083969,-8.384494213867187,-1.1444283935546875,2.0278888061523435,27.49618320610687,-20.625954198473284,-12.01526717557252,0.0
14.770000696182251,-9.847351428222655,2.5378537597656248,0.7398083129882812,25.022900763358777,17.206106870229007,-7.251908396946565,-9.526528405761718,-1.0869675537109373,2.5234885498046875,25.801526717557252,-20.580152671755727,-10.916030534351146,0.0
14.780001401901245,-9.564835632324218,2.9759926635742184,0.9241618408203125,25.083969465648856,16.137404580152673,-6.931297709923665,-7.800309008789062,0.5434837768554687,2.1499930908203124,22.99236641221374,-17.251908396946565,-12.290076335877863,0.0
