timestamp,Thigh_L_Acc_X,Thigh_L_Acc_Y,Thigh_L_Acc_Z,Thigh_L_Gyr_X,Thigh_L_Gyr_Y,Thigh_L_Gyr_Z,Thigh_R_Acc_X,Thigh_R_Acc_Y,Thigh_R_Acc_Z,Thigh_R_Gyr_X,Thigh_R_Gyr_Y,Thigh_R_Gyr_Z,gpio_output
10.000000476837158,-5.6574985229492185,9.89523546142578,6.677428430175781,75.29770992366412,14.916030534351146,13.633587786259541,-12.804190478515624,-3.3710359375,2.932897033691406,98.74809160305344,35.29770992366412,21.450381679389313,0.0
10.010000705718994,-7.292738256835937,10.565611926269531,6.505045910644531,19.34351145038168,-1.0381679389312977,20.564885496183205,-8.09479581298828,2.4492682983398435,-0.35673604736328124,98.94656488549619,11.358778625954198,8.0,1.0
10.020000696182251,-3.0358477050781247,6.1842228881835934,2.583343591308594,8.061068702290076,4.763358778625954,34.93129770992366,-14.781801049804686,-5.966350537109375,5.104437939453125,43.74045801526717,14.16793893129771,19.862595419847327,1.0
10.030000686645508,-4.187458703613281,5.492298608398437,-0.411802685546875,-12.80916030534351,15.740458015267176,37.267175572519086,-8.59278975830078,-3.2609026611328122,-2.403778466796875,56.47328244274809,-17.49618320610687,9.618320610687023,1.0
10.040000677108765,6.284779357910156,-10.618284362792968,-5.990292553710937,-3.282442748091603,18.82442748091603,47.52671755725191,-13.898340637207031,-5.274426257324219,0.4572925170898437,30.702290076335878,-8.702290076335878,6.106870229007634,1.0
10.050000667572021,1.6639701538085936,-12.907141149902342,-0.17477672119140625,91.70992366412214,94.13740458015268,44.35114503816794,-11.389217297363281,-1.0175357055664063,1.438915197753906,50.3206106870229,-24.641221374045802,-1.3129770992366412,1.0
10.0600004196167,1.4820108276367188,-16.558298681640625,3.718195178222656,168.50381679389312,120.6412213740458,38.13740458015267,-15.356409448242186,-1.4915876342773438,4.266467358398438,11.297709923664122,-21.19083969465649,-2.549618320610687,1.0
10.070001125335693,-7.338228088378906,-3.687070556640625,7.151480358886718,245.70992366412213,173.84732824427482,32.47328244274809,-10.996568225097656,2.540247961425781,-0.19393033447265623,5.297709923664122,-14.51908396946565,-3.801526717557252,1.0
10.08000111579895,-4.395754248046875,-3.5577836669921874,-0.2059013427734375,223.0381679389313,165.74045801526717,12.335877862595419,-11.030087048339842,2.849099975585937,-1.0127473022460938,-34.045801526717554,-8.992366412213741,2.381679389312977,1.0
10.090000867843628,-17.221492541503906,10.666168395996094,2.6958710693359373,221.25190839694656,192.0916030534351,4.854961832061068,-12.241553088378906,2.8107927490234372,-0.181959326171875,-53.70992366412214,0.32061068702290074,13.557251908396946,1.0
10.100001096725464,-13.374010473632811,-0.4165910888671875,5.286397265624999,174.3206106870229,146.9618320610687,19.557251908396946,-12.8329208984375,1.8770541015625,0.5410895751953124,-75.83206106870229,4.793893129770993,20.50381679389313,1.0
10.110000848770142,-20.317195288085937,5.023035083007812,6.351817004394531,171.12977099236642,184.67175572519085,12.290076335877863,-11.710040319824218,1.3335703247070312,0.47644613037109373,-89.0381679389313,3.66412213740458,21.267175572519083,1.0
10.120000839233398,-18.777723620605467,15.5144267578125,3.1459809814453124,64.82442748091603,150.15267175572518,-21.87786259541985,-12.289437121582031,-0.49320554199218747,0.9935936889648437,-93.89312977099236,3.0076335877862594,18.412213740458014,1.0
10.130001068115234,-14.896722729492186,12.636596362304687,-0.40940848388671874,-19.236641221374047,96.56488549618321,-31.022900763358777,-12.176909643554687,-1.4939818359375,0.967257470703125,-101.93893129770993,-7.297709923664122,16.33587786259542,1.0
10.140000581741333,-11.7603185546875,8.243236315917969,1.2952630981445312,-77.29770992366412,66.27480916030534,-27.022900763358777,-12.057199560546874,-0.8858546142578124,-0.09337386474609374,-113.64885496183206,-16.35114503816794,12.122137404580153,1.0
10.150000810623169,-7.522581616210937,3.1100679565429687,0.7230489013671875,-103.40458015267176,48.44274809160305,-20.549618320610687,-14.121001391601562,-3.4165257690429685,-1.0749965454101562,-85.25190839694656,-30.15267175572519,10.442748091603054,1.0
10.160000801086426,-6.524199523925781,-2.3367408203125,-0.22505495605468748,-99.34351145038168,41.98473282442748,-14.854961832061068,-15.64131944580078,-2.877830395507812,-1.3407529296874998,-71.1145038167939,-48.48854961832061,20.610687022900763,1.0
10.170000791549683,-8.997409838867187,-2.4516625,0.047884033203124995,-82.62595419847328,51.00763358778626,-11.557251908396946,-14.571111303710937,-1.7645266235351562,-2.27927998046875,-44.25954198473283,-60.85496183206107,17.61832061068702,1.0
10.180001020431519,-9.038111267089842,-3.327940307617187,0.023942016601562498,-57.00763358778626,62.16793893129771,-8.610687022900763,-15.421052893066406,-3.411737365722656,-0.7876923461914062,-29.16030534351145,-72.22900763358778,20.870229007633586,1.0
10.190001010894775,-10.884040747070312,-4.122815258789062,0.35194764404296874,-31.206106870229007,71.95419847328245,-8.564885496183207,-13.335703247070311,-2.023100402832031,-0.6607996582031249,-0.7786259541984732,-81.48091603053435,18.061068702290076,1.0
10.200001001358032,-11.58075343017578,1.0797849487304687,1.9608511596679685,-8.396946564885496,84.73282442748092,-16.12213740458015,-13.63019005126953,-2.4516625,0.6177040283203125,-3.9083969465648853,-84.0,13.877862595419847,1.0
10.210000991821289,-11.247959399414063,1.4963760375976562,1.886630908203125,-11.236641221374045,79.46564885496183,-20.03053435114504,-12.370839978027343,-1.6232687255859375,0.17238251953125,14.732824427480915,-82.76335877862596,12.717557251908397,0.0
10.220000743865967,-10.168174450683592,0.6009446166992187,0.8810662109374999,-2.4122137404580153,76.8854961832061,-20.549618320610687,-11.568782421875,-1.9201497314453124,0.05985504150390625,11.801526717557252,-83.43511450381679,8.396946564885496,0.0
10.230000972747803,-10.556035119628906,2.636016027832031,1.3120225097656248,-5.587786259541985,74.58015267175573,-23.480916030534353,-11.56159981689453,-3.296815686035156,0.7038952880859375,20.732824427480917,-84.18320610687023,5.66412213740458,0.0
10.24000096321106,-9.552864624023437,0.9026140258789062,1.0534487304687499,3.801526717557252,66.42748091603053,-21.251908396946565,-10.424354028320312,-2.877830395507812,1.0558429321289062,50.58015267175573,-84.82442748091603,3.099236641221374,0.0
10.250000953674316,-9.481038574218749,1.6136919189453125,1.2282254516601563,22.015267175572518,73.26717557251908,-20.778625954198475,-10.09395419921875,-1.8267758666992187,0.7852981445312499,47.86259541984733,-98.12213740458016,3.969465648854962,0.0
10.260000705718994,-9.696516723632811,2.1356278808593747,1.3718775512695311,11.603053435114504,66.01526717557252,-22.366412213740457,-10.59194814453125,-1.1947066284179686,1.37906015625,65.90839694656489,-101.05343511450381,0.12213740458015267,0.0
10.27000093460083,-9.251195214843749,0.8475473876953125,0.040701428222656245,16.793893129770993,62.58015267175573,-21.51145038167939,-10.536881506347656,-0.3495534423828125,1.2737152832031249,68.53435114503817,-101.86259541984732,-3.267175572519084,0.0
10.280000925064087,-12.840103503417968,7.206546997070312,2.8036101440429686,2.7786259541984735,67.58778625954199,-29.52671755725191,-9.543287817382812,1.7166425903320313,-0.469263525390625,63.48091603053435,-104.87022900763358,-7.816793893129771,0.0
10.290001153945923,-9.497797985839844,4.3071687866210935,0.5722141967773438,-30.38167938931298,47.70992366412214,-29.00763358778626,-10.101136804199218,2.7365724975585937,-0.5386953735351562,57.14503816793893,-103.90839694656489,-11.038167938931299,0.0
10.30000114440918,-13.690045092773437,5.652710119628906,1.6400281372070311,-51.541984732824424,41.69465648854962,-32.778625954198475,-10.062829577636718,2.1739351074218747,0.5913678100585937,35.49618320610687,-97.55725190839695,-7.587786259541985,0.0
10.310000658035278,-8.336610180664062,-0.26336218261718747,0.4429273071289062,-34.18320610687023,41.00763358778626,-26.27480916030534,-8.851363537597656,3.162740393066406,-0.7685387329101562,32.56488549618321,-98.29007633587786,-10.900763358778626,0.0
10.320001125335693,-13.99410870361328,9.904812268066406,4.819527941894531,-45.038167938931295,49.43511450381679,-35.69465648854962,-12.236764685058594,0.19153613281249998,-0.3591302490234375,30.442748091603054,-94.30534351145039,-6.595419847328245,0.0
10.330000638961792,-8.724470849609375,2.6958710693359373,-0.8738836059570312,-73.29770992366412,22.30534351145038,-27.893129770992367,-11.429918725585937,1.7645266235351562,-1.0031704956054688,30.85496183206107,-98.30534351145039,-9.099236641221374,0.0
10.340000867843628,-17.113753466796872,12.981361401367186,4.438849877929687,-88.3206106870229,29.068702290076335,-35.343511450381676,-10.558429321289061,0.5386953735351562,-1.0606313354492187,15.145038167938932,-97.40458015267176,-9.267175572519085,0.0
10.350000619888306,-9.464279162597656,5.05655390625,-0.35194764404296874,-137.84732824427482,-4.534351145038168,-29.236641221374047,-10.608707556152343,2.9831752685546875,-2.039859814453125,20.412213740458014,-95.8473282442748,-13.938931297709924,0.0
10.360000848770142,-7.003039855957031,-2.492363928222656,0.023942016601562498,-110.30534351145039,-5.038167938931298,-15.34351145038168,-9.986215124511718,2.5641899780273434,-0.2561795776367187,2.4732824427480917,-91.58778625954199,-11.297709923664122,0.0
10.37000060081482,-11.176133349609374,-0.18435352783203124,1.0079588989257813,-71.55725190839695,17.297709923664122,-13.648854961832061,-11.654973681640625,0.00239420166015625,0.7134720947265625,1.4045801526717556,-92.10687022900764,-8.030534351145038,0.0
10.380000591278076,-13.757082739257811,5.236119030761718,3.306392492675781,-74.27480916030534,16.48854961832061,-19.14503816793893,-12.97178459472656,-0.296881005859375,0.8738836059570312,21.31297709923664,-91.95419847328245,-8.335877862595419,0.0
10.390000820159912,-11.075576879882812,2.5546131713867184,0.737414111328125,-81.58778625954199,5.282442748091603,-14.061068702290076,-11.118672509765624,0.5602431884765625,1.7118541870117185,17.587786259541986,-96.74809160305344,-12.80916030534351,0.0
10.40000057220459,-12.358868969726561,2.7940333374023436,1.917755529785156,-72.68702290076335,12.992366412213741,-11.618320610687023,-11.621454858398437,-0.7445967163085937,1.8124106567382812,10.564885496183207,-95.00763358778626,-12.687022900763358,0.0
10.410000562667847,-9.8449572265625,0.5291185668945312,1.1731588134765625,-74.06106870229007,10.076335877862595,-11.618320610687023,-11.348515869140625,-0.29927520751953124,2.1906945190429687,19.297709923664122,-90.27480916030534,-14.198473282442748,0.0
10.420000553131104,-11.571176623535155,2.1452046874999997,2.8562825805664063,-57.17557251908397,21.954198473282442,-14.992366412213741,-10.658985791015624,0.0047884033203125,2.6671406494140624,15.236641221374045,-92.38167938931298,-15.236641221374045,0.0
10.430000305175781,-9.737218151855469,0.7517793212890624,1.5897499023437498,-55.45038167938932,18.18320610687023,-14.717557251908397,-9.756371765136718,-0.4261678955078125,2.4947581298828125,13.358778625954198,-90.70229007633588,-17.72519083969466,0.0
10.440000534057617,-11.226411584472656,2.511517541503906,2.844311572265625,-42.85496183206107,28.3206106870229,-16.900763358778626,-10.168174450683592,-0.9911994873046874,2.806004345703125,9.17557251908397,-89.38931297709924,-16.229007633587788,0.0
10.450000762939453,-9.397241516113281,1.9943699829101562,1.5514426757812498,-45.32824427480916,26.03053435114504,-16.290076335877863,-9.05965908203125,0.9361328491210937,1.7980454467773437,19.49618320610687,-88.56488549618321,-19.099236641221374,0.0
10.46000051498413,-9.696516723632811,2.300827795410156,1.9321207397460936,-34.18320610687023,32.2442748091603,-15.633587786259541,-9.057264880371093,-0.2609679809570312,1.8914193115234375,17.31297709923664,-88.27480916030534,-18.946564885496183,0.0
10.470000743865967,-9.540893615722656,2.0925322509765625,1.93451494140625,-33.16030534351145,34.44274809160305,-15.374045801526718,-8.614337573242187,1.0127473022460938,2.7198130859375,18.80916030534351,-87.2824427480916,-19.374045801526716,0.0
10.480000495910645,-9.593566052246093,3.1411925781249996,2.1643583007812497,-28.137404580152673,39.038167938931295,-15.725190839694656,-10.417171423339843,-1.5753846923828123,2.5163059448242184,8.290076335877863,-84.38167938931298,-19.083969465648856,0.0
10.49000072479248,-9.018957653808593,2.528276953125,1.9488801513671874,-29.114503816793892,40.35114503816794,-13.86259541984733,-9.555258825683593,0.6727706665039062,3.2920272827148436,16.748091603053435,-82.33587786259542,-21.83206106870229,0.0
10.500000476837158,-6.806715319824218,0.411802685546875,1.0366893188476562,-19.893129770992367,42.36641221374046,-11.603053435114504,-9.014169250488282,0.6272808349609375,4.036623999023437,16.50381679389313,-81.22137404580153,-22.35114503816794,0.0
10.510000705718994,-8.468291271972657,2.4564509033203126,2.2673089721679687,-15.954198473282442,51.083969465648856,-17.709923664122137,-8.760383874511719,0.07422025146484375,4.762067102050781,7.6183206106870225,-80.04580152671755,-21.358778625954198,0.0
10.520000696182251,-7.390900524902343,1.6232687255859375,1.2928688964843749,-15.801526717557252,50.19847328244275,-17.389312977099237,-7.972691528320312,1.2737152832031249,3.9743747558593747,19.450381679389313,-71.31297709923665,-22.717557251908396,0.0
10.530000686645508,-9.330203869628905,4.7381250854492185,1.956062756347656,-19.282442748091604,51.3587786259542,-20.53435114503817,-8.188169677734374,0.7278373046875,4.867411975097656,-8.687022900763358,-72.21374045801527,-19.297709923664122,0.0
10.540000677108765,-9.138667736816405,3.9360675292968748,1.6615759521484375,-32.50381679389313,46.74809160305343,-16.68702290076336,-7.419630944824219,2.4516625,4.637568615722656,10.045801526717558,-67.1145038167939,-19.450381679389313,0.0
10.550000667572021,-7.785943798828124,1.3287819213867187,1.2330138549804688,-19.297709923664122,52.10687022900763,-11.48091603053435,-7.1203557373046875,1.3838485595703125,4.666299035644531,-20.916030534351144,-66.7175572519084,-16.977099236641223,0.0
10.560000658035278,-8.28633194580078,1.5682020874023437,1.6998831787109374,-12.351145038167939,58.412213740458014,-13.587786259541986,-8.585607153320312,1.3407529296874998,4.778826513671874,-7.312977099236641,-61.908396946564885,-13.404580152671755,0.0
10.570000648498535,-8.413224633789062,1.8555062866210936,1.4532804077148436,-9.312977099236642,60.396946564885496,-13.603053435114504,-6.418854650878906,1.89620771484375,4.07971962890625,-22.27480916030534,-60.961832061068705,-14.961832061068701,0.0
10.58000111579895,-8.927977990722656,2.0733786376953125,1.3910311645507811,-6.8396946564885495,62.88549618320611,-12.702290076335878,-6.030993981933594,2.252943762207031,4.158728283691406,-29.61832061068702,-54.10687022900763,-14.564885496183207,0.0
10.590000867843628,-9.227253198242186,2.059013427734375,2.1835119140624997,-9.053435114503817,64.12213740458016,-11.19083969465649,-6.713341455078124,0.8930372192382812,4.264073156738281,-42.152671755725194,-47.954198473282446,-11.389312977099237,0.0
10.600001096725464,-9.928754284667969,2.7269956909179687,2.224213342285156,-14.793893129770993,64.07633587786259,-11.954198473282442,-6.663063220214843,0.07422025146484375,3.9312791259765625,-29.114503816793892,-48.36641221374046,-10.717557251908397,0.0
10.610000610351562,-9.852139831542969,1.695094775390625,1.8195932617187498,-19.374045801526716,59.725190839694655,-10.82442748091603,-7.697358337402343,-1.7621324218749999,4.8123453369140625,-21.16030534351145,-51.343511450381676,-10.076335877862595,0.0
10.62000060081482,-9.79946739501953,0.30406361083984373,1.7310078002929687,-14.183206106870228,57.48091603053435,-9.526717557251908,-7.659051110839843,-1.3718775512695311,4.589684582519531,-20.27480916030534,-50.01526717557252,-10.946564885496183,0.0
10.630000829696655,-9.935936889648437,0.36631285400390623,2.1356278808593747,-7.740458015267175,56.94656488549618,-10.549618320610687,-6.809109521484374,-0.7685387329101562,4.0222587890625,-27.14503816793893,-49.87786259541985,-14.51908396946565,0.0
10.640000581741333,-10.972626208496093,1.7717092285156248,2.9281086303710935,-11.068702290076336,53.61832061068702,-13.099236641221374,-5.248090039062499,-0.0430956298828125,3.4931402221679684,-32.732824427480914,-42.19847328244275,-19.297709923664122,0.0
10.65000057220459,-10.747571252441405,1.4963760375976562,3.0550013183593747,-14.82442748091603,48.778625954198475,-12.16793893129771,-6.0884548217773435,-2.2481553588867187,3.8570588745117185,-37.587786259541986,-33.221374045801525,-18.458015267175572,0.0
10.660000801086426,-10.520122094726561,1.0582371337890624,3.0047230834960934,-11.954198473282442,46.30534351145038,-11.633587786259541,-7.6614453125,-4.486733911132812,4.6255976074218745,-25.419847328244273,-29.328244274809162,-17.068702290076335,0.0
10.670000791549683,-11.451466540527344,2.2960393920898436,3.2920272827148436,-10.870229007633588,45.6793893129771,-13.740458015267176,-4.276044165039062,-2.5258827514648434,2.01112939453125,-12.992366412213741,-33.465648854961835,-16.916030534351144,0.0
10.68000054359436,-9.524134204101562,2.612074011230469,2.7820623291015623,-14.442748091603054,38.62595419847328,-12.992366412213741,-3.7038299682617186,-2.3678654418945313,2.877830395507812,-24.748091603053435,-26.015267175572518,-24.900763358778626,0.0
10.690001010894775,-10.70686982421875,2.6144682128906247,3.181894006347656,-18.27480916030534,38.42748091603053,-12.061068702290076,-5.157110375976562,-3.9935283691406247,4.240131140136718,-3.6030534351145036,-13.48091603053435,-30.137404580152673,0.0
10.700000762939453,-10.115502014160155,2.3678654418945313,3.5913024902343746,-19.954198473282442,36.56488549618321,-11.740458015267176,-5.463568188476562,-5.298368273925781,2.6001030029296874,14.946564885496183,-11.312977099236642,-22.671755725190838,0.0
10.710000991821289,-9.545682019042967,2.501940734863281,3.7110125732421873,-17.16030534351145,34.091603053435115,-11.938931297709924,-2.123656872558594,-2.1499930908203124,1.5275006591796874,22.580152671755727,-2.50381679389313,-27.61832061068702,0.0
10.720000505447388,-10.268730920410155,4.017470385742187,4.7572786987304685,-19.786259541984734,32.74809160305343,-13.755725190839694,-0.82360537109375,-0.9504980590820312,0.9265560424804687,-2.045801526717557,18.03053435114504,-30.900763358778626,0.0
10.730000734329224,-10.536881506347656,4.082113830566406,5.552153649902343,-29.603053435114504,27.66412213740458,-11.603053435114504,-2.6695348510742187,-1.5298948608398437,1.369483349609375,1.3129770992366412,39.9236641221374,-32.93129770992366,0.0
10.740005493164062,-13.175291735839844,6.157886669921875,6.849810949707031,-45.83206106870229,21.221374045801525,-10.732824427480915,-4.11802685546875,-2.6048914062499997,0.3399766357421875,-0.9618320610687023,54.54961832061068,-23.984732824427482,0.0
10.750000953674316,-12.887987536621093,5.635950708007812,7.223306408691406,-67.45038167938931,4.8396946564885495,-6.656488549618321,-3.746925598144531,-1.4437036010742186,-3.057395520019531,14.213740458015268,74.36641221374046,-21.801526717557252,0.0
10.760000944137573,-13.567940808105467,3.3255461059570313,7.56567724609375,-60.76335877862596,-2.2900763358778624,1.4351145038167938,-4.44363828125,-0.6200982299804687,0.5147533569335937,19.267175572519083,76.51908396946565,-19.81679389312977,0.0
10.770000696182251,-13.682862487792969,1.4987702392578124,7.709329345703124,-42.656488549618324,-6.732824427480916,7.236641221374046,-7.058106494140625,-1.3670891479492187,2.767697119140625,21.755725190839694,77.49618320610686,-11.923664122137405,0.0
10.780000448226929,-15.270218188476562,0.70868369140625,7.81467421875,-30.442748091603054,-16.732824427480917,7.969465648854962,-9.557653027343749,-1.1611878051757811,6.236895324707031,36.656488549618324,61.725190839694655,-22.48854961832061,0.0
10.790000677108765,-17.298106994628906,0.5530605834960938,8.252813122558594,-24.53435114503817,-29.374045801526716,6.916030534351145,-10.505756884765624,-1.915361328125,7.465120776367187,28.885496183206108,88.21374045801527,-28.80916030534351,0.0
10.80000114440918,-17.779341528320312,1.0295067138671874,8.8872765625,-21.87786259541985,-47.32824427480916,5.7251908396946565,-5.561730456542969,13.632584252929687,0.4261678955078125,33.80152671755725,79.34351145038168,-45.11450381679389,0.0
10.810001134872437,-16.455348010253907,1.2880804931640624,10.292672937011718,-17.435114503816795,-66.10687022900764,3.8625954198473282,-7.8170684204101555,11.726799731445311,1.8124106567382812,-89.38931297709924,121.16030534351145,-30.30534351145038,0.0
10.820001125335693,-17.408240270996092,4.319139794921875,13.141772912597656,-31.81679389312977,-90.58015267175573,6.931297709923665,-8.810662109374999,11.458649145507811,-0.9792284790039062,-142.8091603053435,131.98473282442748,-13.633587786259541,0.0
10.830000877380371,-16.84320867919922,4.759672900390624,14.86320390625,-37.52671755725191,-118.70229007633588,15.603053435114504,-13.555969799804688,6.612784985351562,0.6416460449218749,-209.54198473282443,162.50381679389312,4.061068702290076,0.0
10.840001106262207,-15.547945581054687,4.192247106933594,13.61103643798828,-28.778625954198475,-150.33587786259542,33.83206106870229,-17.111359265136716,-3.7038299682617186,3.921702319335937,-200.99236641221373,184.27480916030535,28.946564885496183,0.0
10.850000858306885,-14.64533155517578,2.8012159423828122,10.673351000976561,-37.083969465648856,-176.61068702290078,41.25190839694657,-14.18564483642578,-7.42441934814453,-5.597643481445312,-144.793893129771,121.09923664122137,38.916030534351144,0.0
10.86000108718872,-12.94065997314453,0.5339069702148437,5.693411547851563,-59.3587786259542,-204.15267175572518,37.221374045801525,-6.507440112304687,3.8043864379882812,-2.3295582153320313,-108.13740458015268,119.38931297709924,27.709923664122137,0.0
10.87000036239624,-12.73715283203125,-0.9457096557617187,0.928950244140625,-85.31297709923665,-232.0,23.541984732824428,-10.644620581054687,0.3495534423828125,1.3335703247070312,-111.45038167938931,131.58778625954199,40.70229007633588,0.0
10.880000591278076,-13.939042065429687,-0.9816226806640624,-0.9983820922851562,-105.64885496183206,-244.27480916030535,10.732824427480915,-4.431667272949219,14.597447521972656,-3.4931402221679684,-161.93893129770993,100.09160305343511,26.106870229007633,0.0
10.890001058578491,-16.73307540283203,-1.5825672973632812,-1.4772224243164063,-111.49618320610686,-246.1679389312977,-0.15267175572519084,-9.651026892089844,10.582371337890624,-0.9624690673828125,-279.206106870229,171.0229007633588,32.70229007633588,0.0
10.90000057220459,-16.117765576171873,-4.259284753417968,-0.9409212524414062,-100.67175572519083,-249.4198473282443,1.5572519083969465,-13.49611475830078,-9.94072529296875,3.4739866088867184,-242.27480916030535,166.54961832061068,58.79389312977099,0.0
10.910000562667847,-13.766659545898436,-8.300697155761718,-1.5825672973632812,-57.38931297709924,-235.46564885496184,1.9236641221374047,-15.0164328125,-17.76018791503906,2.91134921875,-146.3206106870229,138.9618320610687,66.73282442748092,0.0
10.920000553131104,-10.82179150390625,-11.669338891601562,-1.1611878051757811,16.061068702290076,-213.6793893129771,-6.030534351145038,-10.338162768554687,-13.239935180664062,1.3623007446289062,-48.42748091603053,103.41984732824427,67.3587786259542,0.0
10.93000054359436,-11.125855114746093,-9.117119921875,-2.2960393920898436,86.16793893129771,-187.12977099236642,-24.3206106870229,-8.303091357421874,-11.994950317382811,-1.9488801513671874,15.312977099236642,79.05343511450381,65.89312977099236,0.0
10.940000295639038,-12.241553088378906,-3.0550013183593747,-0.8595183959960937,123.5114503816794,-168.70229007633588,-35.267175572519086,-5.2073886108398435,-4.280832568359375,-4.754884497070313,25.358778625954198,64.65648854961832,49.25190839694657,0.0
10.950000762939453,-12.9095353515625,2.8107927490234372,-0.229843359375,122.61068702290076,-162.76335877862596,-39.64885496183206,-6.698976245117187,-2.8323405639648436,-2.50912333984375,5.022900763358779,76.33587786259542,38.458015267175576,0.0
10.96000051498413,-13.711592907714843,6.294356164550781,2.3774422485351563,93.20610687022901,-164.12213740458014,-33.98473282442748,-7.9655089233398435,-5.025429284667968,-1.4149731811523436,7.694656488549619,81.92366412213741,32.19847328244275,0.0
10.970000743865967,-13.816937780761718,6.682216833496093,3.6487633300781246,58.42748091603053,-165.55725190839695,-20.0,-10.960655200195312,-5.0182466796875,0.2442085693359375,26.99236641221374,84.3969465648855,32.62595419847328,0.0
10.980000495910645,-10.912771166992187,3.833116857910156,3.258508459472656,36.38167938931298,-165.16030534351145,-7.740458015267175,-9.37808790283203,0.9744400756835937,-0.7493851196289062,31.206106870229007,76.3969465648855,31.14503816793893,0.0
10.99000096321106,-8.367734802246094,2.1715409057617188,1.4317325927734375,20.763358778625953,-159.0229007633588,-3.282442748091603,-10.20887587890625,0.82360537109375,0.8786720092773437,11.801526717557252,89.0381679389313,36.85496183206107,0.0
11.000000715255737,-6.833051538085937,0.24181436767578124,0.023942016601562498,1.3435114503816794,-156.7175572519084,-3.1755725190839694,-10.548852514648438,-0.8810662109374999,0.35673604736328124,10.931297709923664,89.05343511450381,40.56488549618321,0.0
11.010000944137573,-6.169857678222656,-0.3399766357421875,-1.235408056640625,0.12213740458015267,-144.77862595419847,-3.2213740458015265,-9.057264880371093,0.8978256225585937,0.1292868896484375,-6.473282442748092,92.53435114503817,38.19847328244275,0.0
11.020000696182251,-5.980715747070312,1.5059528442382812,-1.3311761230468748,2.931297709923664,-130.0,-3.5267175572519083,-11.14022032470703,-1.8555062866210936,0.4381389038085937,-8.259541984732824,93.90839694656489,41.51145038167939,0.0
11.030000925064087,-1.9800047729492187,-1.1444283935546875,-2.0757728393554684,9.725190839694656,-118.42748091603053,4.8396946564885495,-10.079588989257813,-2.384624853515625,-0.023942016601562498,-12.15267175572519,92.22900763358778,42.0,0.0
11.040000915527344,0.5219359619140624,-2.0566192260742184,-3.5146880371093747,41.55725190839695,-89.7557251908397,10.061068702290076,-10.467449658203124,-5.284003063964843,-0.2059013427734375,0.12213740458015267,87.81679389312977,43.49618320610687,0.0
11.0500009059906,-0.7541735229492187,1.0965443603515623,-3.086125939941406,48.091603053435115,-60.62595419847328,5.938931297709924,-8.276755139160155,-2.750937707519531,-1.6304513305664061,9.679389312977099,81.54198473282443,40.091603053435115,0.0
11.060000658035278,1.62805712890625,-0.105344873046875,-2.6719290527343746,53.29770992366412,-42.534351145038165,8.412213740458014,-8.760383874511719,-3.327940307617187,-0.2346317626953125,14.305343511450381,79.98473282442748,39.00763358778626,0.0
11.070000886917114,-0.41419688720703124,2.9975404785156248,-1.9512743530273435,49.43511450381679,-14.51908396946565,5.343511450381679,-9.107543115234375,-2.291250988769531,-0.5793968017578125,30.427480916030536,73.20610687022901,35.847328244274806,0.0
11.08000111579895,-0.46686932373046874,4.460397692871093,-0.12449848632812499,19.435114503816795,-4.259541984732825,0.9007633587786259,-9.270348828125,-1.3575123413085937,0.25139117431640623,21.938931297709924,79.48091603053435,33.41984732824427,0.0
11.09000039100647,1.4508862060546874,0.15322890625,0.8810662109374999,10.061068702290076,2.931297709923664,3.7557251908396947,-9.94072529296875,-5.566518859863281,3.3542765258789062,35.9236641221374,82.97709923664122,36.13740458015267,0.0
11.100001096725464,0.8858546142578124,-1.4125789794921875,2.7054478759765623,31.236641221374047,22.213740458015266,4.793893129770993,-13.694833496093748,-8.59278975830078,9.512163195800781,109.38931297709924,70.58015267175573,25.893129770992367,0.0
11.110000848770142,-0.6560112548828124,0.3495534423828125,4.759672900390624,45.786259541984734,33.64885496183206,-0.3053435114503817,-9.943119494628906,-1.5897499023437498,1.6352397338867186,92.2442748091603,48.88549618320611,25.603053435114504,0.0
11.120000839233398,-4.630386010742187,5.422866760253906,7.649474304199218,34.13740458015267,31.022900763358777,-5.572519083969466,-13.371616271972655,-10.520122094726561,8.152256652832031,146.94656488549617,50.82442748091603,21.129770992366414,0.0
11.130000829696655,-5.288791467285156,4.680664245605469,9.090783703613281,22.412213740458014,25.374045801526716,3.068702290076336,-8.06367119140625,-2.521094348144531,1.4532804077148436,144.8854961832061,10.900763358778626,28.106870229007633,0.0
11.140000820159912,-4.034229797363281,6.4475850708007805,9.682151513671874,17.49618320610687,23.16030534351145,8.793893129770993,-8.765172277832031,6.746860278320312,-1.0366893188476562,105.43511450381679,7.3893129770992365,10.946564885496183,0.0
11.150000810623169,-3.787627026367187,6.308721374511719,8.497021691894531,-9.083969465648854,8.106870229007633,19.862595419847327,-12.947842578125,-1.2138602416992186,4.410119458007812,34.61068702290076,15.908396946564885,18.65648854961832,0.0
11.160000801086426,-0.9864110839843749,-0.24181436767578124,4.690241052246093,-1.1145038167938932,11.908396946564885,38.33587786259542,-10.922347973632812,0.2609679809570312,4.57771357421875,44.79389312977099,4.106870229007634,15.282442748091603,0.0
11.170000553131104,-0.4525041137695312,-0.7445967163085937,2.5354595581054684,29.46564885496183,35.221374045801525,39.05343511450382,-10.149020837402343,1.7214309936523438,1.2473790649414063,45.038167938931295,1.4961832061068703,7.770992366412214,0.0
11.180001020431519,8.164227661132813,-14.793772058105468,-1.7429788085937499,63.41984732824427,33.93893129770992,48.56488549618321,-12.629413757324219,-1.6136919189453125,6.3901242309570305,-41.86259541984733,-5.755725190839694,15.114503816793894,0.0
11.190000534057617,0.7398083129882812,-15.028403820800781,3.871424084472656,192.13740458015266,112.87022900763358,45.63358778625954,-10.651803186035156,-4.189852905273438,1.4317325927734375,23.374045801526716,-12.076335877862595,10.274809160305344,0.0
11.200000524520874,-1.0510545288085937,-17.86313858642578,5.549759448242187,269.8167938931298,129.48091603053436,31.984732824427482,-11.815385192871092,-2.6096798095703124,1.5873557006835937,22.244274809160306,-22.33587786259542,7.32824427480916,0.0
11.21000075340271,-14.695609790039061,1.3311761230468748,5.389347937011719,308.67175572519085,162.7175572519084,10.16793893129771,-15.126566088867186,-2.971204260253906,3.2034418212890623,-2.6412213740458017,-22.045801526717558,6.473282442748092,0.0
11.220000267028809,-11.935095275878906,6.210559106445312,-4.781220715332031,259.31297709923666,150.15267175572518,-6.900763358778626,-14.401122985839843,0.6967126831054687,1.3838485595703125,-7.4961832061068705,-23.81679389312977,8.946564885496183,0.0
11.230000495910645,-20.700267553710937,21.997924853515624,-4.1946413085937495,215.74045801526717,163.57251908396947,-8.641221374045802,-13.354856860351562,0.9624690673828125,1.0821791503906248,-44.412213740458014,-25.49618320610687,10.748091603053435,0.0
11.240000486373901,-18.229451440429685,13.182474340820312,4.747701892089843,121.19083969465649,122.21374045801527,8.65648854961832,-13.702016101074218,0.00718260498046875,1.6998831787109374,-59.89312977099237,-25.557251908396946,13.038167938931299,0.0
11.250000953674316,-14.389151977539061,14.113818786621094,6.105214233398437,67.29770992366412,113.96946564885496,11.404580152671755,-13.072341064453123,0.0383072265625,2.1978771240234374,-73.72519083969466,-28.595419847328245,13.282442748091603,0.0
11.260000705718994,-8.487444885253906,9.732429748535155,-0.3447650390625,-12.83969465648855,83.5114503816794,1.6488549618320612,-12.46900224609375,1.9129671264648436,0.06464344482421874,-90.01526717557252,-30.35114503816794,9.099236641221374,0.0
11.270000696182251,-6.794744311523437,6.4667386840820305,-0.2561795776367187,-68.38167938931298,61.725190839694655,-8.625954198473282,-14.470554833984375,0.22026655273437498,1.2521674682617188,-94.80916030534351,-34.33587786259542,13.282442748091603,0.0
11.280000686645508,-8.55448253173828,2.379836450195312,1.2018892333984375,-111.78625954198473,35.16030534351145,-12.992366412213741,-16.314090112304687,-1.3742717529296875,2.454056701660156,-90.77862595419847,-48.83969465648855,19.49618320610687,0.0
11.290000677108765,-8.595183959960938,-6.179434484863281,-1.2018892333984375,-95.7557251908397,31.404580152671755,-7.32824427480916,-15.634136840820311,0.05746083984375,0.1292868896484375,-76.01526717557252,-61.343511450381676,15.893129770992367,0.0
11.300000429153442,-9.593566052246093,-6.342240197753906,0.02154781494140625,-62.79389312977099,42.97709923664122,-9.541984732824428,-16.474501623535154,-1.1947066284179686,-0.4955997436523437,-70.50381679389314,-75.19083969465649,15.17557251908397,0.0
11.310000658035278,-11.681309899902343,-3.5051112304687497,-0.016759411621093748,-28.48854961832061,57.6793893129771,-16.198473282442748,-17.482460522460936,-0.9217676391601562,-0.062249243164062495,-56.88549618320611,-84.93129770992367,9.038167938931299,0.0
11.320000886917114,-10.266336718749999,-4.498704919433593,-0.4644751220703125,-0.6412213740458015,66.29007633587786,-17.83206106870229,-15.485696337890625,-4.527435339355469,-0.1197100830078125,-54.94656488549618,-90.62595419847328,2.351145038167939,0.0
11.330000877380371,-12.911929553222656,0.09576806640624999,1.6639701538085936,15.969465648854962,78.62595419847328,-25.66412213740458,-15.303737011718749,-6.514622717285156,0.9528922607421875,-8.65648854961832,-101.08396946564885,-0.0,0.0
11.340000867843628,-11.628637463378906,1.0702081420898437,0.5195417602539062,27.81679389312977,78.97709923664122,-28.18320610687023,-12.744335437011719,-5.288791467285156,1.9967641845703124,19.19083969465649,-116.45801526717557,-6.549618320610687,0.0
11.350000619888306,-12.152967626953124,4.783614916992187,1.4341267944335936,23.541984732824428,80.12213740458016,-32.67175572519084,-11.547234606933593,-2.8371289672851563,1.3144167114257812,45.3587786259542,-125.66412213740458,-13.053435114503817,0.0
11.360000848770142,-10.335768566894531,3.1771056030273437,0.5985504150390625,19.053435114503817,72.85496183206106,-31.31297709923664,-10.24000050048828,0.12210428466796874,0.26336218261718747,38.38167938931298,-132.21374045801528,-20.16793893129771,0.0
11.37000060081482,-11.738770739746093,5.710170959472656,2.0278888061523435,12.290076335877863,72.2442748091603,-33.6793893129771,-9.79946739501953,0.32561142578124996,0.4908113403320312,52.82442748091603,-131.66412213740458,-25.297709923664122,0.0
11.380000591278076,-9.93354268798828,3.3638533325195312,0.7948749511718749,3.984732824427481,63.57251908396947,-31.51145038167939,-11.549628808593749,-0.6847416748046875,2.042254016113281,55.98473282442748,-133.2824427480916,-21.251908396946565,0.0
11.390000820159912,-8.801085302734375,1.848323681640625,1.1731588134765625,10.045801526717558,62.61068702290076,-29.358778625954198,-9.777919580078125,1.7669208251953124,0.009576806640625,48.36641221374046,-133.0229007633588,-18.83969465648855,0.0
11.40000057220459,-9.323021264648437,2.2481553588867187,1.2234370483398436,5.557251908396947,56.87022900763359,-29.221374045801525,-9.773131176757811,2.4109610717773435,-0.7230489013671875,54.152671755725194,-127.2824427480916,-19.053435114503817,0.0
11.410000562667847,-9.062053283691405,1.2378022583007813,0.3687070556640625,10.320610687022901,55.00763358778626,-26.47328244274809,-10.180145458984374,2.389413256835937,-2.770091320800781,64.91603053435115,-124.87022900763358,-18.213740458015266,0.0
11.420000553131104,-13.065158459472656,7.6614453125,2.6767174560546874,5.801526717557252,62.732824427480914,-31.908396946564885,-11.197681164550781,2.0087351928710935,-0.6560112548828124,49.80152671755725,-116.8854961832061,-17.61832061068702,0.0
11.43000054359436,-10.053252770996092,6.366182214355469,0.6272808349609375,-27.114503816793892,43.770992366412216,-29.572519083969464,-9.87608184814453,2.5426421630859375,-1.905784521484375,30.290076335877863,-107.64885496183206,-16.748091603053435,0.0
11.440000534057617,-10.249577307128906,5.389347937011719,0.9816226806640624,-42.396946564885496,38.458015267175576,-29.419847328244273,-9.440337145996093,1.7812860351562498,-2.059013427734375,10.854961832061068,-100.80916030534351,-13.816793893129772,0.0
11.450000762939453,-8.090007409667969,0.603338818359375,1.2713210815429687,-26.38167938931298,45.70992366412214,-24.458015267175572,-10.20887587890625,0.9528922607421875,-1.675941162109375,15.450381679389313,-92.21374045801527,-13.297709923664122,0.0
11.46000051498413,-11.63821427001953,8.396465222167969,2.9664158569335934,-38.534351145038165,44.99236641221374,-30.671755725190838,-11.077971081542968,-0.842758984375,-0.55545478515625,8.50381679389313,-86.97709923664122,-12.580152671755725,0.0
11.470000505447388,-8.520963708496094,4.759672900390624,0.2059013427734375,-62.732824427480914,30.076335877862597,-27.633587786259543,-9.212887988281249,0.6775590698242188,-1.5682020874023437,14.488549618320612,-80.90076335877863,-20.396946564885496,0.0
11.480000495910645,-11.111489904785156,6.287173559570312,2.243366955566406,-66.59541984732824,30.213740458015266,-27.6793893129771,-9.883264453125,-1.3838485595703125,0.45968671875,2.4732824427480917,-82.7175572519084,-18.53435114503817,0.0
11.49000072479248,-8.219294299316406,2.0063409912109376,-0.5746083984375,-69.2824427480916,23.404580152671755,-20.641221374045802,-9.730035546875,-1.0127473022460938,-0.1580173095703125,11.877862595419847,-75.29770992366412,-24.48854961832061,0.0
11.500000476837158,-11.947066284179687,4.6830584472656245,3.153163586425781,-55.3587786259542,31.908396946564885,-21.374045801526716,-10.357316381835936,-1.8435352783203125,0.9074024291992187,20.778625954198475,-77.49618320610686,-25.64885496183206,0.0
11.510000944137573,-9.452308154296874,2.9496564453125,0.6009446166992187,-61.083969465648856,28.458015267175572,-18.412213740458014,-10.63025537109375,-2.3056161987304686,0.5793968017578125,35.099236641221374,-79.02290076335878,-28.229007633587788,0.0
11.520000696182251,-12.08592998046875,5.856217260742187,2.863465185546875,-59.98473282442748,31.587786259541986,-19.96946564885496,-9.789890588378906,-1.2114660400390624,0.8738836059570312,31.16030534351145,-81.61832061068702,-30.85496183206107,0.0
11.530000448226929,-9.409212524414063,2.0829554443359375,0.6727706665039062,-73.3587786259542,23.908396946564885,-17.282442748091604,-8.085219006347655,0.1867477294921875,-0.26815058593749996,33.00763358778626,-78.68702290076335,-36.44274809160305,0.0
11.540000677108765,-12.650961572265624,5.829881042480468,3.4715924072265625,-75.17557251908397,28.702290076335878,-21.17557251908397,-8.420407238769531,0.201112939453125,0.8810662109374999,30.946564885496183,-79.89312977099236,-34.961832061068705,0.0
11.550000667572021,-9.53131680908203,2.31758720703125,1.3551181396484375,-83.70992366412214,20.549618320610687,-17.786259541984734,-8.391676818847655,-0.5386953735351562,1.0414777221679687,33.9236641221374,-78.3969465648855,-37.43511450381679,0.0
11.560001134872437,-11.4538607421875,3.5027170288085934,3.1794998046874996,-71.83206106870229,26.27480916030534,-16.3206106870229,-9.406818322753905,-2.365471240234375,2.9831752685546875,29.328244274809162,-78.3969465648855,-34.93129770992366,0.0
11.570000648498535,-9.306261853027344,0.9528922607421875,1.3072341064453123,-72.94656488549619,22.3206106870229,-12.992366412213741,-8.892064965820312,-1.7741034301757812,2.39420166015625,37.25190839694657,-77.58778625954199,-36.732824427480914,0.0
11.580000877380371,-11.465831750488281,1.8267758666992187,2.6623522460937497,-60.961832061068705,28.366412213740457,-12.65648854961832,-8.348581188964843,0.47644613037109373,2.5067291381835934,41.86259541984733,-82.51908396946565,-37.69465648854962,0.0
11.590000629425049,-9.567229833984374,0.5410895751953124,1.6160861206054686,-59.32824427480916,25.603053435114504,-10.473282442748092,-9.318232861328125,0.1771709228515625,2.7054478759765623,54.10687022900763,-86.93129770992367,-36.56488549618321,0.0
11.600000858306885,-10.888829150390624,2.138022082519531,2.9185318237304685,-50.54961832061068,27.435114503816795,-11.34351145038168,-8.997409838867187,0.10773907470703124,4.273649963378906,47.541984732824424,-91.70992366412214,-34.74809160305343,0.0
11.610000610351562,-9.849745629882811,1.1085153686523437,1.9776105712890624,-50.85496183206107,25.557251908396946,-9.267175572519085,-9.291896643066405,0.7709329345703124,4.666299035644531,42.70229007633588,-92.04580152671755,-32.0763358778626,0.0
11.620000839233398,-10.544064111328124,1.8411410766601561,2.39420166015625,-48.274809160305345,23.61832061068702,-9.786259541984732,-8.939948999023438,0.4572925170898437,5.329492895507812,29.541984732824428,-90.4885496183206,-28.16793893129771,0.0
11.630000591278076,-9.390058911132812,0.5817910034179687,1.8028338500976562,-51.31297709923664,19.572519083969464,-8.900763358778626,-7.596801867675781,1.7788918334960937,5.363011718749999,23.908396946564885,-88.38167938931298,-25.267175572519083,0.0
11.640000581741333,-10.09395419921875,0.507570751953125,2.3630770385742186,-40.35114503816794,24.900763358778626,-9.007633587786259,-6.9910688476562495,2.2936451904296873,5.6574985229492185,16.03053435114504,-83.6793893129771,-22.229007633587788,0.0
11.650001049041748,-9.167398156738281,0.22026655273437498,1.4891934326171874,-37.02290076335878,24.50381679389313,-8.488549618320612,-7.522581616210937,1.5179238525390624,5.722141967773437,20.549618320610687,-83.7557251908397,-18.412213740458014,0.0
11.660000562667847,-8.762778076171875,-0.5195417602539062,1.0654197387695312,-23.709923664122137,28.870229007633586,-7.938931297709924,-7.896077075195312,0.9576806640625,5.911283898925781,-2.885496183206107,-80.87022900763358,-12.687022900763358,0.0
11.67000126838684,-8.2743609375,-0.7781155395507812,0.9624690673828125,-12.244274809160306,33.80152671755725,-7.9541984732824424,-7.077260107421875,1.5777788940429687,5.7508723876953125,4.961832061068702,-75.48091603053435,-10.870229007633588,0.0
11.68000054359436,-8.645462194824217,-1.1324573852539062,0.7685387329101562,5.312977099236641,42.25954198473283,-9.48091603053435,-7.37414111328125,0.239420166015625,5.992686755371094,-3.0076335877862594,-74.62595419847328,-8.625954198473282,0.0
11.690000534057617,-8.74601866455078,0.7709329345703124,0.9935936889648437,16.625954198473284,48.94656488549618,-12.977099236641221,-7.187393383789062,0.7015010864257812,5.748478186035156,-10.366412213740459,-70.62595419847328,-8.977099236641221,0.0
11.700000524520874,-9.964667309570311,3.5290532470703124,0.8068459594726562,9.770992366412214,48.19847328244275,-15.114503816793894,-6.624755993652343,0.6105214233398437,5.2624552490234375,3.1297709923664123,-62.595419847328245,-9.19083969465649,0.0
11.71000075340271,-9.368511096191405,2.1811177124023438,0.5985504150390625,2.946564885496183,47.7557251908397,-12.13740458015267,-5.755660791015624,0.7038952880859375,4.469974499511719,-20.412213740458014,-59.17557251908397,-9.587786259541986,0.0
11.720000505447388,-9.251195214843749,0.51714755859375,0.7230489013671875,12.610687022900763,54.70229007633588,-12.412213740458014,-5.679046337890624,0.4836287353515625,3.81156904296875,-16.732824427480917,-45.38931297709924,-8.65648854961832,0.0
11.730000495910645,-8.32463917236328,1.6472107421875,0.7685387329101562,18.47328244274809,60.70229007633588,-15.98473282442748,-7.058106494140625,-2.461239306640625,3.2225954345703123,-26.0,-40.152671755725194,-4.885496183206107,0.0
11.740000486373901,-8.920795385742187,2.559401574707031,1.2497732666015624,20.213740458015266,64.50381679389314,-16.946564885496183,-6.612784985351562,-0.46208092041015625,3.469198205566406,-8.213740458015268,-32.30534351145038,-7.603053435114504,0.0
11.750000715255737,-9.284714038085937,2.2481553588867187,1.4413093994140624,22.595419847328245,67.87786259541984,-16.83969465648855,-5.935225915527344,-0.9696516723632812,4.6830584472656245,-22.3206106870229,-23.61832061068702,-8.229007633587786,0.0
11.760000467300415,-9.184157568359375,3.208230224609375,2.2768857788085937,22.412213740458014,68.91603053435115,-17.984732824427482,-3.555389465332031,-0.09576806640624999,2.499546533203125,-3.6793893129770994,-11.969465648854962,-11.404580152671755,0.0
11.770000696182251,-9.342174877929686,3.246537451171875,2.817975354003906,19.206106870229007,68.47328244274809,-18.68702290076336,-5.604826086425781,-2.7964275390625,2.540247961425781,-6.732824427480916,-0.8244274809160306,-12.580152671755725,0.0
11.780000686645508,-9.674968908691406,4.218583325195312,3.7110125732421873,17.34351145038168,67.78625954198473,-17.740458015267176,-2.9664158569335934,-0.5913678100585937,1.6998831787109374,-21.19083969465649,8.610687022900763,-8.030534351145038,0.0
11.790000677108765,-10.012551342773437,4.817133740234374,4.259284753417968,6.030534351145038,62.33587786259542,-18.53435114503817,-4.73094248046875,-2.7246014892578123,2.6599580444335937,4.564885496183206,25.16030534351145,-15.145038167938932,0.0
11.80000114440918,-9.157821350097656,3.9600095458984375,4.560954162597656,-0.2900763358778626,56.412213740458014,-16.137404580152673,-2.540247961425781,-2.04943662109375,1.5634136840820312,6.870229007633588,28.595419847328245,-13.404580152671755,0.0
11.810000658035278,-9.023746057128905,3.2345664428710936,5.623979699707031,-1.1297709923664123,51.6793893129771,-15.618320610687023,-3.6296097167968746,-3.2728736694335936,1.8195932617187498,1.7099236641221374,43.41984732824427,-14.595419847328245,0.0
11.820001125335693,-9.773131176757811,3.7995980346679685,6.244077929687499,-5.572519083969466,44.54961832061068,-17.251908396946565,-3.488351818847656,-2.408566870117187,1.7812860351562498,34.29007633587786,50.85496183206107,-13.450381679389313,0.0
11.83000111579895,-9.258377819824219,3.0358477050781247,6.533776330566406,-9.938931297709924,32.916030534351144,-15.923664122137405,-1.66636435546875,-0.7972691528320313,1.1947066284179686,22.732824427480917,59.32824427480916,-15.664122137404581,0.0
11.840000629425049,-11.03248125,4.2305543334960936,7.656656909179687,-13.816793893129772,24.732824427480917,-17.129770992366414,-1.8148048583984373,-1.62805712890625,0.3950432739257812,-3.7709923664122136,83.17557251908397,-10.732824427480915,0.0
11.850000619888306,-10.675745202636719,2.741360900878906,8.434772448730468,-14.748091603053435,11.679389312977099,-15.923664122137405,-2.6791116577148437,0.3399766357421875,1.6160861206054686,39.25190839694657,111.83206106870229,-26.519083969465647,0.0
11.860000848770142,-11.942277880859374,2.8850130004882812,9.248801013183593,-12.854961832061068,0.7022900763358778,-17.64885496183206,-5.085284326171875,-1.4437036010742186,0.9911994873046874,17.923664122137403,106.22900763358778,-13.877862595419847,0.0
11.870001077651978,-12.739547033691405,1.5658078857421873,9.662997900390625,-12.900763358778626,-15.32824427480916,-19.374045801526716,-8.204929089355469,-2.4971523315429685,2.6144682128906247,33.969465648854964,110.18320610687023,-11.007633587786259,0.0
11.880000591278076,-13.742717529296874,0.7445967163085937,10.249577307128906,6.854961832061068,-29.49618320610687,-21.923664122137403,-13.077129467773437,-3.6152445068359373,6.5577183471679685,81.22137404580153,103.2824427480916,-22.27480916030534,0.0
11.890000581741333,-15.0547400390625,1.1611878051757811,10.694898815917968,19.87786259541985,-46.18320610687023,-27.053435114503817,-16.302119104003904,-6.785167504882812,4.723759875488281,33.45038167938932,103.20610687022901,-38.19847328244275,0.0
11.90000057220459,-16.977283972167967,2.6815058593749996,11.769895361328125,22.870229007633586,-69.20610687022901,-31.251908396946565,-17.32204901123047,1.1468225952148436,7.455543969726562,37.49618320610687,100.36641221374046,-58.19847328244275,0.0
11.910000562667847,-15.655684655761718,2.138022082519531,11.386823095703125,26.229007633587788,-98.77862595419847,-28.625954198473284,-12.064382165527343,7.721300354003906,2.2098481323242187,-11.98473282442748,120.83969465648855,-59.02290076335878,0.0
11.920000553131104,-17.008408593749998,4.165910888671875,12.112266198730469,23.603053435114504,-121.72519083969466,-22.259541984732824,-8.597578161621094,8.717288244628906,-2.3127988037109373,-17.96946564885496,122.38167938931298,-39.69465648854962,0.0
11.93000054359436,-17.085023046874998,4.067748620605468,14.470554833984375,13.32824427480916,-145.22137404580153,-12.045801526717558,-8.097190014648437,5.72693037109375,0.9265560424804687,-97.70992366412214,137.72519083969465,-11.450381679389313,0.0
11.940000534057617,-18.63646572265625,3.768473413085937,15.562310791015625,4.442748091603053,-178.45801526717557,1.8015267175572518,-4.170699291992188,6.804321118164062,-4.180276098632812,-134.70229007633588,144.53435114503816,-1.1145038167938932,0.0
11.950000762939453,-18.918981518554688,4.108450048828125,13.041216442871093,-4.854961832061068,-207.84732824427482,11.404580152671755,-8.310273962402343,5.68862314453125,-1.5562310791015623,-168.10687022900763,171.75572519083968,12.687022900763358,0.0
11.96000051498413,-21.947646618652342,6.303932971191406,10.350133776855468,-34.80916030534351,-234.9618320610687,15.633587786259541,-6.461950280761719,5.102043737792968,-3.9552211425781247,-193.8320610687023,196.82442748091603,19.893129770992367,0.0
11.970000743865967,-19.646818823242185,3.0119056884765625,5.336675500488281,-62.0763358778626,-260.30534351145036,17.206106870229007,-12.030863342285155,-0.3064578125,0.2059013427734375,-195.93893129770993,183.78625954198472,28.38167938931298,0.0
11.980000734329224,-18.35394992675781,-0.02154781494140625,-0.17956512451171874,-79.48091603053435,-277.8167938931298,12.183206106870228,-7.400477331542969,-0.7015010864257812,-2.6958710693359373,-178.36641221374046,153.0381679389313,28.595419847328245,0.0
11.990000486373901,-15.377957263183593,-4.862623571777344,-3.2154128295898436,-76.56488549618321,-275.19083969465646,4.473282442748092,-15.500061547851562,-5.966350537109375,2.2385785522460937,-156.36641221374046,157.6793893129771,38.732824427480914,0.0
12.000000476837158,-11.961431494140625,-8.611943371582031,-3.708618371582031,-41.00763358778626,-262.1374045801527,4.290076335877862,-13.134590307617186,-4.209006518554688,0.5506663818359374,-101.87786259541984,122.90076335877863,45.38931297709924,0.0
12.010000705718994,-11.312602844238281,-8.705317236328124,-2.7557261108398436,10.961832061068701,-235.3587786259542,0.2748091603053435,-11.391611499023437,-5.6383449096679685,0.28969840087890625,-77.86259541984732,108.74809160305344,53.55725190839695,0.0
12.020000696182251,-10.94868419189453,-6.782773303222656,-2.6048914062499997,48.74809160305343,-213.6030534351145,-5.312977099236641,-10.721235034179687,-7.287949853515625,-1.8459294799804686,-37.19083969465649,90.2442748091603,58.56488549618321,0.0
12.030000686645508,-11.420341918945311,-4.089296435546875,-1.0845733520507812,77.64885496183206,-189.00763358778627,-10.580152671755725,-10.761936462402343,-6.871358764648437,-1.93451494140625,-11.221374045801527,78.4885496183206,54.6412213740458,0.0
12.040000677108765,-9.892841259765625,-2.1404162841796874,-1.3575123413085937,98.59541984732824,-174.10687022900763,-10.931297709923664,-8.307879760742187,-6.754042883300781,-1.8555062866210936,4.427480916030534,71.98473282442748,47.69465648854962,0.0
12.050000667572021,-10.000580334472655,0.5865794067382812,0.6943184814453125,100.62595419847328,-158.4732824427481,-12.534351145038167,-9.904812268066406,-4.446032482910156,-2.9759926635742184,13.404580152671755,70.19847328244275,38.13740458015267,0.0
12.060000658035278,-10.218452685546874,4.165910888671875,1.8411410766601561,89.8473282442748,-148.76335877862596,-11.923664122137405,-7.7787611938476555,-0.3399766357421875,-2.6886884643554687,-2.687022900763359,74.58015267175573,27.374045801526716,0.0
12.070000886917114,-10.728417639160156,6.792350109863281,3.699041564941406,66.21374045801527,-140.6412213740458,-6.061068702290076,-8.398859423828124,-1.675941162109375,-0.49799394531249996,-30.85496183206107,91.14503816793894,25.6793893129771,0.0
12.080000877380371,-8.858546142578124,5.655104321289063,2.77727392578125,32.93129770992366,-142.12213740458014,2.732824427480916,-9.234435803222656,-4.553771557617187,1.1109095703125,-23.480916030534353,96.83969465648855,27.96946564885496,0.0
12.090000629425049,-7.4794859863281244,3.83072265625,1.5921441040039062,8.106870229007633,-137.6030534351145,9.572519083969466,-8.801085302734375,-1.5705962890624998,-0.5195417602539062,-23.419847328244273,92.58015267175573,25.84732824427481,0.0
12.100000858306885,-6.696582043457031,3.902548706054687,1.3311761230468748,-3.145038167938931,-126.56488549618321,14.0,-10.467449658203124,-2.8706477905273435,1.7525556152343749,-19.19083969465649,94.54961832061069,30.519083969465647,0.0
12.110000610351562,-4.067748620605468,2.0757728393554684,-0.38307226562499996,-9.755725190839694,-119.38931297709924,20.442748091603054,-9.641450085449218,-1.0319009155273438,0.7589619262695312,-22.061068702290076,87.64885496183206,29.14503816793893,0.0
12.12000060081482,-1.4413093994140624,-0.00718260498046875,-0.7972691528320313,-4.259541984732825,-108.38167938931298,26.48854961832061,-11.353304272460937,-3.2058360229492187,3.3542765258789062,-17.72519083969466,86.44274809160305,34.87022900763359,0.0
12.130000591278076,0.5339069702148437,-1.0845733520507812,-1.6903063720703124,12.534351145038167,-83.16030534351145,31.14503816793893,-9.526528405761718,-0.7230489013671875,1.9847931762695312,-13.679389312977099,75.1145038167939,34.80916030534351,0.0
12.140000581741333,2.901772412109375,-3.0693665283203124,-2.5378537597656248,35.6793893129771,-64.58015267175573,32.76335877862596,-9.442731347656249,-1.8842367065429686,1.8746598999023436,-9.053435114503817,75.1145038167939,39.00763358778626,0.0
12.15000057220459,-0.6105214233398437,1.0271125122070313,-0.9983820922851562,35.45038167938932,-42.0763358778626,25.87786259541985,-9.85692823486328,-1.3215993164062498,-0.28730419921875,1.786259541984733,66.36641221374046,39.29770992366412,0.0
12.160000562667847,-0.05746083984375,1.448492004394531,-1.5179238525390624,32.97709923664122,-27.19083969465649,26.137404580152673,-9.715670336914062,-2.664746447753906,0.5793968017578125,-12.183206106870228,71.38931297709924,39.20610687022901,0.0
12.170000791549683,-1.9225439331054686,3.296815686035156,-0.5386953735351562,20.763358778625953,-14.961832061068701,25.419847328244273,-10.589553942871094,-5.592855078125,-0.3447650390625,-3.404580152671756,67.80152671755725,37.93893129770992,0.0
12.18000054359436,1.0893617553710937,0.9935936889648437,0.04548983154296875,2.8244274809160306,-13.114503816793894,27.297709923664122,-10.884040747070312,-10.565611926269531,4.728548278808593,28.702290076335878,74.50381679389314,37.32824427480916,0.0
12.190000534057617,-0.33518823242187495,1.714248388671875,2.1547814941406247,10.045801526717558,4.473282442748092,27.6793893129771,-7.781155395507812,-6.222530114746093,0.033518823242187495,79.55725190839695,49.17557251908397,33.74045801526717,0.0
12.200000524520874,-0.2154781494140625,1.85790048828125,4.65432802734375,18.27480916030534,17.938931297709924,26.732824427480917,-11.03248125,-2.6312276245117188,1.5227122558593749,74.21374045801527,45.847328244274806,29.893129770992367,0.0
12.21000075340271,-0.7134720947265625,3.845087866210937,7.175422375488281,31.862595419847327,26.564885496183205,29.251908396946565,-9.842563024902343,0.02633621826171875,0.5746083984375,57.083969465648856,45.17557251908397,23.740458015267176,0.0
12.220000743865967,-3.763685009765625,6.873752966308594,10.960655200195312,24.595419847328245,24.885496183206108,31.435114503816795,-11.360486877441405,-3.356670727539062,4.529829541015625,54.595419847328245,45.70992366412214,25.541984732824428,0.0
12.230000734329224,-5.686228942871093,6.591237170410156,13.59188282470703,3.1908396946564888,13.572519083969466,39.20610687022901,-10.175357055664062,1.4724340209960938,-0.51714755859375,58.412213740458014,27.068702290076335,15.572519083969466,0.0
12.240000486373901,-5.322310290527343,2.3726538452148436,14.633360546874998,1.9694656488549618,4.259541984732825,50.12213740458015,-16.915034729003906,-10.903194360351561,6.335057592773437,58.656488549618324,42.48854961832061,20.38167938931298,0.0
12.250000715255737,-5.9974751586914055,1.1707646118164061,14.401122985839843,16.12213740458015,-0.366412213740458,58.48854961832061,-9.90241806640625,-4.043806604003906,4.714183068847656,111.2824427480916,6.33587786259542,17.893129770992367,0.0
12.260000705718994,3.7229835815429686,-11.049240661621093,7.311891870117187,56.412213740458014,-1.6793893129770991,66.99236641221374,-12.76827745361328,-3.6176387084960937,2.655169641113281,102.04580152671755,-12.458015267175572,13.068702290076336,0.0
12.27000093460083,1.5801730957031248,-8.169016064453125,2.844311572265625,121.41984732824427,40.412213740458014,59.98473282442748,-9.87608184814453,1.7501614135742187,-2.9281086303710935,83.14503816793894,-20.83969465648855,1.3282442748091603,0.0
12.280000686645508,4.726154077148437,-13.390769885253906,-5.4013189453125,133.5267175572519,58.93129770992366,39.98473282442748,-14.53759248046875,-2.023100402832031,0.055066638183593745,32.900763358778626,-18.213740458015266,5.679389312977099,0.0
12.290000677108765,-3.6248213134765623,-7.264007836914062,-6.136338854980468,179.40458015267177,119.05343511450381,19.206106870229007,-12.143390820312499,0.7015010864257812,0.5506663818359374,25.72519083969466,-18.564885496183205,4.778625954198473,0.0
12.300000667572021,-7.663839514160156,-1.8555062866210936,-1.0462661254882812,181.25190839694656,136.21374045801528,3.8931297709923665,-12.464213842773436,2.6767174560546874,-0.28969840087890625,-5.0534351145038165,-15.770992366412214,5.480916030534351,0.0
12.310000658035278,-19.009961181640623,7.091625317382812,6.457161877441406,182.70229007633588,156.41221374045801,-2.0610687022900764,-12.866439721679686,3.3327287109375,-0.12449848632812499,-25.114503816793892,-14.51908396946565,9.129770992366412,0.0
12.320000886917114,-6.8593877563476555,-6.9336080078124995,6.555324145507812,212.7175572519084,144.8091603053435,22.412213740458014,-13.156138122558593,2.808398547363281,-0.6368576416015624,-49.38931297709924,-7.694656488549619,12.83969465648855,0.0
12.330000638961792,-14.087482568359373,5.576095666503906,6.770802294921874,243.6030534351145,176.45801526717557,19.19083969465649,-12.588712329101561,-0.17956512451171874,1.2473790649414063,-81.40458015267176,-4.702290076335878,20.65648854961832,0.0
12.340000867843628,-10.36210478515625,0.8571241943359375,-1.9297265380859374,156.4885496183206,141.8320610687023,5.877862595419847,-13.613430639648437,-2.779668127441406,3.0071172851562498,-56.458015267175576,-11.48091603053435,20.549618320610687,0.0
12.350000619888306,-15.39232247314453,9.713276135253906,1.177947216796875,139.81679389312978,168.01526717557252,-9.572519083969466,-13.034033837890624,-2.1739351074218747,3.5218706420898434,-45.87786259541985,-29.52671755725191,19.64885496183206,0.0
12.360000848770142,-13.297396020507811,17.228675146484374,3.6750995483398436,42.54961832061068,131.6946564885496,-24.106870229007633,-13.96298408203125,0.7733271362304687,2.252943762207031,-62.458015267175576,-33.86259541984733,16.68702290076336,0.0
12.37000060081482,-12.248735693359373,12.610260144042968,2.9448680419921875,-40.51908396946565,93.7557251908397,-30.732824427480917,-15.155296508789062,-1.3934253662109375,3.287238879394531,-88.22900763358778,-38.213740458015266,24.900763358778626,0.0
12.380000591278076,-10.12507882080078,5.418078356933593,0.2609679809570312,-99.6030534351145,61.19083969465649,-31.740458015267176,-17.01559119873047,-4.106055847167968,5.003881469726562,-82.16793893129771,-48.99236641221374,26.65648854961832,0.0
12.390000581741333,-8.441955053710936,-0.7924807495117187,0.02633621826171875,-98.93129770992367,54.93129770992366,-26.99236641221374,-14.688427185058593,-4.199429711914062,1.8602946899414061,-60.13740458015267,-74.41221374045801,23.450381679389313,0.0
12.400000810623169,-8.583212951660157,-4.082113830566406,-0.16759411621093748,-83.25190839694656,53.31297709923664,-23.435114503816795,-15.887922216796873,-4.096479040527344,1.4915876342773438,-58.717557251908396,-99.20610687022901,26.671755725190838,0.0
12.410000801086426,-8.729259252929687,-5.679046337890624,0.9600748657226562,-39.80152671755725,66.90076335877863,-18.213740458015266,-14.516044665527343,-3.574543078613281,2.0446482177734375,-35.51145038167939,-111.45038167938931,16.18320610687023,0.0
12.420000553131104,-10.309432348632813,-0.842758984375,3.6176387084960937,-8.335877862595419,80.73282442748092,-22.091603053435115,-15.279794995117186,-5.049371301269531,1.6328455322265625,16.412213740458014,-118.42748091603053,7.221374045801527,0.0
12.43000054359436,-10.596736547851561,-0.63206923828125,3.2728736694335936,1.83206106870229,80.41221374045801,-27.893129770992367,-13.40034669189453,-4.11802685546875,1.2521674682617188,24.732824427480917,-141.6030534351145,7.038167938931298,0.0
12.440000534057617,-10.199299072265624,0.5674257934570313,3.4620156005859375,15.84732824427481,80.62595419847328,-34.396946564885496,-12.227187878417968,0.814028564453125,-1.3718775512695311,59.63358778625954,-136.9618320610687,-1.984732824427481,0.0
12.450000762939453,-10.180145458984374,1.68551796875,2.9448680419921875,15.587786259541986,74.12213740458016,-40.36641221374046,-11.499350573730467,0.948103857421875,-0.6057330200195312,37.9236641221374,-140.6259541984733,-12.793893129770993,0.0
12.46000075340271,-8.623914379882812,2.0470424194335934,2.1499930908203124,19.129770992366414,68.0,-42.80916030534351,-10.9175595703125,0.9241618408203125,0.8810662109374999,15.541984732824428,-133.8320610687023,-15.17557251908397,0.0
12.470000743865967,-9.215282189941405,2.8610709838867185,1.5705962890624998,3.5267175572519083,57.57251908396947,-46.534351145038165,-8.846575134277343,3.21780703125,-1.9584569580078124,16.442748091603054,-128.42748091603053,-20.900763358778626,0.0
12.480000734329224,-9.481038574218749,1.458068811035156,0.9552864624023437,14.442748091603054,55.343511450381676,-44.87022900763359,-10.259154113769531,0.6751648681640625,-0.6631938598632812,19.17557251908397,-119.89312977099236,-15.877862595419847,0.0
12.49000072479248,-10.244788903808594,3.337517114257812,1.0749965454101562,22.946564885496183,59.52671755725191,-42.93129770992366,-9.358934289550781,1.3096283081054687,-0.5386953735351562,20.213740458015266,-117.83206106870229,-12.458015267175572,0.0
12.500000476837158,-9.782707983398437,4.292803576660156,0.4860229370117187,12.15267175572519,53.954198473282446,-42.33587786259542,-9.05965908203125,3.3207577026367185,-2.2960393920898436,21.908396946564885,-114.41221374045801,-12.381679389312977,0.0
12.510000944137573,-10.223241088867187,2.7150246826171873,0.19393033447265623,17.96946564885496,55.83206106870229,-37.32824427480916,-10.335768566894531,1.2713210815429687,-0.33518823242187495,12.030534351145038,-99.7557251908397,-4.396946564885496,0.0
12.520000696182251,-12.945448376464842,9.5001921875,2.5570073730468748,8.51908396946565,62.0,-40.19847328244275,-9.435548742675781,1.4867992309570313,-0.6607996582031249,8.65648854961832,-93.26717557251908,-3.969465648854962,0.0
12.530000686645508,-9.512163195800781,6.282385156249999,0.7781155395507812,-23.099236641221374,42.778625954198475,-38.42748091603053,-9.943119494628906,1.5155296508789062,-1.139639990234375,6.702290076335878,-85.90839694656489,-3.8931297709923665,0.0
12.540000438690186,-16.86236229248047,11.808202587890625,2.9664158569335934,-44.0763358778626,46.10687022900763,-42.6412213740458,-9.418789331054686,1.216254443359375,-0.10773907470703124,-14.595419847328245,-81.0381679389313,-1.6641221374045803,0.0
12.550000667572021,-10.496180078124999,3.3710359375,1.4437036010742186,-37.25190839694657,41.9236641221374,-33.38931297709924,-9.543287817382812,-0.143652099609375,-1.1037269653320312,-10.274809160305344,-73.23664122137404,-3.053435114503817,0.0
12.560000658035278,-13.345280053710937,9.004592443847656,2.693476867675781,-55.57251908396947,36.045801526717554,-34.900763358778626,-9.581595043945311,-0.7422025146484375,-1.0342951171875,-10.290076335877863,-73.06870229007633,-4.458015267175573,0.0
12.570000648498535,-8.228871105957031,2.7844565307617186,0.22266075439453123,-75.26717557251908,19.206106870229007,-31.709923664122137,-9.809044201660155,-0.7230489013671875,-0.7445967163085937,-5.32824427480916,-70.1526717557252,-9.358778625954198,0.0
12.580000638961792,-11.920730065917969,4.642357019042969,2.3726538452148436,-61.25190839694657,31.69465648854962,-29.19083969465649,-10.235212097167969,-1.7118541870117185,-0.023942016601562498,-0.5343511450381679,-71.09923664122137,-10.595419847328245,0.0
12.59000039100647,-10.204087475585936,2.0254946044921875,0.9528922607421875,-64.79389312977099,23.19083969465649,-27.49618320610687,-10.963049401855468,-1.9919757812499999,0.5099649536132812,14.351145038167939,-75.45038167938931,-15.114503816793894,0.0
12.600000858306885,-10.82179150390625,6.138733056640625,2.7964275390625,-59.98473282442748,27.46564885496183,-28.778625954198475,-10.206481677246094,-1.908178723144531,0.9504980590820312,22.061068702290076,-80.1526717557252,-19.450381679389313,0.0
12.610000610351562,-9.967061511230469,3.1651345947265623,0.5770026000976562,-77.06870229007633,15.34351145038168,-26.85496183206107,-9.423577734375,-0.28012159423828126,-0.47165772705078124,37.00763358778626,-83.38931297709924,-25.358778625954198,0.0
12.62000060081482,-17.79849514160156,13.278242407226562,5.1882349975585935,-93.29770992366412,21.541984732824428,-33.41984732824427,-9.718064538574218,-0.1771709228515625,0.316034619140625,34.458015267175576,-89.7557251908397,-25.893129770992367,0.0
12.630000591278076,-11.82975040283203,8.104372619628906,-0.19871873779296872,-155.66412213740458,-14.335877862595419,-27.755725190839694,-11.271901416015623,0.46686932373046874,-0.0383072265625,37.86259541984733,-89.08396946564885,-28.366412213740457,0.0
12.640000581741333,-12.789825268554686,6.059724401855468,1.4915876342773438,-159.05343511450383,-14.381679389312977,-16.48854961832061,-10.769119067382812,-0.7685387329101562,2.3726538452148436,22.885496183206108,-95.22137404580153,-23.709923664122137,0.0
12.650000810623169,-9.935936889648437,-0.062249243164062495,-0.076614453125,-153.54198473282443,-16.47328244274809,-6.977099236641221,-11.087547888183593,-1.1348515869140625,2.849099975585937,29.66412213740458,-96.13740458015268,-24.47328244274809,0.0
12.660000562667847,-10.386046801757812,-0.3758896606445312,1.7717092285156248,-118.67175572519083,-2.4885496183206106,-3.480916030534351,-12.30859073486328,-2.5330653564453125,3.0909143432617188,30.396946564885496,-104.09160305343511,-24.412213740458014,0.0
12.670000314712524,-9.708487731933593,-2.6288334228515624,-0.3399766357421875,-95.92366412213741,-0.1984732824427481,-1.8473282442748091,-12.440271826171875,-1.1611878051757811,3.8187516479492185,40.94656488549618,-110.36641221374046,-27.00763358778626,0.0
12.68000078201294,-7.955932116699218,-4.364629626464843,0.45010991210937495,-52.458015267175576,14.977099236641221,1.1755725190839694,-8.695740429687499,-0.00239420166015625,3.6463691284179687,41.847328244274806,-112.77862595419847,-31.923664122137403,0.0
12.690000534057617,-10.177751257324218,-0.22505495605468748,2.403778466796875,-23.022900763358777,32.61068702290076,-4.351145038167939,-8.588001354980468,-0.8762778076171874,4.173093493652344,42.06106870229008,-112.30534351145039,-32.900763358778626,0.0
12.700000762939453,-9.557653027343749,2.231395947265625,2.2840683837890623,-21.984732824427482,31.72519083969466,-8.381679389312977,-8.657433203124999,0.27293898925781246,4.553771557617187,38.87022900763359,-104.3206106870229,-32.80916030534351,0.0
12.71000075340271,-8.690952026367187,0.7757213378906249,1.5610194824218748,-12.83969465648855,37.770992366412216,-5.419847328244275,-7.1778165771484375,1.3623007446289062,3.816357446289062,36.13740458015267,-97.81679389312977,-32.2442748091603,0.0
12.720000505447388,-12.770671655273437,5.616797094726562,3.9264907226562498,-18.580152671755727,48.3206106870229,-11.053435114503817,-7.003039855957031,1.2641384765625,4.469974499511719,26.229007633587788,-92.56488549618321,-29.61832061068702,0.0
12.730000734329224,-10.730811840820312,5.547365246582031,2.2194249389648437,-50.534351145038165,33.083969465648856,-9.389312977099237,-8.298302954101562,1.7956512451171873,4.548983154296875,19.740458015267176,-83.58778625954199,-26.732824427480917,0.0
12.740000486373901,-10.065223779296874,2.4109610717773435,1.9512743530273435,-53.25190839694657,32.88549618320611,-2.0916030534351147,-7.237671618652343,3.2920272827148436,5.439626171875,4.580152671755725,-76.54961832061069,-25.328244274809162,0.0
12.750000476837158,-9.016563452148437,0.13646949462890623,1.5634136840820312,-47.6793893129771,35.221374045801525,0.2595419847328244,-8.358157995605469,0.7709329345703124,4.948814831542968,1.83206106870229,-71.72519083969466,-20.458015267175572,0.0
12.760000705718994,-6.921636999511718,-2.1835119140624997,0.5410895751953124,-28.65648854961832,39.404580152671755,0.7786259541984732,-7.522581616210937,1.5825672973632812,4.996698864746094,-4.900763358778626,-68.97709923664122,-19.954198473282442,0.0
12.770000696182251,-7.874529260253905,-2.128445275878906,0.9576806640625,-7.4961832061068705,50.0,-3.5267175572519083,-8.95670841064453,-0.3136404174804687,5.61200869140625,-5.221374045801527,-66.16793893129771,-18.244274809160306,0.0
12.780000686645508,-8.870517150878905,0.22026655273437498,1.6304513305664061,4.0458015267175576,56.94656488549618,-10.061068702290076,-8.051700183105469,0.6703764648437499,4.886565588378906,3.5419847328244276,-64.10687022900764,-20.610687022900763,0.0
12.790000915527344,-9.255983618164063,1.5059528442382812,0.8978256225585937,0.22900763358778625,53.847328244274806,-12.244274809160306,-7.635109094238281,-0.18914193115234373,4.690241052246093,-6.595419847328245,-62.045801526717554,-21.603053435114504,0.0
12.800000667572021,-8.219294299316406,0.7541735229492187,0.49799394531249996,5.755725190839694,55.51145038167939,-9.465648854961833,-6.347028601074219,0.4165910888671875,4.209006518554688,-1.4045801526717556,-56.732824427480914,-23.435114503816795,0.0
12.8100004196167,-9.153032946777342,0.9337386474609375,1.5538368774414062,9.022900763358779,63.52671755725191,-11.84732824427481,-5.623979699707031,0.36631285400390623,4.328716601562499,-21.14503816793893,-48.396946564885496,-24.0,0.0
12.820000886917114,-8.667010009765624,0.967257470703125,1.5011644409179687,11.236641221374045,66.53435114503817,-13.786259541984732,-7.4411787597656245,-1.5705962890624998,4.144363073730468,-14.213740458015268,-41.603053435114504,-21.099236641221374,0.0
12.830000638961792,-8.939948999023438,1.3239935180664062,1.5131354492187499,15.17557251908397,69.89312977099236,-15.648854961832061,-6.133944653320312,-0.7206546997070312,3.6343981201171873,-3.7709923664122136,-40.74809160305343,-22.30534351145038,0.0
12.840001106262207,-8.611943371582031,2.2577321655273437,2.070984436035156,19.358778625954198,71.6793893129771,-16.564885496183205,-3.1268273681640624,1.388636962890625,2.379836450195312,-15.358778625954198,-30.68702290076336,-28.977099236641223,0.0
12.850001096725464,-9.045293872070312,3.1220389648437497,3.191470812988281,17.893129770992367,71.92366412213741,-16.65648854961832,-4.984727856445312,-0.4740519287109375,3.670311145019531,-20.458015267175572,-16.061068702290076,-22.610687022900763,0.0
12.8600013256073,-11.3389390625,7.690175732421874,5.106832141113281,3.1908396946564888,71.38931297709924,-19.221374045801525,-3.902548706054687,0.06943184814453125,2.6767174560546874,-19.862595419847327,-7.862595419847328,-21.587786259541986,0.0
12.87000060081482,-10.991779821777342,8.125920434570313,5.260061047363281,-25.938931297709924,56.458015267175576,-14.0,-6.093243225097656,-2.834734765625,4.060566015625,-5.694656488549619,3.2213740458015265,-19.786259541984734,0.0
12.880000591278076,-9.373299499511718,4.656722229003906,4.944026428222656,-37.38931297709924,43.02290076335878,-4.580152671755725,-3.5242648437499997,-1.0749965454101562,2.8371289672851563,-8.65648854961832,6.213740458015267,-20.396946564885496,0.0
12.890000581741333,-8.135497241210937,2.142810485839844,5.310339282226562,-24.870229007633586,42.778625954198475,-1.633587786259542,-5.315127685546875,-4.893748193359374,3.8474820678710935,-34.47328244274809,19.404580152671755,-23.6793893129771,0.0
12.90000033378601,-9.220070593261719,3.284844677734375,6.155492468261718,-29.603053435114504,37.70992366412214,-4.793893129770993,-4.426878869628906,-4.129997863769531,2.825157958984375,2.885496183206107,30.458015267175572,-25.419847328244273,0.0
12.910000562667847,-9.662997900390625,3.497928625488281,7.3669585083007805,-28.931297709923665,32.534351145038165,-7.480916030534351,-3.797203833007812,-4.53940634765625,1.3766659545898436,12.259541984732824,42.0763358778626,-28.564885496183205,0.0
12.920000553131104,-10.625466967773438,3.912125512695312,8.21690009765625,-34.274809160305345,22.106870229007633,-8.0,-0.9409212524414062,-1.9416975463867185,0.32561142578124996,17.72519083969466,62.56488549618321,-32.778625954198475,0.0
12.93000054359436,-10.36210478515625,3.5506010620117183,9.660603698730467,-32.80916030534351,14.977099236641221,-8.335877862595419,-1.2856862915039062,-5.66946953125,-11.566388220214844,-44.274809160305345,90.01526717557252,-32.25954198473283,0.0
12.940000772476196,-11.532869396972655,3.584119885253906,10.101136804199218,-38.900763358778626,3.3893129770992365,-7.908396946564886,-1.7573440185546874,-1.0103531005859374,-3.114856359863281,22.82442748091603,94.3969465648855,-31.66412213740458,0.0
12.950001001358032,-11.769895361328125,1.7980454467773437,10.589553942871094,-38.01526717557252,-9.053435114503817,-7.541984732824427,-2.7461493041992187,-1.0127473022460938,-2.882618798828125,21.419847328244273,116.21374045801527,-30.900763358778626,0.0
12.96000075340271,-13.218387365722656,0.29448680419921874,10.721235034179687,-36.10687022900763,-22.885496183206108,-8.274809160305344,-5.805939025878906,-2.770091320800781,-0.4836287353515625,24.35114503816794,127.74045801526718,-29.374045801526716,0.0
12.970000505447388,-13.836091394042969,-1.216254443359375,11.827356201171874,-29.49618320610687,-38.83969465648855,-13.587786259541986,-9.97184991455078,-4.328716601562499,3.9600095458984375,38.82442748091603,128.82442748091603,-33.61832061068702,0.0
12.980000495910645,-16.936582543945313,-1.68551796875,13.33091484375,-20.625954198473284,-60.36641221374046,-23.282442748091604,-14.152126013183594,-6.904877587890625,7.4794859863281244,87.70992366412214,110.87022900763358,-45.81679389312977,0.0
12.990000486373901,-17.228675146484374,-3.1124621582031247,12.849680310058593,-10.763358778625955,-92.54961832061069,-32.01526717557252,-13.472172741699218,-4.206612316894531,25.673024401855468,15.49618320610687,82.07633587786259,-44.79389312977099,0.0
13.000000953674316,-18.270152868652342,-2.7653029174804686,13.340491650390625,4.213740458015267,-118.6412213740458,-38.62595419847328,-13.838485595703125,8.176198669433592,8.190563879394531,61.587786259541986,84.59541984732824,-49.48091603053435,0.0
13.010000944137573,-16.570269689941405,-2.8012159423828122,13.584700219726562,22.30534351145038,-147.23664122137404,-39.908396946564885,-13.874398620605469,10.522516296386717,4.747701892089843,30.091603053435115,89.74045801526718,-33.19083969465649,0.0
13.02000093460083,-16.76659422607422,-0.8834604125976562,13.486537951660155,34.0763358778626,-168.793893129771,-34.80916030534351,-7.592013464355468,16.991649182128906,-6.641515405273437,-9.206106870229007,88.94656488549619,-18.717557251908396,0.0
13.030000925064087,-15.454571716308592,0.239420166015625,11.85608662109375,43.89312977099237,-192.18320610687022,-23.404580152671755,-5.647921716308593,11.722011328125,2.6503812377929687,-95.38931297709924,110.67175572519083,-0.7786259541984732,0.0
13.040000915527344,-14.86320390625,2.2457611572265623,8.085219006347655,34.38167938931298,-211.31297709923663,-11.603053435114504,-4.491522314453125,17.944541442871092,-4.067748620605468,-137.40458015267177,122.16793893129771,12.442748091603054,0.0
13.0500009059906,-15.004461804199218,2.212242333984375,6.1459156616210935,6.748091603053435,-228.03053435114504,-6.519083969465649,-6.864176159667968,12.246341491699217,-2.3822306518554686,-216.29007633587787,155.49618320610688,35.93893129770992,0.0
13.060000658035278,-15.081076257324218,2.2840683837890623,2.7820623291015623,-23.61832061068702,-239.1145038167939,-2.564885496183206,-3.81156904296875,10.156203442382813,-5.135562561035156,-260.2442748091603,166.9770992366412,47.12977099236641,0.0
13.070000886917114,-11.956643090820311,-0.9696516723632812,-0.4477157104492187,-36.229007633587784,-240.21374045801528,-6.793893129770993,-11.635820068359374,1.3479355346679687,-2.9831752685546875,-315.4351145038168,202.42748091603053,64.6412213740458,0.0
13.080000877380371,-11.789048974609374,-3.7517140014648436,-2.3582886352539063,-27.221374045801525,-233.6793893129771,-13.633587786259541,-12.504915270996094,-4.575319372558593,-0.8355763793945312,-263.69465648854964,159.8320610687023,62.12213740458015,0.0
13.090000867843628,-11.384428894042967,-5.312733483886719,-2.1164742675781247,-5.8320610687022905,-213.95419847328245,-19.297709923664122,-19.46007109375,-14.26944189453125,1.2378022583007813,-237.48091603053436,160.21374045801528,60.6412213740458,0.0
13.100000858306885,-10.884040747070312,-4.666299035644531,-2.868253588867187,16.3206106870229,-191.23664122137404,-21.297709923664122,-15.097835668945311,-14.470554833984375,-1.1037269653320312,-154.0763358778626,117.70992366412214,54.396946564885496,0.0
13.110000610351562,-10.828974108886719,-2.403778466796875,-1.3838485595703125,47.221374045801525,-159.00763358778627,-25.297709923664122,-10.340556970214843,-15.385139868164062,0.7876923461914062,-100.82442748091603,97.81679389312977,49.3587786259542,0.0
13.12000060081482,-12.033257543945313,0.031124621582031248,-0.8355763793945312,54.82442748091603,-143.74045801526717,-28.671755725190838,-9.153032946777342,-16.11297717285156,-0.277727392578125,-25.954198473282442,72.10687022900764,45.61832061068702,0.0
13.130000591278076,-11.729193933105469,0.33518823242187495,0.20829554443359374,72.50381679389314,-128.9770992366412,-25.17557251908397,-6.789955908203124,-11.516109985351562,-2.597708801269531,24.900763358778626,53.69465648854962,33.93893129770992,0.0
13.140000581741333,-14.47294903564453,4.489128112792969,2.7940333374023436,64.76335877862596,-120.61068702290076,-25.34351145038168,-6.016628771972656,-5.432443566894531,-3.2561142578125,50.99236641221374,43.14503816793893,24.625954198473284,0.0
13.15000033378601,-14.935029956054686,5.626373901367187,3.902548706054687,49.93893129770992,-125.25190839694656,-16.671755725190838,-8.482656481933594,-2.3415292236328122,-2.1499930908203124,48.229007633587784,51.221374045801525,16.778625954198475,0.0
13.160000562667847,-14.72194600830078,6.622361791992187,5.011064074707031,25.328244274809162,-130.70229007633588,-4.809160305343512,-8.429984045410155,0.3687070556640625,-0.584185205078125,30.946564885496183,60.534351145038165,13.465648854961833,0.0
13.170000553131104,-13.907917443847655,6.050147595214844,5.360617517089843,-3.6793893129770994,-133.54198473282443,6.0458015267175576,-9.375693701171874,0.97683427734375,-0.0718260498046875,14.244274809160306,73.6793893129771,16.412213740458014,0.0
13.18000054359436,-11.274295617675781,3.775656018066406,2.4947581298828125,-24.717557251908396,-138.8854961832061,15.908396946564885,-9.483432775878907,-0.0526724365234375,0.469263525390625,13.938931297709924,79.61832061068702,24.99236641221374,0.0
13.190001010894775,-8.322244970703125,1.7525556152343749,0.6607996582031249,-33.32824427480916,-134.6259541984733,25.34351145038168,-9.832986218261718,4.489128112792969,-1.7118541870117185,-2.045801526717557,83.31297709923665,29.64885496183206,0.0
13.200000762939453,-6.026205578613281,0.7829039428710937,-1.2617442749023438,-32.80916030534351,-124.67175572519083,32.01526717557252,-10.39322940673828,1.9847931762695312,-0.1484405029296875,-25.66412213740458,96.97709923664122,39.23664122137404,0.0
13.21000075340271,-4.774038110351563,0.28490999755859375,-2.0470424194335934,-27.236641221374047,-108.3206106870229,36.93129770992366,-10.359710583496094,0.06464344482421874,-0.41419688720703124,-24.625954198473284,95.74045801526718,44.534351145038165,0.0
13.220000982284546,-0.22744915771484372,-2.6288334228515624,-2.5617957763671875,-6.5038167938931295,-94.77862595419847,41.57251908396947,-9.830592016601562,-1.448492004394531,-0.28730419921875,-32.0763358778626,100.47328244274809,47.89312977099237,0.0
13.230000734329224,-0.9600748657226562,-0.5602431884765625,-2.1978771240234374,9.083969465648854,-64.85496183206106,39.12977099236641,-10.91037696533203,-3.9049429077148434,-1.1468225952148436,-17.770992366412212,93.80152671755725,50.10687022900763,0.0
13.240000247955322,1.7669208251953124,-2.4851813232421875,-2.3151930053710936,19.984732824427482,-47.06870229007634,36.99236641221374,-9.564835632324218,-3.907337109375,-0.8068459594726562,-11.114503816793894,90.91603053435115,48.656488549618324,0.0
13.250000715255737,0.6464344482421874,-1.1755530151367186,-1.5753846923828123,34.94656488549618,-21.603053435114504,30.83969465648855,-10.340556970214843,-5.109226342773437,-0.10295067138671875,2.6717557251908395,84.36641221374046,47.80152671755725,0.0
13.260000705718994,-0.7685387329101562,1.0366893188476562,-0.6512228515624999,11.557251908396946,-11.282442748091603,18.83969465648855,-10.692504614257812,-2.655169641113281,-0.679953271484375,19.389312977099237,72.13740458015268,41.7557251908397,0.0
13.270000696182251,-0.33758243408203126,1.2306196533203124,-0.239420166015625,-1.1297709923664123,1.2671755725190839,12.961832061068701,-9.83777462158203,-3.5889082885742187,1.6472107421875,17.709923664122137,80.18320610687023,42.29007633587786,0.0
13.280000686645508,-0.7613561279296874,1.1540052001953125,0.9840168823242187,-20.15267175572519,5.938931297709924,9.129770992366412,-11.525686791992188,-5.102043737792968,4.242525341796875,43.343511450381676,73.90839694656489,43.404580152671755,0.0
13.290000677108765,1.0917559570312498,-1.388636962890625,2.003946789550781,-18.198473282442748,18.27480916030534,6.519083969465649,-9.17458076171875,-0.37828386230468747,0.08858546142578125,47.66412213740458,58.13740458015267,34.595419847328245,0.0
13.300000667572021,2.844311572265625,-5.061342309570312,2.5665841796874997,4.656488549618321,31.251908396946565,5.282442748091603,-15.174450122070311,-9.222464794921875,13.850456604003906,103.78625954198473,66.54961832061069,30.259541984732824,0.0
13.310000658035278,2.01112939453125,-4.544194750976562,3.8187516479492185,43.770992366412216,53.45038167938932,3.5267175572519083,-8.525752111816406,-4.6064439941406246,-2.683900061035156,89.22137404580153,32.74809160305343,40.916030534351144,0.0
13.320000410079956,0.16998831787109375,-2.090138049316406,6.009446166992187,70.0,67.52671755725191,-6.229007633587786,-13.43865391845703,-6.845022546386718,6.366182214355469,121.6793893129771,28.80916030534351,28.12213740458015,0.0
13.330000877380371,-3.4907460205078125,1.9201497314453124,9.332598071289063,76.0,70.76335877862596,-5.908396946564886,-9.373299499511718,0.5746083984375,0.8690952026367187,125.6793893129771,3.633587786259542,25.51145038167939,0.0
13.340000867843628,-7.517793212890624,6.581660363769531,13.646949462890625,52.25954198473283,61.786259541984734,-6.717557251908397,-14.973337182617186,-8.779537487792968,6.069301208496094,79.74045801526718,-2.8702290076335877,24.65648854961832,0.0
13.350000619888306,-9.162609753417968,2.8012159423828122,15.586252807617187,45.16030534351145,50.62595419847328,9.16030534351145,-10.242394702148436,-5.288791467285156,0.11013327636718749,116.36641221374046,-17.709923664122137,15.877862595419847,0.0
13.360000848770142,-10.328585961914062,4.6447512207031245,17.57583438720703,39.98473282442748,31.267175572519083,11.923664122137405,-13.965378283691406,-3.447650390625,2.5809493896484375,95.05343511450381,-24.091603053435115,9.282442748091603,0.0
13.37000060081482,-9.145850341796875,5.023035083007812,15.282189196777344,36.68702290076336,8.213740458015268,25.862595419847327,-10.17056865234375,1.4700398193359374,0.74699091796875,94.82442748091603,-30.091603053435115,-3.145038167938931,0.0
13.380000352859497,-3.4524387939453125,3.5098996337890624,5.106832141113281,36.0763358778626,3.2977099236641223,40.045801526717554,-11.52329259033203,1.6065093139648436,-0.0718260498046875,49.908396946564885,-17.557251908396946,-0.8702290076335878,0.0
13.390000581741333,-3.593696691894531,4.73094248046875,-4.534617944335937,11.709923664122137,18.580152671755727,37.343511450381676,-15.0547400390625,0.8259995727539062,3.1842882080078123,19.954198473282442,-14.244274809160306,8.931297709923664,0.0
13.40000057220459,-7.242460021972656,2.7940333374023436,-2.9472622436523435,-23.801526717557252,24.50381679389313,27.755725190839694,-11.322179650878905,2.6479870361328124,0.9145850341796874,12.106870229007633,3.2213740458015265,14.549618320610687,0.0
13.410000801086426,-4.2497079467773435,-6.7085530517578125,0.5027823486328125,-6.244274809160306,34.0763358778626,31.557251908396946,-10.184933862304687,4.280832568359375,-0.34237083740234375,-31.450381679389313,11.267175572519085,22.763358778625953,0.0
13.420000314712524,-4.1563340820312495,-11.6837041015625,6.49307490234375,79.95419847328245,69.16030534351145,32.36641221374046,-11.552023010253906,0.2825157958984375,0.38307226562499996,-54.916030534351144,24.793893129770993,32.82442748091603,0.0
13.43000054359436,-9.543287817382812,-4.805162731933594,9.126696728515624,159.206106870229,106.59541984732824,16.076335877862597,-11.712434521484374,-1.7214309936523438,1.20667763671875,-57.908396946564885,28.68702290076336,32.534351145038165,0.0
13.440000534057617,-2.437297290039062,-9.854534033203125,-2.2361843505859373,195.22137404580153,114.35114503816794,15.770992366412214,-12.452242834472656,-0.603338818359375,1.0606313354492187,-58.56488549618321,28.900763358778626,25.81679389312977,0.0
13.450000762939453,-7.48906279296875,-3.679887951660156,-2.1452046874999997,229.5267175572519,163.78625954198472,5.374045801526718,-13.072341064453123,-2.2864625854492187,2.2074539306640624,-59.98473282442748,29.404580152671755,23.328244274809162,0.0
13.46000051498413,-14.930241552734374,9.064447485351561,1.8459294799804686,176.15267175572518,154.10687022900763,-16.641221374045802,-13.670891479492187,-1.6160861206054686,1.7453730102539062,-40.61068702290076,24.82442748091603,20.290076335877863,0.0
13.470000743865967,-5.480327600097656,-1.455674609375,-1.2928688964843749,151.25190839694656,124.76335877862596,-4.030534351145038,-14.800954663085937,-1.7836802368164062,2.0638018310546875,-41.81679389312977,10.412213740458014,21.862595419847327,0.0
13.480000495910645,-8.798691101074219,2.6336218261718747,3.3542765258789062,171.87786259541986,141.70992366412213,0.9618320610687023,-15.887922216796873,-2.578555187988281,2.70065947265625,-42.717557251908396,-7.358778625954199,24.53435114503817,0.0
13.49000072479248,-13.184868542480467,9.95987890625,3.9791631591796874,116.73282442748092,126.7175572519084,-21.72519083969466,-16.838420275878907,-1.0941501586914062,1.5849614990234373,-40.44274809160305,-22.396946564885496,20.85496183206107,0.0
13.500000715255737,-13.424288708496093,14.111424584960936,1.4125789794921875,50.0763358778626,95.43511450381679,-31.14503816793893,-16.354791540527344,-1.5275006591796874,1.5514426757812498,-37.541984732824424,-39.48091603053435,17.984732824427482,0.0
13.510000705718994,-1.6232687255859375,-11.535263598632811,-6.718129858398437,40.0763358778626,53.55725190839695,-5.587786259541985,-15.82567297363281,-1.5203180541992187,1.0582371337890624,-31.908396946564885,-56.10687022900763,14.564885496183207,0.0
13.520000696182251,-4.575319372558593,-10.297461340332031,-0.46686932373046874,160.93129770992365,119.23664122137404,-0.6412213740458015,-13.280636608886718,-2.288856787109375,-0.05746083984375,-33.31297709923664,-68.56488549618321,9.633587786259541,0.0
13.530000448226929,-13.390769885253906,8.621520178222656,3.7397429931640622,156.29007633587787,138.85496183206106,-25.129770992366414,-13.151349719238281,-2.7629087158203123,0.6416460449218749,-8.625954198473282,-73.92366412213741,0.015267175572519083,0.0
13.540000915527344,-16.321272717285154,16.069881542968748,3.478775012207031,84.18320610687023,117.93893129770993,-38.51908396946565,-17.62850682373047,-6.682216833496093,5.286397265624999,25.69465648854962,-85.69465648854961,-5.6183206106870225,0.0
13.550000667572021,-13.160926525878905,12.186486450195313,2.300827795410156,-11.022900763358779,83.1145038167939,-47.343511450381676,-10.175357055664062,-0.17477672119140625,0.27293898925781246,63.41984732824427,-100.94656488549619,6.3816793893129775,0.0
13.560000658035278,-9.306261853027344,6.567295153808593,1.889025109863281,-56.458015267175576,60.88549618320611,-50.61068702290076,-11.79862578125,0.6440402465820312,0.8547299926757812,22.793893129770993,-117.41984732824427,-6.809160305343512,0.0
13.570000886917114,-7.184999182128906,-0.4477157104492187,0.5003881469726562,-55.25190839694657,54.62595419847328,-44.50381679389313,-9.5384994140625,4.565742565917969,-0.852335791015625,39.3587786259542,-104.54961832061069,-11.450381679389313,0.0
13.580000877380371,-9.452308154296874,2.521094348144531,1.0342951171875,-35.45038167938932,63.41984732824427,-43.19083969465649,-11.303026037597656,1.668758557128906,0.016759411621093748,24.30534351145038,-103.81679389312977,-6.778625954198473,0.0
13.590000629425049,-10.259154113769531,1.7357962036132812,-0.316034619140625,-35.64885496183206,59.969465648854964,-37.908396946564885,-11.247959399414063,2.5570073730468748,-1.0103531005859374,21.954198473282442,-108.06106870229007,-5.511450381679389,0.0
13.600001335144043,-9.291896643066405,2.3319524169921872,0.12449848632812499,-19.236641221374047,69.72519083969466,-32.85496183206107,-10.20887587890625,3.718195178222656,-2.080561242675781,13.923664122137405,-107.32824427480917,-5.419847328244275,0.0
13.610000610351562,-8.781931689453124,1.446097802734375,0.023942016601562498,-16.580152671755727,72.2442748091603,-29.603053435114504,-11.516109985351562,3.1076737548828124,-1.3407529296874998,16.48854961832061,-104.09160305343511,-3.1603053435114505,0.0
13.620001077651978,-10.934318981933593,5.382165332031249,1.005564697265625,-16.137404580152673,81.02290076335878,-33.52671755725191,-11.863269226074218,1.62805712890625,-1.158793603515625,3.8931297709923665,-96.70229007633588,1.4198473282442747,0.0
13.630000591278076,-9.603142858886718,3.1292215698242187,-0.17477672119140625,-21.954198473282442,78.07633587786259,-32.12213740458015,-9.351751684570312,2.9472622436523435,-2.96881005859375,-2.2290076335877864,-97.80152671755725,-1.786259541984733,0.0
13.640000343322754,-14.432247607421875,11.956643090820311,3.277662072753906,-47.37404580152672,82.13740458015268,-43.32824427480916,-11.135431921386719,-0.3495534423828125,-1.43652099609375,-15.816793893129772,-88.53435114503817,0.44274809160305345,0.0
13.650001049041748,-9.765948571777344,4.709394665527343,-0.3232172241210937,-82.73282442748092,57.3587786259542,-38.97709923664122,-10.256759912109374,0.39983167724609375,-2.142810485839844,-24.564885496183205,-87.6030534351145,-4.519083969465649,0.0
13.660000562667847,-9.988609326171874,1.9632453613281249,-0.5961562133789062,-77.87786259541984,54.47328244274809,-34.091603053435115,-11.068394274902342,-2.0087351928710935,-1.448492004394531,-30.061068702290076,-83.54198473282443,-5.938931297709924,0.0
13.670000553131104,-8.154650854492187,0.9457096557617187,0.45968671875,-68.53435114503817,58.778625954198475,-30.610687022900763,-11.10191309814453,-2.6527754394531247,-0.7613561279296874,-18.9618320610687,-81.92366412213741,-12.427480916030534,0.0
13.680000305175781,-15.512032556152343,13.965378283691406,3.4907460205078125,-100.03053435114504,56.534351145038165,-41.038167938931295,-11.073182678222656,-3.2417490478515623,-0.11731588134765625,-5.679389312977099,-84.21374045801527,-19.00763358778626,0.0
13.690001010894775,-11.202469567871093,7.316680273437499,0.5961562133789062,-144.41221374045801,31.389312977099237,-34.88549618320611,-11.018116040039061,-2.094926452636719,-0.8690952026367187,8.01526717557252,-89.63358778625954,-21.17557251908397,0.0
13.700000762939453,-17.982848669433594,12.543222497558594,2.942473840332031,-162.3053435114504,32.88549618320611,-34.47328244274809,-11.587936035156249,-2.003946789550781,1.3287819213867187,-0.8091603053435115,-97.14503816793894,-24.015267175572518,0.0
13.71000075340271,-9.888052856445311,4.220977526855468,0.41898529052734373,-205.31297709923663,-1.6641221374045803,-23.404580152671755,-10.532093103027343,0.201112939453125,0.43574470214843747,15.114503816793894,-95.77099236641222,-28.091603053435115,0.0
13.720000505447388,-12.677297790527343,2.5905261962890624,1.158793603515625,-187.4351145038168,2.732824427480916,-15.450381679389313,-9.564835632324218,-0.19153613281249998,1.5586252807617187,5.755725190839694,-102.41221374045801,-29.46564885496183,0.0
13.730000972747803,-9.732429748535155,-3.459621398925781,-0.8930372192382812,-167.2824427480916,0.2595419847328244,-4.549618320610687,-8.693346228027343,-0.24660277099609373,1.6903063720703124,7.3893129770992365,-107.12977099236642,-31.755725190839694,0.0
13.740000486373901,-14.34605634765625,3.921702319335937,4.11802685546875,-148.45801526717557,10.931297709923664,-7.770992366412214,-8.846575134277343,-0.8643067993164062,2.748543505859375,11.908396946564885,-111.66412213740458,-31.587786259541986,0.0
13.750000953674316,-13.057975854492186,2.013523596191406,1.0797849487304687,-160.76335877862596,-2.50381679389313,-3.648854961832061,-9.006986645507812,-0.36152445068359373,2.829946362304687,17.236641221374047,-115.89312977099236,-33.61832061068702,0.0
13.760000944137573,-13.5224509765625,0.36631285400390623,1.2665326782226562,-139.8320610687023,2.519083969465649,4.870229007633588,-9.325415466308593,-0.6272808349609375,4.568136767578125,13.587786259541986,-118.53435114503817,-31.801526717557252,0.0
13.770000696182251,-9.734823950195311,-3.327940307617187,0.9337386474609375,-119.02290076335878,5.190839694656488,11.068702290076336,-9.349357482910156,-1.4125789794921875,3.833116857910156,18.396946564885496,-121.49618320610686,-31.755725190839694,0.0
13.780000448226929,-9.816226806640625,-4.072537023925781,1.6256629272460936,-89.40458015267176,14.687022900763358,8.183206106870228,-9.176974963378905,-0.6631938598632812,4.967968444824218,16.519083969465647,-120.58015267175573,-32.778625954198475,0.0
13.790000677108765,-8.2743609375,-4.493916516113281,1.0199299072265624,-59.45038167938932,22.137404580152673,4.229007633587786,-9.457096557617186,-1.2737152832031249,4.745307690429687,20.732824427480917,-115.5114503816794,-32.36641221374046,0.0
13.800000667572021,-8.291120349121094,-3.303998291015625,1.3000515014648437,-29.068702290076335,34.62595419847328,-0.6870229007633588,-8.846575134277343,-0.9552864624023437,5.257666845703125,13.312977099236642,-110.33587786259542,-32.56488549618321,0.0
13.810000658035278,-7.529764221191406,-2.6096798095703124,1.0462661254882812,-7.816793893129771,44.61068702290076,-4.030534351145038,-8.406042028808594,0.06943184814453125,5.568913061523437,12.580152671755725,-105.54198473282443,-31.893129770992367,0.0
13.820001363754272,-7.754819177246094,-1.5418658691406248,1.0869675537109373,10.274809160305344,54.70229007633588,-7.572519083969466,-6.758831286621094,0.7302315063476562,4.687846850585937,26.12213740458015,-99.20610687022901,-32.88549618320611,0.0
13.830000638961792,-7.740453967285156,1.3144167114257812,0.8714894042968749,6.106870229007634,51.267175572519086,-12.732824427480915,-8.099584216308592,-0.2442085693359375,5.193023400878906,16.870229007633586,-95.64885496183206,-29.587786259541986,0.0
13.840000629425049,-8.327033374023436,0.201112939453125,0.86191259765625,6.015267175572519,55.099236641221374,-9.618320610687023,-6.6893994384765625,2.1547814941406247,4.431667272949219,18.580152671755727,-91.2824427480916,-31.450381679389313,0.0
13.850000619888306,-8.276755139160155,0.19153613281249998,1.0654197387695312,13.374045801526718,59.404580152671755,-9.618320610687023,-8.080430603027343,-0.29448680419921874,5.078101721191406,4.580152671755725,-82.4885496183206,-26.900763358778626,0.0
13.8600013256073,-8.185775476074218,-0.028730419921875,0.9528922607421875,18.748091603053435,62.19847328244275,-11.84732824427481,-7.321468676757812,0.9457096557617187,2.8658593872070313,7.3893129770992365,-80.54961832061069,-27.541984732824428,0.0
13.87000060081482,-8.616731774902343,-0.02633621826171875,1.3455413330078123,28.48854961832061,65.40458015267176,-13.709923664122137,-6.373364819335937,0.3902548706054687,3.5003228271484375,-3.7557251908396947,-71.32824427480917,-26.625954198473284,0.0
13.880000591278076,-9.481038574218749,1.2641384765625,1.419761584472656,33.05343511450382,67.63358778625954,-15.48091603053435,-7.611167077636718,-0.7278373046875,3.3016040893554686,0.3053435114503817,-65.43511450381679,-21.923664122137403,0.0
13.890000581741333,-9.931148486328125,1.8363526733398436,1.9225439331054686,32.70229007633588,67.77099236641222,-16.48854961832061,-7.728482958984374,-0.9097966308593749,2.978386865234375,2.6717557251908395,-61.64885496183206,-20.83969465648855,0.0
13.90000057220459,-10.503362683105468,2.5641899780273434,1.924938134765625,31.083969465648856,66.45801526717557,-16.870229007633586,-5.4515971801757805,-0.6344634399414062,2.1978771240234374,3.2977099236641223,-58.01526717557252,-21.099236641221374,0.0
13.910000562667847,-10.488997473144531,2.8850130004882812,2.1715409057617188,25.69465648854962,63.45038167938932,-16.946564885496183,-5.317521887207031,0.8020575561523438,2.6336218261718747,-6.732824427480916,-46.534351145038165,-22.38167938931298,0.0
13.920001029968262,-11.058817468261719,4.015076184082031,2.360682836914062,17.52671755725191,61.29770992366412,-17.389312977099237,-5.008669873046875,1.3646949462890625,2.2601263671875,-3.954198473282443,-38.213740458015266,-20.702290076335878,0.0
13.93000054359436,-10.467449658203124,4.050989208984375,2.683900061035156,6.412213740458015,53.954198473282446,-16.045801526717558,-6.528987927246093,-1.1851298217773436,2.9759926635742184,-6.458015267175573,-28.671755725190838,-16.763358778625953,0.0
13.940000772476196,-10.75714805908203,4.060566015625,3.5625720703124997,0.366412213740458,50.2442748091603,-14.870229007633588,-5.681440539550781,-1.675941162109375,2.5761609863281247,-5.129770992366412,-19.83206106870229,-18.18320610687023,0.0
13.950000762939453,-10.488997473144531,3.6439749267578123,3.864241479492187,-1.984732824427481,46.18320610687023,-14.183206106870228,-7.125144140624999,-3.8857892944335934,3.2920272827148436,-0.42748091603053434,-12.0,-21.603053435114504,0.0
13.960001230239868,-10.754753857421875,4.302380383300781,4.333505004882812,-3.0839694656488548,42.595419847328245,-13.801526717557252,-5.949591125488281,-2.7844565307617186,2.6862942626953124,-4.061068702290076,-4.106870229007634,-23.374045801526716,0.0
13.970001220703125,-10.419565624999999,5.044582897949218,5.341463903808593,-9.038167938931299,35.89312977099237,-13.755725190839694,-5.5641246582031245,-3.418919970703125,1.2497732666015624,0.6717557251908397,8.229007633587786,-28.229007633587788,0.0
13.980000257492065,-11.326968054199218,5.0948611328124995,6.675034228515624,-14.061068702290076,29.81679389312977,-12.916030534351146,-4.254496350097656,-2.480392919921875,-1.2928688964843749,33.31297709923664,9.374045801526718,-29.46564885496183,0.0
13.99000072479248,-10.62307276611328,3.584119885253906,7.637503295898437,-12.900763358778626,21.251908396946565,-9.969465648854962,-3.4811692138671875,-1.3000515014648437,-1.6256629272460936,38.88549618320611,20.610687022900763,-29.404580152671755,0.0
14.000000476837158,-10.836156713867187,2.722207287597656,8.092401611328125,-11.541984732824428,11.770992366412214,-8.01526717557252,-1.6519991455078125,0.7038952880859375,-3.1747114013671873,45.12977099236641,44.732824427480914,-28.564885496183205,0.0
14.010000705718994,-12.026074938964843,3.1100679565429687,9.452308154296874,-8.458015267175572,2.6412213740458017,-9.068702290076336,-1.4221557861328125,2.152387292480469,-4.903325,27.96946564885496,61.908396946564885,-23.083969465648856,0.0
14.020000696182251,-12.198457458496094,1.4796166259765624,9.878476049804688,-7.801526717557252,-10.625954198473282,-7.557251908396947,-0.5578489868164063,6.177040283203125,-5.853823059082031,28.610687022900763,84.50381679389314,-19.908396946564885,0.0
14.030000686645508,-12.447454431152343,-0.5530605834960938,10.694898815917968,8.931297709923664,-22.442748091603054,-5.801526717557252,-3.356670727539062,4.388571643066406,-2.6575638427734374,13.877862595419847,110.51908396946565,-10.229007633587786,0.0
14.040000677108765,-13.625401647949218,-1.9201497314453124,11.417947717285156,24.427480916030536,-37.221374045801525,-8.564885496183207,-8.054094384765625,1.4508862060546874,2.7581203125,1.5725190839694656,120.87022900763358,-4.870229007633588,0.0
14.0500009059906,-14.585476513671875,-3.2824504760742186,12.433089221191405,44.94656488549618,-55.66412213740458,-14.580152671755725,-13.699621899414062,-6.909665991210937,8.736441857910156,17.801526717557252,114.80916030534351,1.0687022900763359,0.0
14.060001134872437,-16.25423507080078,-1.946485949707031,13.694833496093748,59.89312977099237,-79.78625954198473,-25.61832061068702,-11.432312927246093,-3.294421484375,11.314997045898437,-54.51908396946565,121.0381679389313,-9.34351145038168,0.0
14.070000648498535,-17.867926989746092,-0.3327940307617187,14.528015673828124,50.274809160305345,-112.12213740458016,-35.083969465648856,-15.617377429199218,-1.7429788085937499,7.599196069335937,18.80916030534351,123.20610687022901,-19.52671755725191,0.0
14.08000111579895,-18.15044278564453,0.430956298828125,14.630966345214842,45.89312977099237,-150.5648854961832,-37.51145038167939,-15.693991882324218,3.775656018066406,3.706224169921875,24.015267175572518,109.29770992366412,-14.183206106870228,0.0
14.090000867843628,-17.396269262695313,1.3718775512695311,13.66849727783203,52.97709923664122,-183.0381679389313,-32.62595419847328,-14.992490795898437,5.288791467285156,4.841075756835937,16.85496183206107,94.93129770992367,-6.061068702290076,0.0
14.100000858306885,-17.094599853515625,3.0358477050781247,12.169727038574218,61.17557251908397,-208.70229007633588,-20.702290076335878,-13.807360974121092,1.89620771484375,4.084508032226562,3.053435114503817,84.7175572519084,0.7633587786259542,0.0
14.110000848770142,-16.29254229736328,5.025429284667968,7.948749511718749,60.61068702290076,-233.1908396946565,-3.969465648854962,-10.742782849121093,-0.2442085693359375,2.703053674316406,-13.725190839694656,86.13740458015268,2.7480916030534353,0.0
14.12000060081482,-16.417040783691405,7.3094976684570305,2.786850732421875,22.076335877862597,-252.42748091603053,11.725190839694656,-2.7461493041992187,8.099584216308592,-8.044517578125,-11.786259541984732,91.22137404580153,-2.122137404580153,0.0
14.130000591278076,-15.543157177734374,6.909665991210937,0.5458779785156249,-23.51145038167939,-266.1832061068702,21.236641221374047,-4.469974499511719,7.015010864257812,-1.0941501586914062,-61.31297709923664,103.66412213740458,13.297709923664122,0.0
14.140000581741333,-14.26225928955078,4.398148449707031,-1.7884686401367187,-56.30534351145038,-273.00763358778624,30.076335877862597,-1.5251064575195312,9.090783703613281,2.446874096679687,-85.1145038167939,123.1145038167939,20.65648854961832,0.0
14.15000057220459,-13.084312072753905,1.6903063720703124,-5.753266589355468,-87.45038167938931,-271.5419847328244,29.31297709923664,-6.49307490234375,3.2561142578125,-2.829946362304687,-190.29007633587787,145.64885496183206,31.435114503816795,0.0
14.160000562667847,-11.425130322265625,-1.0103531005859374,-5.111620544433594,-100.22900763358778,-256.59541984732823,24.47328244274809,-3.687070556640625,5.4013189453125,-4.149151477050781,-236.6259541984733,152.91603053435114,32.732824427480914,0.0
14.170000791549683,-10.93671318359375,-4.714183068847656,-2.104503259277344,-80.09160305343511,-226.45801526717557,18.30534351145038,-12.631807958984375,-3.6463691284179687,-1.8195932617187498,-253.6793893129771,183.96946564885496,44.42748091603053,0.0
14.180000305175781,-9.64623848876953,-6.102820031738281,-1.3934253662109375,-46.36641221374046,-195.75572519083968,14.045801526717558,-10.996568225097656,-4.771643908691406,-4.170699291992188,-223.80152671755727,164.6259541984733,43.19083969465649,0.0
14.190000534057617,-9.181763366699219,-7.225700610351562,1.0726023437499999,4.1679389312977095,-159.9083969465649,6.519083969465649,-15.251064575195311,-11.092336291503905,-0.18914193115234373,-194.85496183206106,176.35114503816794,46.717557251908396,0.0
14.200000524520874,-10.572794531249999,-4.809951135253906,1.149216796875,38.152671755725194,-135.87786259541986,-1.9389312977099236,-6.68461103515625,-7.7979148071289055,-4.455609289550781,-126.45801526717557,133.98473282442748,39.465648854961835,0.0
14.210000276565552,-11.710040319824218,-3.229778039550781,1.3934253662109375,74.58015267175573,-112.21374045801527,-9.251908396946565,-8.386888415527343,-11.743559143066406,-0.22266075439453123,-104.68702290076335,137.98473282442748,41.404580152671755,0.0
14.220000982284546,-11.092336291503905,-2.3535002319335936,1.1228805786132812,85.45038167938931,-106.44274809160305,-11.374045801526718,-10.63025537109375,-11.58075343017578,-1.0295067138671874,-44.3206106870229,111.41984732824427,40.48854961832061,0.0
14.230000734329224,-10.309432348632813,-0.47165772705078124,2.35589443359375,99.3587786259542,-93.7557251908397,-9.618320610687023,-10.244788903808594,-10.43153663330078,0.28969840087890625,6.0458015267175576,94.04580152671755,38.80916030534351,0.0
14.240000486373901,-12.746729638671875,4.304774584960938,3.2513258544921873,76.94656488549619,-98.45801526717557,-9.725190839694656,-8.690952026367187,-3.3877953491210935,-1.599326708984375,42.152671755725194,70.1526717557252,31.984732824427482,0.0
14.250001192092896,-12.251129895019531,7.105990527343749,4.127603662109375,51.038167938931295,-107.0381679389313,-1.297709923664122,-9.974244116210937,-2.147598889160156,-1.1731588134765625,46.44274809160305,70.36641221374046,30.717557251908396,0.0
14.260001182556152,-12.746729638671875,6.864176159667968,2.597708801269531,3.3893129770992365,-121.38931297709924,7.66412213740458,-9.124302526855468,-0.20350714111328125,-1.0726023437499999,41.81679389312977,69.66412213740458,29.358778625954198,0.0
14.27000093460083,-10.096348400878906,4.525041137695312,1.2832920898437499,-25.267175572519083,-127.61832061068702,17.251908396946565,-8.24802471923828,0.8379705810546875,-1.5753846923828123,28.82442748091603,72.9618320610687,29.083969465648856,0.0
14.280001640319824,-8.635885388183594,2.6503812377929687,-0.06943184814453125,-40.56488549618321,-125.37404580152672,23.374045801526716,-9.423577734375,1.2018892333984375,-1.4173673828125,19.66412213740458,78.6412213740458,32.274809160305345,0.0
14.290000677108765,-6.414066247558593,2.114080065917969,-0.8379705810546875,-44.045801526717554,-115.83206106870229,25.770992366412212,-9.751583361816406,3.394977954101562,-2.2361843505859373,0.8091603053435115,86.3969465648855,34.68702290076336,0.0
14.30000114440918,-3.81156904296875,1.5442600708007812,-1.180341418457031,-41.63358778625954,-101.83206106870229,26.82442748091603,-9.962273107910155,0.00239420166015625,-0.5482721801757812,-13.618320610687023,96.6412213740458,40.74809160305343,0.0
14.310000658035278,-0.7876923461914062,-0.22266075439453123,-1.7214309936523438,-35.38931297709924,-85.25190839694656,28.35114503816794,-9.955090502929687,-2.4013842651367185,0.143652099609375,-0.10687022900763359,94.97709923664122,45.81679389312977,0.0
14.320001125335693,1.9416975463867185,-2.1260510742187497,-2.8323405639648436,-31.923664122137403,-64.94656488549619,25.755725190839694,-8.341398583984375,-0.8858546142578124,-1.2808978881835937,-6.5038167938931295,93.22137404580153,45.267175572519086,0.0
14.330000638961792,3.2417490478515623,-3.342305517578125,-3.0909143432617188,-13.022900763358779,-36.87022900763359,21.893129770992367,-8.015787158203125,-3.9719805541992184,0.05027823486328125,0.6106870229007634,93.6030534351145,47.37404580152672,0.0
14.340001106262207,3.3303345092773435,-4.280832568359375,-1.5801730957031248,5.755725190839694,-6.854961832061068,14.870229007633588,-12.674903588867187,-10.041281762695311,5.908889697265625,55.06870229007634,92.87022900763358,48.12213740458015,0.0
14.350000619888306,0.033518823242187495,-0.8595183959960937,2.2936451904296873,9.923664122137405,14.961832061068701,4.961832061068702,-9.782707983398437,-6.112396838378906,2.849099975585937,75.49618320610686,67.61832061068702,45.29770992366412,0.0
14.360000610351562,3.057395520019531,-2.6910826660156246,3.938461730957031,26.99236641221374,21.557251908396946,9.007633587786259,-13.244723583984374,-4.1946413085937495,-0.22744915771484372,84.29007633587786,61.02290076335878,38.70229007633588,0.0
14.37000060081482,1.8004396484374998,0.34237083740234375,6.76122548828125,58.61068702290076,42.25954198473283,11.114503816793894,-10.603919152832031,-1.5394716674804687,0.5267243652343749,73.48091603053435,56.30534351145038,28.50381679389313,0.0
14.380000591278076,1.7429788085937499,-0.016759411621093748,9.198522778320312,80.76335877862596,44.3206106870229,17.786259541984734,-13.575123413085937,-11.125855114746093,5.2073886108398435,118.01526717557252,57.02290076335878,20.3206106870229,0.0
14.390000581741333,-0.8547299926757812,1.0726023437499999,12.442666027832031,112.06106870229007,52.54961832061068,26.35114503816794,-9.119514123535156,-5.178658190917968,2.437297290039062,153.64885496183206,17.068702290076335,22.53435114503817,0.0
14.40000033378601,-2.518700146484375,1.7214309936523438,14.482525842285156,132.19847328244273,52.93129770992366,29.31297709923664,-14.678850378417968,-6.253654736328125,4.898536596679687,158.65648854961833,10.625954198473282,17.083969465648856,0.0
14.410000562667847,-4.92247861328125,4.534617944335937,13.654132067871092,121.20610687022901,40.88549618320611,26.229007633587788,-9.9981861328125,2.1212626708984375,3.3016040893554686,172.76335877862596,-17.328244274809162,5.465648854961832,0.0
14.420000553131104,-3.258508459472656,4.311957189941406,10.091559997558592,83.43511450381679,27.770992366412212,21.72519083969466,-16.876727502441405,-6.363788012695312,7.654262707519531,99.06870229007633,-18.65648854961832,18.076335877862597,0.0
14.43000054359436,-5.722141967773437,5.616797094726562,6.315903979492187,40.6412213740458,17.709923664122137,18.50381679389313,-10.17056865234375,1.5969325073242187,3.0813375366210938,138.35114503816794,-31.358778625954198,-1.4198473282442747,0.0
14.440000534057617,-4.627991809082031,5.5090580200195305,4.4196962646484375,24.33587786259542,23.00763358778626,21.64885496183206,-12.27028350830078,3.797203833007812,2.6408044311523438,89.96946564885496,-32.6412213740458,-5.984732824427481,0.0
14.450001001358032,-6.8593877563476555,6.1842228881835934,3.5218706420898434,-2.030534351145038,13.908396946564885,26.198473282442748,-9.437942944335937,7.529764221191406,-0.15562310791015624,55.847328244274806,-33.32824427480916,-12.320610687022901,0.0
14.46000051498413,-8.382100012207031,3.1962592163085937,3.5865140869140624,-25.96946564885496,19.64885496183206,32.36641221374046,-13.084312072753905,3.4356793823242184,-1.7310078002929687,-7.099236641221374,-25.69465648854962,-1.8625954198473282,0.0
14.470000982284546,-9.816226806640625,0.6464344482421874,4.259284753417968,-58.30534351145038,24.213740458015266,28.82442748091603,-12.011709729003906,4.204218115234375,-1.0390835205078124,-41.19083969465649,-13.48091603053435,11.679389312977099,0.0
14.480000495910645,-9.540893615722656,-1.687912170410156,3.0023288818359375,-40.961832061068705,26.793893129770993,26.198473282442748,-12.227187878417968,1.3958195678710936,-0.20350714111328125,-82.19847328244275,-7.923664122137405,23.587786259541986,0.0
14.490000486373901,-14.712369201660156,-0.6775590698242188,7.491456994628906,-11.725190839694656,47.87786259541985,20.47328244274809,-11.669338891601562,-0.7445967163085937,-0.40222587890625,-93.55725190839695,2.8244274809160306,29.0381679389313,0.0
14.500000238418579,-1.9991583862304687,-15.291766003417967,-0.143652099609375,85.98473282442748,83.98473282442748,32.85496183206107,-11.597512841796874,-3.0933085449218747,0.5434837768554687,-95.63358778625954,6.122137404580153,27.603053435114504,0.0
14.510000705718994,-8.003816149902343,-8.932766394042968,1.0199299072265624,147.9083969465649,137.32824427480915,13.511450381679388,-12.504915270996094,-4.857835168457031,2.422932080078125,-81.22137404580153,3.0381679389312977,18.30534351145038,0.0
14.520000696182251,-4.515464331054687,-11.195286962890624,-3.1483751831054687,189.46564885496184,151.75572519083968,8.641221374045802,-12.7563064453125,-2.559401574707031,1.6639701538085936,-55.9236641221374,-0.4580152671755725,14.687022900763358,0.0
14.530000925064087,-10.218452685546874,-2.2936451904296873,1.2880804931640624,249.0381679389313,197.66412213740458,-1.618320610687023,-13.778630554199218,-1.0702081420898437,0.7206546997070312,-69.5114503816794,-12.50381679389313,9.49618320610687,0.0
14.540001392364502,-6.579266162109374,-6.2009822998046875,-1.3479355346679687,250.53435114503816,185.3587786259542,-6.351145038167939,-16.00044969482422,-2.592920397949219,2.1547814941406247,-52.19847328244275,-17.954198473282442,11.022900763358779,0.0
14.550000429153442,-13.757082739257811,6.323086584472656,2.327164013671875,253.61832061068702,195.4198473282443,-15.618320610687023,-16.946159350585937,-2.061407629394531,2.1595698974609374,-34.412213740458014,-38.54961832061068,16.885496183206108,0.0
14.560001373291016,-4.690241052246093,-6.526593725585937,-2.1787235107421874,221.23664122137404,166.51908396946564,-7.068702290076335,-16.42661759033203,1.1085153686523437,0.30885201416015623,-25.938931297709924,-59.786259541984734,12.82442748091603,0.0
14.570000410079956,-13.117830895996093,8.789114294433594,2.882618798828125,227.54198473282443,184.68702290076337,-16.0,-15.509638354492187,1.3144167114257812,0.22744915771484372,-56.48854961832061,-68.16793893129771,15.374045801526718,0.0
14.58000111579895,-12.437877624511717,15.612589025878906,1.7908628417968748,133.8320610687023,151.6793893129771,-34.58015267175573,-15.940594653320312,-1.2378022583007813,0.8858546142578124,-52.18320610687023,-73.16030534351145,13.511450381679388,0.0
14.590000867843628,-16.333243725585938,19.737798486328124,1.848323681640625,31.267175572519083,119.49618320610686,-50.6412213740458,-13.134590307617186,-2.1787235107421874,0.28490999755859375,-40.10687022900763,-84.97709923664122,8.290076335877863,0.0
14.600001335144043,-12.77546005859375,12.088324182128906,1.1013327636718748,-62.6412213740458,74.82442748091603,-52.87022900763359,-12.559981909179687,-1.4173673828125,0.4860229370117187,-46.62595419847328,-97.6030534351145,4.656488549618321,0.0
14.610000610351562,-8.243236315917969,5.183446594238281,0.6512228515624999,-85.6030534351145,56.51908396946565,-46.30534351145038,-10.371681591796875,-1.5083470458984374,-0.20350714111328125,-44.274809160305345,-98.44274809160305,-0.24427480916030533,0.0
14.620000839233398,-9.222464794921875,2.2649147705078123,0.8044517578125,-95.17557251908397,52.42748091603053,-41.52671755725191,-12.938265771484375,-5.7700260009765625,1.9105729248046874,-9.587786259541986,-106.3969465648855,-7.221374045801527,0.0
14.630000591278076,-9.129090930175781,-0.967257470703125,1.189918225097656,-68.3206106870229,59.267175572519086,-32.656488549618324,-11.307814440917968,-3.6942531616210936,1.0366893188476562,29.6793893129771,-117.31297709923665,-2.8244274809160306,0.0
14.640001058578491,-8.1594392578125,-3.191470812988281,1.1635820068359375,-38.396946564885496,67.19083969465649,-24.9618320610687,-10.450690246582031,-0.9552864624023437,0.30885201416015623,39.954198473282446,-129.5267175572519,-8.473282442748092,0.0
14.65000057220459,-9.548076220703125,-1.6232687255859375,1.7788918334960937,-15.816793893129772,74.09160305343511,-25.00763358778626,-10.644620581054687,1.0007762939453124,-1.9871873779296874,50.06106870229008,-130.0763358778626,-19.908396946564885,0.0
14.660000562667847,-9.251195214843749,2.549824768066406,2.683900061035156,0.549618320610687,81.43511450381679,-29.31297709923664,-11.039663854980468,2.8131869506835936,-1.8100164550781248,50.19847328244275,-121.96946564885496,-18.80916030534351,0.0
14.670000314712524,-9.10993731689453,2.224213342285156,1.5203180541992187,-1.450381679389313,76.82442748091603,-31.480916030534353,-10.594342346191405,3.0071172851562498,-1.3359645263671873,35.83206106870229,-116.83969465648855,-15.923664122137405,0.0
14.68000054359436,-8.152256652832031,2.0278888061523435,1.6927005737304686,12.67175572519084,79.26717557251908,-31.083969465648856,-8.700528833007812,3.0047230834960934,-1.5059528442382812,19.022900763358777,-106.83969465648855,-16.33587786259542,0.0
14.690000534057617,-8.24802471923828,2.9448680419921875,0.8164227661132812,7.3893129770992365,75.57251908396947,-31.328244274809162,-10.848127722167968,0.9193734375,-1.5227122558593749,16.50381679389313,-97.19083969465649,-12.473282442748092,0.0
14.700000524520874,-10.091559997558592,6.746860278320312,1.905784521484375,4.748091603053435,77.61832061068702,-35.63358778625954,-10.824185705566405,0.38786066894531246,-0.258573779296875,3.969465648854962,-96.80916030534351,-11.083969465648854,0.0
14.71000075340271,-8.875305554199219,6.174646081542968,1.6711527587890624,-21.129770992366414,65.80152671755725,-36.16793893129771,-10.524910498046875,-0.7876923461914062,-0.6392518432617187,17.770992366412212,-92.18320610687023,-14.748091603053435,0.0
14.720000743865967,-14.992490795898437,12.808978881835937,3.6535517333984373,-52.48854961832061,64.42748091603053,-44.36641221374046,-10.235212097167969,-0.9050082275390624,0.565031591796875,7.511450381679389,-94.22900763358778,-15.633587786259541,0.0
14.730000734329224,-9.351751684570312,3.5290532470703124,0.6272808349609375,-57.69465648854962,50.88549618320611,-35.603053435114504,-9.270348828125,-0.7733271362304687,-0.5003881469726562,20.427480916030536,-91.64885496183206,-20.198473282442748,0.0
14.740000486373901,-12.998120812988281,7.110778930664062,1.4867992309570313,-76.8854961832061,48.152671755725194,-40.13740458015267,-10.687716210937499,-2.446874096679687,0.7900865478515624,12.80916030534351,-94.90076335877863,-21.81679389312977,0.0
14.750000715255737,-8.904035974121093,0.689530078125,-0.8547299926757812,-86.16793893129771,31.83206106870229,-30.916030534351144,-9.050082275390624,0.32082302246093747,-1.2785036865234374,33.83206106870229,-90.61068702290076,-27.083969465648856,0.0
14.760000705718994,-14.951789367675781,11.415553515625,4.271255761718749,-97.7557251908397,38.87022900763359,-38.79389312977099,-9.667786303710937,-0.29927520751953124,0.1388636962890625,27.251908396946565,-100.0,-27.69465648854962,0.0
14.770000696182251,-10.66137999267578,5.839457849121094,0.8379705810546875,-138.8854961832061,13.877862595419847,-32.82442748091603,-10.81460889892578,1.0295067138671874,-0.29448680419921874,40.25954198473283,-98.01526717557252,-29.114503816793892,0.0
14.780000686645508,-14.35802735595703,12.167332836914062,4.460397692871093,-163.34351145038167,3.816793893129771,-33.14503816793893,-10.026916552734374,0.3184288208007812,1.1827356201171875,25.450381679389313,-102.12213740458016,-27.16030534351145,0.0
