timestamp,Thigh_L_Acc_X,Thigh_L_Acc_Y,Thigh_L_Acc_Z,Thigh_L_Gyr_X,Thigh_L_Gyr_Y,Thigh_L_Gyr_Z,Thigh_R_Acc_X,Thigh_R_Acc_Y,Thigh_R_Acc_Z,Thigh_R_Gyr_X,Thigh_R_Gyr_Y,Thigh_R_Gyr_Z,gpio_output
10.000000476837158,-13.953407275390624,1.9105729248046874,-0.7493851196289062,-2.900763358778626,6.656488549618321,43.3587786259542,-9.80665,-3.967192150878906,-1.9680337646484374,-7.801526717557252,-27.282442748091604,18.15267175572519,0.0
10.010000705718994,-14.506467858886717,0.507570751953125,2.73896669921875,-30.549618320610687,3.6030534351145036,35.099236641221374,-9.552864624023437,-2.528276953125,-1.6112977172851561,-7.297709923664122,-19.267175572519083,14.763358778625955,1.0
10.020000696182251,-12.677297790527343,-2.0470424194335934,5.97592734375,-47.83206106870229,-5.893129770992366,28.35114503816794,-9.950302099609374,-1.9201497314453124,-0.7781155395507812,-4.015267175572519,-12.885496183206106,16.229007633587788,1.0
10.030000925064087,-12.184092248535155,-2.252943762207031,6.5026517089843745,-47.66412213740458,-12.732824427480915,21.419847328244273,-11.554417211914062,-2.5737667846679684,0.12689268798828124,-3.404580152671756,-7.145038167938932,19.236641221374047,1.0
10.040000677108765,-10.038887561035155,-2.269703173828125,4.570530969238281,-45.70992366412214,-17.404580152671755,15.786259541984732,-11.908759057617187,-2.9664158569335934,1.5945383056640625,0.07633587786259542,-8.15267175572519,15.587786259541986,1.0
10.050000667572021,-7.977479931640625,-1.7286135986328124,1.2378022583007813,-36.47328244274809,-18.12213740458015,9.618320610687023,-12.356474768066406,-2.2457611572265623,2.195482922363281,5.9541984732824424,-12.65648854961832,14.564885496183207,1.0
10.060000658035278,-6.9719152343749995,-1.687912170410156,-1.1013327636718748,-27.31297709923664,-14.717557251908397,7.022900763358779,-11.980585107421874,-0.7948749511718749,2.5737667846679684,8.473282442748092,-18.16793893129771,13.908396946564885,1.0
10.070001125335693,-6.3973068359375,-0.82360537109375,-3.1220389648437497,-22.198473282442748,-4.33587786259542,4.580152671755725,-11.899182250976562,0.08140285644531249,2.8227637573242186,5.541984732824427,-24.137404580152673,14.473282442748092,1.0
10.080000638961792,-5.2624552490234375,-2.1835119140624997,-5.267243652343749,-20.885496183206108,5.557251908396947,5.129770992366412,-11.67652149658203,0.6272808349609375,2.940079638671875,-1.83206106870229,-30.198473282442748,17.022900763358777,1.0
10.090000867843628,-4.651933825683593,-3.21780703125,-5.276820458984375,1.1145038167938932,29.709923664122137,6.0,-11.839327209472655,0.5027823486328125,3.347093920898437,-7.9541984732824424,-39.20610687022901,20.641221374045802,1.0
10.100000619888306,-5.580884069824219,-1.5538368774414062,-4.704606262207031,17.297709923664122,52.732824427480914,5.923664122137405,-11.195286962890624,0.5315127685546874,3.27526787109375,-24.9618320610687,-45.98473282442748,21.83206106870229,1.0
10.110001564025879,-7.912836486816405,1.5849614990234373,-2.446874096679687,24.229007633587788,67.7557251908397,5.984732824427481,-11.911153259277343,-1.5777788940429687,4.201823913574218,-20.580152671755727,-52.0763358778626,26.213740458015266,1.0
10.120001792907715,-8.63827958984375,2.375048046875,-0.6440402465820312,26.82442748091603,73.61832061068702,8.580152671755725,-11.066000073242186,-1.2378022583007813,3.9432501342773434,-13.435114503816793,-61.61832061068702,23.96946564885496,1.0
10.130000829696655,-9.878476049804688,3.4907460205078125,0.63206923828125,23.557251908396946,74.04580152671755,8.534351145038167,-11.477802758789062,-2.3056161987304686,4.537012145996093,-13.770992366412214,-70.91603053435115,22.458015267175572,1.0
10.140000820159912,-9.892841259765625,2.2170307373046874,1.2761094848632812,12.351145038167939,66.38167938931298,8.396946564885496,-11.757924353027343,-3.0310593017578125,3.7301661865234372,10.564885496183207,-80.82442748091603,22.213740458015266,1.0
10.15000057220459,-10.94868419189453,2.042254016113281,1.9871873779296874,5.770992366412214,61.3587786259542,4.152671755725191,-9.80665,-0.1484405029296875,2.710236279296875,23.587786259541986,-88.50381679389314,13.893129770992367,1.0
10.160000801086426,-11.250353601074218,2.6695348510742187,2.940079638671875,-1.7099236641221374,53.00763358778626,0.6564885496183206,-11.88721124267578,-4.091690637207031,4.062960217285156,7.648854961832061,-98.30534351145039,15.145038167938932,1.0
10.170000791549683,-11.966219897460936,3.794809631347656,3.6080619018554687,-10.80916030534351,43.25190839694657,-0.04580152671755725,-9.512163195800781,-0.46208092041015625,1.5849614990234373,29.72519083969466,-98.04580152671755,7.221374045801527,1.0
10.180001020431519,-11.77947216796875,5.738901379394531,3.4452561889648434,-21.984732824427482,31.31297709923664,1.1297709923664123,-10.137049829101562,-1.429338391113281,1.7118541870117185,23.267175572519083,-95.05343511450381,4.763358778625954,1.0
10.190000534057617,-11.066000073242186,4.278438366699218,2.2673089721679687,-39.23664122137404,15.786259541984732,6.320610687022901,-9.37808790283203,-0.8403647827148437,1.1444283935546875,19.66412213740458,-90.90076335877863,2.4732824427480917,1.0
10.200001001358032,-11.367669482421874,3.821145849609375,2.379836450195312,-40.38167938931298,12.778625954198473,8.916030534351146,-9.126696728515624,-0.5602431884765625,0.4165910888671875,18.076335877862597,-85.31297709923665,0.7480916030534351,1.0
10.210214376449585,-10.28549033203125,2.4396914916992185,2.1356278808593747,-39.099236641221374,8.366412213740459,11.114503816793894,-9.598354455566406,-1.1037269653320312,0.63206923828125,18.427480916030536,-78.54961832061069,-1.1450381679389312,0.0
10.220000982284546,-10.036493359375,2.5761609863281247,2.1547814941406247,-36.412213740458014,5.938931297709924,12.290076335877863,-8.63827958984375,-0.00239420166015625,0.0909796630859375,13.770992366412214,-68.54961832061069,-3.8473282442748094,0.0
10.230000495910645,-9.782707983398437,2.5378537597656248,2.013523596191406,-34.229007633587784,3.4198473282442747,13.145038167938932,-9.236830004882812,0.009576806640625,-0.086191259765625,15.19083969465649,-53.69465648854962,-5.893129770992366,0.0
10.24000096321106,-11.1474029296875,5.035006091308594,2.6192566162109374,-43.11450381679389,0.48854961832061067,12.366412213740459,-9.481038574218749,-0.0383072265625,-0.8499415893554687,13.32824427480916,-44.88549618320611,-7.801526717557252,0.0
10.250000715255737,-8.700528833007812,3.1651345947265623,1.3742717529296875,-48.36641221374046,-8.793893129770993,16.80916030534351,-9.210493786621093,1.6400281372070311,-0.055066638183593745,3.4656488549618323,-32.091603053435115,-9.221374045801527,0.0
10.260000944137573,-8.985438830566405,1.6615759521484375,0.8355763793945312,-43.908396946564885,-9.725190839694656,19.236641221374047,-9.433154541015625,0.2561795776367187,-0.2609679809570312,-5.755725190839694,-14.564885496183207,-7.083969465648855,0.0
10.270000696182251,-8.693346228027343,0.0143652099609375,0.2609679809570312,-34.12213740458015,-7.267175572519084,19.709923664122137,-10.36210478515625,-0.3854664672851562,0.143652099609375,6.076335877862595,-2.16793893129771,-6.534351145038168,0.0
10.280000925064087,-8.109161022949218,-1.1611878051757811,-0.2346317626953125,-9.450381679389313,-0.2595419847328244,18.610687022900763,-9.907206469726562,-1.177947216796875,0.296881005859375,11.694656488549619,-3.2977099236641223,-8.580152671755725,0.0
10.290000677108765,-8.743624462890624,0.49320554199218747,-0.2154781494140625,1.465648854961832,4.67175572519084,14.091603053435115,-9.619902270507811,-1.1707646118164061,0.7422025146484375,16.564885496183205,-2.381679389312977,-12.030534351145038,0.0
10.300000667572021,-9.586383447265625,1.3646949462890625,-0.25139117431640623,1.5877862595419847,5.984732824427481,10.381679389312977,-9.169792358398437,-0.74699091796875,1.0630255371093749,21.770992366412212,1.5877862595419847,-16.35114503816794,0.0
10.310001134872437,-9.624690673828125,1.1659762084960936,-0.2753331909179687,1.4961832061068703,6.977099236641221,8.65648854961832,-9.17458076171875,0.02633621826171875,1.68551796875,24.977099236641223,4.244274809160306,-16.625954198473284,0.0
10.320000886917114,-9.674968908691406,1.0702081420898437,-0.2346317626953125,0.9923664122137404,9.053435114503817,6.625954198473282,-8.468291271972657,1.1420341918945311,1.9129671264648436,22.610687022900763,5.32824427480916,-16.427480916030536,0.0
10.33000111579895,-10.218452685546874,2.212242333984375,0.01915361328125,-4.320610687022901,9.679389312977099,3.7404580152671754,-8.441955053710936,1.9847931762695312,2.521094348144531,20.458015267175572,6.8396946564885495,-12.595419847328245,0.0
10.340000867843628,-9.6151138671875,1.5059528442382812,-0.488417138671875,-7.297709923664122,8.992366412213741,3.954198473282443,-7.7763669921875,3.3590649291992185,2.3343466186523436,15.358778625954198,7.770992366412214,-10.534351145038167,0.0
10.350001096725464,-8.961496813964843,0.612915625,-0.9935936889648437,-8.442748091603054,6.564885496183206,4.687022900763359,-6.847416748046874,4.376600634765625,2.817975354003906,-6.061068702290076,12.763358778625955,-6.412213740458015,0.0
10.360000848770142,-10.014945544433592,1.005564697265625,-0.6272808349609375,-10.366412213740459,7.526717557251908,3.3893129770992365,-8.329427575683594,2.750937707519531,3.296815686035156,-13.923664122137405,20.244274809160306,1.3129770992366412,0.0
10.370000839233398,-10.39322940673828,1.5203180541992187,0.14125789794921875,-7.694656488549619,10.50381679389313,1.9694656488549618,-8.760383874511719,2.379836450195312,3.375824340820312,-20.564885496183205,19.954198473282442,6.2748091603053435,0.0
10.380000591278076,-9.900023864746093,0.5770026000976562,-0.3112462158203125,-4.229007633587786,9.908396946564885,2.6259541984732824,-9.052476477050782,1.3239935180664062,3.289633081054687,-23.083969465648856,20.610687022900763,9.19083969465649,0.0
10.390000820159912,-10.378864196777343,1.7597382202148437,0.08140285644531249,-1.633587786259542,11.908396946564885,0.6412213740458015,-8.224082702636718,2.221819140625,2.5617957763671875,-14.702290076335878,22.916030534351144,8.977099236641221,0.0
10.40000057220459,-9.967061511230469,1.6998831787109374,0.41898529052734373,-4.8396946564885495,10.82442748091603,-0.13740458015267176,-7.4770917846679685,2.6958710693359373,1.85790048828125,-20.244274809160306,27.068702290076335,7.877862595419847,0.0
10.410000562667847,-9.64623848876953,2.032677209472656,0.411802685546875,-5.9541984732824424,10.854961832061068,-0.07633587786259542,-7.867346655273437,1.9991583862304687,2.0374656127929685,-37.847328244274806,31.81679389312977,12.778625954198473,0.0
10.42000126838684,-9.861716638183593,2.2002713256835937,0.737414111328125,-10.67175572519084,11.251908396946565,-0.4732824427480916,-8.183381274414062,2.0159177978515626,1.6208745239257811,-47.282442748091604,35.6793893129771,15.297709923664122,0.0
10.43000054359436,-9.557653027343749,2.166752502441406,0.7038952880859375,-11.297709923664122,11.48091603053435,0.42748091603053434,-8.37012900390625,1.0366893188476562,1.1085153686523437,-63.37404580152672,44.152671755725194,17.099236641221374,0.0
10.440001010894775,-9.809044201660155,2.511517541503906,0.8499415893554687,-13.587786259541986,11.206106870229007,0.3969465648854962,-9.423577734375,-0.7661445312499999,1.8315642700195311,-55.465648854961835,48.18320610687023,19.46564885496183,0.0
10.450000762939453,-9.337386474609374,1.7717092285156248,0.6057330200195312,-13.221374045801527,10.793893129770993,2.045801526717557,-9.466673364257812,-1.5873557006835937,1.7860744384765623,-51.98473282442748,46.10687022900763,17.099236641221374,0.0
10.460000991821289,-9.524134204101562,2.068590234375,0.9433154541015625,-10.106870229007633,12.15267175572519,0.7480916030534351,-8.80347950439453,-0.12689268798828124,1.2832920898437499,-50.213740458015266,45.038167938931295,13.664122137404581,0.0
10.470000743865967,-9.418789331054686,1.687912170410156,0.7996633544921875,-10.534351145038167,11.618320610687023,0.7480916030534351,-9.564835632324218,-1.886630908203125,2.1499930908203124,-48.70229007633588,51.31297709923664,13.954198473282442,0.0
10.480000972747803,-8.343792785644531,1.8626888916015625,0.6560112548828124,-11.251908396946565,6.412213740458015,1.5419847328244274,-11.25514200439453,-4.000710974121094,3.0454245117187497,-27.129770992366414,52.18320610687023,10.274809160305344,0.0
10.490000486373901,-10.639832177734375,2.252943762207031,1.2497732666015624,-21.633587786259543,5.709923664122138,-1.6030534351145038,-10.601524951171875,-3.5242648437499997,2.5522189697265625,-11.816793893129772,38.01526717557252,5.541984732824427,0.0
10.500000715255737,-10.09395419921875,0.9241618408203125,0.9002198242187499,-11.740458015267176,4.015267175572519,-0.15267175572519084,-9.095572106933593,-2.1260510742187497,2.003946789550781,-12.763358778625955,30.396946564885496,12.045801526717558,0.0
10.510000705718994,-9.212887988281249,0.8810662109374999,0.8571241943359375,-4.442748091603053,3.099236641221374,-0.3969465648854962,-9.315838659667968,-1.4413093994140624,2.43250888671875,-8.534351145038167,39.343511450381676,1.6030534351145038,0.0
10.52000093460083,-9.516951599121093,1.7214309936523438,1.3958195678710936,-0.3511450381679389,3.2519083969465647,-3.0229007633587788,-10.036493359375,-2.281674182128906,2.408566870117187,-3.312977099236641,40.74809160305343,2.0,0.0
10.530000925064087,-9.2320416015625,1.0749965454101562,1.13006318359375,3.450381679389313,1.3282442748091603,-3.572519083969466,-10.905588562011719,-3.134009973144531,3.1196447631835937,10.061068702290076,35.587786259541986,0.8702290076335878,0.0
10.540001153945923,-8.513781103515624,-0.6751648681640625,0.2609679809570312,17.572519083969464,0.5954198473282443,-3.0839694656488548,-10.77630167236328,-2.8562825805664063,3.8091748413085935,28.702290076335878,28.68702290076336,-1.7709923664122138,0.0
10.550000667572021,-9.586383447265625,1.6903063720703124,0.9217676391601562,28.732824427480917,5.343511450381679,-7.877862595419847,-10.120290417480469,-1.8650830932617186,4.005499377441406,49.770992366412216,21.83206106870229,-6.290076335877862,0.0
10.560000896453857,-9.552864624023437,2.427720483398437,0.8475473876953125,28.977099236641223,3.66412213740458,-8.793893129770993,-9.81862100830078,-1.1659762084960936,4.129997863769531,46.87022900763359,18.80916030534351,-9.725190839694656,0.0
10.570001125335693,-9.536105212402344,2.7461493041992187,0.718260498046875,29.00763358778626,2.183206106870229,-7.862595419847328,-9.694122521972655,-0.24899697265624998,4.027047192382812,44.35114503816794,18.931297709923665,-11.32824427480916,0.0
10.580000877380371,-9.753977563476562,3.7301661865234372,1.0989385620117187,23.068702290076335,1.9236641221374047,-7.6183206106870225,-9.629479077148437,-0.086191259765625,3.902548706054687,40.152671755725194,15.893129770992367,-12.580152671755725,0.0
10.590001106262207,-9.622296472167967,4.2329485351562495,0.7398083129882812,3.0229007633587788,-6.534351145038168,-6.061068702290076,-9.727641345214844,0.584185205078125,4.00310517578125,36.213740458015266,12.045801526717558,-12.610687022900763,0.0
10.600000619888306,-10.137049829101562,3.265691064453125,0.7829039428710937,-3.877862595419847,-7.175572519083969,-4.0458015267175576,-9.588777648925781,0.928950244140625,4.218583325195312,28.076335877862597,9.068702290076336,-12.67175572519084,0.0
10.61000108718872,-9.552864624023437,2.8131869506835936,0.45010991210937495,-5.282442748091603,-8.870229007633588,-2.8244274809160306,-9.452308154296874,1.177947216796875,4.027047192382812,19.251908396946565,7.435114503816794,-11.83206106870229,0.0
10.62000060081482,-8.576030346679687,1.656787548828125,-0.143652099609375,-4.99236641221374,-9.16030534351145,-2.717557251908397,-9.583989245605467,0.9888052856445312,3.727771984863281,11.618320610687023,4.763358778625954,-11.755725190839694,0.0
10.630000829696655,-9.387664709472656,1.446097802734375,0.1149216796875,-0.6717557251908397,-3.83206106870229,-3.984732824427481,-9.260772021484375,0.5027823486328125,3.440467785644531,6.3816793893129775,3.8931297709923665,-11.145038167938932,0.0
10.640000820159912,-9.677363110351562,2.3582886352539063,0.4644751220703125,4.412213740458015,1.2366412213740459,-5.374045801526718,-8.889670764160156,0.24660277099609373,3.189076611328125,1.9236641221374047,2.6106870229007635,-10.534351145038167,0.0
10.650000810623169,-9.215282189941405,2.1906945190429687,0.699106884765625,0.44274809160305345,1.5419847328244274,-6.213740458015267,-9.313444458007812,-0.0718260498046875,2.6719290527343746,3.6946564885496183,0.6564885496183206,-10.83969465648855,0.0
10.660000562667847,-8.40125362548828,0.41898529052734373,0.023942016601562498,2.045801526717557,0.15267175572519084,-4.809160305343512,-8.238447912597655,0.3711012573242187,2.2026655273437497,-3.3740458015267176,0.7480916030534351,-11.618320610687023,0.0
10.670000553131104,-8.671798413085938,0.6200982299804687,0.3950432739257812,10.488549618320612,4.198473282442748,-6.366412213740458,-8.312668164062499,0.3232172241210937,1.5969325073242187,-1.450381679389313,2.5801526717557253,-10.458015267175572,0.0
10.68000054359436,-9.191340173339842,1.3431471313476562,0.8643067993164062,13.282442748091603,6.534351145038168,-8.977099236641221,-7.740453967285156,0.47884033203125,1.426944189453125,-6.5038167938931295,3.83206106870229,-9.84732824427481,0.0
10.690000534057617,-9.782707983398437,1.6208745239257811,0.9959878906249999,15.84732824427481,5.877862595419847,-9.725190839694656,-7.52737001953125,0.4955997436523437,1.1276689819335937,-6.137404580152672,7.0534351145038165,-8.290076335877863,0.0
10.700001001358032,-9.689334118652344,1.7669208251953124,1.1731588134765625,18.290076335877863,4.687022900763359,-9.19083969465649,-7.656656909179687,-0.16759411621093748,1.2210428466796874,-11.206106870229007,9.572519083969466,-6.0458015267175576,0.0
10.71000051498413,-9.95987890625,1.8818425048828125,1.2497732666015624,21.00763358778626,3.66412213740458,-8.717557251908397,-7.484274389648437,-0.3806780639648437,1.4006079711914061,-14.106870229007633,13.145038167938932,-5.480916030534351,0.0
10.720000743865967,-9.65342109375,2.442085693359375,1.9297265380859374,22.65648854961832,3.2977099236641223,-8.076335877862595,-6.698976245117187,-0.5626373901367188,0.6248866333007812,-16.977099236641223,15.099236641221374,-5.938931297709924,0.0
10.730000495910645,-10.16338604736328,3.047818713378906,2.1068974609374997,15.450381679389313,-0.0916030534351145,-6.809160305343512,-6.6343328002929685,-0.5506663818359374,0.21068974609375,-22.045801526717558,19.328244274809162,-6.534351145038168,0.0
10.74000072479248,-10.024522351074218,2.6958710693359373,2.5641899780273434,14.67175572519084,-1.2213740458015268,-6.748091603053435,-7.053318090820312,-1.0079588989257813,0.08858546142578125,-19.480916030534353,24.396946564885496,-5.801526717557252,0.0
10.750000476837158,-9.114725720214842,2.0278888061523435,2.042254016113281,9.435114503816793,-4.916030534351145,-7.175572519083969,-7.252036828613281,-1.5442600708007812,0.469263525390625,-18.702290076335878,25.297709923664122,-5.145038167938932,0.0
10.760000944137573,-8.2360537109375,1.4508862060546874,1.7836802368164062,3.7404580152671754,-8.351145038167939,-9.267175572519085,-7.388506323242187,-1.608903515625,0.07900865478515624,-18.427480916030536,26.50381679389313,-6.320610687022901,0.0
10.77000093460083,-8.013392956542969,1.2425906616210938,2.0350714111328125,1.297709923664122,-7.603053435114504,-13.633587786259541,-6.8210805297851556,-0.14604630126953125,-0.2561795776367187,-16.85496183206107,32.35114503816794,-10.442748091603054,0.0
10.780000925064087,-8.169016064453125,1.927332336425781,2.0159177978515626,2.4122137404580153,-7.099236641221374,-14.793893129770993,-7.6614453125,-0.28012159423828126,0.34715924072265625,-16.33587786259542,40.2442748091603,-11.419847328244275,0.0
10.790000677108765,-8.645462194824217,2.7150246826171873,1.9800047729492187,2.33587786259542,-6.320610687022901,-14.320610687022901,-9.636661682128906,-1.6041151123046875,1.0941501586914062,-16.259541984732824,44.045801526717554,-9.541984732824428,0.0
10.8000009059906,-9.169792358398437,3.294421484375,2.0159177978515626,1.9236641221374047,-5.740458015267175,-11.374045801526718,-9.53131680908203,-2.01112939453125,1.139639990234375,3.1908396946564888,40.900763358778626,-9.893129770992367,0.0
10.810001134872437,-9.751583361816406,3.7301661865234372,2.4253262817382812,-1.8778625954198473,-5.816793893129771,-8.977099236641221,-9.612719665527344,-0.7278373046875,0.6368576416015624,14.82442748091603,32.2442748091603,-11.389312977099237,0.0
10.820000886917114,-10.180145458984374,4.209006518554688,3.066972326660156,-8.870229007633588,-6.488549618320611,-8.885496183206106,-10.254365710449218,-1.2808978881835937,0.6512228515624999,10.82442748091603,35.55725190839695,-11.648854961832061,0.0
10.830000877380371,-10.151415039062499,4.7884033203125,4.13718046875,-22.244274809160306,-9.49618320610687,-7.969465648854962,-10.790666882324219,-0.9433154541015625,-0.00718260498046875,12.931297709923664,34.29007633587786,-14.931297709923664,0.0
10.840000629425049,-11.233594189453123,4.431667272949219,4.991910461425781,-36.13740458015267,-16.625954198473284,-10.274809160305344,-12.449848632812499,-1.2880804931640624,0.02154781494140625,8.977099236641221,39.66412213740458,-18.30534351145038,0.0
10.850000858306885,-11.674127294921874,3.0621839233398433,5.681440539550781,-44.67175572519084,-24.03053435114504,-11.664122137404581,-13.596671228027343,-1.7908628417968748,1.4628572143554686,4.9465648854961835,40.396946564885496,-23.81679389312977,0.0
10.860000848770142,-11.496956372070311,1.35990654296875,5.568913061523437,-41.69465648854962,-32.534351145038165,-13.129770992366412,-15.454571716308592,-0.8571241943359375,3.1866824096679687,0.3969465648854962,35.12977099236641,-29.389312977099237,0.0
10.870000839233398,-11.362881079101562,0.8475473876953125,6.823474731445312,-32.62595419847328,-41.45038167938932,-16.30534351145038,-17.54231556396484,-0.36631285400390623,6.53138212890625,1.5419847328244274,22.015267175572518,-27.587786259541986,0.0
10.880000591278076,-11.03248125,0.1197100830078125,5.722141967773437,-22.50381679389313,-50.79389312977099,-16.595419847328245,-18.547880261230468,0.2609679809570312,9.967061511230469,15.664122137404581,-2.1068702290076335,-22.793893129770993,0.0
10.890000581741333,-10.414777221679687,-0.7302315063476562,6.229712719726562,-10.50381679389313,-60.47328244274809,-18.30534351145038,-18.617312109375,2.480392919921875,12.23197628173828,38.38167938931298,-12.870229007633588,-14.80916030534351,0.0
10.900000810623169,-10.498574279785156,-3.5410242553710933,6.203376501464843,12.229007633587786,-69.70992366412214,-18.702290076335878,-15.116989282226562,5.736507177734374,6.825868933105468,31.984732824427482,-28.412213740458014,-11.83206106870229,0.0
10.910000801086426,-11.865663427734374,-1.9991583862304687,6.734889270019531,43.61832061068702,-76.97709923664122,-22.83969465648855,-13.443442321777344,5.5449710449218745,4.728548278808593,-3.5877862595419847,-25.52671755725191,-6.061068702290076,0.0
10.92000126838684,-14.449007019042968,1.0462661254882812,7.6279264892578125,48.80916030534351,-92.54961832061069,-24.641221374045802,-10.579977136230468,4.534617944335937,1.5346832641601562,-18.53435114503817,-17.114503816793892,1.6030534351145038,0.0
10.93000078201294,-14.15452021484375,-0.8786720092773437,7.568071447753906,54.33587786259542,-113.64885496183206,-18.83969465648855,-7.893682873535155,3.447650390625,-1.0845733520507812,-56.961832061068705,-14.931297709923664,7.038167938931298,0.0
10.940001249313354,-13.718775512695311,-2.3391350219726563,6.512228515625,70.90076335877863,-126.3206106870229,-16.412213740458014,-5.45877978515625,-0.82360537109375,-5.427655163574219,-33.12977099236641,3.2061068702290076,8.854961832061068,0.0
10.950000762939453,-14.228740466308594,0.01915361328125,6.210559106445312,75.08396946564885,-134.29007633587787,-20.80916030534351,-4.165910888671875,-3.086125939941406,-4.244919543457031,-42.62595419847328,-7.465648854961832,7.847328244274809,0.0
10.960000991821289,-12.445060229492187,-0.011971008300781249,5.6215854980468745,62.534351145038165,-151.70992366412213,-22.53435114503817,-2.808398547363281,-2.636016027832031,-3.6152445068359373,-42.82442748091603,1.83206106870229,0.2748091603053435,0.0
10.970000743865967,-10.761936462402343,-0.5817910034179687,0.6440402465820312,79.16030534351145,-155.66412213740458,-17.19083969465649,-4.675875842285156,-4.458003491210937,-0.7565677246093749,-38.47328244274809,19.755725190839694,-8.488549618320612,0.0
10.980000972747803,-9.765948571777344,2.6503812377929687,-2.221819140625,59.93893129770992,-158.27480916030535,-18.38167938931298,-6.6893994384765625,-6.969521032714844,-0.8044517578125,-12.396946564885496,27.938931297709924,-10.870229007633588,0.0
10.99000072479248,-9.483432775878907,3.6248213134765623,-3.6750995483398436,43.55725190839695,-158.41221374045801,-12.595419847328245,-8.310273962402343,-7.639897497558593,-0.16041151123046873,-3.435114503816794,32.18320610687023,-14.16793893129771,0.0
11.000000715255737,-9.334992272949219,2.8754361938476563,-4.620809204101562,38.97709923664122,-153.29770992366412,-0.5648854961832062,-11.882422839355469,-8.896853369140624,0.7900865478515624,27.221374045801525,31.251908396946565,-13.16030534351145,0.0
11.010000705718994,-8.453926062011718,0.5410895751953124,-4.024652990722656,45.3587786259542,-140.13740458015266,9.419847328244275,-12.74912384033203,-5.904101293945312,2.0302830078125,66.01526717557252,23.282442748091604,-12.870229007633588,0.0
11.02000093460083,-9.04050546875,0.033518823242187495,-3.3351229125976563,59.587786259541986,-122.03053435114504,14.076335877862595,-13.512874169921874,-3.670311145019531,2.2026655273437497,88.35114503816794,12.290076335877863,-7.7251908396946565,0.0
11.030000925064087,-8.619125976562499,0.3184288208007812,-3.296815686035156,67.78625954198473,-100.67175572519083,16.03053435114504,-13.273454003906249,0.16759411621093748,4.7572786987304685,82.10687022900764,6.0,-0.9923664122137404,0.0
11.040000915527344,-8.611943371582031,1.7860744384765623,-3.864241479492187,58.0763358778626,-79.89312977099236,15.450381679389313,-11.968614099121092,-0.39264907226562495,2.1883003173828124,51.37404580152672,0.6564885496183206,5.4961832061068705,0.0
11.05000114440918,-6.698976245117187,2.1930887207031247,-4.75009609375,45.51145038167939,-56.458015267175576,15.297709923664122,-9.8449572265625,-0.0383072265625,1.5107412475585937,36.99236641221374,-0.48854961832061067,8.16793893129771,0.0
11.060001134872437,-9.45470235595703,4.829104748535156,-3.287238879394531,13.877862595419847,-30.48854961832061,9.801526717557252,-9.057264880371093,-0.17956512451171874,1.4772224243164063,24.946564885496183,1.2366412213740459,7.374045801526718,0.0
11.070000886917114,-6.248866333007812,2.6862942626953124,-3.7301661865234372,-4.900763358778626,-17.17557251908397,12.01526717557252,-8.90643017578125,-3.5865140869140624,1.0606313354492187,24.610687022900763,4.961832061068702,5.893129770992366,0.0
11.080000877380371,-5.844246252441406,0.7709329345703124,-3.162740393066406,-13.618320610687023,3.6793893129770994,9.786259541984732,-9.085995300292968,-4.510675927734375,-0.28969840087890625,30.85496183206107,4.564885496183206,-1.465648854961832,0.0
11.090001106262207,-6.081272216796875,0.38786066894531246,-2.2457611572265623,-25.129770992366414,20.27480916030534,1.7099236641221374,-7.426813549804687,-1.8004396484374998,0.5051765502929687,35.14503816793893,4.091603053435114,-7.038167938931298,0.0
11.100000858306885,-6.236895324707031,0.3711012573242187,-1.7405846069335937,-29.740458015267176,33.19083969465649,-4.595419847328245,-8.382100012207031,-2.319981408691406,-0.689530078125,23.740458015267176,6.99236641221374,-7.770992366412214,0.0
11.110000848770142,-5.528211633300781,-0.39743747558593745,-2.1452046874999997,-33.69465648854962,44.0,-6.977099236641221,-8.650250598144531,-1.5634136840820312,-0.47884033203125,21.786259541984734,13.007633587786259,-6.137404580152672,0.0
11.12000060081482,-5.540182641601562,-0.603338818359375,-1.7812860351562498,-36.229007633587784,56.0,-10.961832061068701,-8.927977990722656,-0.8307879760742187,-0.46686932373046874,21.893129770992367,14.076335877862595,-2.9923664122137406,0.0
11.130000591278076,-4.853046765136718,-1.5298948608398437,-1.886630908203125,-40.534351145038165,67.5114503816794,-15.725190839694656,-9.744400756835937,-0.1771709228515625,0.009576806640625,22.427480916030536,14.900763358778626,0.48854961832061067,0.0
11.140000581741333,-4.936843823242187,-2.3127988037109373,-1.62805712890625,-38.656488549618324,81.32824427480917,-19.221374045801525,-10.24000050048828,0.009576806640625,0.7589619262695312,20.931297709923665,15.603053435114504,3.236641221374046,0.0
11.150001049041748,-5.3199160888671875,-2.501940734863281,-0.9121908325195311,-31.87786259541985,95.20610687022901,-21.251908396946565,-10.24718310546875,0.23702596435546874,1.3383587280273437,17.114503816793892,15.068702290076336,5.221374045801527,0.0
11.160000801086426,-6.471527087402343,-1.7956512451171873,-0.16759411621093748,-22.229007633587788,108.67175572519083,-20.244274809160306,-10.251971508789062,-0.09816226806640624,1.687912170410156,12.534351145038167,13.297709923664122,7.480916030534351,0.0
11.170000553131104,-7.1778165771484375,-0.6296750366210937,1.1013327636718748,-15.221374045801527,118.85496183206106,-16.977099236641223,-10.043675964355469,-0.4429273071289062,2.020706201171875,6.870229007633588,10.15267175572519,8.916030534351146,0.0
11.18000054359436,-8.750807067871094,1.4101847778320311,3.1675287963867187,-15.633587786259541,123.29770992366412,-12.580152671755725,-10.175357055664062,-1.20667763671875,2.003946789550781,0.732824427480916,5.847328244274809,9.709923664122137,0.0
11.190000534057617,-9.641450085449218,1.7693150268554687,5.837063647460937,-16.442748091603054,120.68702290076335,-3.954198473282443,-10.196904870605469,-1.637633935546875,2.157175695800781,-6.0458015267175576,1.4961832061068703,10.229007633587786,0.0
11.200000286102295,-9.643844287109374,-0.9552864624023437,7.455543969726562,0.8854961832061069,118.01526717557252,5.633587786259542,-10.206481677246094,-2.501940734863281,2.068590234375,-10.931297709923664,-3.49618320610687,9.98473282442748,0.0
11.210000276565552,-10.35492218017578,-0.833182177734375,9.686939916992188,22.900763358778626,111.32824427480917,8.183206106870228,-10.46984385986328,-3.4093431640625,2.2553379638671873,-6.137404580152672,-9.053435114503817,9.419847328244275,0.0
11.220000982284546,-9.605537060546874,-1.7477672119140624,10.716446630859375,43.06870229007634,95.3587786259542,10.687022900763358,-9.478644372558593,-1.448492004394531,2.0925322509765625,5.526717557251908,-17.6793893129771,7.068702290076335,0.0
11.230000734329224,-9.545682019042967,-0.7972691528320313,10.9175595703125,67.08396946564885,81.8473282442748,10.122137404580153,-9.095572106933593,-0.0047884033203125,2.2361843505859373,1.4351145038167938,-20.85496183206107,5.541984732824427,0.0
11.24000096321106,-9.41639512939453,0.8882488159179687,11.020510241699219,79.20610687022901,63.74045801526717,9.083969465648854,-10.32379755859375,-0.49799394531249996,2.1116858642578125,-1.7404580152671756,-22.50381679389313,7.862595419847328,0.0
11.250000476837158,-9.514557397460937,2.5905261962890624,10.47702646484375,81.92366412213741,43.66412213740458,6.763358778625954,-10.206481677246094,-0.9959878906249999,2.612074011230469,8.931297709923664,-28.015267175572518,10.396946564885496,0.0
11.260000705718994,-8.86094034423828,1.2665326782226562,8.444349255371094,87.00763358778626,26.198473282442748,9.923664122137405,-11.082759484863281,-1.7357962036132812,3.4739866088867184,22.061068702290076,-39.83206106870229,14.580152671755725,0.0
11.270000696182251,-11.044452258300781,2.2649147705078123,5.437231970214843,95.02290076335878,16.366412213740457,14.305343511450381,-10.71884083251953,0.1388636962890625,3.2034418212890623,27.068702290076335,-50.38167938931298,16.748091603053435,0.0
11.280000925064087,-14.858415502929686,5.4013189453125,1.0678139404296874,77.90839694656489,6.519083969465649,22.366412213740457,-9.550470422363281,1.5801730957031248,2.4588451049804685,13.282442748091603,-56.10687022900763,22.076335877862597,0.0
11.290000677108765,-19.15361328125,6.8976949829101555,1.199495031738281,56.19847328244275,8.610687022900763,40.56488549618321,-9.679757312011718,0.6009446166992187,2.8730419921875,-4.900763358778626,-59.93893129770992,32.396946564885496,0.0
11.3000009059906,-21.69386124267578,8.166621862792969,6.49307490234375,35.20610687022901,5.480916030534351,57.02290076335878,-9.710881933593749,-0.9720458740234375,2.1021090576171875,-14.320610687022901,-66.22900763358778,35.603053435114504,0.0
11.310000896453857,-21.385009228515624,10.290278735351562,9.188945971679686,16.3206106870229,-7.877862595419847,62.85496183206107,-7.668627917480468,0.38786066894531246,0.45968671875,-23.61832061068702,-68.35114503816794,30.564885496183205,0.0
11.320000886917114,-15.861585998535155,8.513781103515624,5.080495922851562,-30.137404580152673,-28.0,54.93129770992366,-6.763619689941406,1.4006079711914061,-0.8212111694335937,-42.76335877862596,-59.86259541984733,24.748091603053435,0.0
11.330000877380371,-12.399570397949217,3.019088293457031,1.908178723144531,-79.1145038167939,-40.94656488549618,33.20610687022901,-8.044517578125,1.2593500732421874,-0.9313444458007812,-52.0763358778626,-46.80916030534351,23.328244274809162,0.0
11.340000629425049,-8.781931689453124,-0.8858546142578124,-0.5770026000976562,-104.68702290076335,-44.06106870229008,10.625954198473282,-9.81862100830078,-1.7094599853515624,-0.9241618408203125,-56.62595419847328,-40.87022900763359,21.236641221374047,0.0
11.350000858306885,-6.313509777832031,-2.518700146484375,-5.176263989257812,-104.06106870229007,-33.81679389312977,-4.213740458015267,-11.563994018554688,-2.592920397949219,-1.2832920898437499,-52.93129770992366,-43.16030534351145,17.206106870229007,0.0
11.360000610351562,-3.852270471191406,-3.0358477050781247,-5.511452221679687,-78.44274809160305,-14.488549618320612,-7.404580152671755,-12.23915888671875,-2.482787121582031,-1.2665326782226562,-41.14503816793893,-41.12977099236641,12.183206106870228,0.0
11.37000036239624,-6.248866333007812,1.6448165405273436,-2.4588451049804685,-56.88549618320611,7.419847328244275,-7.648854961832061,-13.958195678710936,-2.360682836914062,-1.3072341064453123,-36.19847328244275,-37.98473282442748,8.50381679389313,0.0
11.380000591278076,-6.950367419433594,4.11802685546875,-1.8171990600585937,-42.44274809160305,20.47328244274809,3.0381679389312977,-14.85602130126953,-1.8291700683593748,-0.9983820922851562,-39.282442748091604,-35.14503816793893,6.366412213740458,0.0
11.390000581741333,-7.299920861816406,3.9312791259765625,-2.530671154785156,-37.541984732824424,28.229007633587788,11.435114503816793,-13.223175769042967,-0.9576806640625,-0.3902548706054687,-40.33587786259542,-30.48854961832061,5.572519083969466,0.0
11.40000057220459,-7.149086157226562,3.2034418212890623,-2.8323405639648436,-37.847328244274806,36.0763358778626,14.412213740458014,-12.703634008789061,-1.1540052001953125,-0.04548983154296875,-40.58015267175573,-26.16793893129771,5.938931297709924,0.0
11.410000562667847,-8.243236315917969,2.9975404785156248,-1.3263877197265623,-38.534351145038165,44.99236641221374,12.305343511450381,-12.057199560546874,-1.1827356201171875,0.584185205078125,-30.061068702290076,-22.244274809160306,6.183206106870229,0.0
11.420000553131104,-8.358157995605469,1.388636962890625,-0.6536170532226562,-38.80916030534351,48.44274809160305,9.450381679389313,-11.051634863281249,-1.005564697265625,0.8690952026367187,-25.022900763358777,-21.557251908396946,4.809160305343512,0.0
11.43000054359436,-9.121908325195312,1.2401964599609374,0.5386953735351562,-38.83969465648855,50.58015267175573,4.519083969465649,-10.263942517089843,-0.9864110839843749,1.438915197753906,-17.328244274809162,-19.81679389312977,2.8091603053435112,0.0
11.440000534057617,-9.354145886230468,1.158793603515625,0.5746083984375,-35.786259541984734,50.80916030534351,1.9694656488549618,-9.713276135253906,-0.4333505004882812,1.7238251953125,-12.610687022900763,-20.15267175572519,-0.48854961832061067,0.0
11.450000762939453,-9.406818322753905,1.6807295654296874,0.9744400756835937,-32.045801526717554,49.69465648854962,2.5343511450381677,-8.097190014648437,1.2761094848632812,1.1348515869140625,-5.923664122137405,-18.48854961832061,-3.312977099236641,0.0
11.46000075340271,-10.979808813476561,2.360682836914062,2.24097275390625,-37.05343511450382,45.14503816793893,3.3893129770992365,-8.913612780761719,0.44053310546874996,1.6112977172851561,-8.732824427480915,-16.33587786259542,-1.1297709923664123,0.0
11.470000743865967,-12.236764685058594,1.6136919189453125,2.6671406494140624,-43.64885496183206,39.465648854961835,4.091603053435114,-8.951920007324219,0.6081272216796875,1.1252747802734375,-1.7557251908396947,-16.076335877862597,0.4580152671755725,0.0
11.480000972747803,-12.878410729980468,1.005564697265625,2.8419173706054686,-52.06106870229008,30.564885496183205,2.1068702290076335,-12.014103930664062,-2.798821740722656,3.9504327392578125,1.6946564885496183,-16.68702290076336,4.427480916030534,0.0
11.490000486373901,-11.135431921386719,-0.30885201416015623,1.8698714965820311,-52.79389312977099,20.85496183206107,1.2061068702290076,-9.87608184814453,-0.842758984375,2.2744915771484373,29.19083969465649,-25.34351145038168,2.6412213740458017,0.0
11.500000476837158,-10.426748229980468,-0.5458779785156249,1.0941501586914062,-47.37404580152672,16.48854961832061,-1.4809160305343512,-9.358934289550781,0.23702596435546874,2.0159177978515626,24.061068702290076,-30.763358778625953,-2.4580152671755724,0.0
11.510000705718994,-9.1554271484375,-1.0462661254882812,0.5506663818359374,-27.49618320610687,18.076335877862597,-2.1068702290076335,-8.212111694335936,1.3144167114257812,2.422932080078125,6.183206106870229,-27.908396946564885,-3.9083969465648853,0.0
11.52000117301941,-9.363722692871093,0.5722141967773438,0.5506663818359374,-18.83969465648855,20.30534351145038,-4.244274809160306,-10.819397302246093,-0.8714894042968749,2.2026655273437497,-4.244274809160306,-24.549618320610687,-0.2595419847328244,0.0
11.530001401901245,-9.217676391601563,1.7621324218749999,0.3399766357421875,-16.732824427480917,19.282442748091604,-4.412213740458015,-9.449913952636718,0.4860229370117187,2.7174188842773437,-1.5572519083969465,-23.099236641221374,-0.9312977099236641,0.0
11.540000677108765,-8.920795385742187,3.0262708984374997,0.46208092041015625,-15.419847328244275,19.801526717557252,-1.9389312977099236,-8.552088330078124,1.5035586425781249,2.308010400390625,-21.709923664122137,-19.236641221374047,-0.8549618320610687,0.0
11.550000667572021,-9.402029919433593,4.3071687866210935,0.6512228515624999,-21.374045801526716,19.282442748091604,0.3511450381679389,-8.564059338378906,1.0079588989257813,2.205059729003906,-30.519083969465647,-8.595419847328245,2.732824427480916,0.0
11.560000658035278,-9.775525378417969,4.304774584960938,0.699106884765625,-31.557251908396946,17.221374045801525,4.106870229007634,-9.832986218261718,-0.6943184814453125,2.655169641113281,-32.717557251908396,-3.954198473282443,7.419847328244275,0.0
11.570000410079956,-9.53131680908203,2.940079638671875,0.5793968017578125,-40.900763358778626,14.610687022900763,7.083969465648855,-10.036493359375,-1.1228805786132812,2.7916391357421872,-22.931297709923665,-6.5038167938931295,7.709923664122138,0.0
11.580000400543213,-9.361328491210937,1.4053963745117186,0.7015010864257812,-42.99236641221374,14.549618320610687,6.931297709923665,-9.411606726074218,-0.6081272216796875,2.863465185546875,-24.610687022900763,-8.931297709923664,5.694656488549619,0.0
11.590001344680786,-9.670180505371093,1.1420341918945311,0.7972691528320313,-41.603053435114504,14.854961832061068,5.297709923664122,-9.811438403320311,-1.3575123413085937,2.6216508178710938,-19.83206106870229,-8.83969465648855,4.488549618320611,0.0
11.600000619888306,-10.129867224121092,1.2138602416992186,0.9241618408203125,-41.81679389312977,15.16030534351145,3.2061068702290076,-9.430760339355468,-0.488417138671875,2.73896669921875,-19.16030534351145,-10.305343511450381,3.5419847328244276,0.0
11.610000610351562,-10.117896215820313,1.0175357055664063,0.9816226806640624,-40.74809160305343,14.946564885496183,1.984732824427481,-9.591171850585937,-0.679953271484375,2.7150246826171873,-16.82442748091603,-11.114503816793894,2.5343511450381677,0.0
11.62000060081482,-10.603919152832031,1.216254443359375,1.3048399047851562,-42.0,14.564885496183207,0.5648854961832062,-9.315838659667968,-0.15322890625,2.731784094238281,-17.83206106870229,-10.82442748091603,2.030534351145038,0.0
11.630000591278076,-10.20887587890625,0.948103857421875,1.199495031738281,-39.55725190839695,14.335877862595419,0.12213740458015267,-9.284714038085937,-0.06943184814453125,2.73896669921875,-18.198473282442748,-11.221374045801527,1.297709923664122,0.0
11.640000343322754,-10.184933862304687,1.1156979736328125,1.1611878051757811,-38.33587786259542,13.526717557251908,0.030534351145038167,-9.03332286376953,0.6344634399414062,2.5809493896484375,-18.916030534351144,-9.435114503816793,1.1908396946564885,0.0
11.65000033378601,-9.828197814941406,1.1947066284179686,0.9576806640625,-34.30534351145038,13.709923664122137,0.16793893129770993,-9.064447485351561,0.2154781494140625,2.731784094238281,-21.068702290076335,-7.969465648854962,1.5572519083969465,0.0
11.660000562667847,-9.725247143554688,1.608903515625,0.9816226806640624,-31.862595419847327,13.236641221374045,0.061068702290076333,-8.736441857910156,0.21068974609375,2.4396914916992185,-22.35114503816794,-6.900763358778626,1.1450381679389312,0.0
11.670000314712524,-9.507374792480467,1.714248388671875,0.6967126831054687,-26.748091603053435,13.068702290076336,2.030534351145038,-8.628702783203124,-0.031124621582031248,2.5139117431640625,-22.106870229007633,-5.419847328244275,1.7099236641221374,0.0
11.680001020431519,-9.485826977539062,2.1452046874999997,0.8595183959960937,-24.106870229007633,13.312977099236642,2.549618320610687,-8.391676818847655,-0.02154781494140625,2.2936451904296873,-22.366412213740457,-3.6946564885496183,2.4580152671755724,0.0
11.690000772476196,-9.251195214843749,1.6136919189453125,0.74699091796875,-23.64885496183206,11.969465648854962,3.7251908396946565,-8.410830432128906,-0.16998831787109375,2.35589443359375,-22.198473282442748,-2.16793893129771,3.0381679389312977,0.0
11.700000762939453,-8.552088330078124,0.18914193115234373,0.39264907226562495,-14.305343511450381,12.916030534351146,5.374045801526718,-7.513004809570312,0.8259995727539062,1.6472107421875,-22.412213740458014,-0.183206106870229,2.732824427480916,0.0
11.71000051498413,-9.727641345214844,2.2673089721679687,1.254561669921875,-15.145038167938932,14.961832061068701,1.83206106870229,-7.541735229492187,0.852335791015625,1.158793603515625,-29.114503816793892,8.01526717557252,3.7557251908396947,0.0
11.720000982284546,-9.792284790039062,2.001552587890625,1.3814543579101561,-19.328244274809162,12.885496183206106,1.3435114503816794,-8.688557824707031,-0.7852981445312499,2.138022082519531,-32.76335877862596,10.625954198473282,7.6183206106870225,0.0
11.730000495910645,-10.1131078125,1.6735469604492186,1.2521674682617188,-27.022900763358777,7.877862595419847,0.549618320610687,-9.753977563476562,-1.8650830932617186,2.300827795410156,-32.30534351145038,9.816793893129772,8.961832061068701,0.0
11.74000072479248,-9.840168823242188,0.469263525390625,1.20667763671875,-20.366412213740457,8.274809160305344,0.5801526717557252,-9.598354455566406,-2.288856787109375,2.645592834472656,-23.14503816793893,10.106870229007633,7.893129770992366,0.0
11.750000476837158,-9.370905297851563,-0.06464344482421874,1.01514150390625,-11.954198473282442,9.312977099236642,-0.5038167938931297,-8.916006982421875,-0.9241618408203125,1.8243816650390623,-5.908396946564886,9.419847328244275,3.114503816793893,0.0
11.760000705718994,-9.325415466308593,0.23702596435546874,0.93852705078125,-3.053435114503817,10.80916030534351,-2.885496183206107,-8.604760766601562,-1.369483349609375,1.7932570434570312,-11.465648854961833,7.419847328244275,0.5038167938931297,0.0
11.770000457763672,-9.617508068847656,1.199495031738281,1.3383587280273437,-1.1755725190839694,11.389312977099237,-4.091603053435114,-9.057264880371093,-1.2401964599609374,1.889025109863281,-7.450381679389313,11.786259541984732,-0.9007633587786259,0.0
11.780000686645508,-9.883264453125,1.9967641845703124,1.7022773803710936,1.9236641221374047,11.679389312977099,-4.519083969465649,-9.011775048828124,-0.8643067993164062,1.9728221679687499,-4.5038167938931295,12.80916030534351,-1.1908396946564885,0.0
11.790000677108765,-9.8449572265625,2.061407629394531,1.5035586425781249,-1.7251908396946565,8.610687022900763,-4.809160305343512,-9.181763366699219,-1.0127473022460938,2.1811177124023438,0.0,12.488549618320612,-1.297709923664122,0.0
11.800000667572021,-9.670180505371093,1.9009961181640624,1.5610194824218748,0.1984732824427481,7.4961832061068705,-3.7099236641221376,-9.239224206542968,-0.9983820922851562,2.518700146484375,3.068702290076336,13.816793893129772,-0.8396946564885496,0.0
11.810000896453857,-9.627084875488281,2.1787235107421874,1.5179238525390624,1.5419847328244274,7.32824427480916,-3.236641221374046,-9.327809667968749,-1.2521674682617188,2.7054478759765623,4.9465648854961835,14.305343511450381,-1.5267175572519085,0.0
11.820000410079956,-9.612719665527344,2.4061726684570313,1.2138602416992186,1.6793893129770991,6.183206106870229,-2.9160305343511452,-9.050082275390624,-1.1156979736328125,2.882618798828125,8.977099236641221,14.80916030534351,-2.5801526717557253,0.0
11.830000877380371,-9.411606726074218,2.4133552734375,0.967257470703125,-0.07633587786259542,5.419847328244275,-2.4122137404580153,-9.133879333496093,-0.9337386474609375,3.0741549316406247,10.229007633587786,15.267175572519085,-3.4656488549618323,0.0
11.840000629425049,-9.423577734375,2.403778466796875,0.93852705078125,-2.427480916030534,5.435114503816794,-2.2595419847328246,-7.951143713378905,0.4213794921875,2.7078420776367187,2.6106870229007635,17.068702290076335,-5.6183206106870225,0.0
11.850000858306885,-9.715670336914062,2.5713725830078125,0.9935936889648437,-6.534351145038168,5.099236641221374,-2.9618320610687023,-9.835380419921874,-1.7405846069335937,3.299209887695312,-6.213740458015267,19.61832061068702,-1.5877862595419847,0.0
11.860000610351562,-9.674968908691406,2.205059729003906,1.13006318359375,-11.099236641221374,3.7251908396946565,-2.33587786259542,-9.181763366699219,-1.0606313354492187,3.229778039550781,5.343511450381679,20.9618320610687,-2.2290076335877864,0.0
11.87000060081482,-9.548076220703125,1.7980454467773437,1.149216796875,-10.351145038167939,3.099236641221374,-2.946564885496183,-8.602366564941406,-0.2753331909179687,3.21780703125,4.412213740458015,21.236641221374047,-3.145038167938931,0.0
11.880000591278076,-9.524134204101562,1.6424223388671875,1.0462661254882812,-9.099236641221374,3.2061068702290076,-2.732824427480916,-8.805873706054687,-0.033518823242187495,2.863465185546875,-5.297709923664122,24.80916030534351,-4.183206106870229,0.0
11.890000581741333,-9.6151138671875,1.5322890624999999,1.0702081420898437,-7.297709923664122,3.114503816793893,-3.099236641221374,-9.421183532714844,-2.0278888061523435,3.265691064453125,-9.98473282442748,27.267175572519083,-2.6412213740458017,0.0
11.90000033378601,-9.64623848876953,1.24498486328125,0.8738836059570312,-6.8396946564885495,2.0610687022900764,-3.404580152671756,-9.93354268798828,-2.4444798950195312,3.5146880371093747,4.564885496183206,24.458015267175572,-1.984732824427481,0.0
11.910000562667847,-9.3086560546875,0.6847416748046875,0.7948749511718749,-1.3893129770992367,2.7786259541984735,-3.816793893129771,-9.49300958251953,-2.327164013671875,3.902548706054687,16.48854961832061,18.442748091603054,-3.7404580152671754,0.0
11.920000553131104,-9.366116894531249,0.7206546997070312,0.6871358764648438,4.854961832061068,3.66412213740458,-4.854961832061068,-9.82580361328125,-1.8291700683593748,3.6487633300781246,30.16793893129771,10.198473282442748,-4.076335877862595,0.0
11.93000078201294,-9.220070593261719,0.8355763793945312,0.316034619140625,10.82442748091603,6.427480916030534,-6.106870229007634,-9.409212524414063,-2.032677209472656,3.9312791259765625,28.213740458015266,9.801526717557252,-7.206106870229007,0.0
11.940000534057617,-9.423577734375,0.6009446166992187,0.10773907470703124,14.687022900763358,7.9541984732824424,-6.106870229007634,-8.647856396484375,-0.9864110839843749,3.651157531738281,30.793893129770993,10.091603053435115,-8.702290076335878,0.0
11.950000524520874,-9.239224206542968,0.5602431884765625,0.430956298828125,26.748091603053435,14.396946564885496,-8.595419847328245,-8.710105639648438,-1.2306196533203124,3.268085266113281,29.541984732824428,9.648854961832061,-8.961832061068701,0.0
11.960000991821289,-10.268730920410155,1.3455413330078123,0.9145850341796874,28.015267175572518,16.931297709923665,-11.526717557251908,-8.904035974121093,-1.3048399047851562,3.210624426269531,30.53435114503817,10.51908396946565,-9.068702290076336,0.0
11.970000505447388,-9.241618408203124,1.7357962036132812,0.7134720947265625,28.549618320610687,14.290076335877863,-12.076335877862595,-8.724470849609375,-1.1180921752929687,2.767697119140625,32.85496183206107,10.427480916030534,-9.816793893129772,0.0
11.980000495910645,-10.292672937011718,2.518700146484375,1.5131354492187499,25.984732824427482,15.267175572519085,-13.557251908396946,-8.528146313476562,-0.7493851196289062,2.47081611328125,34.51908396946565,10.900763358778626,-10.15267175572519,0.0
11.990000486373901,-10.726023437499999,3.0406361083984375,1.649604943847656,20.27480916030534,11.893129770992367,-13.16030534351145,-8.403647827148436,0.13646949462890623,2.099714855957031,35.12977099236641,13.129770992366412,-10.030534351145038,0.0
12.000000476837158,-10.412383020019531,3.763685009765625,2.090138049316406,16.229007633587788,10.13740458015267,-12.80916030534351,-7.809885815429687,0.5698199951171875,1.4125789794921875,20.625954198473284,19.389312977099237,-9.587786259541986,0.0
12.010000705718994,-9.962273107910155,2.70065947265625,1.7166425903320313,7.740458015267175,2.4427480916030535,-9.664122137404581,-7.994239343261718,0.26336218261718747,0.833182177734375,15.86259541984733,27.221374045801525,-7.648854961832061,0.0
12.02000093460083,-9.598354455566406,1.917755529785156,1.7262193969726563,11.145038167938932,0.4732824427480916,-7.893129770992366,-7.941566906738281,0.20350714111328125,1.4820108276367188,5.312977099236641,34.10687022900763,-5.648854961832061,0.0
12.030000925064087,-9.464279162597656,1.7741034301757812,1.879448303222656,14.50381679389313,-0.732824427480916,-7.00763358778626,-6.663063220214843,1.24498486328125,0.11731588134765625,8.381679389312977,43.64885496183206,-6.6106870229007635,0.0
12.040000677108765,-9.90241806640625,2.0542250244140625,2.142810485839844,15.450381679389313,-2.8702290076335877,-7.297709923664122,-8.257601525878906,-1.4317325927734375,0.6464344482421874,18.0,50.99236641221374,-2.381679389312977,0.0
12.050000429153442,-9.373299499511718,1.0175357055664063,2.281674182128906,16.793893129770993,-6.625954198473282,-7.3893129770992365,-7.9295958984374995,-1.0893617553710937,0.201112939453125,23.31297709923664,44.30534351145038,-2.946564885496183,0.0
12.060000658035278,-9.885658654785155,1.5346832641601562,3.047818713378906,18.702290076335878,-9.633587786259541,-11.267175572519085,-7.376535314941406,0.15562310791015624,0.19871873779296872,14.442748091603054,47.770992366412216,-6.595419847328245,0.0
12.070001125335693,-9.016563452148437,-0.28730419921875,3.3016040893554686,24.763358778625953,-15.358778625954198,-12.854961832061068,-8.817844714355468,-0.8355763793945312,0.5985504150390625,15.603053435114504,55.57251908396947,-6.8396946564885495,0.0
12.080000638961792,-9.375693701171874,0.5027823486328125,4.302380383300781,27.51145038167939,-21.282442748091604,-17.801526717557252,-9.725247143554688,-0.833182177734375,1.1348515869140625,22.412213740458014,50.94656488549618,-9.053435114503817,0.0
12.090001106262207,-10.46984385986328,1.8938135131835936,5.667075329589843,23.572519083969464,-30.595419847328245,-23.72519083969466,-9.567229833984374,0.9816226806640624,1.68551796875,11.267175572519085,45.603053435114504,-14.15267175572519,0.0
12.100000619888306,-10.426748229980468,2.96881005859375,6.394912634277343,18.48854961832061,-43.23664122137404,-26.290076335877863,-9.524134204101562,1.5107412475585937,2.528276953125,-6.778625954198473,49.083969465648856,-17.17557251908397,0.0
12.110000848770142,-10.424354028320312,3.1364041748046874,6.478709692382812,7.038167938931298,-62.274809160305345,-26.16793893129771,-11.85608662109375,-0.699106884765625,3.303998291015625,-11.603053435114504,48.778625954198475,-16.625954198473284,0.0
12.12000060081482,-10.62307276611328,2.3487118286132813,6.555324145507812,3.8473282442748094,-79.20610687022901,-26.50381679389313,-14.30056651611328,-1.6519991455078125,4.4819455078125,-5.236641221374046,34.82442748091603,-19.267175572519083,0.0
12.130000591278076,-10.096348400878906,1.68551796875,6.224924316406249,5.358778625954199,-96.38167938931298,-26.870229007633586,-14.233528869628906,0.04548983154296875,5.159504577636718,1.0076335877862594,22.641221374045802,-26.38167938931298,0.0
12.140000581741333,-9.909600671386718,1.235408056640625,5.533000036621093,10.16793893129771,-113.19083969465649,-27.984732824427482,-14.755464831542968,1.2401964599609374,5.858611462402344,4.152671755725191,5.603053435114504,-27.053435114503817,0.0
12.15000033378601,-9.627084875488281,1.1180921752929687,5.216965417480468,12.396946564885496,-125.93893129770993,-28.946564885496183,-15.377957263183593,0.09816226806640624,4.951209033203125,6.152671755725191,-3.8625954198473282,-20.35114503816794,0.0
12.160000562667847,-9.244012609863281,-1.4628572143554686,3.909731311035156,20.671755725190838,-137.61832061068702,-26.50381679389313,-13.309367028808593,1.7836802368164062,3.6631285400390623,7.801526717557252,-15.755725190839694,-13.511450381679388,0.0
12.170000553131104,-10.47702646484375,-1.608903515625,3.3494881225585935,41.70992366412214,-139.72519083969465,-25.603053435114504,-12.514492077636717,0.48123453369140623,1.8555062866210936,-1.1755725190839694,-23.282442748091604,-6.458015267175573,0.0
12.18000054359436,-9.74200655517578,-4.050989208984375,2.4516625,62.47328244274809,-141.206106870229,-22.290076335877863,-10.73799444580078,-1.4053963745117186,-0.8475473876953125,-3.8625954198473282,-20.564885496183205,-4.824427480916031,0.0
12.190000772476196,-11.602301245117188,-3.303998291015625,2.6096798095703124,89.20610687022901,-132.12213740458014,-22.702290076335878,-10.81460889892578,-4.9416322265625,-4.659116430664063,11.34351145038168,-15.98473282442748,-10.67175572519084,0.0
12.200000286102295,-11.501744775390625,-3.833116857910156,1.8124106567382812,107.74045801526718,-127.40458015267176,-22.33587786259542,-8.640673791503906,-4.707000463867187,0.11013327636718749,15.618320610687023,-30.595419847328245,-7.862595419847328,0.0
12.21000051498413,-13.57272921142578,-1.886630908203125,2.379836450195312,123.48091603053435,-116.2442748091603,-22.80916030534351,-7.979874133300781,-6.246472131347656,-2.1691467041015624,20.793893129770993,-28.519083969465647,-12.412213740458014,0.0
12.220000743865967,-13.845668200683592,-0.5051765502929687,1.6615759521484375,119.29770992366412,-113.95419847328245,-22.3206106870229,-7.860164050292968,-5.585672473144531,-1.6472107421875,35.099236641221374,-25.938931297709924,-16.946564885496183,0.0
12.230000734329224,-15.435418103027343,2.389413256835937,2.2649147705078123,101.19083969465649,-112.12213740458016,-22.0,-7.800309008789062,-4.764461303710937,-0.6679822631835937,40.50381679389313,-26.15267175572519,-20.83969465648855,0.0
12.24000072479248,-12.052411157226562,-0.6823474731445313,-0.6560112548828124,92.80916030534351,-112.03053435114504,-14.50381679389313,-8.068459594726562,-3.181894006347656,-0.5099649536132812,36.778625954198475,-25.00763358778626,-23.954198473282442,0.0
12.250000476837158,-12.854468713378905,1.6160861206054686,-0.12449848632812499,85.0381679389313,-97.02290076335878,-13.251908396946565,-8.884882360839843,-1.8818425048828125,-0.4955997436523437,26.595419847328245,-20.48854961832061,-18.015267175572518,0.0
12.260000705718994,-11.851298217773437,2.2577321655273437,-0.70868369140625,58.74809160305343,-92.06106870229007,-11.603053435114504,-9.227253198242186,-0.3854664672851562,-0.36391865234375,20.15267175572519,-16.625954198473284,-25.66412213740458,0.0
12.270000696182251,-10.967837805175781,2.1547814941406247,-0.9720458740234375,46.44274809160305,-82.06106870229007,-6.458015267175573,-9.904812268066406,0.6943184814453125,0.229843359375,13.648854961832061,-11.435114503816793,-22.16793893129771,0.0
12.280000448226929,-9.68454571533203,1.6519991455078125,-1.4891934326171874,33.87786259541985,-72.06106870229007,-2.16793893129771,-10.180145458984374,0.6344634399414062,-0.11013327636718749,3.053435114503817,-7.267175572519084,-16.580152671755727,0.0
12.290001153945923,-8.43956085205078,1.0749965454101562,-2.032677209472656,19.923664122137403,-59.969465648854964,-0.33587786259541985,-10.153809240722655,0.181959326171875,-0.13407529296874998,-4.564885496183206,-3.6030534351145036,-10.335877862595419,0.0
12.300000667572021,-7.874529260253905,0.5291185668945312,-1.5849614990234373,13.633587786259541,-49.343511450381676,-0.8091603053435115,-10.249577307128906,-1.3287819213867187,-0.7781155395507812,-8.274809160305344,0.5038167938931297,-4.6106870229007635,0.0
12.310000896453857,-7.568071447753906,0.7733271362304687,-1.2521674682617188,6.961832061068702,-38.778625954198475,-3.282442748091603,-9.955090502929687,-2.1164742675781247,-0.47884033203125,-7.6183206106870225,3.9389312977099236,-1.1450381679389312,0.0
12.320000410079956,-7.278373046874999,0.29448680419921874,-0.814028564453125,1.099236641221374,-29.221374045801525,-5.129770992366412,-10.01015714111328,-2.712630480957031,-0.22026655273437498,-3.2519083969465647,6.091603053435114,1.0381679389312977,0.0
12.330000877380371,-7.486668591308593,0.15083470458984374,-0.4165910888671875,-2.549618320610687,-16.641221374045802,-7.145038167938932,-9.430760339355468,-2.999934680175781,-0.7613561279296874,4.091603053435114,8.717557251908397,2.0763358778625953,0.0
12.340000867843628,-7.5537062377929685,0.7206546997070312,0.0718260498046875,-6.152671755725191,-5.282442748091603,-10.0,-9.457096557617186,-3.1387983764648437,-1.0175357055664063,13.755725190839694,11.938931297709924,2.1068702290076335,0.0
12.350001096725464,-7.292738256835937,0.40940848388671874,0.04548983154296875,-11.618320610687023,3.114503816793893,-11.664122137404581,-9.397241516113281,-2.7916391357421872,-0.3902548706054687,20.458015267175572,13.816793893129772,2.4732824427480917,0.0
12.360000848770142,-7.5153990112304685,0.5602431884765625,0.1197100830078125,-18.793893129770993,10.992366412213741,-12.13740458015267,-9.53131680908203,-2.1404162841796874,0.28730419921875,21.893129770992367,16.458015267175572,2.427480916030534,0.0
12.370000839233398,-8.243236315917969,1.8315642700195311,1.1061211669921875,-28.442748091603054,17.099236641221374,-13.893129770992367,-9.334992272949219,-1.944091748046875,0.258573779296875,21.022900763358777,18.244274809160306,2.122137404580153,0.0
12.380000591278076,-9.643844287109374,2.1715409057617188,1.3766659545898436,-37.55725190839695,24.106870229007633,-13.908396946564885,-9.832986218261718,-1.6903063720703124,0.718260498046875,17.114503816793892,19.49618320610687,2.6564885496183206,0.0
12.390000820159912,-7.3286512817382805,-0.1484405029296875,0.18435352783203124,-41.86259541984733,25.603053435114504,-9.923664122137405,-9.49300958251953,-0.9026140258789062,1.0295067138671874,15.389312977099237,20.885496183206108,2.885496183206107,0.0
12.40000057220459,-6.584054565429687,-0.9121908325195311,-0.033518823242187495,-33.541984732824424,35.465648854961835,-7.603053435114504,-9.86411083984375,-0.9313444458007812,1.7717092285156248,11.267175572519085,21.786259541984734,4.854961832061068,0.0
12.410000562667847,-6.871358764648437,-0.35673604736328124,0.4165910888671875,-27.404580152671755,47.343511450381676,-9.099236641221374,-9.710881933593749,-0.9840168823242187,1.7357962036132812,9.969465648854962,22.061068702290076,6.305343511450381,0.0
12.420000553131104,-6.507440112304687,-0.033518823242187495,0.33039982910156246,-25.893129770992367,53.770992366412216,-9.572519083969466,-9.91438907470703,-1.659181750488281,2.3343466186523436,7.526717557251908,19.6793893129771,8.732824427480915,0.0
12.43000054359436,-7.149086157226562,0.23702596435546874,0.7852981445312499,-27.236641221374047,60.62595419847328,-9.48091603053435,-9.854534033203125,-1.8650830932617186,1.9847931762695312,6.259541984732825,17.938931297709924,9.618320610687023,0.0
12.440000534057617,-7.503428002929687,-0.02154781494140625,1.0869675537109373,-23.61832061068702,66.4885496183206,-7.312977099236641,-9.746794958496093,-1.9800047729492187,1.9129671264648436,6.3816793893129775,16.0,10.198473282442748,0.0
12.450000524520874,-4.946420629882812,-1.6160861206054686,-0.15562310791015624,-5.633587786259542,74.47328244274809,-2.564885496183206,-9.433154541015625,-2.0350714111328125,1.7788918334960937,6.778625954198473,14.916030534351146,9.954198473282442,0.0
12.46000075340271,-6.6702458251953125,-0.3758896606445312,0.296881005859375,1.6946564885496183,82.80916030534351,-3.1908396946564888,-10.053252770996092,-2.8562825805664063,1.9728221679687499,8.51908396946565,12.80916030534351,11.022900763358779,0.0
12.470000505447388,-7.108384729003906,0.5051765502929687,1.0726023437499999,3.435114503816794,88.53435114503817,-4.305343511450381,-9.153032946777342,-2.1212626708984375,1.618480322265625,10.076335877862595,10.549618320610687,8.961832061068701,0.0
12.480000734329224,-7.398083129882812,0.201112939453125,1.3383587280273437,5.0534351145038165,91.31297709923665,-3.66412213740458,-9.423577734375,-2.090138049316406,1.9800047729492187,9.618320610687023,9.145038167938932,8.885496183206106,0.0
12.49000072479248,-7.094019519042968,-0.28490999755859375,1.5203180541992187,12.702290076335878,96.93129770992367,-0.7938931297709924,-9.390058911132812,-1.7956512451171873,2.051830822753906,9.526717557251908,8.106870229007633,8.625954198473282,0.0
12.500000715255737,-7.529764221191406,-0.7302315063476562,2.4109610717773435,18.977099236641223,101.20610687022901,1.2671755725190839,-9.830592016601562,-2.5522189697265625,2.8036101440429686,7.419847328244275,3.7709923664122136,9.374045801526718,0.0
12.510000705718994,-8.252813122558594,-1.0103531005859374,3.2154128295898436,32.3206106870229,105.6793893129771,4.0458015267175576,-10.433930834960936,-3.5338416503906247,3.3877953491210935,22.564885496183205,-1.083969465648855,9.786259541984732,0.0
12.520000696182251,-9.090783703613281,-1.2593500732421874,4.560954162597656,42.76335877862596,107.93893129770993,5.114503816793893,-10.249577307128906,-3.414131567382812,3.3327287109375,29.923664122137403,-8.259541984732824,7.755725190839694,0.0
12.530000686645508,-10.060435375976562,-0.16998831787109375,6.301538769531249,51.57251908396947,107.95419847328245,5.358778625954199,-9.627084875488281,-2.0087351928710935,2.7365724975585937,34.58015267175573,-15.84732824427481,5.770992366412214,0.0
12.540000438690186,-10.251971508789062,0.26336218261718747,7.769184387207031,53.43511450381679,101.55725190839695,5.740458015267175,-8.640673791503906,-0.22505495605468748,2.1787235107421874,26.137404580152673,-18.47328244274809,3.1755725190839694,0.0
12.550000667572021,-11.568782421875,2.427720483398437,10.457872851562499,47.70992366412214,88.27480916030534,5.1603053435114505,-8.010998754882811,0.9265560424804687,1.0941501586914062,13.679389312977099,-15.98473282442748,1.465648854961832,0.0
12.560000658035278,-11.626243261718749,3.0597897216796874,11.822567797851562,34.10687022900763,66.6412213740458,6.030534351145038,-9.208099584960937,-0.5027823486328125,2.1691467041015624,8.992366412213741,-13.877862595419847,5.938931297709924,0.0
12.570001125335693,-11.88721124267578,3.1364041748046874,12.059593762207031,18.931297709923665,45.48091603053435,6.152671755725191,-8.700528833007812,-1.1923124267578125,2.300827795410156,-4.213740458015267,-14.15267175572519,7.038167938931298,0.0
12.580000400543213,-11.61906065673828,3.488351818847656,10.225635290527343,3.068702290076336,21.862595419847327,6.152671755725191,-9.18655177001953,-2.1260510742187497,2.8610709838867185,3.435114503816794,-15.267175572519085,8.82442748091603,0.0
12.590000867843628,-11.269507214355468,3.071760729980469,8.932766394042968,-9.099236641221374,1.8015267175572518,8.290076335877863,-9.220070593261719,-1.6927005737304686,3.0741549316406247,3.5267175572519083,-17.61832061068702,7.694656488549619,0.0
12.600000619888306,-8.59278975830078,-1.1013327636718748,6.212953308105468,6.442748091603053,-13.297709923664122,17.358778625954198,-8.559270935058594,-0.8667010009765624,2.7964275390625,0.9618320610687023,-20.045801526717558,8.916030534351146,0.0
12.610000848770142,-8.532934716796875,-0.9026140258789062,4.07971962890625,33.38931297709924,-13.129770992366412,23.83206106870229,-8.540117321777343,-1.3646949462890625,2.7724855224609373,-3.4656488549618323,-20.549618320610687,12.458015267175572,0.0
12.62000060081482,-9.907206469726562,0.9361328491210937,2.454056701660156,43.25190839694657,-11.938931297709924,25.49618320610687,-9.502586389160156,-2.4564509033203126,3.2632968627929686,6.549618320610687,-24.82442748091603,17.755725190839694,0.0
12.630000591278076,-11.659762084960937,2.6048914062499997,1.455674609375,50.06106870229008,-9.98473282442748,32.38167938931298,-9.069235888671875,-2.645592834472656,2.8898014038085935,13.648854961832061,-32.68702290076336,21.31297709923664,0.0
12.640000343322754,-13.754688537597655,5.013458276367187,1.7381904052734374,52.29007633587786,-7.129770992366412,45.282442748091604,-9.660603698730467,-2.868253588867187,3.0909143432617188,11.099236641221374,-36.88549618320611,25.022900763358777,0.0
12.650001049041748,-15.945383056640624,6.751648681640624,3.0430303100585934,43.00763358778626,-8.15267175572519,59.282442748091604,-8.310273962402343,-1.1061211669921875,2.3056161987304686,18.916030534351144,-39.908396946564885,25.053435114503817,0.0
12.660000562667847,-17.49203732910156,6.299144567871093,5.197811804199218,26.015267175572518,-13.145038167938932,71.69465648854961,-9.868899243164062,-2.142810485839844,2.3439234252929686,1.9083969465648856,-41.11450381679389,29.374045801526716,0.0
12.670000553131104,-17.784129931640624,2.858676782226562,6.766013891601562,3.0381679389312977,-22.30534351145038,74.54961832061069,-8.061276989746093,0.25139117431640623,-0.9265560424804687,15.511450381679388,-32.82442748091603,25.755725190839694,0.0
12.68000054359436,-16.115371374511717,-1.2282254516601563,4.704606262207031,-21.053435114503817,-27.72519083969466,61.51145038167939,-8.461108666992187,-0.9193734375,-1.2737152832031249,4.427480916030534,-28.30534351145038,26.68702290076336,0.0
12.690000534057617,-12.74912384033203,-6.167463476562499,2.365471240234375,-48.900763358778626,-36.87022900763359,37.37404580152672,-9.428366137695312,-2.43250888671875,-1.599326708984375,9.404580152671755,-21.786259541984734,24.931297709923665,0.0
12.700000762939453,-9.167398156738281,-6.868964562988281,0.24181436767578124,-36.717557251908396,-33.267175572519086,8.870229007633588,-9.861716638183593,-2.9496564453125,-1.4101847778320311,14.900763358778626,-15.603053435114504,15.83206106870229,0.0
12.71000075340271,-7.108384729003906,-2.262520568847656,-1.7764976318359373,-22.641221374045802,-24.793893129770993,-12.82442748091603,-9.928754284667969,-3.366247534179687,-1.5346832641601562,16.16793893129771,-6.488549618320611,5.938931297709924,0.0
12.720000743865967,-6.272808349609375,2.2936451904296873,-3.651157531738281,-11.725190839694656,-16.763358778625953,-16.65648854961832,-11.286266625976562,-4.398148449707031,-1.2856862915039062,32.01526717557252,1.8015267175572518,3.1297709923664123,0.0
12.730000257492065,-4.680664245605469,3.6679169433593746,-3.5506010620117183,4.656488549618321,-1.099236641221374,-8.106870229007633,-11.765106958007811,-2.2361843505859373,-1.4341267944335936,35.00763358778626,4.122137404580153,-3.786259541984733,0.0
12.74000072479248,-5.384559533691406,3.9935283691406247,-2.6048914062499997,14.946564885496183,14.091603053435115,-1.8931297709923665,-13.105859887695312,-2.6144682128906247,-0.3758896606445312,35.57251908396947,4.809160305343512,-3.1755725190839694,0.0
12.750000476837158,-5.786785412597656,5.130774157714844,-1.6208745239257811,11.251908396946565,25.801526717557252,3.0839694656488548,-13.378798876953125,-1.5131354492187499,-0.05746083984375,40.76335877862596,9.816793893129772,4.183206106870229,0.0
12.760000944137573,-7.316680273437499,7.070077502441406,-1.0319009155273438,-5.00763358778626,30.80916030534351,6.900763358778626,-12.914323754882812,-0.33518823242187495,0.277727392578125,44.0763358778626,16.015267175572518,-3.0229007633587788,0.0
12.770000696182251,-9.038111267089842,7.869740856933594,-0.047884033203124995,-35.12977099236641,31.267175572519083,10.885496183206106,-12.641384765624998,0.16280571289062498,0.7062894897460937,41.404580152671755,18.12213740458015,-0.7022900763358778,0.0
12.780000686645508,-9.543287817382812,6.327874987792969,0.20350714111328125,-61.00763358778626,29.52671755725191,14.854961832061068,-11.49216796875,0.34237083740234375,0.258573779296875,38.6412213740458,18.47328244274809,1.5877862595419847,0.0
12.790000677108765,-9.507374792480467,2.5905261962890624,0.5027823486328125,-73.43511450381679,29.022900763358777,16.732824427480917,-9.852139831542969,1.5897499023437498,1.2761094848632812,33.954198473282446,14.793893129770993,1.8625954198473282,0.0
12.800000429153442,-9.866505041503906,0.6440402465820312,1.3168109130859373,-70.8854961832061,31.114503816793892,14.549618320610687,-8.963891015625,2.877830395507812,1.4532804077148436,23.755725190839694,11.816793893129772,1.7251908396946565,0.0
12.810001134872437,-9.629479077148437,-0.9145850341796874,0.7517793212890624,-67.38931297709924,27.72519083969466,12.412213740458014,-9.200916979980468,3.1675287963867187,1.1252747802734375,13.511450381679388,10.717557251908397,3.7251908396946565,0.0
12.820000648498535,-10.512939489746094,-1.1444283935546875,1.177947216796875,-57.23664122137404,27.954198473282442,8.900763358778626,-9.828197814941406,2.051830822753906,1.8171990600585937,7.66412213740458,9.801526717557252,6.809160305343512,0.0
12.830000877380371,-10.505756884765624,-0.8667010009765624,1.5729904907226562,-44.0,28.30534351145038,5.740458015267175,-9.100360510253905,2.6048914062499997,2.4971523315429685,-0.9007633587786259,4.229007633587786,6.99236641221374,0.0
12.840000629425049,-10.931924780273437,0.6823474731445313,1.4963760375976562,-35.11450381679389,27.954198473282442,3.3740458015267176,-8.904035974121093,2.6431986328124997,2.741360900878906,-11.526717557251908,0.8244274809160306,9.16030534351145,0.0
12.850000858306885,-9.677363110351562,-0.8116343627929687,0.32082302246093747,-24.702290076335878,26.671755725190838,4.961832061068702,-9.325415466308593,2.6862942626953124,2.9496564453125,-17.6793893129771,-0.7633587786259542,11.709923664122137,0.0
12.860000610351562,-9.251195214843749,0.97683427734375,0.32082302246093747,-16.045801526717558,29.450381679389313,3.633587786259542,-9.330203869628905,2.5163059448242184,3.1316157714843746,-27.053435114503817,-4.580152671755725,13.755725190839694,0.0
12.87000036239624,-8.674192614746094,0.9888052856445312,0.16280571289062498,-19.740458015267176,26.763358778625953,3.7099236641221376,-10.105925207519531,2.3343466186523436,3.4069489624023435,-31.84732824427481,-7.526717557251908,15.725190839694656,0.0
12.880000829696655,-9.107543115234375,3.0406361083984375,0.39983167724609375,-23.282442748091604,27.099236641221374,2.7938931297709924,-10.242394702148436,2.0254946044921875,3.4955344238281247,-42.13740458015267,-11.48091603053435,16.83969465648855,0.0
12.890000581741333,-9.488221179199218,4.197035510253906,0.26336218261718747,-40.88549618320611,21.389312977099237,3.450381679389313,-10.165780249023436,2.602497204589844,2.923320227050781,-54.961832061068705,-15.114503816793894,16.671755725190838,0.0
12.900000810623169,-9.088389501953124,4.091690637207031,0.031124621582031248,-46.67175572519084,19.389312977099237,7.557251908396947,-10.01015714111328,1.85790048828125,2.7341782958984373,-63.7557251908397,-13.816793893129772,19.31297709923664,0.0
12.910000801086426,-9.334992272949219,3.4668040039062498,0.08140285644531249,-49.98473282442748,18.625954198473284,11.099236641221374,-11.777077966308592,-0.32082302246093747,2.655169641113281,-71.1145038167939,-15.145038167938932,23.221374045801525,0.0
12.920000314712524,-9.763554370117188,3.5793314819335937,0.44053310546874996,-53.89312977099237,18.931297709923665,12.748091603053435,-11.113884106445312,-0.01915361328125,2.7629087158203123,-75.16030534351145,-21.923664122137403,24.763358778625953,0.0
12.930000305175781,-9.871293444824218,3.0214824951171875,0.6105214233398437,-56.97709923664122,17.541984732824428,14.366412213740459,-10.912771166992187,-0.44053310546874996,2.8802245971679685,-75.81679389312977,-25.083969465648856,24.38167938931298,0.0
12.940000534057617,-9.95987890625,2.1356278808593747,0.5722141967773438,-57.770992366412216,16.27480916030534,15.083969465648854,-10.773907470703124,-0.16280571289062498,2.0446482177734375,-56.3206106870229,-28.931297709923665,23.709923664122137,0.0
12.950000286102295,-10.000580334472655,1.7980454467773437,0.7781155395507812,-50.16793893129771,20.38167938931298,13.770992366412214,-10.740388647460938,-0.679953271484375,2.1499930908203124,-67.6793893129771,-36.44274809160305,22.53435114503817,0.0
12.96000075340271,-10.596736547851561,3.323151904296875,1.1348515869140625,-53.770992366412216,22.442748091603054,9.786259541984732,-10.448296044921875,-0.4261678955078125,1.8148048583984373,-62.70229007633588,-37.31297709923664,20.50381679389313,0.0
12.970000743865967,-9.840168823242188,1.8219874633789062,0.23702596435546874,-60.83969465648855,17.099236641221374,11.770992366412214,-11.008539233398437,-0.6488286499023437,2.2074539306640624,-55.29770992366412,-37.86259541984733,20.16793893129771,0.0
12.980000734329224,-9.651026892089844,1.218648645019531,0.4213794921875,-52.961832061068705,20.83969465648855,11.389312977099237,-8.801085302734375,1.3239935180664062,0.5865794067382812,-44.58015267175573,-39.603053435114504,16.35114503816794,0.0
12.990000486373901,-8.908824377441405,-0.08140285644531249,-0.12210428466796874,-43.00763358778626,23.16030534351145,11.038167938931299,-9.816226806640625,0.19393033447265623,1.0414777221679687,-67.06870229007633,-40.274809160305345,16.427480916030536,0.0
13.000000476837158,-8.923189587402343,2.6336218261718747,0.6536170532226562,-42.51908396946565,24.259541984732824,7.969465648854962,-10.946289990234375,-0.9552864624023437,1.70467158203125,-51.20610687022901,-35.38931297709924,17.83206106870229,0.0
13.010000467300415,-9.90241806640625,2.0877438476562498,0.5482721801757812,-52.79389312977099,18.48854961832061,7.435114503816794,-11.020510241699219,-0.8595183959960937,0.9504980590820312,-43.603053435114504,-38.01526717557252,15.450381679389313,0.0
13.02000093460083,-8.394071020507813,-0.7422025146484375,-0.277727392578125,-31.282442748091604,20.412213740458014,10.458015267175572,-10.381258398437499,-1.0702081420898437,1.5634136840820312,-39.083969465648856,-40.42748091603053,12.748091603053435,0.0
13.030000925064087,-9.334992272949219,0.5530605834960938,0.36391865234375,-18.198473282442748,26.12213740458015,6.427480916030534,-10.773907470703124,-0.17956512451171874,1.2425906616210938,-30.458015267175572,-38.94656488549618,8.076335877862595,0.0
13.040000677108765,-10.204087475585936,1.429338391113281,0.5219359619140624,-12.641221374045802,26.68702290076336,3.7404580152671754,-9.222464794921875,0.9337386474609375,0.6200982299804687,-36.44274809160305,-34.88549618320611,4.320610687022901,0.0
13.05000114440918,-9.619902270507811,2.3127988037109373,0.22744915771484372,-14.366412213740459,22.778625954198475,3.236641221374046,-9.162609753417968,1.0821791503906248,-0.6871358764648438,-38.80916030534351,-24.595419847328245,2.33587786259542,0.0
13.0600004196167,-9.821015209960937,2.7557261108398436,0.49320554199218747,-20.30534351145038,21.14503816793893,3.2213740458015265,-8.643067993164061,0.20350714111328125,-0.7302315063476562,-58.94656488549618,-15.725190839694656,4.076335877862595,0.0
13.070000886917114,-10.366893188476562,3.632003918457031,1.1013327636718748,-25.66412213740458,20.732824427480917,2.381679389312977,-9.205705383300781,-1.16837041015625,0.9433154541015625,-49.29770992366412,-1.7709923664122138,5.297709923664122,0.0
13.080000638961792,-9.919177478027343,2.7078420776367187,0.6607996582031249,-32.83969465648855,15.145038167938932,4.290076335877862,-9.229647399902344,-0.9193734375,0.047884033203124995,-41.49618320610687,-5.282442748091603,6.183206106870229,0.0
13.090000867843628,-9.351751684570312,1.707065783691406,0.43574470214843747,-26.900763358778626,14.351145038167939,5.66412213740458,-8.908824377441405,-1.0845733520507812,0.5099649536132812,-36.12213740458015,-2.427480916030534,4.0458015267175576,0.0
13.100000858306885,-9.452308154296874,1.5634136840820312,0.39983167724609375,-24.076335877862597,14.67175572519084,4.809160305343512,-8.978256225585938,-1.2856862915039062,0.565031591796875,-30.671755725190838,0.5648854961832062,3.0076335877862594,0.0
13.110000848770142,-9.540893615722656,1.3192051147460937,0.46686932373046874,-20.870229007633586,14.564885496183207,3.954198473282443,-8.738836059570312,-1.350329736328125,0.5482721801757812,-24.610687022900763,2.7786259541984735,1.1297709923664123,0.0
13.12000060081482,-9.593566052246093,1.2928688964843749,0.5530605834960938,-18.47328244274809,13.251908396946565,2.213740458015267,-8.82981572265625,-1.2401964599609374,0.8475473876953125,-19.862595419847327,3.816793893129771,0.04580152671755725,0.0
13.130000829696655,-9.689334118652344,1.2904746948242187,0.6584054565429687,-15.83206106870229,13.17557251908397,1.3282442748091603,-8.851363537597656,-0.9744400756835937,1.0797849487304687,-14.82442748091603,4.961832061068702,-1.3282442748091603,0.0
13.140000581741333,-10.153809240722655,1.8818425048828125,0.8475473876953125,-14.50381679389313,12.335877862595419,-0.061068702290076333,-8.959102612304687,-0.9074024291992187,1.158793603515625,-11.007633587786259,6.519083969465649,-2.3969465648854964,0.0
13.15000057220459,-9.555258825683593,1.0654197387695312,0.4955997436523437,-10.091603053435115,10.65648854961832,0.8549618320610687,-8.90643017578125,-0.8164227661132812,1.1563994018554686,-8.076335877862595,7.7251908396946565,-2.9618320610687023,0.0
13.160000562667847,-9.809044201660155,1.6903063720703124,0.4908113403320312,-7.908396946564886,10.442748091603054,-0.10687022900763359,-8.786720092773438,-0.5482721801757812,1.2689268798828124,-5.572519083969466,9.526717557251908,-3.954198473282443,0.0
13.170000553131104,-9.53131680908203,1.3407529296874998,0.316034619140625,-5.786259541984733,9.86259541984733,-0.366412213740458,-8.975862023925782,-0.5674257934570313,1.467645617675781,-0.9770992366412213,10.702290076335878,-4.0,0.0
13.180000305175781,-9.591171850585937,1.6160861206054686,0.3854664672851562,-5.114503816793893,9.648854961832061,-1.6030534351145038,-9.138667736816405,-0.5195417602539062,1.5705962890624998,0.2595419847328244,13.679389312977099,-5.648854961832061,0.0
13.190000772476196,-9.641450085449218,1.3287819213867187,0.3711012573242187,-3.435114503816794,9.404580152671755,-2.16793893129771,-9.3086560546875,-0.5099649536132812,1.8195932617187498,1.6488549618320612,14.854961832061068,-5.221374045801527,0.0
13.200000762939453,-10.04846436767578,1.9536685546875,0.5578489868164063,-4.412213740458015,9.053435114503817,-3.954198473282443,-9.241618408203124,-0.507570751953125,1.9321207397460936,4.229007633587786,15.618320610687023,-4.977099236641221,0.0
13.21000075340271,-9.794678991699218,1.4724340209960938,0.1771709228515625,-0.6259541984732825,8.213740458015268,-3.5877862595419847,-9.176974963378905,-0.5578489868164063,2.176329309082031,6.458015267175573,16.610687022900763,-5.511450381679389,0.0
13.220000743865967,-9.6917283203125,1.9752163696289062,0.1771709228515625,1.4198473282442747,8.534351145038167,-3.404580152671756,-8.786720092773438,0.4381389038085937,1.9608511596679685,5.206106870229007,17.587786259541986,-6.412213740458015,0.0
13.230000495910645,-9.619902270507811,2.2577321655273437,0.20350714111328125,0.32061068702290074,8.183206106870228,-3.4198473282442747,-9.222464794921875,0.2346317626953125,2.612074011230469,-6.763358778625954,23.374045801526716,-6.137404580152672,0.0
13.24000072479248,-10.151415039062499,3.651157531738281,0.8116343627929687,-7.221374045801527,7.526717557251908,-4.488549618320611,-8.473079675292968,-0.08379705810546874,1.7956512451171873,-5.282442748091603,28.778625954198475,-6.473282442748092,0.0
13.250000715255737,-9.076418493652342,2.001552587890625,0.28730419921875,-15.053435114503817,1.9389312977099236,-1.984732824427481,-10.196904870605469,-1.3192051147460937,2.990357873535156,-2.7786259541984735,27.954198473282442,-3.984732824427481,0.0
13.260001182556152,-9.56962403564453,1.1827356201171875,-0.02154781494140625,-13.954198473282442,0.33587786259541985,-1.633587786259542,-10.1131078125,-1.7429788085937499,3.191470812988281,6.625954198473282,25.64885496183206,-4.977099236641221,0.0
13.270000696182251,-8.688557824707031,0.430956298828125,-0.16041151123046873,-8.183206106870228,0.21374045801526717,-0.9618320610687023,-9.272743029785156,-1.0869675537109373,2.2649147705078123,4.0458015267175576,23.358778625954198,-8.0,0.0
13.280000448226929,-9.686939916992188,1.1276689819335937,-0.06703764648437499,-4.9465648854961835,1.4961832061068703,-2.2595419847328246,-9.706093530273437,-1.3263877197265623,2.8802245971679685,20.763358778625953,23.221374045801525,-9.17557251908397,0.0
13.290000677108765,-8.894459167480468,0.7254431030273437,-0.3711012573242187,-1.7251908396946565,1.9083969465648856,-1.8778625954198473,-9.557653027343749,-0.612915625,2.863465185546875,16.259541984732824,20.80916030534351,-11.297709923664122,0.0
13.300000667572021,-9.14824454345703,1.7190367919921874,-0.316034619140625,0.3511450381679389,4.305343511450381,-3.2977099236641223,-9.409212524414063,-0.031124621582031248,2.6336218261718747,16.82442748091603,20.946564885496183,-12.473282442748092,0.0
13.310001611709595,-9.17458076171875,1.3718775512695311,-0.22026655273437498,1.83206106870229,6.106870229007634,-3.5267175572519083,-9.380482104492186,0.4836287353515625,2.9855694702148434,1.1450381679389312,23.022900763358777,-11.908396946564885,0.0
13.320000648498535,-8.975862023925782,1.0295067138671874,-0.0718260498046875,7.709923664122138,9.083969465648854,-3.145038167938931,-9.117119921875,0.5793968017578125,2.499546533203125,-2.198473282442748,26.916030534351144,-11.694656488549619,0.0
13.33000111579895,-9.469067565917967,1.8746598999023436,-0.01915361328125,6.641221374045801,10.793893129770993,-4.33587786259542,-9.394847314453125,0.4836287353515625,2.8754361938476563,-6.229007633587786,28.625954198473284,-10.946564885496183,0.0
13.340000629425049,-9.706093530273437,2.375048046875,0.17956512451171874,12.580152671755725,15.32824427480916,-4.549618320610687,-9.33978067626953,0.21308394775390624,3.2704794677734372,-9.297709923664122,31.022900763358777,-10.67175572519084,0.0
13.350001096725464,-9.72285294189453,2.7964275390625,0.15083470458984374,8.793893129770993,15.297709923664122,-3.5572519083969465,-10.615890161132812,-2.3223756103515623,3.555389465332031,-4.351145038167939,28.061068702290076,-8.50381679389313,0.0
13.360000610351562,-9.64623848876953,2.384624853515625,0.08379705810546874,7.480916030534351,14.259541984732824,-2.519083969465649,-9.593566052246093,-1.9919757812499999,3.9145197143554684,17.374045801526716,21.64885496183206,-11.557251908396946,0.0
13.37000060081482,-9.26316622314453,1.8411410766601561,0.4285620971679687,10.473282442748092,14.549618320610687,-2.8702290076335877,-9.981426721191406,-2.568978381347656,3.564966271972656,27.923664122137403,13.404580152671755,-14.259541984732824,0.0
13.380000591278076,-9.141061938476563,1.5394716674804687,0.1149216796875,14.396946564885496,15.526717557251908,-3.3740458015267176,-9.124302526855468,-1.3910311645507811,3.0142998901367184,25.221374045801525,8.549618320610687,-17.358778625954198,0.0
13.390000581741333,-9.512163195800781,1.9536685546875,0.1149216796875,14.213740458015268,16.27480916030534,-5.129770992366412,-9.203311181640624,-1.4796166259765624,2.7581203125,23.206106870229007,7.694656488549619,-16.931297709923665,0.0
13.40000033378601,-9.303867651367186,1.4149731811523436,0.07900865478515624,15.267175572519085,15.923664122137405,-5.648854961832061,-9.145850341796875,-1.2904746948242187,2.4516625,26.03053435114504,6.0458015267175576,-16.80916030534351,0.0
13.410000562667847,-9.212887988281249,0.7805097412109374,0.10295067138671875,19.49618320610687,16.427480916030536,-6.015267175572519,-8.80347950439453,-0.6631938598632812,2.138022082519531,25.0381679389313,5.770992366412214,-16.610687022900763,0.0
13.420000553131104,-9.49300958251953,0.21787235107421873,-0.00239420166015625,29.908396946564885,19.893129770992367,-6.427480916030534,-8.59278975830078,-0.3399766357421875,2.2457611572265623,25.69465648854962,7.190839694656488,-15.17557251908397,0.0
13.43000054359436,-9.373299499511718,1.2713210815429687,0.3854664672851562,37.3587786259542,24.198473282442748,-8.51908396946565,-8.717288244628906,-0.5530605834960938,1.8076222534179687,27.84732824427481,7.3893129770992365,-13.557251908396946,0.0
13.440000534057617,-8.717288244628906,1.2521674682617188,0.15083470458984374,41.23664122137404,24.83969465648855,-8.473282442748092,-8.480262280273436,-0.15083470458984374,1.465251416015625,30.82442748091603,8.122137404580153,-12.442748091603054,0.0
13.450000762939453,-9.344569079589844,1.484405029296875,0.699106884765625,42.458015267175576,27.129770992366414,-10.106870229007633,-8.33182177734375,0.033518823242187495,1.446097802734375,30.99236641221374,9.648854961832061,-10.67175572519084,0.0
13.46000075340271,-8.267178332519531,0.48123453369140623,-0.05027823486328125,46.3206106870229,27.69465648854962,-6.351145038167939,-8.25520732421875,0.14125789794921875,1.0941501586914062,31.31297709923664,11.435114503816793,-10.213740458015268,0.0
13.470000505447388,-9.153032946777342,1.1013327636718748,1.1659762084960936,46.44274809160305,24.33587786259542,-11.541984732824428,-8.453926062011718,-0.08858546142578125,1.1468225952148436,29.96946564885496,13.465648854961833,-8.473282442748092,0.0
13.480000734329224,-9.562441430664062,1.3431471313476562,1.93451494140625,48.458015267175576,23.541984732824428,-12.610687022900763,-8.513781103515624,-0.13646949462890623,0.8379705810546875,30.27480916030534,14.473282442748092,-7.6183206106870225,0.0
13.490000486373901,-10.472238061523436,2.2170307373046874,2.27927998046875,48.54961832061068,19.404580152671755,-14.15267175572519,-8.176198669433592,0.09576806640624999,0.8690952026367187,26.458015267175572,16.38167938931298,-7.129770992366412,0.0
13.500000476837158,-10.184933862304687,1.1635820068359375,2.4875755249023435,48.50381679389313,12.748091603053435,-12.381679389312977,-7.433996154785156,1.3431471313476562,-0.12689268798828124,25.572519083969464,18.48854961832061,-7.129770992366412,0.0
13.510000705718994,-10.333374365234375,1.8148048583984373,2.8514941772460936,53.083969465648856,10.473282442748092,-13.267175572519085,-7.187393383789062,0.7972691528320313,0.7541735229492187,16.80916030534351,27.938931297709924,-3.7404580152671754,0.0
13.52000093460083,-10.012551342773437,2.0302830078125,2.916137622070312,50.13740458015267,4.412213740458015,-12.748091603053435,-7.067683300781249,0.3902548706054687,0.8882488159179687,14.412213740458014,29.770992366412212,-1.8931297709923665,0.0
13.530000925064087,-9.260772021484375,2.1404162841796874,2.8850130004882812,47.74045801526717,-2.854961832061069,-13.129770992366412,-8.061276989746093,-0.12689268798828124,0.9050082275390624,9.633587786259541,28.885496183206108,0.5038167938931297,0.0
13.540000677108765,-8.690952026367187,1.5873557006835937,3.201047619628906,45.38931297709924,-9.282442748091603,-13.755725190839694,-7.673416320800781,0.9361328491210937,0.6368576416015624,2.854961832061069,31.083969465648856,-0.015267175572519083,0.0
13.55000114440918,-9.667786303710937,3.4715924072265625,4.431667272949219,39.61832061068702,-14.061068702290076,-16.671755725190838,-8.762778076171875,0.7326257080078125,1.1659762084960936,-14.244274809160306,37.31297709923664,2.0763358778625953,0.0
13.560000896453857,-8.683769421386717,1.5945383056640625,4.153939880371094,42.3206106870229,-23.52671755725191,-13.816793893129772,-9.564835632324218,-1.0582371337890624,1.4173673828125,-5.267175572519084,39.099236641221374,4.9465648854961835,0.0
13.570000886917114,-8.588001354980468,1.8076222534179687,3.6535517333984373,48.54961832061068,-28.717557251908396,-12.396946564885496,-10.560823522949217,-2.0087351928710935,1.5562310791015623,4.732824427480916,32.13740458015267,5.877862595419847,0.0
13.580000638961792,-9.124302526855468,2.868253588867187,3.859453076171875,51.49618320610687,-32.36641221374046,-13.511450381679388,-9.143456140136719,-0.2537853759765625,1.8914193115234375,17.81679389312977,27.251908396946565,1.0229007633587786,0.0
13.590000867843628,-9.763554370117188,3.268085266113281,3.873818286132812,50.091603053435115,-35.16030534351145,-13.389312977099237,-9.555258825683593,-0.36391865234375,1.9823989746093749,16.977099236641223,25.053435114503817,-0.015267175572519083,0.0
13.600000619888306,-9.667786303710937,1.668758557128906,3.5194764404296874,55.89312977099237,-38.85496183206107,-11.282442748091603,-10.539275708007812,-0.6512228515624999,1.5921441040039062,5.251908396946565,24.198473282442748,-1.282442748091603,0.0
13.61000108718872,-9.682151513671874,3.1579519897460937,3.4811692138671875,49.63358778625954,-41.49618320610687,-12.335877862595419,-10.51533369140625,0.5051765502929687,1.7190367919921874,2.1526717557251906,25.72519083969466,-4.931297709923665,0.0
13.62000060081482,-9.368511096191405,4.254496350097656,3.289633081054687,29.64885496183206,-50.10687022900763,-12.290076335877863,-11.67652149658203,-0.34237083740234375,2.834734765625,-13.32824427480916,27.206106870229007,-7.374045801526718,0.0
13.630000591278076,-9.619902270507811,3.835511059570312,3.2632968627929686,17.053435114503817,-56.0763358778626,-11.206106870229007,-12.646173168945312,-1.6472107421875,4.082113830566406,-8.641221374045802,23.083969465648856,-10.702290076335878,0.0
13.640000581741333,-9.540893615722656,2.2553379638671873,2.825157958984375,14.534351145038167,-63.11450381679389,-11.083969465648854,-13.371616271972655,-2.166752502441406,4.898536596679687,-4.229007633587786,11.038167938931299,-17.572519083969464,0.0
13.65000057220459,-10.24000050048828,2.042254016113281,3.2154128295898436,16.137404580152673,-67.45038167938931,-13.694656488549619,-14.695609790039061,-2.2936451904296873,5.157110375976562,0.2595419847328244,-2.8091603053435112,-22.68702290076336,0.0
13.660000801086426,-10.491391674804687,2.798821740722656,3.404554760742187,14.045801526717558,-74.76335877862596,-15.221374045801527,-14.15452021484375,-1.917755529785156,5.0757075195312495,1.5725190839694656,-12.641221374045802,-26.213740458015266,0.0
13.670000553131104,-11.705251916503906,2.7653029174804686,4.173093493652344,6.625954198473282,-85.22137404580153,-15.404580152671755,-13.316549633789062,-1.3934253662109375,4.086902233886718,3.5419847328244276,-14.412213740458014,-28.427480916030536,0.0
13.680001020431519,-12.349292163085936,2.1404162841796874,4.826710546875,0.42748091603053434,-99.69465648854961,-14.534351145038167,-14.022839123535155,-1.8459294799804686,3.4261025756835934,6.137404580152672,-18.213740458015266,-26.763358778625953,0.0
13.690000772476196,-12.571952917480468,1.6328455322265625,5.523423229980469,-1.2366412213740459,-112.35114503816794,-14.427480916030534,-12.042834350585936,0.7326257080078125,2.0374656127929685,8.931297709923664,-27.221374045801525,-26.83969465648855,0.0
13.700001001358032,-12.974178796386719,1.4796166259765624,5.604826086425781,-0.13740458015267176,-124.90076335877863,-13.450381679389313,-11.465831750488281,0.74699091796875,1.1444283935546875,9.053435114503817,-24.0,-22.82442748091603,0.0
13.71000051498413,-12.957419384765624,0.40462008056640625,5.6766521362304685,1.9083969465648856,-139.7709923664122,-7.923664122137405,-9.576806640625,1.3096283081054687,-0.14604630126953125,14.625954198473282,-23.19083969465649,-17.862595419847327,0.0
13.720000743865967,-12.904746948242186,-0.6392518432617187,4.333505004882812,7.190839694656488,-149.86259541984734,-4.625954198473282,-7.987056738281249,1.2569558715820313,-2.3511060302734372,12.244274809160306,-22.793893129770993,-12.198473282442748,0.0
13.730000495910645,-13.065158459472656,-1.707065783691406,2.779668127441406,6.488549618320611,-159.40458015267177,-4.748091603053435,-6.622361791992187,0.8020575561523438,-3.689464758300781,4.977099236641221,-15.923664122137405,-9.358778625954198,0.0
13.74000096321106,-13.503297363281249,-2.1547814941406247,0.5363011718749999,6.656488549618321,-164.91603053435114,-6.8396946564885495,-7.029376074218749,-1.7932570434570312,-2.5474305664062498,9.221374045801527,-6.748091603053435,-4.183206106870229,0.0
13.750000476837158,-13.156138122558593,-2.7461493041992187,-0.047884033203124995,14.305343511450381,-163.38931297709922,-5.480916030534351,-9.088389501953124,-5.248090039062499,-3.0837317382812497,6.213740458015267,-1.450381679389313,-4.33587786259542,0.0
13.760001182556152,-13.105859887695312,-2.839523168945312,-0.9433154541015625,32.30534351145038,-156.1679389312977,-3.2977099236641223,-10.077194787597655,-8.56166513671875,-3.2130186279296873,8.290076335877863,-1.9389312977099236,-2.33587786259542,0.0
13.77000093460083,-13.563152404785155,-2.2074539306640624,-1.7334020019531249,49.51145038167939,-144.24427480916032,-2.6259541984732824,-9.665392102050781,-6.143521459960938,-0.9983820922851562,31.328244274809162,3.4198473282442747,-6.396946564885496,0.0
13.780000925064087,-12.119448803710936,-0.699106884765625,-1.7836802368164062,62.76335877862596,-130.4732824427481,-2.33587786259542,-10.249577307128906,-5.027823486328125,-2.2074539306640624,45.52671755725191,2.427480916030534,-9.435114503816793,0.0
13.790001153945923,-11.10191309814453,-0.51714755859375,-3.1459809814453124,65.95419847328245,-114.82442748091603,-1.618320610687023,-10.218452685546874,-3.3542765258789062,-1.2880804931640624,45.3587786259542,6.213740458015267,-9.923664122137405,0.0
13.8000009059906,-10.36210478515625,1.5897499023437498,-3.2417490478515623,60.396946564885496,-94.68702290076335,-1.7709923664122138,-10.09395419921875,-2.6527754394531247,-0.5267243652343749,43.00763358778626,9.86259541984733,-3.053435114503817,0.0
13.810001134872437,-10.177751257324218,1.1659762084960936,-2.403778466796875,48.67175572519084,-78.38167938931298,-1.1603053435114503,-9.861716638183593,-1.7525556152343749,-0.22266075439453123,32.3206106870229,9.770992366412214,-5.0534351145038165,0.0
13.820000886917114,-9.483432775878907,1.85790048828125,-1.9632453613281249,39.41984732824427,-62.0,1.5877862595419847,-9.627084875488281,-1.3072341064453123,0.3327940307617187,24.50381679389313,12.442748091603054,-3.3740458015267176,0.0
13.83000111579895,-8.628702783203124,1.2018892333984375,-1.369483349609375,31.755725190839694,-46.717557251908396,4.67175572519084,-9.366116894531249,-1.2737152832031249,0.3136404174804687,18.732824427480917,14.13740458015267,-2.213740458015267,0.0
13.840000867843628,-8.147468249511718,1.5849614990234373,-0.9624690673828125,22.595419847328245,-28.50381679389313,4.549618320610687,-9.60793126220703,-2.118868469238281,-0.4213794921875,12.51908396946565,14.748091603053435,-1.3282442748091603,0.0
13.850001335144043,-6.890512377929687,0.7517793212890624,-1.8315642700195311,8.274809160305344,-19.755725190839694,4.137404580152672,-9.320627062988281,-1.9991583862304687,-0.36152445068359373,11.17557251908397,15.114503816793894,-0.13740458015267176,0.0
13.860000610351562,-6.524199523925781,0.45968671875,-1.4820108276367188,11.908396946564885,-1.083969465648855,2.9770992366412212,-9.473855969238281,-2.389413256835937,-0.5267243652343749,12.50381679389313,16.35114503816794,0.366412213740458,0.0
13.87000060081482,-7.352593298339843,2.212242333984375,-0.6847416748046875,-16.580152671755727,2.6564885496183206,-2.366412213740458,-9.528922607421874,-1.8339584716796873,-0.565031591796875,16.03053435114504,17.221374045801525,1.3740458015267176,0.0
13.880000829696655,-6.959944226074218,1.7381904052734374,-0.42377369384765623,-26.763358778625953,9.664122137404581,-1.083969465648855,-9.562441430664062,-1.7357962036132812,-0.6057330200195312,12.67175572519084,17.755725190839694,1.8931297709923665,0.0
13.890000581741333,-6.4092778442382805,1.1731588134765625,-0.8643067993164062,-35.343511450381676,15.16030534351145,-0.42748091603053434,-9.81862100830078,-0.948103857421875,-0.21068974609375,10.51908396946565,18.259541984732824,3.6946564885496183,0.0
13.90000057220459,-5.865794067382812,0.9026140258789062,-1.0678139404296874,-41.587786259541986,23.068702290076335,-0.183206106870229,-9.811438403320311,-0.9217676391601562,0.055066638183593745,9.83206106870229,19.572519083969464,5.557251908396947,0.0
13.910000801086426,-5.267243652343749,0.1005564697265625,-1.3431471313476562,-40.68702290076336,32.58015267175573,0.8702290076335878,-9.871293444824218,-0.6248866333007812,0.3711012573242187,5.129770992366412,19.17557251908397,7.1603053435114505,0.0
13.920000791549683,-4.335899206542969,0.3184288208007812,-2.0159177978515626,-41.38931297709924,42.44274809160305,0.6412213740458015,-9.87608184814453,-0.5674257934570313,1.3120225097656248,0.9312977099236641,18.396946564885496,8.83969465648855,0.0
13.93000078201294,-3.5529952636718747,-0.6392518432617187,-2.9448680419921875,-40.70229007633588,54.396946564885496,2.763358778625954,-9.80665,-0.4381389038085937,1.467645617675781,-3.6793893129770994,16.595419847328245,10.13740458015267,0.0
13.940001010894775,-3.651157531738281,-0.6081272216796875,-3.337517114257812,-31.66412213740458,72.80916030534351,4.1679389312977095,-9.777919580078125,-0.8714894042968749,1.9871873779296874,-9.725190839694656,12.702290076335878,11.251908396946565,0.0
13.950000762939453,-3.77326181640625,-0.22505495605468748,-3.545812658691406,-29.450381679389313,89.80152671755725,4.091603053435114,-9.842563024902343,-0.8738836059570312,2.7557261108398436,-13.419847328244275,9.389312977099237,11.282442748091603,0.0
13.960000991821289,-4.422090466308593,0.16041151123046873,-3.5697546752929687,-36.6412213740458,107.55725190839695,0.8702290076335878,-10.192116467285155,-1.2641384765625,3.35188232421875,-17.938931297709924,4.015267175572519,11.038167938931299,0.0
13.970000743865967,-5.212177014160156,0.4740519287109375,-2.4947581298828125,-49.23664122137404,120.01526717557252,-3.145038167938931,-10.01733974609375,-1.199495031738281,3.555389465332031,-19.801526717557252,-1.1297709923664123,9.374045801526718,0.0
13.980000972747803,-5.870582470703124,-0.35673604736328124,-0.4381389038085937,-56.274809160305345,127.41984732824427,-5.938931297709924,-10.371681591796875,-1.6017209106445311,3.766079211425781,-22.732824427480917,-9.358778625954198,8.412213740458014,0.0
13.99000072479248,-4.802768530273437,-4.237736938476562,1.1420341918945311,-47.64885496183206,128.44274809160305,-4.748091603053435,-11.243170996093749,-2.3582886352539063,4.522646936035156,-15.251908396946565,-19.053435114503817,8.900763358778626,0.0
14.000000953674316,-6.974309436035155,-3.2321722412109373,4.6255976074218745,-22.610687022900763,137.00763358778627,-7.419847328244275,-9.737218151855469,-0.8307879760742187,3.5529952636718747,-16.870229007633586,-23.053435114503817,5.267175572519084,0.0
14.010001182556152,-9.737218151855469,-2.5570073730468748,7.769184387207031,-5.587786259541985,132.36641221374046,-7.679389312977099,-8.66940421142578,0.7852981445312499,2.5617957763671875,-16.732824427480917,-30.442748091603054,4.9465648854961835,0.0
14.02000093460083,-11.44667813720703,-1.5658078857421873,11.398794104003905,20.580152671755727,120.3206106870229,0.549618320610687,-9.440337145996093,0.055066638183593745,2.5426421630859375,-24.519083969465647,-31.64885496183206,8.80916030534351,0.0
14.030000925064087,-12.591106530761717,-0.15322890625,14.37718096923828,47.51145038167939,103.7557251908397,10.793893129770993,-9.849745629882811,-0.9097966308593749,2.7150246826171873,-18.763358778625953,-36.68702290076336,14.16793893129771,0.0
14.040001392364502,-13.718775512695311,2.6288334228515624,15.559916589355467,61.43511450381679,78.97709923664122,17.34351145038168,-10.182539660644531,-1.5035586425781249,2.521094348144531,-11.206106870229007,-44.62595419847328,17.068702290076335,0.0
14.05000114440918,-14.410699792480468,5.006275671386718,14.841656091308593,54.213740458015266,44.97709923664122,20.198473282442748,-9.169792358398437,-0.5243301635742187,1.8459294799804686,-11.282442748091603,-48.70229007633588,16.900763358778626,0.0
14.060000896453857,-14.791377856445312,6.849810949707031,13.043610644531249,34.38167938931298,10.427480916030534,23.328244274809162,-8.825027319335938,-0.21308394775390624,1.4820108276367188,-23.61832061068702,-48.229007633587784,18.80916030534351,0.0
14.070001125335693,-15.121777685546874,4.491522314453125,10.441113439941406,18.198473282442748,-18.53435114503817,30.442748091603054,-8.334215979003906,-1.43652099609375,2.2026655273437497,-21.954198473282442,-46.213740458015266,22.80916030534351,0.0
14.080000877380371,-15.521609362792967,5.4013189453125,6.600813977050781,23.984732824427482,-33.786259541984734,39.969465648854964,-9.97903251953125,-4.613626599121093,3.0885201416015624,-2.045801526717557,-44.19847328244275,21.938931297709924,0.0
14.090001106262207,-15.64131944580078,5.303156677246093,0.4070142822265625,24.03053435114504,-39.11450381679389,53.49618320610687,-9.919177478027343,-5.755660791015624,3.057395520019531,3.66412213740458,-63.14503816793893,30.946564885496183,0.0
14.100000619888306,-14.544775085449217,3.5793314819335937,-0.5746083984375,30.99236641221374,-30.18320610687023,67.02290076335878,-8.968679418945312,-3.9935283691406247,2.492363928222656,18.12213740458015,-69.95419847328245,29.206106870229007,0.0
14.11000108718872,-12.631807958984375,0.9002198242187499,1.6448165405273436,26.977099236641223,-32.274809160305345,69.78625954198473,-7.551312036132812,-1.4724340209960938,1.24498486328125,18.47328244274809,-71.93893129770993,32.0,0.0
14.120000839233398,-12.222399475097655,0.8954314208984374,6.337451794433593,7.603053435114504,-38.29007633587786,60.94656488549618,-6.567295153808593,0.12689268798828124,0.7972691528320313,-4.473282442748092,-71.00763358778626,18.396946564885496,0.0
14.130000591278076,-11.008539233398437,0.28490999755859375,6.234501123046875,-17.068702290076335,-47.45038167938932,48.74809160305343,-8.86812294921875,-1.5897499023437498,0.16998831787109375,-2.1374045801526718,-60.030534351145036,15.877862595419847,0.0
14.140000581741333,-10.335768566894531,-0.296881005859375,3.6272155151367187,-40.16793893129771,-52.74809160305343,30.885496183206108,-10.328585961914062,-2.5474305664062498,-0.7661445312499999,8.748091603053435,-59.954198473282446,10.045801526717558,0.0
14.15000057220459,-7.893682873535155,-0.6823474731445313,-3.227383837890625,-46.6412213740458,-51.11450381679389,14.488549618320612,-10.342951171874999,-0.7661445312499999,-1.1635820068359375,5.648854961832061,-58.61068702290076,-1.4045801526717556,0.0
14.160000801086426,-6.038176586914062,-1.5035586425781249,-6.430825659179687,-43.29770992366412,-36.3206106870229,1.0076335877862594,-11.307814440917968,-0.2753331909179687,-1.3311761230468748,-0.8854961832061069,-48.458015267175576,-8.0,0.0
14.170000791549683,-7.1203557373046875,0.7876923461914062,-4.920084411621094,-34.717557251908396,-16.396946564885496,-5.862595419847328,-12.80658468017578,-0.5027823486328125,-0.4381389038085937,-12.687022900763358,-38.2442748091603,-8.65648854961832,0.0
14.180001020431519,-7.436390356445312,3.564966271972656,-4.173093493652344,-30.015267175572518,1.6946564885496183,-6.320610687022901,-12.610260144042968,-0.3806780639648437,-0.6105214233398437,-21.633587786259543,-29.862595419847327,-9.251908396946565,0.0
14.190000534057617,-7.694964135742187,4.106055847167968,-4.446032482910156,-27.52671755725191,18.763358778625953,-1.282442748091603,-12.789825268554686,-0.7062894897460937,-0.26336218261718747,-25.31297709923664,-21.81679389312977,-5.801526717557252,0.0
14.200000762939453,-8.425195642089843,4.723759875488281,-4.077325427246094,-32.42748091603053,33.70992366412214,3.267175572519084,-12.322955944824217,-0.7398083129882812,-0.2825157958984375,-16.977099236641223,-14.412213740458014,-2.732824427480916,0.0
14.21000075340271,-9.277531433105468,4.417302062988281,-2.1883003173828124,-39.786259541984734,45.12977099236641,6.595419847328245,-11.765106958007811,-0.11013327636718749,0.42377369384765623,-10.870229007633588,-10.65648854961832,0.5190839694656488,0.0
14.220000982284546,-9.514557397460937,3.3016040893554686,-0.5195417602539062,-45.786259541984734,49.7557251908397,9.648854961832061,-11.547234606933593,-0.4285620971679687,0.9552864624023437,0.33587786259541985,-9.206106870229007,3.984732824427481,0.0
14.230000734329224,-9.986215124511718,2.0733786376953125,0.7158662963867187,-45.969465648854964,52.94656488549618,9.694656488549619,-10.843339318847656,0.5770026000976562,1.24498486328125,6.137404580152672,-6.122137404580153,4.564885496183206,0.0
14.240001201629639,-9.892841259765625,1.0390835205078124,1.0199299072265624,-45.343511450381676,51.19083969465649,7.267175572519084,-11.508927380371093,-0.0909796630859375,2.3535002319335936,9.114503816793894,-5.572519083969466,6.8396946564885495,0.0
14.250000953674316,-9.603142858886718,0.6272808349609375,1.0223241088867188,-42.656488549618324,47.29770992366412,4.458015267175573,-11.398794104003905,-0.011971008300781249,2.4253262817382812,22.427480916030536,-5.190839694656488,5.816793893129771,0.0
14.260000944137573,-9.849745629882811,0.15322890625,1.5466542724609373,-36.10687022900763,45.23664122137404,0.5801526717557252,-11.360486877441405,-0.5530605834960938,2.990357873535156,27.61832061068702,-12.793893129770993,4.8396946564885495,0.0
14.27000117301941,-10.105925207519531,-0.1771709228515625,1.2569558715820313,-29.114503816793892,40.97709923664122,-1.6946564885496183,-10.984597216796875,0.17477672119140625,2.789244934082031,38.94656488549618,-17.51145038167939,1.5267175572519085,0.0
14.280000925064087,-9.991003527832031,0.076614453125,1.4700398193359374,-21.083969465648856,37.954198473282446,-4.076335877862595,-10.24718310546875,1.9105729248046874,2.4971523315429685,34.67175572519084,-20.80916030534351,-2.366412213740458,0.0
14.290001153945923,-10.189722265624999,1.3239935180664062,1.2904746948242187,-20.85496183206107,32.61068702290076,-4.549618320610687,-9.105148913574219,3.201047619628906,2.6144682128906247,16.80916030534351,-18.641221374045802,-3.1297709923664123,0.0
14.3000009059906,-10.031704956054687,2.114080065917969,0.8738836059570312,-18.412213740458014,30.35114503816794,-3.5114503816793894,-8.839392529296875,2.013523596191406,2.0254946044921875,8.80916030534351,-13.007633587786259,0.9312977099236641,0.0
14.310000896453857,-9.050082275390624,2.185906115722656,0.12210428466796874,-16.213740458015266,28.427480916030536,-0.7633587786259542,-9.952696301269532,0.5578489868164063,2.319981408691406,5.312977099236641,-13.954198473282442,4.152671755725191,0.0
14.320000886917114,-8.774749084472656,1.936909143066406,-0.40462008056640625,-11.83206106870229,28.412213740458014,0.8854961832061069,-9.030928662109375,1.0175357055664063,2.1978771240234374,-1.5114503816793894,-15.16030534351145,2.9770992366412212,0.0
14.330000877380371,-8.13310303955078,1.0941501586914062,-0.8044517578125,-3.8625954198473282,29.419847328244273,2.381679389312977,-8.717288244628906,1.1156979736328125,1.7262193969726563,-9.969465648854962,-10.442748091603054,2.0916030534351147,0.0
14.340000629425049,-9.560047229003906,3.825934252929687,-0.10773907470703124,-10.732824427480915,29.938931297709924,0.3511450381679389,-8.911218579101561,-0.316034619140625,1.9033903198242186,-21.770992366412212,-4.534351145038168,4.229007633587786,0.0
14.350000858306885,-9.643844287109374,2.9185318237304685,-0.15083470458984374,-20.12213740458015,25.282442748091604,2.7938931297709924,-8.844180932617187,-0.46208092041015625,1.7166425903320313,-14.687022900763358,-6.6106870229007635,5.221374045801527,0.0
14.360000848770142,-9.349357482910156,1.8435352783203125,0.430956298828125,-10.427480916030534,29.34351145038168,3.2213740458015265,-8.535328918457031,-0.1484405029296875,2.059013427734375,-16.091603053435115,-7.8320610687022905,5.419847328244275,0.0
14.370000839233398,-10.618284362792968,3.6272155151367187,0.8499415893554687,-15.389312977099237,31.16030534351145,-0.1984732824427481,-8.525752111816406,0.3112462158203125,1.9608511596679685,-14.732824427480915,-7.251908396946565,4.198473282442748,0.0
14.380001068115234,-10.263942517089843,2.310404602050781,0.47644613037109373,-26.366412213740457,24.870229007633586,-0.4580152671755725,-8.664615808105468,0.6248866333007812,1.7429788085937499,-13.908396946564885,-6.67175572519084,3.648854961832061,0.0
14.390000581741333,-10.144232434082031,2.051830822753906,0.9576806640625,-22.0,27.64885496183206,-2.015267175572519,-8.698134631347656,0.6296750366210937,1.70467158203125,-23.83206106870229,-6.732824427480916,2.9618320610687023,0.0
14.400000810623169,-9.986215124511718,2.090138049316406,0.86191259765625,-25.251908396946565,26.900763358778626,-3.5267175572519083,-8.269572534179687,0.9504980590820312,1.1348515869140625,-26.366412213740457,-3.4656488549618323,1.3282442748091603,0.0
14.410000801086426,-10.570400329589843,2.6240450195312497,0.7230489013671875,-32.229007633587784,25.31297709923664,-4.534351145038168,-9.141061938476563,0.031124621582031248,1.3431471313476562,-30.213740458015266,-1.282442748091603,1.1145038167938932,0.0
14.420000791549683,-9.765948571777344,1.5514426757812498,0.469263525390625,-31.19083969465649,24.732824427480917,-3.450381679389313,-9.294290844726563,-0.1388636962890625,1.3239935180664062,-33.63358778625954,-1.9389312977099236,0.16793893129770993,0.0
14.430001020431519,-10.050858569335936,1.8315642700195311,0.4525041137695312,-28.290076335877863,27.0381679389313,-4.0458015267175576,-9.392453112792968,-0.2657563842773437,1.6065093139648436,-34.33587786259542,-0.6106870229007634,-0.7480916030534351,0.0
14.440001010894775,-10.01015714111328,1.7214309936523438,0.143652099609375,-29.00763358778626,27.61832061068702,-4.5038167938931295,-9.639055883789062,-0.37828386230468747,1.7764976318359373,-31.740458015267176,1.7709923664122138,-2.366412213740458,0.0
14.450000762939453,-9.435548742675781,0.7038952880859375,-0.26336218261718747,-25.557251908396946,28.091603053435115,-4.106870229007634,-9.797073193359374,-0.6847416748046875,2.0183119995117185,-32.717557251908396,2.1374045801526718,-2.6564885496183206,0.0
14.460001230239868,-9.334992272949219,0.02633621826171875,-0.23223756103515625,-10.427480916030534,35.45038167938932,-5.343511450381679,-9.792284790039062,-0.8283937744140625,2.2601263671875,-31.541984732824428,2.519083969465649,-3.435114503816794,0.0
14.470000982284546,-8.853757739257812,2.138022082519531,-0.15083470458984374,-7.740458015267175,39.14503816793893,-7.908396946564886,-9.536105212402344,-0.7302315063476562,2.27927998046875,-26.564885496183205,3.3282442748091605,-4.366412213740458,0.0
14.480000972747803,-10.149020837402343,2.959233251953125,-0.04548983154296875,-15.603053435114504,39.37404580152672,-8.0,-9.636661682128906,-0.8068459594726562,2.1715409057617188,-20.198473282442748,3.099236641221374,-4.396946564885496,0.0
14.49000072479248,-9.143456140136719,2.9975404785156248,-0.17477672119140625,-17.908396946564885,39.74045801526717,-5.145038167938932,-9.442731347656249,-0.603338818359375,2.133233679199219,-20.65648854961832,2.2290076335877864,-4.534351145038168,0.0
14.500000953674316,-9.715670336914062,3.1962592163085937,0.08858546142578125,-25.297709923664122,41.37404580152672,-4.076335877862595,-9.121908325195312,-0.0909796630859375,2.032677209472656,-18.48854961832061,1.9236641221374047,-4.366412213740458,0.0
14.510021686553955,-10.16338604736328,3.526659045410156,-0.14125789794921875,-42.045801526717554,37.11450381679389,-3.0839694656488548,-9.34696328125,0.24660277099609373,2.0063409912109376,-16.15267175572519,1.7404580152671756,-2.045801526717557,0.0
14.520000696182251,-9.507374792480467,1.7956512451171873,0.3399766357421875,-39.587786259541986,37.51145038167939,-2.549618320610687,-9.0788126953125,0.6655880615234374,2.1595698974609374,-18.900763358778626,1.816793893129771,-0.549618320610687,0.0
14.530000925064087,-8.932766394042968,1.2138602416992186,0.2561795776367187,-36.42748091603053,38.47328244274809,-2.1526717557251906,-9.351751684570312,0.5123591552734374,2.1835119140624997,-21.633587786259543,2.6564885496183206,1.1450381679389312,0.0
14.540000677108765,-9.390058911132812,1.0726023437499999,0.00239420166015625,-38.25954198473283,36.01526717557252,-1.8778625954198473,-9.368511096191405,0.37828386230468747,2.3032219970703123,-22.38167938931298,3.312977099236641,2.717557251908397,0.0
14.550000429153442,-9.842563024902343,1.637633935546875,0.4429273071289062,-32.80916030534351,37.969465648854964,-2.6564885496183206,-9.516951599121093,-0.16519991455078123,2.693476867675781,-25.206106870229007,2.9618320610687023,2.8244274809160306,0.0
14.560000658035278,-9.521740002441407,2.1883003173828124,0.41898529052734373,-36.916030534351144,33.83206106870229,-2.1374045801526718,-8.8872765625,0.3758896606445312,1.7381904052734374,-26.99236641221374,1.6030534351145038,2.7022900763358777,0.0
14.570000886917114,-10.216058483886718,1.7549498168945312,0.7110778930664062,-42.961832061068705,29.297709923664122,-1.4198473282442747,-9.181763366699219,-0.47644613037109373,2.114080065917969,-25.96946564885496,3.2977099236641223,4.366412213740458,0.0
14.580000638961792,-9.995791931152343,1.1540052001953125,1.1037269653320312,-37.43511450381679,28.12213740458015,-0.9007633587786259,-8.851363537597656,0.11252747802734374,1.8148048583984373,-28.061068702290076,2.9770992366412212,4.580152671755725,0.0
14.590000867843628,-10.283096130371094,1.0390835205078124,1.4532804077148436,-32.25954198473283,25.66412213740458,-1.7709923664122138,-8.86812294921875,0.5363011718749999,1.5322890624999999,-30.27480916030534,5.068702290076335,5.8320610687022905,0.0
14.600000858306885,-10.251971508789062,1.0414777221679687,1.5634136840820312,-25.480916030534353,22.38167938931298,-2.4580152671755724,-9.088389501953124,0.040701428222656245,1.6831237670898436,-31.908396946564885,7.282442748091603,6.412213740458015,0.0
14.6100013256073,-10.165780249023436,1.1755530151367186,1.668758557128906,-18.580152671755727,18.80916030534351,-2.6106870229007635,-9.17458076171875,-0.4525041137695312,1.7525556152343749,-32.274809160305345,8.183206106870228,6.3816793893129775,0.0
14.620001077651978,-10.046070166015625,1.3575123413085937,1.5562310791015623,-10.931297709923664,14.946564885496183,-2.732824427480916,-9.361328491210937,-1.0271125122070313,2.0183119995117185,-32.50381679389313,9.282442748091603,5.038167938931298,0.0
14.630000591278076,-10.943895788574219,3.327940307617187,2.346317626953125,-10.931297709923664,13.145038167938932,-5.480916030534351,-9.447519750976562,-0.928950244140625,1.8004396484374998,-29.87786259541985,11.770992366412214,4.3816793893129775,0.0
14.640000581741333,-10.105925207519531,2.6767174560546874,1.7764976318359373,-11.816793893129772,7.099236641221374,-4.473282442748092,-9.533711010742186,-1.1156979736328125,1.93451494140625,-28.106870229007633,10.549618320610687,2.8396946564885495,0.0
14.650000810623169,-9.670180505371093,1.93451494140625,1.369483349609375,-10.961832061068701,2.2290076335877864,-2.9160305343511452,-9.763554370117188,-1.0295067138671874,2.1021090576171875,-27.893129770992367,11.297709923664122,2.045801526717557,0.0
14.660000562667847,-10.654197387695312,1.7645266235351562,1.3862427612304686,-5.526717557251908,0.8091603053435115,-2.9923664122137406,-9.734823950195311,-0.9816226806640624,2.281674182128906,-26.3206106870229,12.122137404580153,1.786259541984733,0.0
14.670000553131104,-10.407594616699217,1.3670891479492187,0.8978256225585937,-0.6717557251908397,-1.6030534351145038,-2.2748091603053435,-9.588777648925781,-0.9792284790039062,2.3367408203125,-21.114503816793892,12.030534351145038,1.3435114503816794,0.0
14.68000054359436,-9.832986218261718,1.9225439331054686,0.7733271362304687,7.923664122137405,-0.366412213740458,-2.4732824427480917,-9.3852705078125,-1.0510545288085937,2.379836450195312,-16.763358778625953,12.977099236641221,0.7938931297709924,0.0
14.690000772476196,-9.22485899658203,1.838746875,0.5434837768554687,2.6259541984732824,-5.083969465648855,-0.9923664122137404,-9.495403784179686,-1.3814543579101561,2.4157494750976563,-10.748091603053435,13.022900763358779,-0.030534351145038167,0.0
14.700000286102295,-10.307038146972655,2.9496564453125,0.8906430175781249,-1.1450381679389312,-5.175572519083969,-2.0916030534351147,-8.875305554199219,-1.1133037719726562,2.482787121582031,-6.564885496183206,13.206106870229007,-0.5801526717557252,0.0
14.71000051498413,-9.753977563476562,2.7844565307617186,1.1755530151367186,-3.1908396946564888,-5.236641221374046,-1.83206106870229,-9.038111267089842,-1.2521674682617188,2.6144682128906247,-1.1297709923664123,12.748091603053435,-1.099236641221374,0.0
14.720000743865967,-9.466673364257812,2.877830395507812,0.8906430175781249,-5.297709923664122,-5.236641221374046,-1.618320610687023,-8.947131604003905,-1.2761094848632812,2.741360900878906,3.0839694656488548,12.091603053435115,-1.4045801526717556,0.0
14.730000495910645,-9.753977563476562,2.5665841796874997,0.47644613037109373,-11.206106870229007,-6.6106870229007635,-1.7404580152671756,-8.688557824707031,-1.0366893188476562,2.6503812377929687,7.847328244274809,12.396946564885496,-1.5114503816793894,0.0
14.74000072479248,-8.810662109374999,1.199495031738281,-0.689530078125,-10.534351145038167,-9.083969465648854,0.4580152671755725,-8.580818749999999,-1.0007762939453124,2.77727392578125,10.702290076335878,13.221374045801527,-1.3129770992366412,0.0
14.750000476837158,-8.451531860351562,0.7350199096679687,-1.0845733520507812,-6.6106870229007635,-6.305343511450381,0.6106870229007634,-8.954314208984375,-1.419761584472656,2.9089550170898435,13.129770992366412,14.091603053435115,-1.0534351145038168,0.0
14.760000705718994,-9.988609326171874,2.1356278808593747,-0.28490999755859375,-6.717557251908397,-0.7938931297709924,-1.8015267175572518,-8.377311608886718,-0.7493851196289062,2.568978381347656,17.66412213740458,14.290076335877863,-2.6106870229007635,0.0
14.770000696182251,-9.6151138671875,0.6607996582031249,-0.411802685546875,-2.854961832061069,0.549618320610687,-1.5725190839694656,-8.406042028808594,-0.82360537109375,2.3511060302734372,22.16793893129771,15.755725190839694,-2.2900763358778624,0.0
14.780000686645508,-9.83777462158203,1.618480322265625,0.13646949462890623,-1.8625954198473282,2.8396946564885495,-3.6030534351145036,-8.853757739257812,-1.2018892333984375,2.6671406494140624,19.00763358778626,15.98473282442748,-0.44274809160305345,0.0
