timestamp,Thigh_L_Acc_X,Thigh_L_Acc_Y,Thigh_L_Acc_Z,Thigh_L_Gyr_X,Thigh_L_Gyr_Y,Thigh_L_Gyr_Z,Thigh_R_Acc_X,Thigh_R_Acc_Y,Thigh_R_Acc_Z,Thigh_R_Gyr_X,Thigh_R_Gyr_Y,Thigh_R_Gyr_Z,gpio_output
10.000000476837158,-7.6470801025390625,0.009576806640625,-0.3950432739257812,81.96946564885496,93.46564885496183,-15.86259541984733,-11.125855114746093,-1.1468225952148436,2.7437551025390623,-46.229007633587784,-55.12977099236641,14.106870229007633,0.0
10.010000705718994,-9.753977563476562,2.806004345703125,2.272097375488281,88.76335877862596,98.07633587786259,-14.931297709923664,-12.061987963867187,-3.5098996337890624,2.233790148925781,-25.282442748091604,-59.969465648854964,14.961832061068701,1.0
10.020000696182251,-11.401188305664062,5.791573815917968,2.9544448486328125,65.83206106870229,87.78625954198473,-18.748091603053435,-10.388441003417968,-0.47165772705078124,1.8100164550781248,-16.50381679389313,-64.8854961832061,9.48091603053435,1.0
10.030000925064087,-12.880804931640624,7.235277416992187,4.565742565917969,38.656488549618324,77.90839694656489,-17.51145038167939,-9.14824454345703,0.35673604736328124,1.3407529296874998,-23.84732824427481,-58.47328244274809,8.244274809160306,1.0
10.040000677108765,-9.993397729492187,3.201047619628906,0.93852705078125,15.34351145038168,59.74045801526717,-14.366412213740459,-10.20887587890625,-1.0534487304687499,1.4221557861328125,-19.801526717557252,-49.16030534351145,10.900763358778626,1.0
10.0500009059906,-9.935936889648437,1.6328455322265625,1.7357962036132812,18.137404580152673,58.595419847328245,-13.129770992366412,-10.20169327392578,-1.8171990600585937,1.4030021728515625,-7.984732824427481,-48.16793893129771,9.251908396946565,1.0
10.060000658035278,-9.344569079589844,1.9225439331054686,1.3551181396484375,21.297709923664122,55.64885496183206,-15.038167938931299,-10.520122094726561,-1.599326708984375,1.879448303222656,-1.7404580152671756,-43.465648854961835,5.175572519083969,1.0
10.070000886917114,-10.117896215820313,2.655169641113281,2.0542250244140625,22.99236641221374,55.221374045801525,-17.053435114503817,-9.291896643066405,-0.622492431640625,1.0103531005859374,-1.1908396946564885,-39.083969465648856,-0.9618320610687023,1.0
10.080000877380371,-11.834538806152343,5.386953735351562,2.262520568847656,7.984732824427481,49.57251908396947,-17.908396946564885,-10.134655627441406,-0.948103857421875,1.675941162109375,-1.083969465648855,-27.938931297709924,-0.9770992366412213,1.0
10.090000629425049,-10.491391674804687,4.963180041503906,1.9321207397460936,-6.854961832061068,46.51908396946565,-15.86259541984733,-9.344569079589844,-0.6105214233398437,1.3838485595703125,-0.2748091603053435,-22.458015267175572,-1.816793893129771,1.0
10.100000619888306,-10.9175595703125,4.383783239746093,2.013523596191406,-20.33587786259542,43.343511450381676,-16.99236641221374,-9.753977563476562,-0.1484405029296875,1.0319009155273438,6.0458015267175576,-18.763358778625953,-1.5419847328244274,1.0
10.110000371932983,-10.740388647460938,1.879448303222656,2.2601263671875,-21.572519083969464,41.63358778625954,-16.549618320610687,-9.504980590820312,0.076614453125,1.4987702392578124,6.030534351145038,-15.419847328244275,-2.030534351145038,1.0
10.12000060081482,-11.616666455078125,1.9752163696289062,1.9680337646484374,-23.328244274809162,41.908396946564885,-17.709923664122137,-9.725247143554688,-0.18914193115234373,2.0781670410156248,8.183206106870228,-11.740458015267176,-1.3740458015267176,1.0
10.130000591278076,-10.47702646484375,0.36152445068359373,0.7110778930664062,-19.358778625954198,40.61068702290076,-16.916030534351144,-9.967061511230469,-1.465251416015625,2.779668127441406,14.83969465648855,-10.946564885496183,0.0916030534351145,1.0
10.140000581741333,-8.623914379882812,-0.04548983154296875,0.258573779296875,2.4580152671755724,46.50381679389313,-14.916030534351146,-9.60793126220703,-0.8164227661132812,3.0693665283203124,25.34351145038168,-15.267175572519085,-1.450381679389313,1.0
10.15000057220459,-11.473014355468749,2.868253588867187,2.398990063476562,6.702290076335878,53.343511450381676,-20.33587786259542,-9.141061938476563,-1.4317325927734375,2.731784094238281,29.557251908396946,-18.549618320610687,-2.6564885496183206,1.0
10.160000801086426,-10.371681591796875,4.781220715332031,1.886630908203125,-3.6946564885496183,46.56488549618321,-20.366412213740457,-9.718064538574218,-0.8810662109374999,2.971204260253906,37.05343511450382,-20.763358778625953,-2.7938931297709924,1.0
10.170000553131104,-11.116278308105468,3.497928625488281,1.7118541870117185,-20.38167938931298,38.152671755725194,-17.572519083969464,-8.499415893554687,0.9552864624023437,2.221819140625,34.99236641221374,-24.213740458015266,-5.465648854961832,1.0
10.18000078201294,-13.546392993164062,6.7085530517578125,3.4859576171874997,-27.267175572519083,39.541984732824424,-17.068702290076335,-8.528146313476562,1.0127473022460938,2.789244934082031,24.900763358778626,-19.84732824427481,-4.33587786259542,1.0
10.190000534057617,-9.605537060546874,2.6144682128906247,1.707065783691406,-28.442748091603054,30.366412213740457,-12.427480916030534,-8.547299926757812,-0.04548983154296875,2.8203695556640622,21.908396946564885,-19.267175572519083,-2.549618320610687,1.0
10.200000762939453,-11.279084020996093,3.7014357666015623,3.2513258544921873,-31.984732824427482,26.47328244274809,-12.229007633587786,-9.627084875488281,-0.7805097412109374,3.421314172363281,28.427480916030536,-19.938931297709924,-0.8549618320610687,1.0
10.21000051498413,-8.719682446289061,-0.5386953735351562,0.9648632690429687,-16.458015267175572,23.72519083969466,-7.374045801526718,-9.900023864746093,-0.8499415893554687,3.430890979003906,38.80916030534351,-27.053435114503817,-1.9083969465648856,0.0
10.220000267028809,-11.556811413574218,5.439626171875,3.2417490478515623,-14.16793893129771,27.770992366412212,-11.16030534351145,-8.975862023925782,-0.277727392578125,3.21780703125,43.343511450381676,-31.236641221374047,-5.00763358778626,0.0
10.230000495910645,-10.369287390136718,4.6351744140625,2.0973206542968748,-40.10687022900763,9.17557251908397,-10.259541984732824,-8.283937744140625,1.0534487304687499,3.124433166503906,35.31297709923664,-31.923664122137403,-6.442748091603053,0.0
10.240000486373901,-12.260706701660155,5.533000036621093,2.583343591308594,-49.38931297709924,4.778625954198473,-4.778625954198473,-9.33978067626953,-0.41898529052734373,3.6439749267578123,31.480916030534353,-27.923664122137403,-2.9923664122137406,0.0
10.250000476837158,-10.632649572753905,4.053383410644531,1.6927005737304686,-65.19083969465649,-9.511450381679388,-0.7938931297709924,-9.143456140136719,-0.258573779296875,3.0837317382812497,36.534351145038165,-35.267175572519086,-2.3969465648854964,0.0
10.260000944137573,-8.01818135986328,-1.7645266235351562,0.12689268798828124,-51.52671755725191,-13.450381679389313,7.114503816793893,-8.111555224609374,1.2210428466796874,2.8706477905273435,34.0,-38.50381679389313,-4.244274809160306,0.0
10.270000457763672,-10.603919152832031,1.0654197387695312,2.0183119995117185,-31.114503816793892,-1.6488549618320612,4.702290076335878,-8.834604125976561,0.4477157104492187,3.5601778686523438,25.374045801526716,-33.31297709923664,-3.0229007633587788,0.0
10.280000686645508,-12.46181964111328,4.8123453369140625,3.3542765258789062,-46.656488549618324,-8.335877862595419,-1.4198473282442747,-9.70369932861328,-0.6177040283203125,3.806780639648437,31.480916030534353,-35.61832061068702,-1.4961832061068703,0.0
10.290000915527344,-10.172962854003906,1.5346832641601562,1.7621324218749999,-46.25954198473283,-17.34351145038168,4.152671755725191,-8.671798413085938,0.852335791015625,3.430890979003906,30.931297709923665,-39.70992366412214,-3.6946564885496183,0.0
10.300000667572021,-11.17852755126953,2.1811177124023438,2.731784094238281,-35.786259541984734,-10.213740458015268,6.2748091603053435,-8.95670841064453,0.00239420166015625,4.13718046875,23.938931297709924,-35.89312977099237,-2.946564885496183,0.0
10.310000896453857,-10.50815108642578,2.559401574707031,2.427720483398437,-42.88549618320611,-15.572519083969466,4.824427480916031,-9.672574707031249,-0.7996633544921875,4.218583325195312,29.251908396946565,-38.396946564885496,-2.1374045801526718,0.0
10.320000410079956,-8.693346228027343,-0.33039982910156246,1.0486603271484374,-34.0,-15.694656488549619,7.557251908396947,-8.231265307617187,0.6009446166992187,3.5625720703124997,27.374045801526716,-43.099236641221374,-5.740458015267175,0.0
10.330000638961792,-6.900089184570312,-2.195482922363281,0.6200982299804687,-6.6106870229007635,-3.5267175572519083,7.755725190839694,-9.090783703613281,-0.13646949462890623,4.414907861328125,19.984732824427482,-37.63358778625954,-6.198473282442748,0.0
10.340000629425049,-7.4794859863281244,-0.5578489868164063,0.9433154541015625,5.557251908396947,5.893129770992366,-1.0229007633587786,-9.60793126220703,-1.1755530151367186,4.537012145996093,23.236641221374047,-38.35114503816794,-6.519083969465649,0.0
10.350000619888306,-8.602366564941406,0.8667010009765624,1.3239935180664062,12.931297709923664,12.51908396946565,-7.175572519083969,-8.951920007324219,-0.2705447875976562,4.304774584960938,26.671755725190838,-41.87786259541985,-9.49618320610687,0.0
10.360000371932983,-8.47786807861328,1.6424223388671875,1.22583125,17.801526717557252,16.229007633587788,-7.7251908396946565,-7.438784558105469,0.7709329345703124,3.7325603881835936,15.740458015267176,-40.47328244274809,-14.091603053435115,0.0
10.37000060081482,-9.90241806640625,4.050989208984375,2.142810485839844,11.32824427480916,18.885496183206108,-9.49618320610687,-8.137891442871092,-0.7541735229492187,4.048595007324218,11.34351145038168,-36.48854961832061,-13.129770992366412,0.0
10.380000352859497,-9.545682019042967,3.105279553222656,1.7549498168945312,2.2748091603053435,13.83206106870229,-6.183206106870229,-8.9255837890625,-0.39264907226562495,4.139574670410156,15.419847328244275,-37.969465648854964,-12.641221374045802,0.0
10.390000581741333,-9.349357482910156,1.5251064575195312,1.917755529785156,10.961832061068701,17.450381679389313,-2.687022900763359,-8.32463917236328,0.076614453125,3.5673604736328124,13.404580152671755,-39.37404580152672,-13.938931297709924,0.0
10.40000057220459,-10.156203442382813,2.6479870361328124,2.806004345703125,11.664122137404581,19.450381679389313,-3.8931297709923665,-6.938396411132812,1.1516109985351561,2.817975354003906,5.770992366412214,-37.12977099236641,-15.893129770992367,0.0
10.410000562667847,-10.168174450683592,3.347093920898437,3.19865341796875,10.427480916030534,18.885496183206108,-3.3893129770992365,-7.285555651855469,1.1276689819335937,2.8802245971679685,-8.335877862595419,-26.870229007633586,-13.83206106870229,0.0
10.420000791549683,-10.443507641601562,3.4668040039062498,3.071760729980469,2.595419847328244,13.053435114503817,-1.2671755725190839,-8.927977990722656,-1.3575123413085937,3.754108203125,-6.1679389312977095,-21.49618320610687,-8.259541984732824,0.0
10.43000054359436,-9.988609326171874,2.023100402832031,2.920926025390625,0.4580152671755725,8.13740458015267,0.21374045801526717,-7.800309008789062,-0.7805097412109374,3.4069489624023435,-0.5190839694656488,-25.786259541984734,-10.65648854961832,0.0
10.440000772476196,-9.746794958496093,0.9840168823242187,2.8371289672851563,5.450381679389313,7.038167938931298,0.33587786259541985,-7.44357296142578,-0.1771709228515625,3.124433166503906,-1.251908396946565,-22.18320610687023,-13.86259541984733,0.0
10.450000524520874,-9.088389501953124,0.13168109130859373,2.77727392578125,11.755725190839694,6.473282442748092,-1.618320610687023,-8.245630517578125,-1.5705962890624998,3.8187516479492185,0.8244274809160306,-15.633587786259541,-13.572519083969466,0.0
10.46000075340271,-10.211270080566406,1.6136919189453125,3.469198205566406,16.106870229007633,8.870229007633588,-7.694656488549619,-7.874529260253905,-1.7812860351562498,3.440467785644531,13.694656488549619,-19.96946564885496,-14.412213740458014,0.0
10.470000505447388,-9.923965881347655,1.455674609375,2.8323405639648436,13.664122137404581,3.312977099236641,-7.8320610687022905,-9.026140258789061,-1.2641384765625,3.778050219726562,20.48854961832061,-16.442748091603054,-14.442748091603054,0.0
10.480000495910645,-9.586383447265625,1.3646949462890625,2.693476867675781,17.374045801526716,3.450381679389313,-6.687022900763359,-7.599196069335937,-0.7972691528320313,3.229778039550781,22.9618320610687,-17.908396946564885,-16.68702290076336,0.0
10.490000486373901,-9.476250170898437,1.6735469604492186,2.588131994628906,19.374045801526716,4.488549618320611,-8.0,-8.154650854492187,0.055066638183593745,3.1124621582031247,22.625954198473284,-13.98473282442748,-17.31297709923664,0.0
10.500000476837158,-9.234435803222656,2.1595698974609374,2.2074539306640624,20.549618320610687,5.190839694656488,-8.320610687022901,-7.48906279296875,0.1867477294921875,2.8203695556640622,19.17557251908397,-10.458015267175572,-19.053435114503817,0.0
10.510000705718994,-9.452308154296874,2.6695348510742187,1.7764976318359373,17.64885496183206,5.7251908396946565,-8.595419847328245,-8.032546569824218,-0.18914193115234373,3.2345664428710936,17.541984732824428,-5.404580152671755,-17.786259541984734,0.0
10.520000457763672,-9.430760339355468,2.8275521606445313,1.5921441040039062,12.65648854961832,6.0458015267175576,-8.076335877862595,-8.113949426269532,-0.5458779785156249,3.7158009765625,13.465648854961833,0.8854961832061069,-17.480916030534353,0.0
10.530001163482666,-9.291896643066405,2.7557261108398436,1.3670891479492187,7.801526717557252,7.099236641221374,-7.877862595419847,-8.003816149902343,-0.4740519287109375,3.6559459350585937,17.893129770992367,1.3587786259541985,-16.793893129770993,0.0
10.540000677108765,-9.430760339355468,2.5905261962890624,1.1563994018554686,3.2977099236641223,7.312977099236641,-8.091603053435115,-7.860164050292968,-0.33758243408203126,3.6487633300781246,19.633587786259543,2.854961832061069,-17.389312977099237,0.0
10.55000114440918,-9.421183532714844,2.1978771240234374,1.1468225952148436,1.3435114503816794,8.793893129770993,-7.511450381679389,-8.106766821289062,-0.2561795776367187,3.9336733276367184,22.137404580152673,4.931297709923665,-16.977099236641223,0.0
10.560000658035278,-9.488221179199218,1.9919757812499999,1.0893617553710937,-0.549618320610687,9.786259541984732,-7.969465648854962,-8.066065393066406,-0.05985504150390625,3.9983167724609374,22.12213740458015,6.473282442748092,-16.99236641221374,0.0
10.570000886917114,-9.629479077148437,1.956062756347656,1.0917559570312498,-1.1755725190839694,11.374045801526718,-7.801526717557252,-7.963114721679687,0.05027823486328125,4.091690637207031,20.671755725190838,7.877862595419847,-17.00763358778626,0.0
10.580000638961792,-9.665392102050781,1.6424223388671875,1.0414777221679687,-2.122137404580153,13.297709923664122,-7.984732824427481,-7.908048083496094,0.1484405029296875,4.067748620605468,18.244274809160306,9.648854961832061,-16.916030534351144,0.0
10.590000629425049,-9.409212524414063,1.5083470458984374,1.2425906616210938,-2.198473282442748,14.320610687022901,-9.236641221374045,-8.1594392578125,-0.05985504150390625,4.125209460449218,16.3206106870229,10.961832061068701,-16.900763358778626,0.0
10.600000619888306,-9.165003955078124,0.6296750366210937,0.9983820922851562,0.7175572519083969,15.664122137404581,-9.816793893129772,-8.116343627929687,-0.201112939453125,4.153939880371094,14.916030534351146,12.335877862595419,-16.900763358778626,0.0
10.610000610351562,-9.749189160156249,0.105344873046875,1.2521674682617188,10.702290076335878,23.938931297709924,-12.82442748091603,-7.888894470214844,-0.3112462158203125,4.094084838867187,13.206106870229007,13.633587786259541,-17.862595419847327,0.0
10.62000060081482,-9.8449572265625,1.388636962890625,1.13006318359375,9.114503816793894,22.595419847328245,-17.251908396946565,-8.200140686035155,-0.5506663818359374,4.036623999023437,13.17557251908397,15.114503816793894,-18.137404580152673,0.0
10.630000591278076,-9.686939916992188,1.3431471313476562,0.948103857421875,5.740458015267175,20.427480916030536,-17.053435114503817,-8.233659509277343,-0.6368576416015624,3.9815573608398434,14.0,16.015267175572518,-19.068702290076335,0.0
10.640000581741333,-9.387664709472656,1.4987702392578124,1.0558429321289062,2.9160305343511452,20.885496183206108,-16.885496183206108,-8.113949426269532,-0.6727706665039062,3.8091748413085935,13.923664122137405,16.916030534351144,-19.923664122137403,0.0
10.65000057220459,-10.158597644042969,2.461239306640625,1.9776105712890624,-2.4885496183206106,20.427480916030536,-17.51145038167939,-8.054094384765625,-0.6584054565429687,3.708618371582031,13.312977099236642,17.923664122137403,-20.671755725190838,0.0
10.660001039505005,-9.823409411621093,1.5011644409179687,1.5610194824218748,-4.961832061068702,17.083969465648856,-15.938931297709924,-7.884106066894531,-0.39264907226562495,3.545812658691406,13.450381679389313,19.16030534351145,-20.748091603053435,0.0
10.670000553131104,-10.098742602539062,1.35990654296875,2.0063409912109376,2.9770992366412212,21.022900763358777,-16.38167938931298,-7.694964135742187,0.016759411621093748,3.318363500976562,12.442748091603054,21.236641221374047,-21.389312977099237,0.0
10.68000078201294,-10.175357055664062,2.2673089721679687,2.1691467041015624,-3.954198473282443,16.47328244274809,-18.885496183206108,-8.147468249511718,-0.5865794067382812,3.4931402221679684,8.15267175572519,26.977099236641223,-20.732824427480917,0.0
10.690000534057617,-9.634267480468749,1.3934253662109375,2.0781670410156248,-2.6717557251908395,12.977099236641221,-17.52671755725191,-7.340622290039062,-0.15083470458984374,2.7748797241210936,9.389312977099237,27.984732824427482,-21.46564885496183,0.0
10.700000524520874,-9.564835632324218,1.2473790649414063,2.2002713256835937,-0.5038167938931297,11.374045801526718,-17.893129770992367,-8.130708837890625,-1.2928688964843749,2.7078420776367187,13.282442748091603,32.274809160305345,-20.48854961832061,0.0
10.71000075340271,-9.744400756835937,1.1923124267578125,2.3511060302734372,-1.0381679389312977,8.885496183206106,-19.84732824427481,-7.630320690917968,-0.9313444458007812,2.269703173828125,21.31297709923664,33.70992366412214,-21.435114503816795,0.0
10.720000505447388,-9.68454571533203,1.1252747802734375,2.5450363647460934,1.083969465648855,6.33587786259542,-20.16793893129771,-6.287173559570312,0.23702596435546874,1.1324573852539062,19.923664122137403,37.23664122137404,-23.938931297709924,0.0
10.730000495910645,-9.344569079589844,1.1109095703125,3.0621839233398433,3.404580152671756,3.572519083969466,-20.916030534351144,-5.84185205078125,-0.35673604736328124,0.7038952880859375,14.870229007633588,45.74045801526717,-24.48854961832061,0.0
10.740000486373901,-9.686939916992188,1.4101847778320311,3.4165257690429685,2.4122137404580153,-0.21374045801526717,-22.137404580152673,-6.665457421875,-1.2832920898437499,0.2059013427734375,13.786259541984732,55.7557251908397,-25.72519083969466,0.0
10.750000476837158,-10.551246716308594,2.2170307373046874,4.211400720214844,0.2748091603053435,-4.625954198473282,-23.0381679389313,-7.249642626953125,-0.9840168823242187,-0.1005564697265625,13.145038167938932,62.16793893129771,-30.137404580152673,0.0
10.760000705718994,-10.345345373535155,1.1923124267578125,4.058171813964844,3.5114503816793894,-10.51908396946565,-20.9618320610687,-9.938331091308592,-3.038241906738281,2.839523168945312,20.748091603053435,72.4885496183206,-30.53435114503817,0.0
10.770000457763672,-11.209652172851563,0.8786720092773437,4.448426684570312,7.32824427480916,-14.091603053435115,-23.099236641221374,-12.397176196289061,-3.258508459472656,6.050147595214844,34.36641221374046,69.20610687022901,-31.938931297709924,0.0
10.780000686645508,-12.425906616210936,2.262520568847656,5.516240625,7.4961832061068705,-19.770992366412212,-25.450381679389313,-12.057199560546874,-0.5099649536132812,7.668627917480468,31.19083969465649,59.05343511450382,-37.48091603053435,0.0
10.790000915527344,-14.073117358398436,3.797203833007812,6.248866333007812,-6.396946564885496,-33.954198473282446,-24.778625954198475,-13.409923498535155,1.5275006591796874,8.59278975830078,19.16030534351145,55.32824427480916,-31.251908396946565,0.0
10.800000667572021,-14.997279199218749,3.5410242553710933,7.208941198730468,-20.68702290076336,-49.603053435114504,-19.435114503816795,-13.09388887939453,2.3127988037109373,6.6343328002929685,12.763358778625955,47.45038167938932,-23.221374045801525,0.0
10.810000658035278,-15.962142468261717,2.5474305664062498,8.037334973144532,-21.19083969465649,-60.56488549618321,-13.068702290076336,-11.985373510742187,3.632003918457031,3.8091748413085935,4.259541984732825,40.99236641221374,-16.717557251908396,0.0
10.820000648498535,-15.421052893066406,1.70467158203125,8.2743609375,-17.480916030534353,-74.50381679389314,-6.015267175572519,-9.34696328125,5.4515971801757805,1.180341418457031,-16.198473282442748,39.00763358778626,-12.488549618320612,0.0
10.83000111579895,-15.061922644042967,1.1923124267578125,8.978256225585938,-11.954198473282442,-86.35114503816794,-0.33587786259541985,-7.556100439453124,6.48589229736328,0.33518823242187495,-46.56488549618321,45.45038167938932,-8.01526717557252,0.0
10.840000629425049,-15.215151550292967,1.3120225097656248,9.830592016601562,-12.854961832061068,-102.9618320610687,1.8015267175572518,-8.346186987304687,2.5522189697265625,1.0007762939453124,-69.95419847328245,55.48091603053435,0.9618320610687023,0.0
10.850000381469727,-15.519215161132811,0.7565677246093749,10.87925234375,-15.86259541984733,-120.79389312977099,0.1984732824427481,-8.28633194580078,0.3758896606445312,0.277727392578125,-72.87022900763358,55.06870229007634,6.641221374045801,0.0
10.860000371932983,-14.47294903564453,0.24899697265624998,10.522516296386717,-15.083969465648854,-141.9083969465649,-2.4732824427480917,-6.739677673339843,0.1771709228515625,-0.016759411621093748,-88.82442748091603,60.50381679389313,3.954198473282443,0.0
10.87000036239624,-13.036428039550781,-0.86191259765625,9.332598071289063,-10.748091603053435,-161.7709923664122,-5.770992366412214,-8.494627490234375,-2.4157494750976563,0.105344873046875,-103.17557251908397,74.62595419847328,4.809160305343512,0.0
10.8800790309906,-11.999738720703125,-1.0031704956054688,7.40526573486328,-9.709923664122137,-175.61832061068702,-10.549618320610687,-6.074089611816406,0.13646949462890623,-1.8219874633789062,-103.14503816793894,71.92366412213741,1.099236641221374,0.0
10.890000581741333,-10.946289990234375,-1.4724340209960938,3.9432501342773434,-5.374045801526718,-182.59541984732823,-14.580152671755725,-9.042899670410156,-0.5147533569335937,0.7709329345703124,-128.0916030534351,95.7557251908397,4.061068702290076,0.0
10.90000057220459,-10.376469995117187,-2.04943662109375,1.6304513305664061,-4.595419847328245,-183.26717557251908,-16.793893129770993,-12.516886279296875,-5.039794494628906,2.6048914062499997,-118.19847328244275,102.97709923664122,14.412213740458014,0.0
10.910000324249268,-8.690952026367187,-3.303998291015625,-1.4772224243164063,1.786259541984733,-179.61832061068702,-16.30534351145038,-11.209652172851563,-7.156268762207031,2.5330653564453125,-78.56488549618321,86.4885496183206,17.72519083969466,0.0
10.920000314712524,-8.152256652832031,3.385401147460937,-9.179369165039063,28.625954198473284,-152.36641221374046,-13.358778625954198,-9.969455712890625,-3.421314172363281,1.7860744384765623,-74.41221374045801,83.70992366412214,15.557251908396946,0.0
10.93000054359436,-6.921636999511718,-1.3766659545898436,-4.915296008300781,40.213740458015266,-143.9236641221374,-12.977099236641221,-11.427524523925781,-5.432443566894531,2.4253262817382812,-71.55725190839695,86.85496183206106,16.38167938931298,0.0
10.940000772476196,-6.227318518066406,-5.667075329589843,-2.655169641113281,45.74045801526717,-116.35114503816794,-14.335877862595419,-8.59278975830078,-4.908113403320312,1.656787548828125,-46.12213740458015,68.21374045801527,15.145038167938932,0.0
10.950000286102295,-6.143521459960938,-1.120486376953125,-4.187458703613281,78.61068702290076,-88.79389312977099,-11.34351145038168,-10.517727893066406,-6.433219860839843,2.446874096679687,-28.35114503816794,63.725190839694655,16.916030534351144,0.0
10.96000075340271,-6.497863305664062,1.1180921752929687,-1.9632453613281249,74.12213740458016,-68.85496183206106,-11.893129770992367,-9.82580361328125,-4.900930798339844,1.9656395629882812,-12.50381679389313,54.717557251908396,16.15267175572519,0.0
10.970000505447388,-6.964732629394531,2.3511060302734372,-0.9935936889648437,73.41984732824427,-58.595419847328245,-7.404580152671755,-10.151415039062499,-5.820304235839844,2.3870190551757813,6.030534351145038,48.83969465648855,16.290076335877863,0.0
10.980000257492065,-7.788338000488281,2.3127988037109373,1.1324573852539062,72.85496183206106,-42.79389312977099,-0.7022900763358778,-10.635043774414061,-5.635950708007812,2.8107927490234372,30.015267175572518,38.85496183206107,15.98473282442748,0.0
10.990000486373901,-8.67658681640625,2.9735984619140625,2.952050646972656,72.18320610687023,-32.274809160305345,2.122137404580153,-9.665392102050781,-2.770091320800781,1.8435352783203125,34.06106870229008,31.450381679389313,11.740458015267176,0.0
11.000000238418579,-8.271966735839843,2.7150246826171873,2.6240450195312497,65.95419847328245,-30.396946564885496,6.916030534351145,-11.303026037597656,-1.1348515869140625,1.7310078002929687,31.083969465648856,32.6412213740458,11.419847328244275,0.0
11.010001182556152,-8.549694128417968,3.6463691284179687,3.517082238769531,61.25190839694657,-21.72519083969466,11.603053435114504,-10.244788903808594,-0.8810662109374999,1.6112977172851561,20.82442748091603,32.091603053435115,11.526717557251908,0.0
11.020000696182251,-9.878476049804688,4.529829541015625,3.9169139160156248,45.541984732824424,-22.99236641221374,15.17557251908397,-11.398794104003905,-1.6519991455078125,2.1883003173828124,18.778625954198475,32.51908396946565,14.229007633587786,0.0
11.030001163482666,-8.825027319335938,4.043806604003906,3.105279553222656,25.6793893129771,-26.83969465648855,21.34351145038168,-9.442731347656249,-0.7900865478515624,0.9193734375,21.053435114503817,23.053435114503817,12.320610687022901,0.0
11.040000677108765,-9.33978067626953,4.50109912109375,3.6152445068359373,3.7404580152671754,-29.267175572519083,24.65648854961832,-11.875240234375,-2.6503812377929687,2.3151930053710936,18.580152671755727,30.061068702290076,14.763358778625955,0.0
11.0500009059906,-8.98304462890625,4.177881896972656,3.4452561889648434,-17.893129770992367,-34.16793893129771,27.450381679389313,-10.256759912109374,-0.93852705078125,0.9217676391601562,23.81679389312977,20.27480916030534,12.610687022900763,0.0
11.060000658035278,-7.6997525390625,2.463633508300781,3.1172505615234374,-30.091603053435115,-33.770992366412216,29.068702290076335,-9.370905297851563,-0.46208092041015625,0.8283937744140625,10.549618320610687,21.053435114503817,11.541984732824428,0.0
11.070000886917114,-6.873752966308594,1.6328455322265625,2.501940734863281,-38.62595419847328,-32.229007633587784,28.580152671755727,-8.992621435546875,0.02633621826171875,0.36152445068359373,-2.16793893129771,20.610687022900763,10.16793893129771,0.0
11.080000638961792,-6.471527087402343,1.3215993164062498,2.492363928222656,-50.6412213740458,-30.427480916030536,25.31297709923664,-11.212046374511718,-4.548983154296875,2.3056161987304686,-3.404580152671756,28.15267175572519,16.045801526717558,0.0
11.090000629425049,-6.586448767089843,-0.14125789794921875,2.427720483398437,-57.847328244274806,-26.38167938931298,23.19083969465649,-11.219228979492186,-6.026205578613281,2.176329309082031,28.931297709923665,11.48091603053435,15.19083969465649,0.0
11.100000858306885,-5.865794067382812,-1.2952630981445312,2.4013842651367185,-51.847328244274806,-17.81679389312977,21.083969465648856,-12.581529724121093,-5.566518859863281,2.592920397949219,52.58015267175573,1.786259541984733,11.572519083969466,0.0
11.110000371932983,-5.394136340332031,-1.5442600708007812,2.626439221191406,-45.221374045801525,-10.274809160305344,18.396946564885496,-9.93354268798828,-2.8730419921875,1.3168109130859373,64.74809160305344,-14.900763358778626,3.480916030534351,0.0
11.12000060081482,-4.833893151855468,-1.1468225952148436,3.047818713378906,-39.57251908396947,-3.2519083969465647,16.549618320610687,-10.711658227539061,-2.971204260253906,1.915361328125,62.213740458015266,-16.0,1.465648854961832,0.0
11.130000829696655,-5.011064074707031,-0.6560112548828124,3.852270471191406,-35.37404580152672,4.412213740458015,16.18320610687023,-9.64623848876953,-1.6735469604492186,1.3311761230468748,57.725190839694655,-21.69465648854962,-0.42748091603053434,0.0
11.140000581741333,-4.716577270507813,0.3495534423828125,4.484339709472656,-32.85496183206107,10.351145038167939,15.908396946564885,-9.665392102050781,0.21308394775390624,1.1563994018554686,45.12977099236641,-23.984732824427482,-0.3511450381679389,0.0
11.15000033378601,-3.83072265625,-0.1580173095703125,4.6830584472656245,-26.213740458015266,13.618320610687023,19.328244274809162,-9.10993731689453,1.4245499877929686,1.4939818359375,22.977099236641223,-19.709923664122137,0.32061068702290074,0.0
11.160000324249268,-3.7924154296875,-0.09576806640624999,5.66946953125,-16.641221374045802,19.14503816793893,22.15267175572519,-8.552088330078124,2.094926452636719,1.2114660400390624,3.480916030534351,-13.740458015267176,3.4198473282442747,0.0
11.170000791549683,-4.472368701171875,0.7015010864257812,7.299920861816406,-4.656488549618321,24.85496183206107,25.099236641221374,-8.825027319335938,1.43652099609375,1.5275006591796874,-14.80916030534351,-5.679389312977099,7.648854961832061,0.0
11.18000078201294,-6.8402341430664055,3.066972326660156,8.659827404785156,-5.404580152671755,23.236641221374047,25.49618320610687,-8.817844714355468,1.7645266235351562,1.180341418457031,-28.03053435114504,0.12213740458015267,10.290076335877863,0.0
11.190000534057617,-5.367800122070312,1.9105729248046874,8.724470849609375,-5.114503816793893,15.068702290076336,33.083969465648856,-9.715670336914062,0.40222587890625,1.6017209106445311,-37.29770992366412,6.1679389312977095,15.450381679389313,0.0
11.200000762939453,-5.228936425781249,-0.06464344482421874,9.294290844726563,8.748091603053435,13.633587786259541,37.02290076335878,-10.115502014160155,-0.5195417602539062,0.9840168823242187,-35.603053435114504,3.6793893129770994,17.633587786259543,0.0
11.21000051498413,-6.950367419433594,1.9680337646484374,10.94868419189453,23.770992366412212,12.0,35.083969465648856,-9.955090502929687,-0.354341845703125,1.1827356201171875,-35.38931297709924,4.916030534351145,18.35114503816794,0.0
11.220000267028809,-2.849099975585937,-0.15083470458984374,4.745307690429687,36.62595419847328,11.770992366412214,40.595419847328245,-7.989450939941406,0.3495534423828125,0.3806780639648437,-44.29007633587786,6.244274809160306,17.114503816793892,0.0
11.230000495910645,-3.208230224609375,2.4851813232421875,-2.0159177978515626,14.946564885496183,29.16030534351145,31.267175572519083,-9.90241806640625,-0.6009446166992187,0.9911994873046874,-52.68702290076336,14.412213740458014,21.129770992366414,0.0
11.240000486373901,-5.176263989257812,0.6655880615234374,-5.5832782714843745,-27.236641221374047,36.36641221374046,18.53435114503817,-10.266336718749999,-1.7573440185546874,0.9744400756835937,-54.10687022900763,16.33587786259542,23.480916030534353,0.0
11.250000476837158,-8.202534887695313,-1.7717092285156248,-0.5817910034179687,-22.015267175572518,56.85496183206107,17.17557251908397,-10.649408984374999,-2.817975354003906,0.6775590698242188,-54.16793893129771,14.763358778625955,23.64885496183206,0.0
11.260000705718994,-10.977414611816405,-0.8810662109374999,7.728482958984374,9.16030534351145,68.36641221374046,22.412213740458014,-11.413159313964844,-1.936909143066406,0.8690952026367187,-58.54961832061068,16.015267175572518,21.755725190839694,0.0
11.27000117301941,-10.295067138671874,1.3838485595703125,10.220846887207031,61.465648854961835,78.30534351145039,40.50381679389313,-12.356474768066406,-3.342305517578125,1.4700398193359374,-61.49618320610687,20.977099236641223,22.229007633587788,0.0
11.280000686645508,-8.382100012207031,-3.785232824707031,7.146691955566406,81.2824427480916,88.30534351145039,39.11450381679389,-13.429077111816406,-4.723759875488281,1.9728221679687499,-46.48854961832061,16.748091603053435,21.603053435114504,0.0
11.290000915527344,-10.503362683105468,0.7781155395507812,2.839523168945312,69.7557251908397,88.01526717557252,16.106870229007633,-12.97178459472656,-3.2800562744140622,2.0925322509765625,-25.66412213740458,6.305343511450381,16.3206106870229,0.0
11.300000429153442,-12.107477795410155,1.5442600708007812,2.3343466186523436,41.45038167938932,76.25954198473282,3.6030534351145036,-10.9175595703125,-1.8004396484374998,2.29843359375,-15.404580152671755,-1.282442748091603,12.198473282442748,0.0
11.310000658035278,-12.981361401367186,2.806004345703125,5.042188696289062,23.389312977099237,69.70992366412214,-0.16793893129770993,-11.463437548828125,-0.24181436767578124,2.7269956909179687,-13.725190839694656,-3.2977099236641223,9.877862595419847,0.0
11.320000648498535,-13.448230725097655,4.824316345214844,3.967192150878906,-0.6106870229007634,58.76335877862596,-3.236641221374046,-11.324573852539062,0.2537853759765625,2.3151930053710936,-15.358778625954198,-8.702290076335878,7.679389312977099,0.0
11.330000877380371,-8.061276989746093,-1.0678139404296874,0.8020575561523438,-7.435114503816794,45.23664122137404,4.442748091603053,-12.43069501953125,-0.24181436767578124,3.1076737548828124,-16.076335877862597,-12.50381679389313,8.274809160305344,0.0
11.340000629425049,-5.980715747070312,-6.076483813476562,-2.2673089721679687,31.297709923664122,63.51145038167939,5.480916030534351,-12.289437121582031,0.0718260498046875,3.347093920898437,-18.977099236641223,-20.99236641221374,5.801526717557252,0.0
11.350000381469727,-7.740453967285156,-1.7693150268554687,-0.10295067138671875,55.23664122137404,79.20610687022901,-5.877862595419847,-11.575965026855467,1.3814543579101561,3.0933085449218747,-30.946564885496183,-29.114503816793892,3.5877862595419847,0.0
11.360000610351562,-10.77630167236328,4.857835168457031,0.5027823486328125,39.099236641221374,80.91603053435115,-16.27480916030534,-12.816161486816405,-0.26336218261718747,3.871424084472656,-37.61832061068702,-31.068702290076335,8.549618320610687,0.0
11.370000839233398,-5.7149593627929685,-2.2960393920898436,-3.787627026367187,39.31297709923664,77.37404580152672,-6.687022900763359,-13.321338037109374,-1.3359645263671873,3.912125512695312,-28.748091603053435,-39.87786259541985,13.022900763358779,0.0
11.380000591278076,-5.7317187744140625,-4.680664245605469,-3.1699229980468746,84.45801526717557,106.56488549618321,-1.251908396946565,-10.761936462402343,-0.7493851196289062,2.849099975585937,-22.717557251908396,-54.61068702290076,11.450381679389313,0.0
11.390000581741333,-10.31661495361328,1.438915197753906,0.7685387329101562,92.2442748091603,119.52671755725191,-14.580152671755725,-10.675745202636719,-1.68551796875,1.848323681640625,-12.641221374045802,-66.42748091603053,11.312977099236642,0.0
11.40000057220459,-13.587094421386718,6.964732629394531,4.082113830566406,63.908396946564885,112.22900763358778,-24.290076335877863,-10.766724865722656,1.0749965454101562,1.8818425048828125,-18.83969465648855,-67.7557251908397,7.648854961832061,0.0
11.410000324249268,-11.159373937988281,7.388506323242187,1.120486376953125,22.458015267175572,86.4885496183206,-20.610687022900763,-10.223241088867187,0.8092401611328125,0.8690952026367187,-34.19847328244275,-64.62595419847328,7.648854961832061,0.0
11.420000791549683,-10.295067138671874,3.6463691284179687,0.8643067993164062,3.282442748091603,81.64885496183206,-16.366412213740457,-9.60793126220703,1.4030021728515625,-0.19153613281249998,-45.74045801526717,-60.18320610687023,7.022900763358779,0.0
11.43000054359436,-10.929530578613281,3.459621398925781,2.327164013671875,-17.557251908396946,71.86259541984732,-20.702290076335878,-8.164227661132813,1.3359645263671873,-1.3814543579101561,-63.02290076335878,-52.12213740458015,5.038167938931298,0.0
11.440000772476196,-12.521674682617187,5.858611462402344,3.5290532470703124,-37.63358778625954,63.29770992366412,-22.458015267175572,-9.9981861328125,-1.1085153686523437,0.4285620971679687,-63.57251908396947,-35.83206106870229,10.061068702290076,0.0
11.450000524520874,-12.69166300048828,4.170699291992188,2.3056161987304686,-53.038167938931295,50.19847328244275,-18.53435114503817,-9.533711010742186,-2.882618798828125,0.16280571289062498,-47.16030534351145,-37.954198473282446,10.534351145038167,0.0
11.46000075340271,-11.750741748046874,5.4013189453125,3.5314474487304683,-54.10687022900763,45.770992366412216,-14.687022900763358,-9.840168823242188,-2.8227637573242186,1.0295067138671874,-26.48854961832061,-38.36641221374046,7.938931297709924,0.0
11.470000505447388,-9.406818322753905,2.0566192260742184,1.5370774658203123,-63.12977099236641,33.89312977099237,-9.404580152671755,-9.09796630859375,-2.1547814941406247,0.7326257080078125,-16.427480916030536,-38.48854961832061,2.6564885496183206,0.0
11.480000495910645,-9.34696328125,0.63206923828125,1.5322890624999999,-51.465648854961835,34.595419847328245,-3.66412213740458,-8.671798413085938,-2.0254946044921875,1.024718310546875,-10.473282442748092,-31.893129770992367,-1.6488549618320612,0.0
11.490000486373901,-8.183381274414062,-0.17477672119140625,1.7741034301757812,-31.740458015267176,38.85496183206107,-1.4198473282442747,-7.893682873535155,-2.231395947265625,0.20829554443359374,-3.6030534351145036,-29.96946564885496,-5.251908396946565,0.0
11.500000238418579,-8.774749084472656,-1.407790576171875,1.3670891479492187,-17.022900763358777,40.44274809160305,-3.1908396946564888,-8.501810095214843,-2.935291235351562,0.9241618408203125,8.351145038167939,-26.015267175572518,-6.9465648854961835,0.0
11.510000705718994,-9.03332286376953,0.6775590698242188,1.924938134765625,-5.465648854961832,43.083969465648856,-6.763358778625954,-9.634267480468749,-3.488351818847656,1.7525556152343749,29.49618320610687,-27.328244274809162,-8.793893129770993,0.0
11.520000696182251,-8.473079675292968,0.9648632690429687,2.4564509033203126,-4.625954198473282,39.11450381679389,-8.854961832061068,-9.627084875488281,-3.5338416503906247,1.649604943847656,50.916030534351144,-31.00763358778626,-11.587786259541986,0.0
11.530000925064087,-9.205705383300781,0.143652099609375,2.27927998046875,8.717557251908397,41.32824427480916,-7.587786259541985,-9.04050546875,-1.8267758666992187,1.6208745239257811,65.25190839694656,-34.0,-15.404580152671755,0.0
11.540000677108765,-7.972691528320312,0.02633621826171875,1.656787548828125,17.633587786259543,37.847328244274806,-6.106870229007634,-8.049305981445311,0.5817910034179687,1.446097802734375,65.8473282442748,-35.282442748091604,-18.48854961832061,0.0
11.5500009059906,-12.220005273437499,4.333505004882812,3.4907460205078125,10.870229007633588,41.55725190839695,-11.450381679389313,-8.55448253173828,1.139639990234375,1.867477294921875,58.18320610687023,-29.709923664122137,-16.68702290076336,0.0
11.560000658035278,-9.955090502929687,2.9041666137695312,3.009511486816406,-21.908396946564885,14.0,-9.511450381679388,-9.37808790283203,0.28490999755859375,2.262520568847656,58.80916030534351,-28.290076335877863,-12.290076335877863,0.0
11.570000886917114,-8.920795385742187,-0.12689268798828124,2.2361843505859373,-11.526717557251908,10.320610687022901,-3.1755725190839694,-8.36294639892578,0.6607996582031249,2.2768857788085937,62.62595419847328,-33.43511450381679,-10.534351145038167,0.0
11.580000400543213,-8.659827404785156,-0.9074024291992187,2.454056701660156,4.549618320610687,11.145038167938932,-3.450381679389313,-8.643067993164061,1.3359645263671873,2.473210314941406,59.11450381679389,-36.12213740458015,-9.526717557251908,0.0
11.59000039100647,-11.827356201171874,3.794809631347656,4.426878869628906,2.1526717557251906,10.061068702290076,-8.106870229007633,-7.790732202148437,2.262520568847656,2.0781670410156248,44.06106870229008,-34.50381679389313,-10.076335877862595,0.0
11.600000619888306,-13.472172741699218,4.6998178588867185,4.723759875488281,-18.12213740458015,-2.564885496183206,-9.389312977099237,-8.276755139160155,1.3168109130859373,2.4516625,32.88549618320611,-31.129770992366414,-6.1679389312977095,0.0
11.610000610351562,-11.209652172851563,2.308010400390625,2.4947581298828125,-26.641221374045802,-18.519083969465647,-5.114503816793893,-9.797073193359374,0.12210428466796874,3.303998291015625,32.13740458015267,-31.709923664122137,-1.8778625954198473,0.0
11.62000060081482,-9.782707983398437,-1.93451494140625,1.3192051147460937,-6.9465648854961835,-17.328244274809162,-1.4961832061068703,-9.533711010742186,0.38307226562499996,3.2225954345703123,32.56488549618321,-37.25190839694657,-1.8778625954198473,0.0
11.630000352859497,-12.179303845214843,2.185906115722656,3.327940307617187,6.564885496183206,-8.641221374045802,-8.473282442748092,-9.241618408203124,0.5961562133789062,3.2824504760742186,28.015267175572518,-38.54961832061068,-3.572519083969466,0.0
11.640000581741333,-13.639766857910155,7.151480358886718,4.058171813964844,-18.47328244274809,-20.229007633587788,-12.992366412213741,-9.255983618164063,1.4245499877929686,2.8419173706054686,20.50381679389313,-37.89312977099237,-4.519083969465649,0.0
11.65000057220459,-11.188104357910156,4.060566015625,1.886630908203125,-28.65648854961832,-32.916030534351144,-3.9389312977099236,-10.091559997558592,0.565031591796875,3.318363500976562,13.282442748091603,-36.274809160305345,-1.5572519083969465,0.0
11.660000324249268,-8.540117321777343,0.4429273071289062,0.1484405029296875,-11.587786259541986,-29.557251908396946,2.9160305343511452,-10.709264025878905,-1.0223241088867188,3.6104561035156246,14.80916030534351,-37.786259541984734,-0.12213740458015267,0.0
11.670000553131104,-9.306261853027344,2.583343591308594,1.1156979736328125,-0.2595419847328244,-20.259541984732824,-1.1603053435114503,-11.2240173828125,-0.8020575561523438,3.4548329956054684,21.0381679389313,-43.19083969465649,-2.1374045801526718,0.0
11.68000078201294,-10.213664282226562,4.800374328613281,1.426944189453125,-8.748091603053435,-21.862595419847327,-4.122137404580153,-10.122684619140625,-0.3950432739257812,3.4739866088867184,21.328244274809162,-44.595419847328245,-6.0,0.0
11.690000534057617,-9.100360510253905,4.2305543334960936,0.8212111694335937,-14.122137404580153,-24.106870229007633,2.1068702290076335,-11.034875451660156,-0.9696516723632812,3.8953661010742184,22.076335877862597,-42.76335877862596,-5.587786259541985,0.0
11.700000762939453,-7.613561279296874,2.1212626708984375,0.24899697265624998,-9.17557251908397,-20.16793893129771,6.458015267175573,-10.967837805175781,-2.3535002319335936,4.108450048828125,30.610687022900763,-47.908396946564885,-4.564885496183206,0.0
11.71000051498413,-7.793126403808594,2.4899697265625,0.7637503295898437,-3.404580152671756,-10.900763358778626,4.458015267175573,-10.314220751953124,-0.8068459594726562,3.5003228271484375,37.66412213740458,-53.64885496183206,-7.068702290076335,0.0
11.720000743865967,-8.030152368164062,2.5474305664062498,0.1771709228515625,-5.7251908396946565,-8.80916030534351,3.0839694656488548,-8.394071020507813,-0.35194764404296874,2.8036101440429686,33.23664122137404,-54.06106870229008,-10.045801526717558,0.0
11.730000495910645,-8.410830432128906,1.3072341064453123,0.15083470458984374,-1.5114503816793894,-1.6488549618320612,4.488549618320611,-9.995791931152343,-0.2657563842773437,3.1507693847656246,35.51145038167939,-50.595419847328245,-7.984732824427481,0.0
11.740000486373901,-8.690952026367187,0.9026140258789062,0.24899697265624998,3.236641221374046,4.717557251908397,3.9236641221374047,-9.87608184814453,0.47165772705078124,2.9640216552734375,38.412213740458014,-52.213740458015266,-7.633587786259542,0.0
11.750000476837158,-8.990227233886719,0.469263525390625,0.45968671875,8.229007633587786,11.007633587786259,1.3893129770992367,-7.491456994628906,2.1978771240234374,1.9967641845703124,33.3587786259542,-52.79389312977099,-10.534351145038167,0.0
11.760000467300415,-10.488997473144531,2.6288334228515624,1.8315642700195311,7.068702290076335,18.48854961832061,-2.8244274809160306,-7.338228088378906,2.2768857788085937,2.2673089721679687,17.328244274809162,-45.00763358778626,-8.65648854961832,0.0
11.770000696182251,-10.556035119628906,2.5617957763671875,1.0821791503906248,-3.648854961832061,11.450381679389313,-2.9618320610687023,-8.384494213867187,0.7996633544921875,2.5570073730468748,12.305343511450381,-41.221374045801525,-5.1603053435114505,0.0
11.780000686645508,-10.007762939453125,1.4173673828125,1.1755530151367186,-7.038167938931298,10.488549618320612,-1.3435114503816794,-8.884882360839843,0.36391865234375,2.8706477905273435,13.267175572519085,-41.221374045801525,-3.0076335877862594,0.0
11.790000915527344,-9.37808790283203,0.7110778930664062,1.209071838378906,-2.0,12.13740458015267,-1.633587786259542,-7.335833886718749,2.4205378784179685,1.924938134765625,6.351145038167939,-43.86259541984733,-5.4961832061068705,0.0
11.800000429153442,-7.697358337402343,-0.8978256225585937,0.5698199951171875,11.022900763358779,15.129770992366412,-2.045801526717557,-5.935225915527344,2.5378537597656248,1.898601916503906,-14.717557251908397,-36.12213740458015,-6.534351145038168,0.0
11.810000896453857,-7.687781530761718,0.3687070556640625,0.8259995727539062,19.358778625954198,19.053435114503817,-6.534351145038168,-8.319850769042969,0.6392518432617187,2.592920397949219,-25.450381679389313,-25.0381679389313,-2.4580152671755724,0.0
11.820000648498535,-8.389282617187499,1.6065093139648436,0.8810662109374999,18.244274809160306,18.595419847328245,-10.198473282442748,-7.917624890136718,0.1197100830078125,2.7365724975585937,-28.99236641221374,-22.946564885496183,-1.5419847328244274,0.0
11.830000877380371,-8.734047656249999,2.212242333984375,1.1252747802734375,18.12213740458015,18.793893129770993,-9.32824427480916,-8.70771143798828,-0.7924807495117187,2.8658593872070313,-25.19083969465649,-21.282442748091604,-0.7022900763358778,0.0
11.840000629425049,-9.119514123535156,2.722207287597656,1.599326708984375,17.72519083969466,21.81679389312977,-9.267175572519085,-8.434772448730468,-0.7900865478515624,2.808398547363281,-23.603053435114504,-20.702290076335878,-2.366412213740458,0.0
11.850000619888306,-10.651803186035156,4.046200805664062,2.1691467041015624,10.977099236641221,22.519083969465647,-10.198473282442748,-8.74601866455078,-1.199495031738281,2.9472622436523435,-19.740458015267176,-18.18320610687023,-3.5419847328244276,0.0
11.860000610351562,-10.213664282226562,3.986345764160156,2.205059729003906,5.603053435114504,21.6793893129771,-8.80916030534351,-9.658209497070311,-2.5067291381835934,3.5146880371093747,-9.938931297709924,-17.053435114503817,-3.954198473282443,0.0
11.87000060081482,-9.042899670410156,2.664746447753906,1.4221557861328125,-1.5114503816793894,17.404580152671755,-5.709923664122138,-9.782707983398437,-1.5538368774414062,3.375824340820312,-2.0,-19.068702290076335,-6.702290076335878,0.0
11.880000591278076,-9.823409411621093,3.1962592163085937,1.9800047729492187,-7.343511450381679,18.48854961832061,-5.984732824427481,-8.86812294921875,-2.061407629394531,3.201047619628906,5.587786259541985,-22.0,-9.664122137404581,0.0
11.890000581741333,-9.821015209960937,2.940079638671875,1.9776105712890624,-15.84732824427481,16.671755725190838,-6.076335877862595,-9.423577734375,-2.281674182128906,3.7397429931640622,13.48091603053435,-22.045801526717558,-11.053435114503817,0.0
11.90000057220459,-8.82263311767578,1.3718775512695311,1.4221557861328125,-15.587786259541986,16.35114503816794,-4.229007633587786,-8.86812294921875,-0.8044517578125,3.3782185424804685,19.053435114503817,-23.66412213740458,-14.50381679389313,0.0
11.910000562667847,-9.366116894531249,1.7980454467773437,2.114080065917969,-8.213740458015268,24.717557251908396,-6.595419847328245,-8.015787158203125,-0.14125789794921875,3.3638533325195312,16.045801526717558,-20.50381679389313,-16.564885496183205,0.0
11.920000314712524,-10.005368737792969,2.760514514160156,2.27927998046875,-9.083969465648854,27.328244274809162,-9.49618320610687,-7.613561279296874,0.07900865478515624,3.1220389648437497,11.053435114503817,-16.793893129770993,-19.0381679389313,0.0
11.93000054359436,-10.596736547851561,2.1906945190429687,2.0973206542968748,-9.450381679389313,27.755725190839694,-9.908396946564885,-8.173804467773436,-0.6368576416015624,3.8283284545898435,7.801526717557252,-10.65648854961832,-18.091603053435115,0.0
11.940000534057617,-8.932766394042968,1.8626888916015625,1.5322890624999999,-8.50381679389313,25.022900763358777,-9.282442748091603,-7.915230688476562,-0.11731588134765625,3.641580725097656,10.076335877862595,-10.702290076335878,-19.52671755725191,0.0
11.950000524520874,-10.68053360595703,1.419761584472656,2.059013427734375,-9.633587786259541,25.419847328244273,-10.488549618320612,-8.568847741699217,-0.74699091796875,4.295197778320312,10.290076335877863,-6.396946564885496,-19.267175572519083,0.0
11.96000075340271,-9.37808790283203,1.16837041015625,2.0278888061523435,-4.763358778625954,25.419847328244273,-11.114503816793894,-8.233659509277343,-0.45010991210937495,4.302380383300781,11.603053435114504,-6.137404580152672,-20.16793893129771,0.0
11.970000267028809,-10.414777221679687,1.2832920898437499,2.068590234375,-4.977099236641221,21.862595419847327,-13.389312977099237,-8.403647827148436,-0.6272808349609375,4.627991809082031,12.381679389312977,-4.625954198473282,-20.137404580152673,0.0
11.980000495910645,-10.079588989257813,0.9457096557617187,1.8842367065429686,-5.633587786259542,15.84732824427481,-13.34351145038168,-7.632714892578124,0.44053310546874996,4.058171813964844,11.32824427480916,-6.396946564885496,-21.954198473282442,0.0
11.990000486373901,-10.280701928710936,0.8164227661132812,2.2361843505859373,-0.9618320610687023,15.358778625954198,-13.007633587786259,-8.042123376464843,-0.0718260498046875,4.479551306152343,9.587786259541986,-3.435114503816794,-20.442748091603054,0.0
12.000000238418579,-10.94868419189453,1.9800047729492187,3.0837317382812497,3.282442748091603,16.778625954198475,-16.213740458015266,-7.56567724609375,0.21068974609375,4.414907861328125,4.106870229007634,-1.7251908396946565,-20.610687022900763,0.0
12.010000467300415,-10.352527978515624,1.697488977050781,2.398990063476562,-0.33587786259541985,8.305343511450381,-15.450381679389313,-7.953537915039062,-0.1580173095703125,4.565742565917969,2.2442748091603053,0.3511450381679389,-19.541984732824428,0.0
12.020000696182251,-9.861716638183593,1.1085153686523437,1.9105729248046874,5.145038167938932,6.656488549618321,-13.648854961832061,-7.955932116699218,-0.296881005859375,4.697423657226563,0.7633587786259542,1.3435114503816794,-18.519083969465647,0.0
12.030000925064087,-9.284714038085937,1.1228805786132812,1.7262193969726563,9.725190839694656,7.32824427480916,-14.213740458015268,-7.8362220336914055,-0.3232172241210937,4.6639048339843745,0.2748091603053435,2.0610687022900764,-18.580152671755727,0.0
12.040000438690186,-9.37808790283203,1.4149731811523436,1.4628572143554686,11.312977099236642,6.061068702290076,-15.022900763358779,-7.934384301757812,-0.5865794067382812,4.675875842285156,0.42748091603053434,2.9770992366412212,-18.9618320610687,0.0
12.0500009059906,-9.409212524414063,1.5298948608398437,1.419761584472656,12.717557251908397,6.99236641221374,-14.992366412213741,-8.003816149902343,-0.7829039428710937,4.541800549316406,1.465648854961832,3.3740458015267176,-19.053435114503817,0.0
12.0600004196167,-9.382876306152344,1.6112977172851561,1.3048399047851562,12.320610687022901,6.580152671755725,-15.419847328244275,-7.740453967285156,-0.8738836059570312,4.369418029785156,2.2442748091603053,3.786259541984733,-19.954198473282442,0.0
12.070000886917114,-9.215282189941405,1.678335363769531,1.4628572143554686,10.992366412213741,6.137404580152672,-15.435114503816793,-7.71890615234375,-1.16837041015625,4.3813890380859375,2.2595419847328246,4.702290076335878,-20.68702290076336,0.0
12.080000638961792,-9.689334118652344,1.8602946899414061,1.6543933471679686,8.061068702290076,6.793893129770993,-16.27480916030534,-7.694964135742187,-1.5897499023437498,4.4196962646484375,1.7709923664122138,4.9465648854961835,-22.396946564885496,0.0
12.09000039100647,-9.753977563476562,1.8650830932617186,1.6903063720703124,6.152671755725191,6.33587786259542,-16.641221374045802,-7.541735229492187,-2.001552587890625,4.242525341796875,3.969465648854962,6.091603053435114,-24.106870229007633,0.0
12.100000619888306,-9.560047229003906,1.6519991455078125,1.8938135131835936,3.4656488549618323,4.641221374045801,-16.610687022900763,-7.690175732421874,-1.7884686401367187,3.4452561889648434,14.290076335877863,4.6106870229007635,-25.236641221374047,0.0
12.110000371932983,-9.356540087890625,1.5346832641601562,2.2170307373046874,2.687022900763359,2.6412213740458017,-17.083969465648856,-7.249642626953125,-1.6017209106445311,2.8203695556640622,17.862595419847327,8.458015267175572,-26.85496183206107,0.0
12.12000060081482,-9.514557397460937,1.2378022583007813,2.480392919921875,2.564885496183206,0.07633587786259542,-17.14503816793893,-6.275202551269531,-0.9409212524414062,1.66636435546875,20.641221374045802,13.32824427480916,-28.106870229007633,0.0
12.130000591278076,-9.655815295410155,1.0845733520507812,3.42849677734375,3.6793893129770994,-3.2061068702290076,-17.435114503816795,-6.438008264160156,-1.7118541870117185,0.9624690673828125,27.450381679389313,22.53435114503817,-26.244274809160306,0.0
12.140000581741333,-10.184933862304687,1.3670891479492187,4.163516687011718,3.969465648854962,-7.755725190839694,-18.427480916030536,-6.514622717285156,-1.3646949462890625,0.354341845703125,37.969465648854964,27.69465648854962,-24.458015267175572,0.0
12.15000057220459,-10.364498986816406,0.7517793212890624,4.525041137695312,9.511450381679388,-13.099236641221374,-18.244274809160306,-8.204929089355469,-2.1739351074218747,1.6927005737304686,47.770992366412216,33.32824427480916,-20.702290076335878,0.0
12.160000801086426,-10.59194814453125,0.5410895751953124,5.377376928710937,16.65648854961832,-18.625954198473284,-18.748091603053435,-9.445125549316407,-0.7900865478515624,2.8945898071289062,59.343511450381676,32.44274809160305,-21.328244274809162,0.0
12.170000553131104,-10.912771166992187,0.3806780639648437,5.8083332275390624,26.12213740458015,-26.15267175572519,-19.557251908396946,-10.340556970214843,1.1563994018554686,5.295974072265625,53.20610687022901,34.88549618320611,-25.46564885496183,0.0
12.180001020431519,-13.740323327636718,3.0214824951171875,7.448361364746093,21.251908396946565,-36.25954198473283,-22.213740458015266,-12.361263171386717,0.7398083129882812,7.184999182128906,36.79389312977099,39.12977099236641,-25.61832061068702,0.0
12.190000534057617,-14.233528869628906,3.227383837890625,8.44674345703125,11.511450381679388,-54.99236641221374,-20.045801526717558,-13.943830468749999,-0.13646949462890623,6.315903979492187,29.31297709923664,39.02290076335878,-24.625954198473284,0.0
12.200001001358032,-14.62617794189453,2.6671406494140624,9.107543115234375,14.076335877862595,-74.51908396946565,-13.32824427480916,-14.314931726074217,-0.32082302246093747,4.589684582519531,30.045801526717558,35.61832061068702,-22.732824427480917,0.0
12.21000051498413,-15.421052893066406,2.3965958618164063,10.127473022460936,20.412213740458014,-91.87786259541984,-7.419847328244275,-12.627019555664061,0.6823474731445313,2.710236279296875,27.954198473282442,31.801526717557252,-20.671755725190838,0.0
12.220000505447388,-16.22071624755859,2.8562825805664063,11.334150659179686,23.083969465648856,-113.34351145038168,-2.763358778625954,-10.414777221679687,1.2138602416992186,2.3367408203125,20.03053435114504,29.64885496183206,-16.259541984732824,0.0
12.230000734329224,-16.175226416015622,2.5617957763671875,11.870451831054687,21.587786259541986,-139.57251908396947,3.099236641221374,-7.671022119140624,2.3822306518554686,1.455674609375,7.938931297709924,26.641221374045802,-13.572519083969466,0.0
12.240000247955322,-17.063475231933595,2.379836450195312,11.614272253417967,18.80916030534351,-161.5114503816794,7.4961832061068705,-7.156268762207031,1.9823989746093749,1.5059528442382812,-10.748091603053435,31.84732824427481,-9.206106870229007,0.0
12.250000238418579,-16.50562624511719,1.6065093139648436,10.27830772705078,11.17557251908397,-185.00763358778627,9.49618320610687,-8.0062103515625,-0.4644751220703125,1.9297265380859374,-23.587786259541986,39.12977099236641,-4.412213740458015,0.0
12.260000705718994,-16.371550952148436,1.0031704956054688,7.295132458496093,-1.3129770992366412,-202.61068702290078,7.572519083969466,-8.434772448730468,-1.3024457031249999,1.8722656982421875,-25.587786259541986,40.534351145038165,-2.8244274809160306,0.0
12.270000457763672,-15.5144267578125,0.06464344482421874,4.13718046875,-12.366412213740459,-211.4351145038168,5.541984732824427,-10.09395419921875,-2.6503812377929687,1.9823989746093749,-24.061068702290076,44.97709923664122,-1.297709923664122,0.0
12.280000925064087,-13.33091484375,-0.39743747558593745,0.6464344482421874,-18.702290076335878,-208.67175572519085,3.8625954198473282,-8.403647827148436,-0.35194764404296874,0.9193734375,-25.84732824427481,44.0763358778626,-4.6106870229007635,0.0
12.290001153945923,-11.82975040283203,-0.5219359619140624,-3.4093431640625,-21.52671755725191,-198.29007633587787,4.977099236641221,-8.832209924316405,-1.2330138549804688,1.8746598999023436,-35.770992366412216,55.66412213740458,-2.5801526717557253,0.0
12.300000667572021,-8.987833032226561,-1.8028338500976562,-5.645527514648437,-22.580152671755727,-181.12977099236642,7.099236641221374,-7.326257080078125,1.5586252807617187,0.373495458984375,-50.29007633587786,56.79389312977099,-3.4656488549618323,0.0
12.310001134872437,-7.764395983886718,-3.404554760742187,-5.906495495605468,-16.549618320610687,-156.01526717557252,6.320610687022901,-7.651868505859374,-0.565031591796875,0.8810662109374999,-67.78625954198473,68.91603053435115,0.015267175572519083,0.0
12.320000410079956,-5.135562561035156,-3.1794998046874996,-5.257666845703125,-2.6259541984732824,-126.6412213740458,6.519083969465649,-6.801926916503906,2.8993782104492185,-0.8283937744140625,-82.61068702290076,68.9618320610687,-0.44274809160305345,0.0
12.330000877380371,-4.527435339355469,-2.990357873535156,-3.5194764404296874,11.389312977099237,-97.09923664122137,5.984732824427481,-8.966285217285156,0.22026655273437498,1.254561669921875,-116.22900763358778,90.9618320610687,3.0229007633587788,0.0
12.340000629425049,-4.3263223999023435,-2.923320227050781,-2.1212626708984375,31.221374045801525,-71.80152671755725,5.801526717557252,-7.292738256835937,0.8690952026367187,-0.8738836059570312,-128.61068702290078,90.56488549618321,6.106870229007634,0.0
12.350000619888306,-6.749254479980468,-1.9416975463867185,1.2473790649414063,53.69465648854962,-43.541984732824424,1.4045801526717556,-10.532093103027343,-2.1260510742187497,0.30885201416015623,-143.14503816793894,102.44274809160305,12.244274809160306,0.0
12.360000610351562,-10.141838232421874,1.5275006591796874,2.9759926635742184,49.63358778625954,-41.49618320610687,-4.015267175572519,-10.721235034179687,-5.05655390625,0.6679822631835937,-124.0,94.87022900763358,15.923664122137405,0.0
12.37000060081482,-10.194510668945313,1.158793603515625,3.1771056030273437,50.88549618320611,-42.47328244274809,1.5572519083969465,-11.726799731445311,-7.254431030273437,1.9393033447265624,-98.09160305343511,90.54961832061069,19.282442748091604,0.0
12.380000591278076,-9.054870678710937,0.7661445312499999,2.8323405639648436,64.2442748091603,-36.93129770992366,8.381679389312977,-10.445901843261717,-8.722076647949219,3.134009973144531,-53.49618320610687,75.6793893129771,21.34351145038168,0.0
12.390000581741333,-8.748412866210938,0.7996633544921875,2.5617957763671875,68.06106870229007,-30.778625954198475,10.106870229007633,-10.098742602539062,-8.990227233886719,2.308010400390625,-7.297709923664122,60.58015267175573,22.641221374045802,0.0
12.40000057220459,-7.390900524902343,0.7757213378906249,1.4125789794921875,76.29007633587786,-25.267175572519083,13.007633587786259,-10.39322940673828,-6.754042883300781,1.4867992309570313,32.778625954198475,46.595419847328245,21.297709923664122,0.0
12.410000562667847,-8.116343627929687,2.5522189697265625,2.442085693359375,69.32824427480917,-19.740458015267176,12.488549618320612,-7.082048510742187,-1.8602946899414061,-0.0526724365234375,39.55725190839695,35.80152671755725,13.145038167938932,0.0
12.420000791549683,-9.698910925292969,4.5968671875,3.5865140869140624,43.343511450381676,-21.206106870229007,11.49618320610687,-10.194510668945313,-3.162740393066406,1.1707646118164061,41.282442748091604,43.69465648854962,15.709923664122137,0.0
12.43000054359436,-9.222464794921875,4.994304663085937,3.687070556640625,7.236641221374046,-28.229007633587788,12.198473282442748,-10.572794531249999,-3.1316157714843746,1.8555062866210936,57.969465648854964,36.38167938931298,14.946564885496183,0.0
12.440000772476196,-8.458714465332031,3.5218706420898434,3.268085266113281,-20.580152671755727,-33.43511450381679,12.977099236641221,-9.969455712890625,-3.4907460205078125,2.408566870117187,56.58015267175573,36.58015267175573,12.305343511450381,0.0
12.450000286102295,-6.8593877563476555,1.5873557006835937,1.7405846069335937,-39.70992366412214,-38.045801526717554,14.427480916030534,-8.544905725097657,-1.6543933471679686,1.3168109130859373,58.99236641221374,26.900763358778626,8.122137404580153,0.0
12.460000991821289,-6.337451794433593,0.8283937744140625,2.3439234252929686,-49.343511450381676,-32.94656488549618,12.030534351145038,-11.820173596191406,-3.0693665283203124,3.308786694335937,54.595419847328245,35.48091603053435,9.572519083969466,0.0
12.470000505447388,-5.698199951171874,0.040701428222656245,2.2098481323242187,-50.6412213740458,-28.671755725190838,10.854961832061068,-10.601524951171875,-2.834734765625,2.750937707519531,61.51145038167939,24.213740458015266,7.404580152671755,0.0
12.480000495910645,-5.485116003417969,-0.8690952026367187,3.0430303100585934,-47.19083969465649,-21.81679389312977,9.419847328244275,-11.882422839355469,-4.319139794921875,3.754108203125,72.01526717557252,17.49618320610687,8.595419847328245,0.0
12.49000072479248,-4.802768530273437,-1.2856862915039062,3.2034418212890623,-36.06106870229008,-16.519083969465647,9.755725190839694,-9.502586389160156,-0.9983820922851562,2.1068974609374997,73.93893129770993,1.786259541984733,2.4732824427480917,0.0
12.500000476837158,-4.084508032226562,-0.9097966308593749,3.706224169921875,-22.198473282442748,-9.679389312977099,9.129770992366412,-11.034875451660156,-0.9624690673828125,3.0430303100585934,60.458015267175576,4.580152671755725,2.2748091603053435,0.0
12.510000705718994,-3.8283284545898435,0.1292868896484375,4.211400720214844,-16.35114503816794,-7.022900763358779,8.50381679389313,-9.763554370117188,0.08379705810546874,2.327164013671875,54.68702290076336,-4.687022900763359,1.099236641221374,0.0
12.520000696182251,-4.429273071289062,0.4285620971679687,5.288791467285156,-14.67175572519084,-4.076335877862595,7.282442748091603,-10.409988818359375,0.229843359375,2.868253588867187,36.534351145038165,-0.0916030534351145,2.8702290076335877,0.0
12.530001163482666,-3.0885201416015624,0.9121908325195311,5.267243652343749,-4.641221374045801,-2.198473282442748,10.274809160305344,-9.777919580078125,0.21787235107421873,2.5067291381835934,26.748091603053435,-5.557251908396947,3.3740458015267176,0.0
12.540000677108765,-3.526659045410156,1.2808978881835937,6.172251879882812,1.5725190839694656,1.8473282442748091,11.49618320610687,-9.246406811523437,1.7118541870117185,2.2266075439453124,10.366412213740459,-4.580152671755725,2.1374045801526718,0.0
12.5500009059906,-4.153939880371094,2.375048046875,6.701370446777343,2.931297709923664,0.549618320610687,13.557251908396946,-7.864952453613281,2.389413256835937,1.8100164550781248,-12.625954198473282,1.251908396946565,2.50381679389313,0.0
12.560000658035278,-4.527435339355469,3.584119885253906,7.3478048950195305,3.7709923664122136,3.435114503816794,18.0,-9.509768994140625,-0.239420166015625,3.0166940917968748,-30.68702290076336,13.969465648854962,10.534351145038167,0.0
12.570000886917114,-4.9416322265625,3.2609026611328122,7.618349682617187,-6.152671755725191,0.2748091603053435,21.96946564885496,-9.277531433105468,-0.055066638183593745,2.442085693359375,-33.9236641221374,12.045801526717558,12.778625954198473,0.0
12.580000638961792,-5.102043737792968,3.3399113159179685,6.60799658203125,-13.49618320610687,-4.076335877862595,23.786259541984734,-9.349357482910156,-0.70868369140625,1.6807295654296874,-29.00763358778626,7.66412213740458,15.038167938931299,0.0
12.590000629425049,-5.006275671386718,3.1842882080078123,6.291961962890625,-11.022900763358779,1.8778625954198473,25.450381679389313,-8.396465222167969,-0.7852981445312499,1.5897499023437498,-32.99236641221374,8.488549618320612,14.259541984732824,0.0
12.600000619888306,-2.858676782226562,-0.5865794067382812,2.6312276245117188,-12.946564885496183,3.5419847328244276,26.396946564885496,-8.645462194824217,-1.43652099609375,1.6160861206054686,-38.030534351145036,12.290076335877863,15.068702290076336,0.0
12.610000371932983,-3.4261025756835934,0.2657563842773437,3.153163586425781,2.854961832061069,20.9618320610687,27.251908396946565,-9.512163195800781,-2.2385785522460937,2.094926452636719,-37.587786259541986,15.16030534351145,16.763358778625953,0.0
12.62000060081482,-6.0908490234374995,1.6424223388671875,3.775656018066406,-5.770992366412214,27.114503816793892,20.290076335877863,-9.497797985839844,-1.917755529785156,1.714248388671875,-36.68702290076336,14.16793893129771,15.450381679389313,0.0
12.630000591278076,-7.208941198730468,2.0470424194335934,2.6048914062499997,-21.557251908396946,30.0,18.48854961832061,-9.842563024902343,-1.5682020874023437,1.5777788940429687,-42.30534351145038,16.30534351145038,14.732824427480915,0.0
12.640000820159912,-6.648698010253906,-0.22744915771484372,0.7924807495117187,-28.442748091603054,38.2442748091603,23.358778625954198,-10.656591589355468,-3.2249896362304686,1.7357962036132812,-42.900763358778626,19.14503816793893,16.763358778625953,0.0
12.65000057220459,-7.79552060546875,-2.0183119995117185,2.3223756103515623,-17.51145038167939,52.38167938931298,23.328244274809162,-11.736376538085937,-3.976768957519531,1.5394716674804687,-32.18320610687023,16.717557251908396,17.96946564885496,0.0
12.660000324249268,-5.872976672363281,-6.210559106445312,3.9264907226562498,18.38167938931298,57.81679389312977,26.045801526717558,-11.590330236816406,-3.1220389648437497,1.0438719238281249,-22.229007633587788,11.709923664122137,15.48091603053435,0.0
12.670000314712524,-9.89523546142578,-3.758896606445312,7.807491613769531,83.61832061068702,88.22900763358778,29.46564885496183,-10.503362683105468,-1.388636962890625,0.51714755859375,-23.69465648854962,12.01526717557252,12.748091603053435,0.0
12.68000078201294,-10.749965454101561,-0.28730419921875,5.8083332275390624,108.12213740458016,92.70229007633588,27.114503816793892,-10.27830772705078,-2.308010400390625,0.7350199096679687,-22.641221374045802,14.732824427480915,13.770992366412214,0.0
12.690000534057617,-12.20085166015625,2.4133552734375,5.595249279785156,99.41984732824427,93.08396946564885,18.198473282442748,-11.252747802734374,-2.01112939453125,1.1444283935546875,-9.938931297709924,12.473282442748092,14.854961832061068,0.0
12.700000762939453,-11.554417211914062,2.712630480957031,0.6703764648437499,68.91603053435115,78.21374045801527,9.740458015267176,-9.9215716796875,-0.928950244140625,0.7302315063476562,-6.244274809160306,7.984732824427481,11.770992366412214,0.0
12.710000276565552,-11.458649145507811,3.9815573608398434,2.5713725830078125,45.083969465648856,72.29007633587786,6.137404580152672,-9.354145886230468,0.15083470458984374,0.4429273071289062,-10.870229007633588,7.740458015267175,10.076335877862595,0.0
12.720000743865967,-7.417236743164062,-0.4908113403320312,2.418143676757812,33.41984732824427,58.94656488549618,7.694656488549619,-10.110713610839843,0.3184288208007812,0.86191259765625,-18.931297709923665,10.198473282442748,11.236641221374045,0.0
12.730000495910645,-8.932766394042968,-0.8834604125976562,2.068590234375,47.587786259541986,70.94656488549619,5.908396946564886,-10.903194360351561,-0.8906430175781249,1.4604630126953124,-23.64885496183206,10.335877862595419,12.885496183206106,0.0
12.740000486373901,-4.7572786987304685,-5.295974072265625,-1.5562310791015623,62.961832061068705,67.48091603053435,3.6793893129770994,-12.808978881835937,-1.618480322265625,2.2290017456054687,-20.16793893129771,6.99236641221374,13.648854961832061,0.0
12.750000476837158,-7.113173132324218,-3.114856359863281,0.2825157958984375,96.16793893129771,88.03053435114504,-0.030534351145038167,-12.591106530761717,-1.7812860351562498,2.6527754394531247,-14.305343511450381,-2.0916030534351147,10.82442748091603,0.0
12.760000705718994,-9.045293872070312,2.1811177124023438,0.9002198242187499,88.09160305343511,90.13740458015268,-9.557251908396946,-12.413935607910156,-0.5530605834960938,2.5761609863281247,-12.50381679389313,-11.770992366412214,6.916030534351145,0.0
12.770000696182251,-11.066000073242186,6.9719152343749995,2.4971523315429685,66.0,88.77862595419847,-12.396946564885496,-12.064382165527343,0.3232172241210937,2.731784094238281,-16.18320610687023,-18.50381679389313,6.916030534351145,0.0
12.780000686645508,-10.041281762695311,6.56968935546875,1.5466542724609373,29.770992366412212,76.3206106870229,-10.778625954198473,-12.112266198730469,0.3064578125,3.095702746582031,-22.671755725190838,-25.099236641221374,8.763358778625955,0.0
12.790001153945923,-10.793061083984375,8.992621435546875,2.5713725830078125,-4.885496183206107,64.67175572519083,-8.030534351145038,-11.310208642578125,0.8643067993164062,2.5665841796874997,-27.572519083969464,-35.48091603053435,9.312977099236642,0.0
12.800000667572021,-11.851298217773437,8.825027319335938,2.8610709838867185,-46.83969465648855,50.717557251908396,-3.435114503816794,-10.984597216796875,-0.1292868896484375,2.7964275390625,-32.80916030534351,-41.81679389312977,12.0,0.0
12.810001134872437,-10.098742602539062,5.494692810058593,2.243366955566406,-62.3206106870229,42.76335877862596,2.50381679389313,-10.675745202636719,-0.5386953735351562,2.3965958618164063,-34.68702290076336,-47.083969465648856,12.687022900763358,0.0
12.820000410079956,-12.12423720703125,6.203376501464843,4.256890551757812,-68.4885496183206,40.85496183206107,3.2519083969465647,-10.417171423339843,-2.3439234252929686,1.7118541870117185,-30.229007633587788,-52.54961832061068,13.221374045801527,0.0
12.830000877380371,-10.824185705566405,3.1579519897460937,2.29843359375,-71.78625954198473,33.70992366412214,7.297709923664122,-10.036493359375,-2.6192566162109374,0.7685387329101562,-15.007633587786259,-60.12213740458015,10.244274809160306,0.0
12.840000867843628,-9.368511096191405,1.37906015625,1.5131354492187499,-64.41221374045801,30.610687022900763,11.969465648854962,-8.123526232910155,-0.9026140258789062,-0.39743747558593745,-15.251908396946565,-61.9236641221374,4.809160305343512,0.0
12.850000619888306,-9.512163195800781,1.886630908203125,2.6144682128906247,-61.32824427480916,30.458015267175572,12.961832061068701,-8.769960681152343,-1.5083470458984374,0.0143652099609375,-13.511450381679388,-54.412213740458014,5.099236641221374,0.0
12.860000610351562,-10.129867224121092,2.418143676757812,3.2249896362304686,-62.93129770992366,28.0,11.145038167938932,-9.138667736816405,-1.7214309936523438,0.22266075439453123,-4.885496183206107,-52.56488549618321,4.763358778625954,0.0
12.87000060081482,-9.986215124511718,0.7637503295898437,2.0087351928710935,-59.6793893129771,25.404580152671755,11.19083969465649,-9.162609753417968,-0.028730419921875,-0.19632453613281248,-1.4198473282442747,-51.38931297709924,1.9083969465648856,0.0
12.880000591278076,-10.620678564453124,1.66636435546875,3.2513258544921873,-50.48854961832061,31.404580152671755,8.244274809160306,-8.200140686035155,0.5674257934570313,-0.7038952880859375,-10.16793893129771,-44.534351145038165,-0.16793893129770993,0.0
12.890000581741333,-8.621520178222656,-1.4939818359375,1.8243816650390623,-47.404580152671755,24.35114503816794,7.3893129770992365,-8.8872765625,-0.0383072265625,-0.3064578125,-13.297709923664122,-33.52671755725191,1.5725190839694656,0.0
12.90000033378601,-7.682993127441406,-1.5945383056640625,1.7741034301757812,-31.938931297709924,28.3206106870229,5.282442748091603,-10.558429321289061,-0.9576806640625,0.43574470214843747,-1.5572519083969465,-28.27480916030534,5.022900763358779,0.0
12.910000562667847,-8.726865051269531,-2.250549560546875,1.908178723144531,-10.335877862595419,35.55725190839695,1.1145038167938932,-10.081983190917969,-1.0558429321289062,0.565031591796875,12.67175572519084,-29.96946564885496,4.9465648854961835,0.0
12.920000791549683,-8.93755479736328,1.5251064575195312,3.5434184570312497,-0.7938931297709924,38.30534351145038,-6.0458015267175576,-10.022128149414062,0.8882488159179687,1.1180921752929687,17.755725190839694,-28.99236641221374,4.290076335877862,0.0
12.93000054359436,-7.659051110839843,1.429338391113281,1.6711527587890624,-7.221374045801527,30.366412213740457,-7.572519083969466,-9.184157568359375,2.7820623291015623,0.8379705810546875,10.83969465648855,-25.954198473282442,4.015267175572519,0.0
12.940000772476196,-10.366893188476562,3.4931402221679684,3.564966271972656,-11.007633587786259,35.17557251908397,-9.145038167938932,-8.580818749999999,2.6695348510742187,0.8643067993164062,-2.763358778625954,-21.221374045801525,5.145038167938932,0.0
12.950000524520874,-11.235988391113281,4.630386010742187,3.447650390625,-19.46564885496183,29.83206106870229,-10.748091603053435,-9.466673364257812,2.3247698120117186,1.189918225097656,-11.267175572519085,-17.206106870229007,8.580152671755725,0.0
12.96000075340271,-11.212046374511718,4.094084838867187,3.23696064453125,-34.56488549618321,18.47328244274809,-9.465648854961833,-10.192116467285155,1.1707646118164061,2.070984436035156,-20.15267175572519,-12.458015267175572,12.091603053435115,0.0
12.970000505447388,-10.587159741210938,2.829946362304687,2.0877438476562498,-23.83206106870229,22.106870229007633,-5.343511450381679,-10.120290417480469,0.469263525390625,2.080561242675781,-16.30534351145038,-15.938931297709924,12.977099236641221,0.0
12.980000495910645,-9.840168823242188,2.4109610717773435,2.252943762207031,-20.885496183206108,20.38167938931298,-4.824427480916031,-10.632649572753905,-0.373495458984375,2.9089550170898435,-15.83206106870229,-16.900763358778626,12.748091603053435,0.0
12.990000247955322,-9.64623848876953,2.2457611572265623,1.5083470458984374,-16.12213740458015,19.221374045801525,-2.4732824427480917,-10.465055456542968,-1.1133037719726562,3.2920272827148436,-5.557251908396947,-22.290076335877863,11.618320610687023,0.0
13.000000238418579,-10.36210478515625,3.5146880371093747,1.6927005737304686,-17.96946564885496,19.068702290076335,-2.6717557251908395,-10.89840595703125,-1.889025109863281,3.9791631591796874,4.106870229007634,-27.51145038167939,11.068702290076336,0.0
13.010000705718994,-10.769119067382812,4.393360046386719,2.5665841796874997,-30.641221374045802,15.282442748091603,-3.3435114503816794,-9.955090502929687,-0.00718260498046875,2.952050646972656,5.083969465648855,-36.01526717557252,6.6106870229007635,0.0
13.020000696182251,-12.842497705078124,8.212111694335936,4.039018200683594,-53.3587786259542,9.267175572519085,-3.83206106870229,-9.119514123535156,0.8690952026367187,2.6431986328124997,-7.312977099236641,-35.099236641221374,5.4961832061068705,0.0
13.030001163482666,-11.956643090820311,7.522581616210937,3.134009973144531,-87.32824427480917,-9.007633587786259,0.6412213740458015,-9.969455712890625,0.14125789794921875,2.77727392578125,-14.076335877862595,-34.2442748091603,8.305343511450381,0.0
13.040000677108765,-11.214440576171874,4.094084838867187,2.6767174560546874,-93.14503816793894,-12.381679389312977,8.045801526717558,-10.405200415039062,-1.1851298217773436,3.268085266113281,-15.19083969465649,-36.961832061068705,9.86259541984733,0.0
13.0500009059906,-9.524134204101562,1.0271125122070313,1.5011644409179687,-87.02290076335878,-14.702290076335878,12.396946564885496,-10.376469995117187,-0.35194764404296874,3.0909143432617188,-13.603053435114504,-42.36641221374046,7.709923664122138,0.0
13.060000658035278,-9.009380847167968,-0.6871358764648438,2.059013427734375,-69.40458015267176,-7.923664122137405,11.557251908396946,-8.923189587402343,0.12210428466796874,3.2034418212890623,-20.106870229007633,-41.847328244274806,4.106870229007634,0.0
13.070000886917114,-8.453926062011718,-1.1109095703125,1.7405846069335937,-54.25954198473283,-5.511450381679389,9.740458015267176,-9.387664709472656,-1.3144167114257812,3.517082238769531,-21.328244274809162,-39.587786259541986,4.961832061068702,0.0
13.080000877380371,-9.050082275390624,-0.51714755859375,2.4564509033203126,-38.54961832061068,2.732824427480916,5.557251908396947,-10.388441003417968,-2.0183119995117185,3.775656018066406,-10.106870229007633,-43.80152671755725,4.977099236641221,0.0
13.09000039100647,-9.062053283691405,-0.5698199951171875,2.128445275878906,-27.51145038167939,6.351145038167939,2.381679389312977,-9.200916979980468,-0.4860229370117187,3.3303345092773435,-3.435114503816794,-48.99236641221374,1.3129770992366412,0.0
13.100000619888306,-8.568847741699217,0.35194764404296874,1.9608511596679685,-19.251908396946565,11.221374045801527,0.6717557251908397,-8.305485559082031,-0.28969840087890625,3.306392492675781,-9.908396946564885,-44.732824427480914,-0.366412213740458,0.0
13.110000610351562,-9.7683427734375,1.8411410766601561,2.4684219116210935,-21.17557251908397,13.206106870229007,-1.786259541984733,-9.100360510253905,-1.388636962890625,3.3782185424804685,-8.80916030534351,-41.12977099236641,0.8702290076335878,0.0
13.12000036239624,-9.85692823486328,1.2761094848632812,2.5043349365234375,-18.916030534351144,16.076335877862597,-2.4885496183206106,-9.117119921875,-1.2713210815429687,3.5122938354492184,-1.6488549618320612,-45.55725190839695,0.32061068702290074,0.0
13.130000829696655,-9.325415466308593,1.189918225097656,2.281674182128906,-17.267175572519083,15.84732824427481,-2.717557251908397,-8.43956085205078,-0.21068974609375,2.971204260253906,-5.221374045801527,-44.94656488549618,-2.8702290076335877,0.0
13.140000581741333,-9.483432775878907,1.6256629272460936,2.4588451049804685,-15.893129770992367,16.27480916030534,-2.8244274809160306,-8.415618835449218,-0.6823474731445313,3.31357509765625,-13.786259541984732,-39.16030534351145,-3.480916030534351,0.0
13.15000057220459,-9.481038574218749,1.5107412475585937,2.319981408691406,-16.595419847328245,15.358778625954198,-2.885496183206107,-9.686939916992188,-2.269703173828125,3.5960908935546874,-14.091603053435115,-36.93129770992366,-3.7709923664122136,0.0
13.160000801086426,-10.20169327392578,1.8938135131835936,2.5953145996093747,-16.580152671755727,14.412213740458014,-4.122137404580153,-10.007762939453125,-3.6391865234374996,3.5625720703124997,-3.633587786259542,-40.38167938931298,-5.969465648854962,0.0
13.170000791549683,-9.598354455566406,1.22583125,2.252943762207031,-10.396946564885496,13.83206106870229,-3.480916030534351,-9.267954626464844,-2.4301146850585935,2.913743420410156,9.954198473282442,-47.55725190839695,-11.221374045801527,0.0
13.18000078201294,-9.004592443847656,0.679953271484375,1.8602946899414061,-3.786259541984733,13.84732824427481,-2.6717557251908395,-7.960720520019531,-1.4053963745117186,3.23696064453125,11.312977099236642,-44.99236641221374,-14.534351145038167,0.0
13.190000534057617,-9.251195214843749,1.2641384765625,2.1715409057617188,1.450381679389313,16.763358778625953,-3.8473282442748094,-8.693346228027343,-2.0254946044921875,3.189076611328125,14.67175572519084,-41.16030534351145,-13.312977099236642,0.0
13.200000762939453,-9.5384994140625,1.68551796875,2.3367408203125,-1.786259541984733,14.488549618320612,-4.870229007633588,-8.573636145019531,-2.4947581298828125,3.1124621582031247,25.450381679389313,-43.66412213740458,-12.83969465648855,0.0
13.21000051498413,-9.730035546875,1.7286135986328124,2.5809493896484375,-4.9465648854961835,13.145038167938932,-5.66412213740458,-8.147468249511718,-1.37906015625,3.0406361083984375,33.19083969465649,-46.48854961832061,-15.557251908396946,0.0
13.220000505447388,-9.502586389160156,1.235408056640625,2.5354595581054684,-5.557251908396947,11.49618320610687,-4.977099236641221,-7.108384729003906,-0.7876923461914062,3.0142998901367184,28.47328244274809,-42.88549618320611,-18.900763358778626,0.0
13.230000257492065,-9.478644372558593,0.948103857421875,2.501940734863281,-4.854961832061068,11.358778625954198,-5.633587786259542,-8.14028564453125,-1.6256629272460936,3.450044592285156,28.793893129770993,-36.0,-19.404580152671755,0.0
13.240000486373901,-9.533711010742186,0.7996633544921875,2.6336218261718747,-3.6793893129770994,10.183206106870228,-8.458015267175572,-9.181763366699219,-1.7190367919921874,3.763685009765625,36.93129770992366,-38.01526717557252,-20.53435114503817,0.0
13.250000476837158,-9.275137231445312,-0.08140285644531249,2.384624853515625,2.2900763358778624,9.267175572519085,-9.312977099236642,-8.556876733398436,-0.6919242797851562,3.859453076171875,42.33587786259542,-38.47328244274809,-24.442748091603054,0.0
13.260000705718994,-8.853757739257812,-0.59376201171875,2.5234885498046875,19.083969465648856,14.427480916030534,-10.335877862595419,-7.141903552246093,0.3136404174804687,3.4859576171874997,36.85496183206107,-34.58015267175573,-27.251908396946565,0.0
13.270000457763672,-9.83777462158203,0.46208092041015625,2.5713725830078125,27.435114503816795,16.091603053435115,-15.068702290076336,-7.601590270996093,0.23223756103515625,3.957615344238281,29.419847328244273,-26.916030534351144,-26.244274809160306,0.0
13.280000686645508,-8.820238916015624,1.189918225097656,2.0470424194335934,33.541984732824424,13.572519083969466,-16.0,-9.852139831542969,-0.6392518432617187,4.7955859252929685,30.244274809160306,-21.374045801526716,-21.923664122137403,0.0
13.290001153945923,-10.271125122070313,2.2457611572265623,2.588131994628906,33.847328244274806,15.297709923664122,-16.99236641221374,-8.722076647949219,-0.39743747558593745,4.00310517578125,31.862595419847327,-25.603053435114504,-22.564885496183205,0.0
13.300000667572021,-9.306261853027344,2.0302830078125,1.8531120849609375,32.30534351145038,8.961832061068701,-14.778625954198473,-8.722076647949219,-0.11252747802734374,4.122815258789062,36.30534351145038,-26.427480916030536,-22.65648854961832,0.0
13.310000896453857,-9.600748657226562,2.7461493041992187,2.061407629394531,26.82442748091603,6.809160305343512,-14.259541984732824,-8.475473876953124,0.4908113403320312,3.8283284545898435,33.63358778625954,-25.923664122137403,-23.236641221374047,0.0
13.320000648498535,-9.459490759277344,2.7820623291015623,2.5665841796874997,26.99236641221374,8.305343511450381,-14.0,-7.692569934082031,2.0973206542968748,3.327940307617187,26.35114503816794,-25.17557251908397,-24.33587786259542,0.0
13.330000638961792,-9.138667736816405,2.4588451049804685,2.138022082519531,23.206106870229007,5.0534351145038165,-13.221374045801527,-8.066065393066406,1.5705962890624998,3.6367923217773437,14.122137404580153,-18.15267175572519,-21.46564885496183,0.0
13.340000629425049,-9.294290844726563,2.6431986328124997,2.27927998046875,23.053435114503817,6.580152671755725,-13.511450381679388,-8.817844714355468,0.5961562133789062,4.254496350097656,3.282442748091603,-11.84732824427481,-18.091603053435115,0.0
13.350000619888306,-9.540893615722656,2.9472622436523435,2.2673089721679687,21.801526717557252,7.145038167938932,-13.48091603053435,-9.320627062988281,-0.10773907470703124,4.2329485351562495,3.3587786259541983,-12.793893129770993,-16.625954198473284,0.0
13.360000371932983,-9.466673364257812,2.8898014038085935,1.9393033447265624,20.763358778625953,7.251908396946565,-12.961832061068701,-9.275137231445312,-0.4333505004882812,4.422090466308593,3.1603053435114505,-11.801526717557252,-16.82442748091603,0.0
13.37000060081482,-9.093177905273437,2.1499930908203124,1.6448165405273436,21.31297709923664,8.50381679389313,-12.0,-9.437942944335937,-0.5578489868164063,4.407725256347656,5.435114503816794,-11.557251908396946,-16.80916030534351,0.0
13.380000829696655,-7.635109094238281,0.46686932373046874,1.139639990234375,33.17557251908397,14.366412213740459,-11.954198473282442,-9.595960253906249,-1.0989385620117187,4.527435339355469,9.083969465648854,-11.114503816793894,-16.885496183206108,0.0
13.390000581741333,-7.948749511718749,0.9121908325195311,0.8906430175781249,41.93893129770992,20.595419847328245,-15.404580152671755,-9.504980590820312,-1.1444283935546875,4.592078784179687,13.618320610687023,-12.992366412213741,-18.38167938931298,0.0
13.40000057220459,-9.030928662109375,2.7150246826171873,1.5059528442382812,41.38931297709924,25.099236641221374,-19.053435114503817,-9.112331518554686,-0.6272808349609375,4.352658618164062,15.022900763358779,-13.541984732824428,-19.908396946564885,0.0
13.410000562667847,-9.442731347656249,3.555389465332031,1.4939818359375,31.66412213740458,23.31297709923664,-19.557251908396946,-10.153809240722655,-1.0438719238281249,4.575319372558593,16.748091603053435,-11.694656488549619,-18.931297709923665,0.0
13.420000791549683,-9.603142858886718,3.2537200561523436,1.5705962890624998,21.51145038167939,24.03053435114504,-18.564885496183205,-9.093177905273437,0.18914193115234373,3.6631285400390623,16.458015267175572,-15.679389312977099,-20.85496183206107,0.0
13.430000305175781,-10.110713610839843,3.7205893798828122,2.3630770385742186,13.877862595419847,25.297709923664122,-18.137404580152673,-8.84178673095703,-0.01915361328125,3.5051112304687497,15.053435114503817,-14.488549618320612,-20.549618320610687,0.0
13.440000534057617,-10.704475622558594,3.5673604736328124,2.3439234252929686,6.473282442748092,25.46564885496183,-17.587786259541986,-7.606378674316406,0.28490999755859375,3.6296097167968746,10.473282442748092,-13.32824427480916,-22.091603053435115,0.0
13.450000524520874,-10.402806213378906,3.5721488769531247,2.147598889160156,0.10687022900763359,23.297709923664122,-17.328244274809162,-7.8338278320312495,0.42377369384765623,3.6463691284179687,7.893129770992366,-10.488549618320612,-21.206106870229007,0.0
13.460000991821289,-9.210493786621093,2.5234885498046875,2.0350714111328125,0.732824427480916,23.801526717557252,-16.091603053435115,-7.216123803710937,0.9002198242187499,3.265691064453125,4.793893129770993,-9.587786259541986,-21.16030534351145,0.0
13.470000505447388,-8.398859423828124,1.6160861206054686,1.3263877197265623,1.2366412213740459,22.076335877862597,-15.389312977099237,-7.9272016967773435,0.033518823242187495,4.017470385742187,-2.4885496183206106,-1.282442748091603,-19.450381679389313,0.0
13.480000257492065,-8.633491186523438,1.3838485595703125,1.20667763671875,-0.9770992366412213,20.748091603053435,-15.816793893129772,-7.900865478515625,-0.2059013427734375,3.840299462890625,-1.5572519083969465,-0.33587786259541985,-18.061068702290076,0.0
13.490000486373901,-8.09479581298828,1.0127473022460938,0.9888052856445312,3.0839694656488548,21.374045801526716,-15.694656488549619,-7.951143713378905,-0.3854664672851562,4.000710974121094,0.366412213740458,1.633587786259542,-16.717557251908396,0.0
13.500000715255737,-8.86094034423828,2.4253262817382812,1.9512743530273435,0.9923664122137404,24.290076335877863,-17.633587786259543,-7.596801867675781,-0.1149216796875,3.768473413085937,0.549618320610687,2.4732824427480917,-16.83969465648855,0.0
13.510000705718994,-9.208099584960937,2.205059729003906,1.936909143066406,-6.351145038167939,18.99236641221374,-16.717557251908396,-7.788338000488281,-0.016759411621093748,3.8091748413085935,0.1984732824427481,4.854961832061068,-16.27480916030534,0.0
13.520000696182251,-10.608707556152343,3.67749375,3.0023288818359375,-12.80916030534351,18.580152671755727,-17.0381679389313,-7.503428002929687,0.2346317626953125,3.593696691894531,-0.6717557251908397,6.076335877862595,-15.618320610687023,0.0
13.530000448226929,-8.980650427246093,1.8291700683593748,2.626439221191406,-14.885496183206106,13.740458015267176,-13.282442748091603,-7.879317663574218,0.07422025146484375,3.7708676147460936,-3.5114503816793894,10.488549618320612,-14.366412213740459,0.0
13.540000677108765,-8.611943371582031,1.3527239379882812,2.6408044311523438,-12.290076335877863,13.786259541984732,-12.442748091603054,-7.091625317382812,0.4955997436523437,3.3327287109375,-6.015267175572519,10.335877862595419,-14.198473282442748,0.0
13.550000667572021,-8.750807067871094,1.2904746948242187,2.7581203125,-9.297709923664122,13.267175572519085,-13.679389312977099,-6.940790612792968,0.3447650390625,3.1100679565429687,-7.557251908396947,14.15267175572519,-13.374045801526718,0.0
13.5600004196167,-8.8489693359375,1.4221557861328125,3.303998291015625,-7.770992366412214,11.389312977099237,-14.793893129770993,-6.828263134765624,0.36391865234375,2.8275521606445313,-9.16030534351145,18.0,-12.870229007633588,0.0
13.570000886917114,-8.619125976562499,1.5873557006835937,3.6846763549804686,-6.2748091603053435,9.49618320610687,-14.427480916030534,-6.4284314575195305,0.5363011718749999,3.0166940917968748,-10.80916030534351,21.64885496183206,-12.641221374045802,0.0
13.580000877380371,-9.277531433105468,1.5634136840820312,3.83072265625,-6.3816793893129775,5.877862595419847,-14.351145038167939,-6.995857250976562,-0.718260498046875,4.074931225585937,-10.870229007633588,24.80916030534351,-9.34351145038168,0.0
13.590000629425049,-9.222464794921875,1.6232687255859375,4.639962817382812,-5.1603053435114505,2.6106870229007635,-15.068702290076336,-6.835445739746094,-1.4245499877929686,3.1387983764648437,-8.0,24.610687022900763,-9.267175572519085,0.0
13.600000619888306,-9.528922607421874,1.9919757812499999,4.984727856445312,-3.816793893129771,-1.633587786259542,-15.267175572519085,-6.342240197753906,-2.094926452636719,1.1372457885742187,-8.01526717557252,32.13740458015267,-13.282442748091603,0.0
13.610000610351562,-9.583989245605467,1.3718775512695311,4.809951135253906,0.8244274809160306,-8.076335877862595,-15.129770992366412,-6.64630380859375,-2.8850130004882812,-0.5243301635742187,-4.229007633587786,41.61832061068702,-18.33587786259542,0.0
13.62000060081482,-10.223241088867187,1.66636435546875,5.221753820800781,4.641221374045801,-14.106870229007633,-15.603053435114504,-7.6997525390625,-3.2034418212890623,0.8667010009765624,4.931297709923665,47.55725190839695,-22.137404580152673,0.0
13.630000352859497,-10.817003100585938,2.568978381347656,6.102820031738281,5.236641221374046,-22.229007633587788,-16.53435114503817,-10.58476553955078,-4.096479040527344,5.6311623046875,21.84732824427481,46.44274809160305,-20.83969465648855,0.0
13.640000343322754,-12.588712329101561,4.04141240234375,6.904877587890625,-4.854961832061068,-37.12977099236641,-16.15267175572519,-13.122619299316405,-3.5625720703124997,9.311050256347656,31.16030534351145,43.32824427480916,-21.52671755725191,0.0
13.65000057220459,-12.69166300048828,2.829946362304687,6.675034228515624,-8.778625954198473,-54.534351145038165,-11.267175572519085,-14.870386511230468,-2.913743420410156,9.76116016845703,34.47328244274809,38.54961832061068,-18.244274809160306,0.0
13.660000324249268,-12.624625354003905,1.889025109863281,7.129932543945312,-6.778625954198473,-67.93893129770993,-6.213740458015267,-13.807360974121092,0.34237083740234375,6.066907006835937,34.12213740458015,30.778625954198475,-14.67175572519084,0.0
13.670000314712524,-13.773842150878906,1.7405846069335937,6.600813977050781,-3.9083969465648853,-81.70992366412214,-0.8091603053435115,-11.896788049316406,0.7900865478515624,2.935291235351562,25.358778625954198,27.64885496183206,-13.374045801526718,0.0
13.68000078201294,-13.819331982421874,1.5418658691406248,6.746860278320312,-2.854961832061069,-95.63358778625954,5.114503816793893,-10.347739575195313,1.7501614135742187,2.0470424194335934,18.458015267175572,19.755725190839694,-10.335877862595419,0.0
13.690000534057617,-14.506467858886717,1.20667763671875,6.732495068359374,-1.816793893129771,-106.53435114503817,10.381679389312977,-8.712499841308594,1.0103531005859374,2.9975404785156248,3.068702290076336,18.99236641221374,-6.320610687022901,0.0
13.700000762939453,-15.097835668945311,1.1348515869140625,6.852205151367187,-8.763358778625955,-118.0,13.099236641221374,-7.924807495117187,-0.55545478515625,2.4396914916992185,-6.793893129770993,17.862595419847327,-3.053435114503817,0.0
13.710000276565552,-14.144943408203124,0.6919242797851562,7.594407666015624,-17.099236641221374,-130.70229007633588,13.801526717557252,-7.173028173828125,-1.5658078857421873,2.061407629394531,-19.236641221374047,20.366412213740457,-2.2900763358778624,0.0
13.720000505447388,-14.118607189941406,-0.4429273071289062,6.050147595214844,-19.6793893129771,-138.85496183206106,14.549618320610687,-6.636727001953124,-0.8355763793945312,1.2114660400390624,-30.259541984732824,24.106870229007633,-4.778625954198473,0.0
13.730000257492065,-13.548787194824218,-1.3168109130859373,4.520252734375,-24.198473282442748,-142.91603053435114,13.511450381679388,-7.42441934814453,-0.488417138671875,1.0630255371093749,-37.52671755725191,33.83206106870229,-2.900763358778626,0.0
13.740000247955322,-11.482591162109374,-2.5450363647460934,2.473210314941406,-27.083969465648856,-143.17557251908397,11.648854961832061,-7.568071447753906,-1.1707646118164061,1.0630255371093749,-45.98473282442748,40.82442748091603,-2.9160305343511452,0.0
13.750000476837158,-10.982203015136719,-3.5793314819335937,1.189918225097656,-26.778625954198475,-136.99236641221373,5.190839694656488,-9.0021982421875,-3.2225954345703123,2.5546131713867184,-50.18320610687023,54.38167938931298,0.015267175572519083,0.0
13.760000705718994,-9.291896643066405,-4.723759875488281,0.5434837768554687,-15.725190839694656,-129.6793893129771,0.0916030534351145,-7.7979148071289055,-1.197100830078125,0.32082302246093747,-45.49618320610687,50.68702290076336,-1.4198473282442747,0.0
13.770000696182251,-8.113949426269532,-4.84586416015625,-0.7924807495117187,1.2213740458015268,-114.70229007633588,-7.221374045801527,-9.066841687011719,-2.1930887207031247,1.8770541015625,-49.80152671755725,63.45038167938932,-0.24427480916030533,0.0
13.780000686645508,-6.4667386840820305,-4.915296008300781,-1.5442600708007812,19.893129770992367,-101.25190839694656,-12.229007633587786,-3.423708374023437,-0.2609679809570312,-0.7852981445312499,-65.37404580152672,58.2442748091603,-5.587786259541985,0.0
13.790000915527344,-7.223306408691406,-3.5314474487304683,-0.6919242797851562,34.87022900763359,-82.07633587786259,-20.80916030534351,-7.900865478515625,2.281674182128906,0.737414111328125,-119.80152671755725,92.91603053435115,-2.213740458015267,0.0
13.800000429153442,-7.987056738281249,-2.9448680419921875,-0.22266075439453123,43.7557251908397,-69.89312977099236,-24.48854961832061,-7.5345526245117185,0.6536170532226562,-0.40462008056640625,-135.49618320610688,94.30534351145039,5.374045801526718,0.0
13.810000896453857,-8.779537487792968,-1.4030021728515625,1.4628572143554686,61.89312977099237,-52.62595419847328,-26.15267175572519,-10.527304699707031,-4.429273071289062,1.5897499023437498,-146.50381679389312,105.09923664122137,13.32824427480916,0.0
13.820000648498535,-10.007762939453125,0.39983167724609375,1.9823989746093749,59.23664122137404,-52.99236641221374,-27.69465648854962,-12.751518041992187,-8.844180932617187,1.8435352783203125,-100.45801526717557,92.41221374045801,19.374045801526716,0.0
13.83000111579895,-10.058041174316406,0.033518823242187495,2.3247698120117186,66.82442748091603,-49.20610687022901,-22.15267175572519,-12.083535778808592,-9.540893615722656,2.6599580444335937,-53.69465648854962,78.36641221374046,21.450381679389313,0.0
13.840000629425049,-9.126696728515624,-0.354341845703125,2.2457611572265623,78.74809160305344,-41.31297709923664,-18.198473282442748,-12.76827745361328,-10.663774194335938,3.689464758300781,7.114503816793893,62.3206106870229,25.114503816793892,0.0
13.850000619888306,-8.748412866210938,0.047884033203124995,2.403778466796875,81.86259541984732,-36.152671755725194,-17.557251908396946,-11.085153686523437,-5.6766521362304685,1.2497732666015624,45.770992366412216,42.213740458015266,19.801526717557252,0.0
13.860000371932983,-8.1594392578125,0.8044517578125,2.212242333984375,87.46564885496183,-29.923664122137403,-15.49618320610687,-10.934318981933593,-3.5003228271484375,1.2210428466796874,51.6793893129771,41.70992366412214,14.946564885496183,0.0
13.87000060081482,-9.255983618164063,3.758896606445312,3.488351818847656,78.70229007633588,-23.84732824427481,-13.954198473282442,-9.588777648925781,-2.3151930053710936,1.5035586425781249,44.778625954198475,43.69465648854962,13.114503816793894,0.0
13.880000352859497,-10.510545288085936,4.929661218261718,4.225765930175781,45.45038167938932,-31.755725190839694,-12.229007633587786,-11.295843432617186,-5.480327600097656,2.839523168945312,50.274809160305345,46.70229007633588,17.66412213740458,0.0
13.890000581741333,-9.957484704589843,4.050989208984375,3.9695863525390624,22.076335877862597,-36.87022900763359,-5.114503816793893,-10.479420666503906,-4.620809204101562,1.5945383056640625,75.93893129770993,31.480916030534353,18.290076335877863,0.0
13.90000033378601,-9.062053283691405,2.29843359375,3.4739866088867184,12.13740458015267,-37.038167938931295,1.3129770992366412,-9.964667309570311,-2.1715409057617188,1.3168109130859373,78.38167938931298,29.81679389312977,13.938931297709924,0.0
13.910000562667847,-8.628702783203124,2.3056161987304686,3.423708374023437,7.404580152671755,-34.67175572519084,4.900763358778626,-8.0828248046875,0.8858546142578124,0.40222587890625,64.36641221374046,29.389312977099237,9.725190839694656,0.0
13.920000791549683,-7.663839514160156,2.31758720703125,3.5218706420898434,-3.9083969465648853,-34.961832061068705,6.412213740458015,-8.444349255371094,1.3742717529296875,0.93852705078125,34.961832061068705,41.57251908396947,11.32824427480916,0.0
13.93000054359436,-7.254431030273437,1.3407529296874998,3.6080619018554687,-12.51908396946565,-36.93129770992366,7.801526717557252,-10.9175595703125,-2.013523596191406,2.068590234375,31.96946564885496,44.3206106870229,18.65648854961832,0.0
13.940000772476196,-5.786785412597656,-0.2154781494140625,3.459621398925781,-11.053435114503817,-35.61832061068702,9.419847328244275,-10.960655200195312,-3.143586779785156,2.6336218261718747,35.83206106870229,40.900763358778626,20.885496183206108,0.0
13.950000286102295,-6.60799658203125,0.4955997436523437,4.328716601562499,-6.641221374045801,-31.16030534351145,8.488549618320612,-8.750807067871094,-1.5203180541992187,1.659181750488281,32.97709923664122,34.534351145038165,16.244274809160306,0.0
13.96000051498413,-6.303932971191406,-0.19871873779296872,3.995922570800781,1.297709923664122,-28.259541984732824,10.366412213740459,-11.915941662597655,-3.7014357666015623,3.1675287963867187,33.969465648854964,40.76335877862596,19.14503816793893,0.0
13.970000267028809,-5.453991381835937,0.4477157104492187,4.331110803222656,6.3816793893129775,-23.19083969465649,9.465648854961833,-11.303026037597656,-4.893748193359374,2.4133552734375,58.54961832061068,22.27480916030534,17.87786259541985,0.0
13.980000257492065,-6.153098266601562,0.8212111694335937,4.853046765136718,2.885496183206107,-22.717557251908396,7.00763358778626,-11.468225952148437,-4.338293408203125,2.346317626953125,70.41221374045801,12.534351145038167,12.106870229007633,0.0
13.990000486373901,-5.913678100585937,1.4987702392578124,5.1523219726562495,2.0610687022900764,-22.519083969465647,7.450381679389313,-9.205705383300781,-0.38786066894531246,0.86191259765625,65.95419847328245,2.045801526717557,2.931297709923664,0.0
14.000000238418579,-6.009446166992187,2.2553379638671873,5.588066674804687,-5.9541984732824424,-22.793893129770993,7.969465648854962,-9.093177905273437,0.5793968017578125,1.5801730957031248,44.778625954198475,7.541984732824427,2.4885496183206106,0.0
14.010000705718994,-5.741295581054687,2.7461493041992187,5.884947680664062,-13.19083969465649,-23.52671755725191,11.374045801526718,-7.936778503417968,2.300827795410156,0.9816226806640624,25.49618320610687,8.0,3.6030534351145036,0.0
14.020000457763672,-5.504269616699219,2.5737667846679684,5.846640454101562,-20.47328244274809,-22.99236641221374,14.51908396946565,-7.977479931640625,1.5322890624999999,1.2473790649414063,0.22900763358778625,13.86259541984733,7.847328244274809,0.0
14.030000925064087,-4.548983154296875,2.0829554443359375,5.408501550292969,-21.389312977099237,-21.34351145038168,19.206106870229007,-9.145850341796875,0.679953271484375,2.0183119995117185,-14.106870229007633,21.374045801526716,14.763358778625955,0.0
14.040000677108765,-4.197035510253906,1.7286135986328124,5.023035083007812,-19.450381679389313,-18.0,23.404580152671755,-10.213664282226562,-0.9888052856445312,2.7653029174804686,-20.778625954198475,25.557251908396946,20.3206106870229,0.0
14.0500009059906,-5.068524914550781,1.7381904052734374,4.659116430664063,-16.916030534351144,-11.221374045801527,26.442748091603054,-10.74517705078125,-1.254561669921875,2.492363928222656,-20.213740458015266,23.129770992366414,21.435114503816795,0.0
14.060000658035278,-4.675875842285156,1.7812860351562498,3.517082238769531,-13.633587786259541,-4.732824427480916,28.35114503816794,-9.150638745117186,-1.7286135986328124,2.0374656127929685,-21.862595419847327,20.763358778625953,20.580152671755727,0.0
14.070000886917114,-4.876988781738281,1.8531120849609375,2.925714428710937,-15.022900763358779,5.267175572519084,28.259541984732824,-9.038111267089842,-1.848323681640625,1.8052280517578123,-23.00763358778626,20.106870229007633,20.38167938931298,0.0
14.080000638961792,-4.946420629882812,0.4908113403320312,2.142810485839844,-22.763358778625953,8.977099236641221,26.946564885496183,-9.169792358398437,-1.1851298217773436,1.6735469604492186,-26.198473282442748,19.480916030534353,20.916030534351144,0.0
14.09000039100647,-5.063736511230468,0.4429273071289062,3.038241906738281,-32.2442748091603,12.946564885496183,24.68702290076336,-9.069235888671875,-0.5530605834960938,1.4173673828125,-36.62595419847328,21.61832061068702,21.236641221374047,0.0
14.100000619888306,-6.0142345703124995,0.565031591796875,2.1404162841796874,-35.969465648854964,16.47328244274809,26.3206106870229,-10.342951171874999,-1.68551796875,1.6735469604492186,-42.900763358778626,25.251908396946565,25.419847328244273,0.0
14.110000610351562,-4.3239281982421875,-1.0007762939453124,-1.2210428466796874,-25.114503816793892,32.229007633587784,30.85496183206107,-11.087547888183593,-3.5314474487304683,1.714248388671875,-36.717557251908396,21.740458015267176,28.259541984732824,0.0
14.12000060081482,-5.999869360351562,-1.9776105712890624,-0.5793968017578125,-13.17557251908397,52.16793893129771,25.480916030534353,-10.996568225097656,-3.327940307617187,1.199495031738281,-26.885496183206108,14.351145038167939,25.61832061068702,0.0
14.130000591278076,-8.312668164062499,-2.887407202148437,3.4452561889648434,12.01526717557252,64.62595419847328,25.251908396946565,-12.342109558105468,-2.4947581298828125,1.8842367065429686,-21.72519083969466,13.129770992366412,24.50381679389313,0.0
14.140000581741333,-12.820949890136719,0.9193734375,8.556876733398436,40.732824427480914,74.09160305343511,27.740458015267176,-11.350910070800781,-1.8052280517578123,0.6919242797851562,-26.3206106870229,7.908396946564886,21.374045801526716,0.0
14.150046110153198,-12.157756030273436,1.5921441040039062,8.820238916015624,83.87786259541984,82.7175572519084,41.64885496183206,-12.04762275390625,-1.369483349609375,0.7398083129882812,-30.061068702290076,8.854961832061068,21.236641221374047,0.0
14.160000801086426,-10.951078393554686,-0.45010991210937495,6.105214233398437,80.61068702290076,76.3206106870229,36.38167938931298,-12.394781994628906,-2.0733786376953125,0.7134720947265625,-27.17557251908397,6.564885496183206,21.96946564885496,0.0
14.170000314712524,-11.130643518066405,0.3327940307617187,3.2824504760742186,70.77862595419847,78.51908396946565,25.633587786259543,-13.036428039550781,-3.0502129150390624,1.879448303222656,-14.534351145038167,4.519083969465649,21.96946564885496,0.0
14.18000078201294,-8.451531860351562,-2.281674182128906,1.3048399047851562,55.51145038167939,67.95419847328245,14.366412213740459,-11.777077966308592,-0.9528922607421875,1.1611878051757811,0.22900763358778625,-7.557251908396947,16.396946564885496,0.0
14.190000534057617,-9.334992272949219,-2.5234885498046875,3.4093431640625,67.63358778625954,76.4885496183206,7.145038167938932,-10.807426293945312,0.3184288208007812,1.7453730102539062,-3.786259541984733,-6.67175572519084,14.916030534351146,0.0
14.200000762939453,-6.430825659179687,-4.2521021484374995,1.7669208251953124,71.93893129770993,71.2824427480916,1.9389312977099236,-10.529698901367187,1.2521674682617188,1.369483349609375,-7.786259541984733,-8.67175572519084,13.511450381679388,0.0
14.21000075340271,-7.982268334960937,-1.3120225097656248,1.139639990234375,89.00763358778626,85.20610687022901,-4.809160305343512,-10.89122335205078,1.3455413330078123,1.7405846069335937,-12.16793893129771,-9.603053435114504,15.34351145038168,0.0
14.220000505447388,-10.915165368652342,4.2497079467773435,3.0597897216796874,68.47328244274809,81.89312977099236,-15.923664122137405,-11.161768139648437,1.6472107421875,1.8626888916015625,-16.732824427480917,-12.244274809160306,16.580152671755727,0.0
14.230000257492065,-7.505822204589843,1.5849614990234373,0.9361328491210937,51.23664122137404,68.3969465648855,-11.49618320610687,-11.291055029296874,1.6831237670898436,2.2170307373046874,-21.083969465648856,-14.427480916030534,19.0381679389313,0.0
14.240000486373901,-6.564900952148437,-1.1707646118164061,-0.028730419921875,69.93893129770993,80.09160305343511,-4.458015267175573,-10.742782849121093,1.7429788085937499,2.0973206542968748,-30.99236641221374,-17.572519083969464,20.396946564885496,0.0
14.250000476837158,-9.200916979980468,2.858676782226562,1.5682020874023437,72.06106870229007,90.16793893129771,-11.236641221374045,-10.568006127929687,0.33518823242187495,2.2601263671875,-36.229007633587784,-19.374045801526716,22.748091603053435,0.0
14.260000705718994,-6.110002636718749,0.0047884033203125,1.2617442749023438,63.80152671755725,81.5114503816794,-9.893129770992367,-9.91438907470703,-0.3950432739257812,2.1308394775390624,-32.93129770992366,-25.17557251908397,23.480916030534353,0.0
14.270000696182251,-9.236830004882812,2.2170307373046874,1.43652099609375,81.55725190839695,95.49618320610686,-8.061068702290076,-10.108319409179687,0.3184288208007812,2.123656872558594,-31.267175572519083,-29.374045801526716,23.022900763358777,0.0
14.280000686645508,-12.129025610351562,6.775590698242187,3.6056677001953124,56.93129770992366,92.06106870229007,-16.82442748091603,-10.371681591796875,-0.09816226806640624,1.924938134765625,-37.3587786259542,-30.229007633587788,23.31297709923664,0.0
14.290000438690186,-12.598289135742187,8.06367119140625,3.5314474487304683,17.450381679389313,70.3969465648855,-20.290076335877863,-10.108319409179687,0.3280056274414062,1.3335703247070312,-39.404580152671755,-34.35114503816794,22.732824427480917,0.0
14.300000667572021,-12.57674132080078,9.631873278808593,3.4955344238281247,-22.732824427480917,53.099236641221374,-19.6793893129771,-10.01733974609375,-1.2880804931640624,1.5179238525390624,-39.465648854961835,-36.67175572519084,23.69465648854962,0.0
14.310000896453857,-11.240776794433593,5.284003063964843,2.81558115234375,-47.83206106870229,40.80916030534351,-16.412213740458014,-10.443507641601562,-1.1851298217773436,1.4604630126953124,-34.51908396946565,-39.83206106870229,23.267175572519083,0.0
14.320000410079956,-9.947907897949218,2.7581203125,1.8507178833007811,-43.45038167938932,34.36641221374046,-11.709923664122137,-9.842563024902343,-0.40462008056640625,0.7972691528320313,-34.412213740458014,-39.93893129770992,19.251908396946565,0.0
14.330000877380371,-8.904035974121093,1.4149731811523436,0.9624690673828125,-40.68702290076336,27.64885496183206,-9.541984732824428,-9.277531433105468,-0.28969840087890625,-0.011971008300781249,-39.43511450381679,-37.603053435114504,16.35114503816794,0.0
14.34000039100647,-8.796296899414061,2.291250988769531,1.1563994018554686,-35.81679389312977,25.938931297709924,-7.984732824427481,-8.295908752441406,0.14125789794921875,-0.6081272216796875,-43.3587786259542,-31.587786259541986,14.045801526717558,0.0
14.350000858306885,-9.622296472167967,2.6240450195312497,1.9297265380859374,-35.083969465648856,25.419847328244273,-6.656488549618321,-8.939948999023438,0.2442085693359375,-0.076614453125,-41.45038167938932,-22.778625954198475,15.206106870229007,0.0
14.360000610351562,-9.639055883789062,0.5961562133789062,1.3048399047851562,-29.64885496183206,23.938931297709924,-3.145038167938931,-9.64623848876953,-1.1061211669921875,0.699106884765625,-32.595419847328245,-17.19083969465649,17.52671755725191,0.0
14.370000839233398,-8.465897070312499,-0.43574470214843747,1.0007762939453124,-3.3893129770992365,30.53435114503817,-0.6106870229007634,-9.380482104492186,-0.82360537109375,0.8403647827148437,-15.587786259541986,-19.633587786259543,15.679389312977099,0.0
14.380000591278076,-10.01733974609375,-0.1197100830078125,1.7262193969726563,11.786259541984732,37.099236641221374,-4.33587786259542,-9.14824454345703,0.011971008300781249,0.7613561279296874,-7.633587786259542,-22.213740458015266,11.49618320610687,0.0
14.390000581741333,-8.470685473632813,0.6200982299804687,1.7573440185546874,24.198473282442748,41.23664122137404,-6.9465648854961835,-10.388441003417968,-0.9097966308593749,1.9009961181640624,-0.9312977099236641,-18.900763358778626,10.580152671755725,0.0
14.400001049041748,-8.552088330078124,1.4221557861328125,1.659181750488281,23.954198473282442,38.67175572519084,-8.931297709923664,-8.90643017578125,-0.8259995727539062,1.407790576171875,3.618320610687023,-24.778625954198475,6.061068702290076,0.0
14.410000324249268,-9.045293872070312,2.588131994628906,2.085349645996094,19.923664122137403,39.06870229007634,-11.16030534351145,-9.91438907470703,-0.43574470214843747,2.3151930053710936,6.564885496183206,-23.893129770992367,4.916030534351145,0.0
14.420000791549683,-10.177751257324218,3.0550013183593747,2.540247961425781,13.19083969465649,36.412213740458014,-11.312977099236642,-9.421183532714844,0.5386953735351562,1.4820108276367188,2.50381679389313,-26.641221374045802,2.1068702290076335,0.0
14.430000305175781,-11.434707128906249,4.563348364257812,2.858676782226562,0.030534351145038167,31.221374045801525,-12.15267175572519,-8.796296899414061,0.316034619140625,1.3072341064453123,-3.5572519083969465,-26.53435114503817,0.8244274809160306,0.0
14.440001010894775,-12.093112585449218,6.3973068359375,3.3973721557617185,-27.541984732824428,18.442748091603054,-13.664122137404581,-8.923189587402343,-0.34715924072265625,1.1755530151367186,-3.312977099236641,-27.389312977099237,1.0076335877862594,0.0
14.450000524520874,-10.101136804199218,3.2609026611328122,1.4006079711914061,-28.137404580152673,14.473282442748092,-7.465648854961832,-9.411606726074218,-0.7805097412109374,2.080561242675781,-0.9312977099236641,-25.755725190839694,1.0076335877862594,0.0
14.46000075340271,-9.356540087890625,2.437297290039062,1.369483349609375,-22.18320610687023,15.648854961832061,-3.618320610687023,-9.861716638183593,-0.39743747558593745,2.166752502441406,0.15267175572519084,-25.6793893129771,-0.1984732824427481,0.0
14.470000743865967,-10.151415039062499,2.7054478759765623,1.2952630981445312,-26.12213740458015,12.16793893129771,-2.6564885496183206,-9.847351428222655,-2.1212626708984375,2.1547814941406247,7.1603053435114505,-27.786259541984734,-1.3282442748091603,0.0
14.480000495910645,-11.2240173828125,3.3638533325195312,1.3814543579101561,-26.80916030534351,13.541984732824428,-1.816793893129771,-10.172962854003906,-2.3439234252929686,2.5067291381835934,24.885496183206108,-33.847328244274806,-2.2595419847328246,0.0
14.490000486373901,-10.766724865722656,2.003946789550781,1.0941501586914062,-20.885496183206108,16.870229007633586,0.3511450381679389,-10.026916552734374,-0.5530605834960938,2.35589443359375,34.916030534351144,-42.229007633587784,-6.900763358778626,0.0
14.500000476837158,-11.65736788330078,5.147533569335937,2.674323254394531,-30.290076335877863,14.076335877862595,-0.6564885496183206,-8.734047656249999,1.0271125122070313,2.2936451904296873,26.091603053435115,-41.038167938931295,-10.992366412213741,0.0
14.510000705718994,-11.269507214355468,5.317521887207031,2.612074011230469,-60.595419847328245,1.1450381679389312,-0.061068702290076333,-9.291896643066405,0.469263525390625,2.365471240234375,18.412213740458014,-39.06870229007634,-9.404580152671755,0.0
14.520000696182251,-11.235988391113281,5.212177014160156,2.492363928222656,-72.77862595419847,-3.648854961832061,4.473282442748092,-10.182539660644531,-0.5746083984375,3.0550013183593747,17.69465648854962,-40.2442748091603,-7.709923664122138,0.0
14.530000925064087,-11.001356628417968,1.886630908203125,1.608903515625,-77.86259541984732,-8.977099236641221,8.381679389312977,-9.129090930175781,0.948103857421875,2.0302830078125,15.053435114503817,-45.770992366412216,-10.65648854961832,0.0
14.540000677108765,-12.74912384033203,4.062960217285156,2.7653029174804686,-77.05343511450381,-4.427480916030534,6.977099236641221,-8.79150849609375,2.2649147705078123,2.6312276245117188,4.0458015267175576,-42.030534351145036,-11.038167938931299,0.0
14.550000667572021,-11.801019982910155,3.708618371582031,2.3487118286132813,-94.82442748091603,-16.48854961832061,7.526717557251908,-9.945513696289062,0.7781155395507812,3.162740393066406,-2.7938931297709924,-38.16793893129771,-7.572519083969466,0.0
14.5600004196167,-10.843339318847656,1.177947216796875,1.6232687255859375,-88.03053435114504,-16.885496183206108,13.541984732824428,-10.378864196777343,-1.0103531005859374,3.754108203125,3.5877862595419847,-41.17557251908397,-5.32824427480916,0.0
14.570001125335693,-9.270348828125,-1.3623007446289062,1.1324573852539062,-73.8473282442748,-16.03053435114504,15.114503816793894,-10.421959826660157,-0.5602431884765625,3.4739866088867184,12.564885496183207,-47.9236641221374,-5.465648854961832,0.0
14.580000877380371,-9.291896643066405,-1.1324573852539062,1.8698714965820311,-52.656488549618324,-5.099236641221374,12.793893129770993,-8.930372192382812,0.5674257934570313,3.2800562744140622,10.427480916030534,-49.74045801526717,-9.083969465648854,0.0
14.590000629425049,-8.573636145019531,-1.0821791503906248,1.2593500732421874,-44.045801526717554,-4.366412213740458,8.061068702290076,-9.318232861328125,-0.086191259765625,3.6942531616210936,9.099236641221374,-45.404580152671755,-7.786259541984733,0.0
14.600000858306885,-9.682151513671874,-1.1133037719726562,1.438915197753906,-31.72519083969466,1.816793893129771,4.412213740458015,-10.149020837402343,-0.3232172241210937,3.5697546752929687,14.351145038167939,-48.213740458015266,-8.061068702290076,0.0
14.610000610351562,-7.769184387207031,-1.3168109130859373,0.6464344482421874,-19.893129770992367,2.687022900763359,2.5343511450381677,-8.367734802246094,0.5458779785156249,2.6767174560546874,9.129770992366412,-50.74809160305343,-12.122137404580153,0.0
14.62000060081482,-8.437166650390624,-0.2346317626953125,1.2880804931640624,-8.946564885496183,12.030534351145038,-0.8854961832061069,-9.14824454345703,0.258573779296875,3.1220389648437497,1.4045801526717556,-43.38931297709924,-11.389312977099237,0.0
14.630000591278076,-10.256759912109374,2.2601263671875,2.2074539306640624,-12.274809160305344,14.030534351145038,-6.122137404580153,-10.098742602539062,-0.2537853759765625,3.1938650146484373,3.1603053435114505,-42.030534351145036,-10.229007633587786,0.0
14.640000581741333,-9.890447058105469,1.946485949707031,1.7214309936523438,-14.320610687022901,10.595419847328245,-4.885496183206107,-9.83777462158203,0.16759411621093748,2.839523168945312,8.961832061068701,-47.64885496183206,-11.007633587786259,0.0
14.65000057220459,-9.406818322753905,1.898601916503906,1.7932570434570312,-8.717557251908397,14.549618320610687,-3.3740458015267176,-7.912836486816405,1.47482822265625,2.482787121582031,-0.2748091603053435,-45.725190839694655,-14.702290076335878,0.0
14.660000801086426,-10.728417639160156,3.306392492675781,2.2074539306640624,-18.03053435114504,11.068702290076336,-4.534351145038168,-9.0021982421875,0.2442085693359375,3.337517114257812,-9.49618320610687,-37.343511450381676,-12.702290076335878,0.0
14.670000553131104,-9.239224206542968,1.1420341918945311,1.5801730957031248,-14.351145038167939,10.778625954198473,-1.8015267175572518,-9.969455712890625,-1.3838485595703125,3.4165257690429685,-6.717557251908397,-37.404580152671755,-10.320610687022901,0.0
14.68000078201294,-9.974244116210937,1.7597382202148437,1.8938135131835936,-12.076335877862595,11.312977099236642,-4.229007633587786,-10.213664282226562,-1.6639701538085936,3.727771984863281,4.625954198473282,-40.595419847328245,-10.534351145038167,0.0
14.690000772476196,-9.591171850585937,1.1156979736328125,1.7693150268554687,-6.2748091603053435,10.473282442748092,-4.33587786259542,-9.629479077148437,-1.7693150268554687,3.67749375,18.03053435114504,-44.76335877862596,-12.213740458015268,0.0
14.700000762939453,-9.167398156738281,0.9504980590820312,1.3048399047851562,-0.6717557251908397,10.091603053435115,-4.152671755725191,-7.781155395507812,0.05746083984375,2.877830395507812,13.038167938931299,-46.412213740458014,-17.96946564885496,0.0
14.71000051498413,-8.834604125976561,0.8068459594726562,1.3862427612304686,7.312977099236641,14.748091603053435,-4.717557251908397,-7.117961535644531,-0.1580173095703125,3.2345664428710936,4.351145038167939,-38.88549618320611,-19.541984732824428,0.0
14.720000505447388,-9.967061511230469,2.7365724975585937,2.2194249389648437,3.435114503816794,15.48091603053435,-8.580152671755725,-8.394071020507813,-1.0223241088867188,3.3494881225585935,7.893129770992366,-36.030534351145036,-17.374045801526716,0.0
14.730000495910645,-10.666168395996094,3.0550013183593747,2.142810485839844,-4.870229007633588,10.625954198473282,-8.183206106870228,-8.896853369140624,-1.599326708984375,3.612850305175781,17.572519083969464,-38.030534351145036,-17.480916030534353,0.0
14.740000486373901,-9.773131176757811,1.3718775512695311,1.8243816650390623,-4.396946564885496,8.595419847328245,-4.916030534351145,-9.366116894531249,-0.7254431030273437,3.9145197143554684,24.946564885496183,-37.57251908396947,-18.65648854961832,0.0
14.750000238418579,-7.592013464355468,-0.8810662109374999,1.1133037719726562,10.885496183206106,12.01526717557252,-3.1297709923664123,-7.0269818725585935,0.8667010009765624,2.834734765625,20.15267175572519,-37.86259541984733,-23.297709923664122,0.0
14.760000705718994,-9.100360510253905,0.7805097412109374,2.3343466186523436,18.900763358778626,20.18320610687023,-9.48091603053435,-6.768408093261718,1.0175357055664063,3.0813375366210938,9.038167938931299,-28.977099236641223,-23.31297709923664,0.0
14.770000696182251,-10.129867224121092,1.8100164550781248,2.0566192260742184,16.15267175572519,17.053435114503817,-12.183206106870228,-8.997409838867187,-1.0893617553710937,3.9145197143554684,8.65648854961832,-21.770992366412212,-19.14503816793893,0.0
14.780000925064087,-9.176974963378905,2.0757728393554684,2.0661960327148434,15.572519083969466,15.145038167938932,-11.740458015267176,-6.964732629394531,0.8499415893554687,3.0310593017578125,9.068702290076336,-25.572519083969464,-21.52671755725191,0.0
14.790000438690186,-10.314220751953124,1.6639701538085936,2.1643583007812497,15.893129770992367,13.725190839694656,-10.946564885496183,-9.105148913574219,-0.5674257934570313,3.746925598144531,6.564885496183206,-16.977099236641223,-19.083969465648856,0.0
