timestamp,Thigh_L_Acc_X,Thigh_L_Acc_Y,Thigh_L_Acc_Z,Thigh_L_Gyr_X,Thigh_L_Gyr_Y,Thigh_L_Gyr_Z,Thigh_R_Acc_X,Thigh_R_Acc_Y,Thigh_R_Acc_Z,Thigh_R_Gyr_X,Thigh_R_Gyr_Y,Thigh_R_Gyr_Z,gpio_output
10.000000476837158,-9.880870251464843,0.7398083129882812,2.7533319091796873,2.595419847328244,37.02290076335878,-0.3053435114503817,-10.096348400878906,0.0909796630859375,0.354341845703125,-48.35114503816794,-63.29770992366412,18.33587786259542,0.0
10.010000705718994,-10.486603271484375,1.1707646118164061,2.7437551025390623,6.778625954198473,35.31297709923664,-2.381679389312977,-8.453926062011718,-0.5506663818359374,-0.16041151123046873,-50.44274809160305,-54.30534351145038,14.763358778625955,1.0
10.02000117301941,-9.574412438964844,1.3072341064453123,2.626439221191406,15.19083969465649,32.16793893129771,-2.7022900763358777,-9.143456140136719,-1.4173673828125,0.5339069702148437,-38.229007633587784,-42.06106870229008,15.541984732824428,1.0
10.030000448226929,-8.786720092773438,1.2042834350585936,1.9943699829101562,22.33587786259542,29.435114503816795,-3.633587786259542,-9.248801013183593,-2.990357873535156,0.19871873779296872,-23.61832061068702,-38.88549618320611,11.709923664122137,1.0
10.040000915527344,-8.777143286132812,1.915361328125,2.1308394775390624,24.900763358778626,26.16793893129771,-5.4961832061068705,-9.107543115234375,-1.9847931762695312,0.5267243652343749,-11.145038167938932,-33.05343511450382,5.984732824427481,1.0
10.050000667572021,-9.696516723632811,2.9951462768554684,3.009511486816406,24.519083969465647,26.946564885496183,-6.549618320610687,-8.82981572265625,-1.3120225097656248,0.6536170532226562,-6.229007633587786,-27.251908396946565,1.9541984732824427,1.0
10.060001134872437,-9.145850341796875,2.1715409057617188,2.3822306518554686,26.03053435114504,23.87786259541985,-4.396946564885496,-9.009380847167968,-0.948103857421875,0.5434837768554687,-4.8396946564885495,-20.244274809160306,0.44274809160305345,1.0
10.070000648498535,-8.585607153320312,3.303998291015625,2.6599580444335937,25.893129770992367,22.595419847328245,-3.9389312977099236,-9.205705383300781,-1.8291700683593748,1.3024457031249999,-2.1526717557251906,-12.793893129770993,0.6870229007633588,1.0
10.080000877380371,-9.567229833984374,3.909731311035156,2.8802245971679685,17.862595419847327,22.931297709923665,-4.961832061068702,-8.520963708496094,-1.0773907470703123,0.8212111694335937,3.5877862595419847,-12.625954198473282,-2.030534351145038,1.0
10.090000867843628,-8.358157995605469,3.0885201416015624,2.2864625854492187,15.099236641221374,19.022900763358777,-1.3282442748091603,-8.980650427246093,-1.448492004394531,1.4796166259765624,6.3816793893129775,-8.351145038167939,-3.1603053435114505,1.0
10.100000619888306,-8.32463917236328,2.8610709838867185,2.2481553588867187,10.900763358778626,18.18320610687023,0.15267175572519084,-8.932766394042968,-1.9416975463867185,1.7980454467773437,11.206106870229007,-6.2748091603053435,-4.625954198473282,1.0
10.110283374786377,-9.751583361816406,4.220977526855468,2.925714428710937,-1.4198473282442747,16.977099236641223,-0.6870229007633588,-10.165780249023436,-3.009511486816406,2.5809493896484375,26.33587786259542,-8.50381679389313,-4.824427480916031,1.0
10.12000060081482,-9.445125549316407,3.564966271972656,2.6862942626953124,-8.610687022900763,14.748091603053435,1.816793893129771,-9.828197814941406,-2.877830395507812,2.9281086303710935,41.465648854961835,-15.755725190839694,-8.244274809160306,1.0
10.130000591278076,-9.028534460449219,3.1387983764648437,2.597708801269531,-9.511450381679388,15.267175572519085,4.824427480916031,-9.315838659667968,-1.7836802368164062,2.4396914916992185,48.458015267175576,-22.12213740458015,-11.633587786259541,1.0
10.140110731124878,-9.011775048828124,3.0789433349609374,2.7533319091796873,-13.633587786259541,16.50381679389313,5.801526717557252,-8.604760766601562,-0.6440402465820312,1.8555062866210936,44.93129770992366,-24.12213740458015,-15.435114503816793,1.0
10.150001049041748,-9.0788126953125,2.4851813232421875,2.8850130004882812,-17.206106870229007,17.389312977099237,6.564885496183206,-9.229647399902344,0.622492431640625,1.8148048583984373,36.595419847328245,-21.267175572519083,-16.748091603053435,1.0
10.160117149353027,-8.99501563720703,2.1356278808593747,3.277662072753906,-13.801526717557252,21.72519083969466,6.488549618320611,-9.854534033203125,-0.4213794921875,2.7844565307617186,29.572519083969464,-16.3206106870229,-15.312977099236642,1.0
10.170000791549683,-9.897629663085937,2.3151930053710936,3.526659045410156,-18.519083969465647,22.717557251908396,3.435114503816794,-9.428366137695312,-0.7661445312499999,2.6623522460937497,29.328244274809162,-18.16793893129771,-16.35114503816794,1.0
10.180000305175781,-9.138667736816405,1.9201497314453124,2.925714428710937,-19.770992366412212,20.076335877862597,3.114503816793893,-10.503362683105468,-0.3591302490234375,3.0741549316406247,35.70992366412214,-18.763358778625953,-17.022900763358777,1.0
10.19000506401062,-9.349357482910156,2.104503259277344,3.086125939941406,-18.83969465648855,20.580152671755727,2.2442748091603053,-10.488997473144531,-0.05985504150390625,3.6080619018554687,37.70992366412214,-20.946564885496183,-18.53435114503817,1.0
10.200000286102295,-9.457096557617186,1.6304513305664061,2.6599580444335937,-19.72519083969466,16.977099236641223,2.50381679389313,-9.160215551757812,0.36152445068359373,3.5960908935546874,31.557251908396946,-21.587786259541986,-20.47328244274809,1.0
10.210027933120728,-9.160215551757812,1.9871873779296874,2.1787235107421874,-19.00763358778626,15.17557251908397,2.9160305343511452,-9.210493786621093,0.8044517578125,3.995922570800781,23.435114503816795,-18.137404580152673,-19.923664122137403,0.0
10.220000505447388,-9.433154541015625,2.2840683837890623,2.1116858642578125,-22.83969465648855,12.045801526717558,3.9236641221374047,-8.48505068359375,1.6017209106445311,3.77326181640625,12.045801526717558,-16.442748091603054,-19.00763358778626,0.0
10.230217695236206,-10.014945544433592,1.7453730102539062,2.750937707519531,-17.984732824427482,13.755725190839694,4.961832061068702,-8.851363537597656,1.1228805786132812,3.995922570800781,7.66412213740458,-15.267175572519085,-16.03053435114504,0.0
10.240000486373901,-9.627084875488281,1.8602946899414061,3.0430303100585934,-13.664122137404581,14.045801526717558,3.8931297709923665,-8.44674345703125,1.2473790649414063,4.127603662109375,-1.2366412213740459,-14.83969465648855,-14.931297709923664,0.0
10.250000476837158,-8.686163623046875,0.8571241943359375,2.2673089721679687,-8.213740458015268,11.312977099236642,4.091603053435114,-9.042899670410156,0.40462008056640625,4.474762902832031,-3.2213740458015265,-14.045801526717558,-12.488549618320612,0.0
10.260000705718994,-9.5001921875,1.1563994018554686,2.7964275390625,-4.061068702290076,12.961832061068701,1.2671755725190839,-8.02536396484375,1.3383587280273437,3.9791631591796874,-10.732824427480915,-15.236641221374045,-13.16030534351145,0.0
10.270000457763672,-9.983820922851562,1.0941501586914062,2.825157958984375,-0.2900763358778626,12.122137404580153,-0.2595419847328244,-8.310273962402343,0.7302315063476562,3.842693664550781,-16.83969465648855,-12.610687022900763,-11.267175572519085,0.0
10.280000448226929,-10.256759912109374,1.419761584472656,2.786850732421875,0.8549618320610687,10.442748091603054,-0.8244274809160306,-8.468291271972657,0.181959326171875,3.845087866210937,-20.412213740458014,-11.908396946564885,-9.17557251908397,0.0
10.290058851242065,-9.279925634765624,0.7110778930664062,1.7741034301757812,4.290076335877862,8.030534351145038,-0.2748091603053435,-8.530540515136718,-0.0718260498046875,3.7205893798828122,-22.229007633587788,-12.030534351145038,-7.770992366412214,0.0
10.3000009059906,-8.219294299316406,0.28730419921875,1.3814543579101561,8.80916030534351,6.793893129770993,0.10687022900763359,-8.360552197265624,-0.5195417602539062,3.6463691284179687,-23.786259541984734,-12.045801526717558,-7.083969465648855,0.0
10.310000658035278,-8.705317236328124,1.2018892333984375,1.8770541015625,13.419847328244275,10.320610687022901,-2.33587786259542,-8.51617530517578,-1.5562310791015623,3.9432501342773434,-22.702290076335878,-11.98473282442748,-5.801526717557252,0.0
10.320345878601074,-9.926360083007811,1.4891934326171874,2.2673089721679687,14.290076335877863,11.954198473282442,-4.580152671755725,-8.422801440429687,-1.7525556152343749,3.342305517578125,-15.19083969465649,-15.969465648854962,-6.961832061068702,0.0
10.330000638961792,-9.100360510253905,1.6831237670898436,1.3910311645507811,13.206106870229007,7.32824427480916,-4.351145038167939,-8.303091357421874,-2.070984436035156,3.296815686035156,-7.312977099236641,-19.236641221374047,-8.274809160305344,0.0
10.340000629425049,-9.514557397460937,2.1811177124023438,1.4867992309570313,8.106870229007633,5.816793893129771,-3.954198473282443,-9.540893615722656,-2.2649147705078123,4.046200805664062,-1.1908396946564885,-18.18320610687023,-7.984732824427481,0.0
10.350000619888306,-10.211270080566406,3.1651345947265623,2.1068974609374997,0.8702290076335878,6.0,-3.984732824427481,-8.01818135986328,-1.7788918334960937,3.114856359863281,2.381679389312977,-22.091603053435115,-9.954198473282442,0.0
10.360000848770142,-9.730035546875,2.4444798950195312,1.8315642700195311,-4.580152671755725,3.572519083969466,-2.122137404580153,-9.093177905273437,-1.5777788940429687,3.3973721557617185,8.244274809160306,-21.14503816793893,-9.145038167938932,0.0
10.370000839233398,-9.358934289550781,2.0973206542968748,1.5251064575195312,-5.190839694656488,3.7404580152671754,-0.7938931297709924,-8.2360537109375,-1.6352397338867186,3.1196447631835937,10.595419847328245,-22.0,-9.84732824427481,0.0
10.380000591278076,-9.260772021484375,1.9656395629882812,1.4628572143554686,-6.656488549618321,4.030534351145038,-1.0381679389312977,-8.085219006347655,-1.2569558715820313,3.038241906738281,13.129770992366412,-21.587786259541986,-11.267175572519085,0.0
10.390000820159912,-9.30147344970703,1.3862427612304686,1.369483349609375,-7.786259541984733,4.2748091603053435,-1.4198473282442747,-8.355763793945313,-1.0893617553710937,3.143586779785156,16.580152671755727,-19.251908396946565,-11.450381679389313,0.0
10.40000057220459,-8.628702783203124,0.22026655273437498,1.1252747802734375,2.8396946564885495,8.122137404580153,-0.9923664122137404,-9.172186560058593,-1.7286135986328124,3.7205893798828122,20.977099236641223,-14.916030534351146,-10.229007633587786,0.0
10.410000324249268,-9.129090930175781,0.2609679809570312,1.2928688964843749,8.213740458015268,11.770992366412214,-4.198473282442748,-8.391676818847655,-0.6943184814453125,3.4524387939453125,20.85496183206107,-13.465648854961833,-12.412213740458014,0.0
10.420000553131104,-10.342951171874999,1.35990654296875,1.599326708984375,8.67175572519084,14.625954198473282,-7.587786259541985,-8.508992700195313,-0.852335791015625,3.3446997192382812,21.389312977099237,-9.206106870229007,-11.465648854961833,0.0
10.43000054359436,-10.089165795898436,2.291250988769531,2.0302830078125,7.603053435114504,13.404580152671755,-7.709923664122138,-8.693346228027343,-0.9888052856445312,3.4715924072265625,23.87786259541985,-7.099236641221374,-10.274809160305344,0.0
10.440000534057617,-10.390835205078124,1.189918225097656,1.7693150268554687,7.7251908396946565,11.007633587786259,-7.709923664122138,-9.160215551757812,-1.1659762084960936,3.5913024902343746,28.27480916030534,-5.4961832061068705,-8.381679389312977,0.0
10.450000762939453,-8.870517150878905,0.19393033447265623,0.8786720092773437,13.633587786259541,8.244274809160306,-6.290076335877862,-8.200140686035155,0.07900865478515624,3.0454245117187497,29.84732824427481,-7.4961832061068705,-9.755725190839694,0.0
10.46000051498413,-8.731653454589843,1.3551181396484375,1.455674609375,19.893129770992367,11.297709923664122,-9.17557251908397,-8.36294639892578,-0.1197100830078125,3.5146880371093747,26.045801526717558,-2.8396946564885495,-8.01526717557252,0.0
10.470000743865967,-9.074024291992187,1.0510545288085937,0.9265560424804687,19.66412213740458,9.251908396946565,-9.679389312977099,-8.413224633789062,-0.09337386474609374,3.296815686035156,25.46564885496183,-2.4580152671755724,-7.435114503816794,0.0
10.480000734329224,-9.830592016601562,2.35589443359375,1.4245499877929686,18.900763358778626,10.045801526717558,-11.267175572519085,-8.729259252929687,-0.2154781494140625,3.1651345947265623,26.732824427480917,-1.6793893129770991,-6.488549618320611,0.0
10.490000486373901,-8.892064965820312,1.120486376953125,0.7038952880859375,21.923664122137403,9.282442748091603,-8.946564885496183,-8.726865051269531,-0.7613561279296874,3.890577697753906,23.908396946564885,1.0076335877862594,-5.435114503816794,0.0
10.500000238418579,-9.447519750976562,2.3367408203125,1.2617442749023438,21.84732824427481,11.969465648854962,-10.793893129770993,-8.391676818847655,-0.34237083740234375,3.7158009765625,22.48854961832061,0.6564885496183206,-5.740458015267175,0.0
10.510000467300415,-8.391676818847655,0.9050082275390624,0.44532150878906246,26.396946564885496,12.351145038167939,-9.312977099236642,-9.045293872070312,-1.3335703247070312,4.264073156738281,23.068702290076335,3.3893129770992365,-4.33587786259542,0.0
10.520000696182251,-8.588001354980468,2.0446482177734375,0.9409212524414062,27.099236641221374,16.977099236641223,-11.541984732824428,-8.231265307617187,-0.22026655273437498,3.801992236328125,21.206106870229007,1.6793893129770991,-7.312977099236641,0.0
10.530000925064087,-9.193734375,2.099714855957031,0.967257470703125,25.068702290076335,19.267175572519083,-13.114503816793894,-8.492233288574218,-0.7445967163085937,4.000710974121094,18.15267175572519,4.259541984732825,-7.145038167938932,0.0
10.540000438690186,-9.816226806640625,1.7166425903320313,0.9074024291992187,20.53435114503817,20.427480916030536,-13.923664122137405,-8.851363537597656,-1.0271125122070313,4.223371728515625,18.580152671755727,4.442748091603053,-6.702290076335878,0.0
10.5500009059906,-9.696516723632811,2.5809493896484375,1.1276689819335937,16.427480916030536,23.16030534351145,-15.816793893129772,-8.719682446289061,-1.0534487304687499,4.053383410644531,19.053435114503817,3.450381679389313,-7.709923664122138,0.0
10.560000658035278,-8.939948999023438,2.1739351074218747,0.6560112548828124,13.694656488549619,23.00763358778626,-14.885496183206106,-8.640673791503906,-0.9792284790039062,4.019864587402344,18.977099236641223,2.427480916030534,-8.916030534351146,0.0
10.570000886917114,-9.773131176757811,2.288856787109375,1.209071838378906,9.221374045801527,25.87786259541985,-16.12213740458015,-8.520963708496094,-0.9816226806640624,3.9528269409179684,18.27480916030534,1.984732824427481,-9.389312977099237,0.0
10.580000638961792,-8.741230261230468,2.2553379638671873,0.9193734375,7.297709923664122,25.541984732824428,-15.19083969465649,-8.374917407226562,-0.9193734375,3.9839515624999997,17.923664122137403,1.8015267175572518,-10.030534351145038,0.0
10.590000629425049,-10.199299072265624,2.04943662109375,1.3958195678710936,1.0076335877862594,26.0,-16.045801526717558,-8.28633194580078,-0.8307879760742187,3.8857892944335934,17.709923664122137,2.1068702290076335,-10.51908396946565,0.0
10.600000619888306,-8.91840118408203,1.89620771484375,1.0295067138671874,1.0687022900763359,25.267175572519083,-15.32824427480916,-8.118737829589843,-0.7302315063476562,3.825934252929687,17.16030534351145,2.9923664122137406,-10.870229007633588,0.0
10.610000848770142,-9.560047229003906,1.618480322265625,1.7381904052734374,2.7022900763358777,27.16030534351145,-15.541984732824428,-8.0062103515625,-0.7613561279296874,3.7134067749023436,16.50381679389313,4.458015267175573,-11.618320610687023,0.0
10.62000060081482,-9.368511096191405,0.9792284790039062,1.2856862915039062,2.366412213740458,25.251908396946565,-16.18320610687023,-7.826645227050781,-0.8786720092773437,3.4644098022460934,16.396946564885496,5.9541984732824424,-12.564885496183207,0.0
10.630000591278076,-8.635885388183594,1.3048399047851562,1.6998831787109374,7.587786259541985,26.15267175572519,-16.793893129770993,-7.5345526245117185,-1.0582371337890624,3.21780703125,17.19083969465649,8.198473282442748,-12.778625954198473,0.0
10.640000581741333,-9.655815295410155,0.5267243652343749,2.2840683837890623,11.801526717557252,26.076335877862597,-18.30534351145038,-7.297526660156249,-1.0438719238281249,2.8898014038085935,18.16793893129771,10.442748091603054,-13.526717557251908,0.0
10.650001049041748,-9.030928662109375,0.6847416748046875,2.6791116577148437,18.916030534351144,24.106870229007633,-18.748091603053435,-6.8785413696289055,-1.0319009155273438,2.5761609863281247,19.740458015267176,13.954198473282442,-14.045801526717558,0.0
10.660000562667847,-9.907206469726562,0.7996633544921875,3.0909143432617188,22.27480916030534,19.740458015267176,-19.984732824427482,-6.687005236816406,-1.209071838378906,2.166752502441406,21.61832061068702,18.610687022900763,-14.717557251908397,0.0
10.670000791549683,-8.999804040527343,1.139639990234375,3.8857892944335934,27.34351145038168,14.13740458015267,-20.580152671755727,-6.667851623535156,-1.3623007446289062,1.8938135131835936,24.48854961832061,23.14503816793893,-15.358778625954198,0.0
10.68000054359436,-8.667010009765624,0.4429273071289062,4.168305090332031,35.3587786259542,6.458015267175573,-20.229007633587788,-6.830657336425781,-1.5107412475585937,1.6424223388671875,29.083969465648856,28.610687022900763,-16.99236641221374,0.0
10.690000772476196,-8.772354882812499,0.9265560424804687,4.821922143554687,43.038167938931295,-0.8702290076335878,-20.885496183206108,-7.568071447753906,-1.8219874633789062,1.7549498168945312,34.88549618320611,33.55725190839695,-20.076335877862597,0.0
10.700000762939453,-10.08677159423828,2.887407202148437,6.1818286865234375,43.099236641221374,-10.67175572519084,-22.793893129770993,-8.667010009765624,-1.2114660400390624,2.133233679199219,39.49618320610687,36.76335877862596,-24.519083969465647,0.0
10.710000991821289,-9.852139831542969,2.47081611328125,6.282385156249999,50.50381679389313,-24.580152671755727,-19.96946564885496,-10.383652600097655,-0.5123591552734374,3.897760302734375,32.30534351145038,42.48854961832061,-31.17557251908397,0.0
10.720000505447388,-10.072406384277343,2.7365724975585937,6.629544396972656,59.48091603053435,-35.29770992366412,-18.015267175572518,-13.302184423828125,-1.8459294799804686,6.782773303222656,22.99236641221374,48.68702290076336,-35.221374045801525,0.0
10.730000495910645,-10.790666882324219,2.844311572265625,6.710947253417968,66.79389312977099,-47.17557251908397,-16.793893129770993,-16.780959436035154,-3.9839515624999997,9.176974963378905,32.213740458015266,44.534351145038165,-37.17557251908397,0.0
10.740000486373901,-10.73799444580078,2.786850732421875,6.241683728027343,77.83206106870229,-60.229007633587784,-15.725190839694656,-17.13530128173828,-2.7150246826171873,9.504980590820312,50.961832061068705,26.229007633587788,-37.81679389312977,0.0
10.750000476837158,-11.444283935546874,4.486733911132812,6.414066247558593,82.4885496183206,-71.1145038167939,-15.969465648854962,-13.59188282470703,0.30885201416015623,6.438008264160156,58.87022900763359,11.465648854961833,-30.16793893129771,0.0
10.760000705718994,-11.870451831054687,4.920084411621094,5.566518859863281,78.83969465648855,-85.89312977099236,-12.473282442748092,-9.739612353515625,3.6296097167968746,2.6408044311523438,49.52671755725191,5.938931297709924,-21.053435114503817,0.0
10.770000696182251,-10.93671318359375,4.11802685546875,4.242525341796875,74.53435114503817,-100.73282442748092,-4.625954198473282,-6.476315490722656,4.838681555175781,0.6296750366210937,26.045801526717558,6.763358778625954,-13.786259541984732,0.0
10.780000925064087,-11.44667813720703,3.265691064453125,4.048595007324218,69.93893129770993,-109.63358778625954,2.732824427480916,-6.629544396972656,4.007893579101562,0.016759411621093748,3.954198473282443,13.969465648854962,-6.0,0.0
10.790000677108765,-12.198457458496094,2.427720483398437,4.082113830566406,61.49618320610687,-116.79389312977099,9.068702290076336,-7.606378674316406,1.0558429321289062,0.20829554443359374,-7.4961832061068705,17.923664122137403,-0.3816793893129771,0.0
10.8000009059906,-13.014880224609374,0.7541735229492187,4.455609289550781,54.916030534351144,-122.74809160305344,12.50381679389313,-8.904035974121093,-1.35990654296875,0.6177040283203125,-7.541984732824427,19.770992366412212,-1.4198473282442747,0.0
10.810000658035278,-13.781024755859374,-0.20829554443359374,5.068524914550781,49.63358778625954,-127.87786259541984,11.740458015267176,-9.79946739501953,-2.6503812377929687,0.9361328491210937,-5.282442748091603,20.53435114503817,-6.152671755725191,0.0
10.820000886917114,-14.468160632324217,-0.7110778930664062,4.979939453125,43.63358778625954,-132.50381679389312,9.19083969465649,-10.47702646484375,-2.360682836914062,1.0342951171875,-3.9236641221374047,23.0381679389313,-10.076335877862595,0.0
10.830000877380371,-14.353238952636717,-0.7445967163085937,4.240131140136718,36.412213740458014,-136.8854961832061,5.557251908396947,-10.723629235839843,-2.825157958984375,1.35990654296875,-2.7480916030534353,25.068702290076335,-10.030534351145038,0.0
10.840000629425049,-13.922282653808592,-0.19153613281249998,3.6439749267578123,30.16793893129771,-136.4885496183206,1.6488549618320612,-10.448296044921875,-3.0047230834960934,1.2234370483398436,3.9083969465648853,24.916030534351144,-8.198473282442748,0.0
10.850000858306885,-12.662932580566405,-0.1580173095703125,2.2098481323242187,28.717557251908396,-132.85496183206106,2.351145038167939,-10.225635290527343,-2.157175695800781,1.3766659545898436,10.335877862595419,22.65648854961832,-7.190839694656488,0.0
10.860000371932983,-11.645396875,0.10295067138671875,1.0319009155273438,27.66412213740458,-125.29770992366412,4.0458015267175576,-10.527304699707031,-1.4101847778320311,1.9393033447265624,11.251908396946565,22.625954198473284,-6.320610687022901,0.0
10.87000060081482,-10.347739575195313,0.5410895751953124,0.033518823242187495,24.916030534351144,-115.54198473282443,6.213740458015267,-9.852139831542969,-0.488417138671875,1.0654197387695312,5.969465648854962,18.83969465648855,-6.793893129770993,0.0
10.880000829696655,-10.151415039062499,1.0390835205078124,-0.2346317626953125,15.572519083969466,-104.99236641221374,6.076335877862595,-9.639055883789062,-0.8738836059570312,1.1420341918945311,-4.259541984732825,20.412213740458014,-4.427480916030534,0.0
10.890000581741333,-8.961496813964843,1.2904746948242187,-0.6488286499023437,3.7557251908396947,-94.13740458015268,4.99236641221374,-9.521740002441407,-1.936909143066406,1.0678139404296874,-14.977099236641221,21.480916030534353,-2.595419847328244,0.0
10.90000057220459,-8.74601866455078,1.5155296508789062,-0.5985504150390625,-10.320610687022901,-81.92366412213741,3.8473282442748094,-10.091559997558592,-3.881000891113281,0.9840168823242187,-17.755725190839694,23.0381679389313,0.8244274809160306,0.0
10.910000801086426,-8.40125362548828,0.5746083984375,-0.33758243408203126,-16.68702290076336,-69.66412213740458,2.4427480916030535,-10.69968721923828,-4.778826513671874,1.0031704956054688,-9.450381679389313,22.18320610687023,1.0076335877862594,0.0
10.920000791549683,-8.192958081054687,0.26815058593749996,0.21787235107421873,-17.297709923664122,-58.67175572519084,2.6259541984732824,-10.129867224121092,-3.6104561035156246,0.16998831787109375,-1.450381679389313,19.572519083969464,-3.2061068702290076,0.0
10.93000078201294,-8.836998327636719,0.16280571289062498,1.1563994018554686,-16.061068702290076,-45.19083969465649,1.8625954198473282,-10.08677159423828,-3.5194764404296874,0.833182177734375,-1.4961832061068703,24.732824427480917,-3.6793893129770994,0.0
10.940000534057617,-8.552088330078124,0.15562310791015624,1.1109095703125,-14.290076335877863,-36.93129770992366,2.1374045801526718,-8.808267907714843,-2.1116858642578125,0.3687070556640625,-2.7938931297709924,24.18320610687023,-4.9465648854961835,0.0
10.950000524520874,-8.207323291015625,-0.00239420166015625,0.9433154541015625,-15.007633587786259,-31.51145038167939,2.3969465648854964,-8.032546569824218,-1.7621324218749999,0.47884033203125,-8.900763358778626,27.46564885496183,-3.7557251908396947,0.0
10.96000051498413,-9.471461767578125,1.3838485595703125,2.1212626708984375,-16.916030534351144,-21.068702290076335,1.83206106870229,-9.107543115234375,-2.109291662597656,1.3742717529296875,-12.198473282442748,32.916030534351144,-0.33587786259541985,0.0
10.970000267028809,-9.251195214843749,0.7661445312499999,1.5897499023437498,-20.564885496183205,-19.64885496183206,4.137404580152672,-8.702923034667968,-1.7501614135742187,0.9504980590820312,-15.17557251908397,32.900763358778626,0.9312977099236641,0.0
10.980000495910645,-9.10993731689453,1.4245499877929686,1.8746598999023436,-21.435114503816795,-13.877862595419847,6.076335877862595,-8.693346228027343,-1.0749965454101562,1.189918225097656,-19.801526717557252,34.79389312977099,3.0839694656488548,0.0
10.990000486373901,-8.451531860351562,1.2689268798828124,1.3431471313476562,-24.564885496183205,-11.419847328244275,8.717557251908397,-8.82263311767578,-1.4101847778320311,1.5394716674804687,-24.931297709923665,40.51908396946565,6.137404580152672,0.0
11.000000476837158,-8.786720092773438,2.04943662109375,1.9800047729492187,-29.87786259541985,-7.312977099236641,9.34351145038168,-10.678139404296875,-2.750937707519531,2.3343466186523436,-19.19083969465649,43.29770992366412,10.442748091603054,0.0
11.010000467300415,-7.445967163085937,0.6536170532226562,0.8451531860351562,-35.55725190839695,-8.259541984732824,11.312977099236642,-9.519345800781249,-2.9831752685546875,1.7908628417968748,-10.13740458015267,37.38931297709924,9.007633587786259,0.0
11.020000696182251,-6.291961962890625,0.6488286499023437,0.8738836059570312,-36.35114503816794,-5.129770992366412,11.84732824427481,-9.26316622314453,-2.4899697265625,1.7788918334960937,-5.740458015267175,35.41984732824427,7.465648854961832,0.0
11.030000686645508,-7.659051110839843,0.8643067993164062,1.9728221679687499,-37.11450381679389,2.8091603053435112,10.290076335877863,-9.074024291992187,-1.9584569580078124,1.8626888916015625,-6.213740458015267,35.11450381679389,6.763358778625954,0.0
11.040000438690186,-6.643909606933593,-0.19153613281249998,1.5227122558593749,-36.30534351145038,5.3893129770992365,10.549618320610687,-9.169792358398437,-1.89620771484375,1.6112977172851561,-7.694656488549619,34.54961832061068,6.854961832061068,0.0
11.050000667572021,-7.165845568847656,1.3120225097656248,2.817975354003906,-33.404580152671755,13.49618320610687,8.320610687022901,-9.095572106933593,-1.7405846069335937,1.8148048583984373,-7.801526717557252,33.221374045801525,7.022900763358779,0.0
11.060000658035278,-6.739677673339843,1.4628572143554686,2.877830395507812,-36.99236641221374,16.519083969465647,8.534351145038167,-9.737218151855469,-1.7573440185546874,2.4899697265625,-9.938931297709924,34.213740458015266,8.076335877862595,0.0
11.070000648498535,-5.9208607055664055,0.19871873779296872,2.530671154785156,-39.465648854961835,17.0381679389313,11.541984732824428,-10.235212097167969,-2.1787235107421874,2.616862414550781,-8.977099236641221,33.45038167938932,9.129770992366412,0.0
11.080000638961792,-6.471527087402343,1.0175357055664063,3.6296097167968746,-35.16030534351145,25.61832061068702,11.84732824427481,-10.563217724609375,-2.5139117431640625,2.959233251953125,-8.229007633587786,32.82442748091603,9.053435114503817,0.0
11.090000867843628,-6.806715319824218,1.1348515869140625,4.340687609863281,-40.12213740458015,26.610687022900763,11.954198473282442,-10.08677159423828,-1.8219874633789062,2.2457611572265623,-3.83206106870229,27.358778625954198,7.603053435114504,0.0
11.100000619888306,-7.0652890991210935,0.7565677246093749,5.250484240722656,-42.717557251908396,26.641221374045802,12.641221374045802,-10.295067138671874,-2.3415292236328122,2.6288334228515624,-0.33587786259541985,26.625954198473284,8.0,0.0
11.110000610351562,-7.0652890991210935,0.2920926025390625,5.963956335449218,-42.3206106870229,25.206106870229007,13.541984732824428,-9.624690673828125,-1.3958195678710936,2.47081611328125,1.5114503816793894,22.259541984732824,6.67175572519084,0.0
11.12000036239624,-7.235277416992187,-0.023942016601562498,6.701370446777343,-38.045801526717554,23.282442748091604,14.885496183206106,-9.387664709472656,-1.2832920898437499,2.4157494750976563,0.44274809160305345,21.66412213740458,7.114503816793893,0.0
11.130000352859497,-7.316680273437499,-0.031124621582031248,7.232883215332031,-31.69465648854962,21.068702290076335,15.664122137404581,-9.399635717773437,-1.197100830078125,2.442085693359375,-1.4809160305343512,21.46564885496183,7.923664122137405,0.0
11.140000820159912,-7.4028715332031245,0.040701428222656245,7.388506323242187,-22.748091603053435,17.72519083969466,16.625954198473284,-9.397241516113281,-1.2641384765625,2.4851813232421875,-3.5267175572519083,20.732824427480917,8.763358778625955,0.0
11.15000057220459,-7.388506323242187,0.7517793212890624,7.3837179199218745,-12.50381679389313,14.229007633587786,18.15267175572519,-8.559270935058594,0.181959326171875,1.8411410766601561,-11.236641221374045,18.717557251908396,7.816793893129771,0.0
11.160000562667847,-7.762001782226562,1.5753846923828123,6.998251452636718,-3.7404580152671754,11.358778625954198,21.0381679389313,-9.938331091308592,-0.7781155395507812,2.664746447753906,-18.244274809160306,25.938931297709924,12.198473282442748,0.0
11.170000791549683,-7.766790185546874,1.9584569580078124,6.354211206054687,2.351145038167939,9.801526717557252,24.885496183206108,-9.481038574218749,-1.924938134765625,2.7174188842773437,-18.946564885496183,25.114503816793892,15.206106870229007,0.0
11.18000054359436,-7.287949853515625,1.0103531005859374,4.568136767578125,10.16793893129771,9.603053435114504,30.045801526717558,-9.627084875488281,-1.2737152832031249,2.1906945190429687,-17.022900763358777,23.053435114503817,15.48091603053435,0.0
11.190000772476196,-7.352593298339843,1.1516109985351561,3.67749375,17.984732824427482,14.946564885496183,32.778625954198475,-9.045293872070312,-0.7661445312499999,2.1978771240234374,-21.053435114503817,22.793893129770993,15.48091603053435,0.0
11.200000286102295,-5.865794067382812,1.4437036010742186,1.7501614135742187,18.916030534351144,20.137404580152673,33.038167938931295,-9.0788126953125,-0.4429273071289062,2.3056161987304686,-29.0381679389313,25.19083969465649,16.931297709923665,0.0
11.21000075340271,-7.4220251464843745,1.8555062866210936,1.2569558715820313,-0.1984732824427481,27.51145038167939,27.068702290076335,-9.586383447265625,-1.70467158203125,2.7198130859375,-31.068702290076335,26.671755725190838,21.099236641221374,0.0
11.220000505447388,-5.209782812499999,-0.0143652099609375,-0.5626373901367188,-13.48091603053435,30.946564885496183,23.17557251908397,-9.823409411621093,-2.748543505859375,2.7269956909179687,-27.96946564885496,23.31297709923664,21.96946564885496,0.0
11.230000495910645,-7.182604980468749,-0.7517793212890624,0.6177040283203125,-18.610687022900763,39.83206106870229,19.954198473282442,-9.466673364257812,-2.6144682128906247,2.3726538452148436,-28.366412213740457,18.12213740458015,19.435114503816795,0.0
11.24000072479248,-9.974244116210937,0.4261678955078125,3.708618371582031,-15.49618320610687,49.221374045801525,18.564885496183205,-9.68454571533203,-2.1499930908203124,2.114080065917969,-32.80916030534351,13.206106870229007,16.931297709923665,0.0
11.250000476837158,-13.567940808105467,2.6336218261718747,6.256048937988281,-14.549618320610687,52.25954198473283,20.83969465648855,-10.453084448242187,-1.2330138549804688,2.29843359375,-39.11450381679389,9.633587786259541,16.412213740458014,0.0
11.260000705718994,-16.033968518066406,4.290409374999999,6.660669018554687,-20.412213740458014,50.58015267175573,23.00763358778626,-10.831368310546875,-2.3630770385742186,2.5450363647460934,-41.23664122137404,5.511450381679389,18.519083969465647,0.0
11.270000696182251,-15.875951208496092,3.5051112304687497,5.516240625,-33.9236641221374,44.30534351145038,23.00763358778626,-11.884817041015625,-2.770091320800781,3.564966271972656,-32.36641221374046,-4.488549618320611,20.519083969465647,0.0
11.280000925064087,-13.467384338378906,0.967257470703125,3.3710359375,-44.48854961832061,38.3206106870229,18.83969465648855,-10.639832177734375,-0.8882488159179687,3.2034418212890623,-30.259541984732824,-18.80916030534351,17.603053435114504,0.0
11.290000677108765,-10.697293017578124,-0.19632453613281248,1.6256629272460936,-45.52671755725191,35.00763358778626,13.725190839694656,-10.084377392578125,-0.13168109130859373,3.1842882080078123,-36.656488549618324,-27.00763358778626,16.946564885496183,0.0
11.3000009059906,-9.428366137695312,-0.033518823242187495,1.0797849487304687,-48.76335877862596,36.68702290076336,6.9465648854961835,-9.689334118652344,1.3072341064453123,2.4899697265625,-47.770992366412216,-35.20610687022901,16.946564885496183,0.0
11.310000658035278,-8.13310303955078,0.6177040283203125,0.9026140258789062,-45.465648854961835,36.82442748091603,4.824427480916031,-10.08677159423828,1.22583125,2.750937707519531,-60.68702290076336,-38.42748091603053,20.458015267175572,0.0
11.320000886917114,-8.17859287109375,0.3399766357421875,1.2641384765625,-38.99236641221374,40.13740458015267,5.511450381679389,-11.1474029296875,-0.49320554199218747,3.5697546752929687,-63.3587786259542,-41.3587786259542,26.458015267175572,0.0
11.330000400543213,-7.3932947265625,0.5722141967773438,0.9313444458007812,-29.603053435114504,43.19083969465649,6.442748091603053,-12.035651745605469,0.201112939453125,3.1771056030273437,-58.67175572519084,-49.51145038167939,26.885496183206108,0.0
11.34000039100647,-7.824251025390624,2.370259643554687,1.0893617553710937,-27.46564885496183,46.213740458015266,7.3893129770992365,-11.429918725585937,0.9433154541015625,2.9855694702148434,-60.74809160305343,-56.50381679389313,25.17557251908397,0.0
11.350000619888306,-8.736441857910156,2.741360900878906,1.3311761230468748,-31.0381679389313,48.47328244274809,10.488549618320612,-11.693280908203125,0.33039982910156246,3.191470812988281,-63.31297709923664,-59.48091603053435,25.114503816793892,0.0
11.360000371932983,-9.09796630859375,3.0837317382812497,1.68551796875,-35.770992366412216,48.51908396946565,13.038167938931299,-12.275071911621094,-0.5698199951171875,3.19865341796875,-56.412213740458014,-63.66412213740458,26.229007633587788,0.0
11.37000060081482,-9.344569079589844,2.7748797241210936,2.2960393920898436,-43.00763358778626,46.87022900763359,14.442748091603054,-11.844115612792969,-0.38307226562499996,2.7365724975585937,-52.10687022900763,-71.43511450381679,23.984732824427482,0.0
11.380000591278076,-8.832209924316405,1.8531120849609375,2.3247698120117186,-43.00763358778626,45.16030534351145,15.389312977099237,-10.85291612548828,0.8786720092773437,1.6711527587890624,-57.25190839694657,-76.04580152671755,19.72519083969466,0.0
11.390000343322754,-9.210493786621093,1.5801730957031248,2.6599580444335937,-42.152671755725194,44.61068702290076,13.221374045801527,-11.020510241699219,-0.5291185668945312,1.9608511596679685,-62.83969465648855,-72.99236641221374,19.129770992366414,0.0
11.40000057220459,-10.13226142578125,0.7278373046875,2.978386865234375,-40.656488549618324,42.2442748091603,10.366412213740459,-10.87925234375,-1.4125789794921875,1.5275006591796874,-53.45038167938932,-74.65648854961832,19.46564885496183,0.0
11.410000801086426,-10.146626635742187,0.076614453125,2.6695348510742187,-31.572519083969464,40.82442748091603,8.900763358778626,-10.122684619140625,-0.5602431884765625,0.8403647827148437,-48.229007633587784,-75.87786259541984,17.114503816793892,0.0
11.420000791549683,-9.832986218261718,0.7254431030273437,2.5665841796874997,-23.267175572519083,38.595419847328245,7.32824427480916,-9.562441430664062,-0.08140285644531249,1.024718310546875,-45.770992366412216,-69.17557251908397,17.267175572519083,0.0
11.43000054359436,-10.225635290527343,1.455674609375,2.849099975585937,-18.580152671755727,35.11450381679389,6.534351145038168,-9.459490759277344,-0.6919242797851562,0.9457096557617187,-36.732824427480914,-63.83206106870229,17.358778625954198,0.0
11.440000534057617,-10.041281762695311,1.438915197753906,2.9544448486328125,-12.50381679389313,32.3206106870229,5.4961832061068705,-9.112331518554686,0.02154781494140625,0.6584054565429687,-31.64885496183206,-58.61068702290076,14.82442748091603,0.0
11.450000762939453,-9.87608184814453,1.5729904907226562,2.896984008789062,-6.320610687022901,29.389312977099237,5.374045801526718,-8.188169677734374,0.14604630126953125,0.09576806640624999,-37.98473282442748,-49.86259541984733,11.48091603053435,0.0
11.46000051498413,-9.739612353515625,1.8076222534179687,2.9544448486328125,-2.717557251908397,25.34351145038168,5.312977099236641,-9.560047229003906,-0.5578489868164063,0.6488286499023437,-37.083969465648856,-35.83206106870229,10.854961832061068,0.0
11.470000267028809,-8.985438830566405,1.5705962890624998,2.1739351074218747,-0.04580152671755725,21.81679389312977,5.0534351145038165,-8.86812294921875,-1.3646949462890625,0.0526724365234375,-29.893129770992367,-32.62595419847328,7.557251908396947,0.0
11.480000257492065,-10.268730920410155,2.1116858642578125,2.6240450195312497,0.9770992366412213,22.625954198473284,3.8931297709923665,-8.870517150878905,-1.9536685546875,0.49320554199218747,-21.46564885496183,-27.099236641221374,3.2977099236641223,0.0
11.490000486373901,-8.322244970703125,1.5298948608398437,1.637633935546875,5.816793893129771,19.480916030534353,5.374045801526718,-8.576030346679687,-1.4317325927734375,0.373495458984375,-14.458015267175572,-24.702290076335878,-0.0,0.0
11.500000476837158,-9.05965908203125,1.656787548828125,2.04943662109375,7.221374045801527,21.541984732824428,3.145038167938931,-9.03332286376953,-0.8116343627929687,0.5267243652343749,-8.198473282442748,-21.49618320610687,-1.6488549618320612,0.0
11.510000705718994,-9.179369165039063,1.7477672119140624,2.1978771240234374,4.717557251908397,20.870229007633586,1.8625954198473282,-8.834604125976561,-0.6560112548828124,1.120486376953125,-9.450381679389313,-15.664122137404581,-2.0,0.0
11.520000696182251,-8.470685473632813,1.707065783691406,1.6519991455078125,4.259541984732825,19.541984732824428,1.984732824427481,-8.908824377441405,-0.63206923828125,1.4891934326171874,-7.206106870229007,-12.763358778625955,-1.4351145038167938,0.0
11.530000686645508,-8.968679418945312,1.6711527587890624,1.8100164550781248,5.755725190839694,23.267175572519083,1.465648854961832,-9.18655177001953,-1.2952630981445312,2.138022082519531,-2.4427480916030535,-12.01526717557252,-0.42748091603053434,0.0
11.540000915527344,-8.183381274414062,1.1540052001953125,1.177947216796875,9.068702290076336,22.99236641221374,1.7557251908396947,-8.664615808105468,-0.7350199096679687,1.9776105712890624,3.633587786259542,-16.732824427480917,-3.312977099236641,0.0
11.550000429153442,-9.3086560546875,1.9105729248046874,1.5969325073242187,7.419847328244275,25.52671755725191,-0.04580152671755725,-8.67658681640625,-0.22505495605468748,1.936909143066406,6.748091603053435,-19.17557251908397,-5.526717557251908,0.0
11.560000896453857,-10.615890161132812,2.7461493041992187,2.327164013671875,-0.5648854961832062,25.893129770992367,-1.6946564885496183,-8.889670764160156,-0.2442085693359375,2.2026655273437497,6.8396946564885495,-18.3206106870229,-6.137404580152672,0.0
11.570000648498535,-9.102754711914063,2.269703173828125,1.889025109863281,0.22900763358778625,23.236641221374047,0.2595419847328244,-9.318232861328125,-0.4213794921875,2.231395947265625,8.366412213740459,-18.625954198473284,-6.625954198473282,0.0
11.580000638961792,-10.204087475585936,1.6519991455078125,2.214636535644531,-1.099236641221374,24.18320610687023,-0.10687022900763359,-9.366116894531249,-0.2442085693359375,2.4588451049804685,7.267175572519084,-18.3206106870229,-7.374045801526718,0.0
11.590000629425049,-9.87608184814453,2.6479870361328124,2.817975354003906,-3.5572519083969465,22.396946564885496,-0.9312977099236641,-9.574412438964844,-1.3766659545898436,3.2728736694335936,6.213740458015267,-14.687022900763358,-6.732824427480916,0.0
11.600000619888306,-10.998962426757812,3.347093920898437,3.447650390625,-10.427480916030534,18.931297709923665,-1.3435114503816794,-8.975862023925782,-0.8379705810546875,3.038241906738281,8.65648854961832,-16.15267175572519,-7.404580152671755,0.0
11.610000371932983,-9.830592016601562,2.2098481323242187,2.70065947265625,-7.1603053435114505,14.061068702290076,1.1145038167938932,-8.355763793945313,-0.1580173095703125,2.786850732421875,10.381679389312977,-17.709923664122137,-8.778625954198473,0.0
11.62000060081482,-9.617508068847656,1.4221557861328125,2.27927998046875,-6.030534351145038,8.916030534351146,2.3206106870229006,-9.066841687011719,-1.6639701538085936,3.5721488769531247,17.923664122137403,-17.419847328244273,-7.3893129770992365,0.0
11.630000591278076,-10.134655627441406,2.559401574707031,2.770091320800781,-5.862595419847328,7.923664122137405,0.8244274809160306,-9.311050256347656,-1.8770541015625,3.679887951660156,26.15267175572519,-20.12213740458015,-8.045801526717558,0.0
11.640000581741333,-9.447519750976562,1.8626888916015625,1.8459294799804686,-5.129770992366412,2.8396946564885495,1.9236641221374047,-9.425971936035156,-0.39743747558593745,3.4356793823242184,30.9618320610687,-23.022900763358777,-9.923664122137405,0.0
11.65000057220459,-8.987833032226561,1.5442600708007812,1.6041151123046875,-0.5801526717557252,2.4122137404580153,3.2061068702290076,-8.690952026367187,0.24660277099609373,3.0358477050781247,25.51145038167939,-23.0381679389313,-12.778625954198473,0.0
11.660000562667847,-9.052476477050782,1.8052280517578123,1.5777788940429687,1.3435114503816794,3.9236641221374047,4.015267175572519,-8.796296899414061,0.07900865478515624,3.4261025756835934,17.81679389312977,-19.34351145038168,-11.801526717557252,0.0
11.670000791549683,-9.303867651367186,2.0566192260742184,1.4796166259765624,-0.061068702290076333,4.244274809160306,3.7557251908396947,-9.165003955078124,-0.3902548706054687,3.651157531738281,10.610687022900763,-15.099236641221374,-10.67175572519084,0.0
11.68000054359436,-9.313444458007812,1.908178723144531,1.3383587280273437,-2.16793893129771,3.7251908396946565,4.030534351145038,-8.212111694335936,0.737414111328125,3.1603461914062496,5.00763358778626,-15.618320610687023,-11.679389312977099,0.0
11.690000772476196,-9.402029919433593,1.668758557128906,1.3575123413085937,-3.5877862595419847,4.5038167938931295,3.6793893129770994,-9.18655177001953,-0.16041151123046873,3.593696691894531,3.267175572519084,-12.50381679389313,-9.587786259541986,0.0
11.700000762939453,-9.311050256347656,1.3048399047851562,1.1827356201171875,-3.4656488549618323,5.175572519083969,3.099236641221374,-9.102754711914063,-0.5003881469726562,3.883395092773437,4.549618320610687,-12.82442748091603,-9.312977099236642,0.0
11.71000075340271,-8.765172277832031,-0.4860229370117187,0.35194764404296874,2.6259541984732824,6.137404580152672,3.0076335877862594,-9.093177905273437,-0.36391865234375,3.9145197143554684,5.022900763358779,-13.114503816793894,-8.977099236641221,0.0
11.720000505447388,-8.2360537109375,-0.49799394531249996,0.3280056274414062,20.33587786259542,13.633587786259541,1.3129770992366412,-8.827421520996094,-0.3711012573242187,4.015076184082031,4.412213740458015,-12.916030534351146,-9.282442748091603,0.0
11.730000495910645,-10.105925207519531,1.6519991455078125,1.37906015625,21.541984732824428,19.84732824427481,-4.8396946564885495,-9.911994873046874,-1.37906015625,4.53940634765625,9.83206106870229,-13.17557251908397,-7.7251908396946565,0.0
11.740000486373901,-9.006986645507812,1.898601916503906,0.7781155395507812,20.229007633587788,16.35114503816794,-4.33587786259542,-10.134655627441406,-1.0558429321289062,4.460397692871093,16.53435114503817,-17.221374045801525,-8.992366412213741,0.0
11.750000476837158,-10.472238061523436,1.7980454467773437,1.4437036010742186,17.022900763358777,17.84732824427481,-4.534351145038168,-10.08677159423828,-0.7326257080078125,4.422090466308593,19.709923664122137,-20.396946564885496,-10.045801526717558,0.0
11.760000705718994,-8.84178673095703,1.7788918334960937,1.197100830078125,21.022900763358777,17.893129770992367,-3.9083969465648853,-9.074024291992187,-0.373495458984375,3.785232824707031,19.19083969465649,-24.35114503816794,-11.435114503816793,0.0
11.770000696182251,-9.763554370117188,2.7269956909179687,1.7741034301757812,16.900763358778626,20.65648854961832,-6.1679389312977095,-8.817844714355468,0.29448680419921874,3.797203833007812,15.038167938931299,-24.80916030534351,-11.419847328244275,0.0
11.780000925064087,-10.307038146972655,3.768473413085937,1.9728221679687499,9.297709923664122,19.52671755725191,-6.748091603053435,-8.233659509277343,0.6727706665039062,3.4620156005859375,4.854961832061068,-22.916030534351144,-10.977099236641221,0.0
11.790000677108765,-9.287108239746093,2.0302830078125,0.7829039428710937,5.526717557251908,14.854961832061068,-2.8091603053435112,-8.394071020507813,0.17238251953125,3.4715924072265625,-2.8396946564885495,-20.076335877862597,-8.687022900763358,0.0
11.8000009059906,-9.612719665527344,2.3319524169921872,1.22583125,2.7938931297709924,16.47328244274809,-3.145038167938931,-9.299079248046874,-1.0989385620117187,3.536235852050781,-2.3206106870229006,-19.34351145038168,-5.9541984732824424,0.0
11.810000658035278,-10.350133776855468,3.299209887695312,1.848323681640625,-2.4885496183206106,18.061068702290076,-5.465648854961832,-8.91840118408203,-1.7741034301757812,3.892971899414062,-1.9694656488549618,-18.30534351145038,-6.183206106870229,0.0
11.820000886917114,-9.090783703613281,1.889025109863281,1.0726023437499999,0.2595419847328244,17.083969465648856,-3.4656488549618323,-8.542511523437499,-2.4301146850585935,3.854664672851562,8.458015267175572,-20.015267175572518,-6.5038167938931295,0.0
11.830000638961792,-8.836998327636719,1.8914193115234375,1.13006318359375,1.8625954198473282,18.290076335877863,-4.442748091603053,-9.18655177001953,-2.070984436035156,3.7708676147460936,20.977099236641223,-22.549618320610687,-7.755725190839694,0.0
11.84000039100647,-8.671798413085938,1.5107412475585937,1.0941501586914062,2.5343511450381677,17.96946564885496,-5.175572519083969,-8.585607153320312,-1.7310078002929687,3.375824340820312,29.923664122137403,-26.213740458015266,-10.290076335877863,0.0
11.850000858306885,-8.801085302734375,1.4245499877929686,1.0295067138671874,0.9465648854961832,17.31297709923664,-5.206106870229007,-8.853757739257812,-0.8858546142578124,3.6343981201171873,34.82442748091603,-26.076335877862597,-11.83206106870229,0.0
11.860000371932983,-9.648632690429688,2.2840683837890623,1.7310078002929687,-4.458015267175573,17.755725190839694,-6.320610687022901,-8.257601525878906,0.08858546142578125,3.1459809814453124,30.80916030534351,-25.251908396946565,-13.679389312977099,0.0
11.87000060081482,-8.489839086914062,0.45489831542968745,1.0223241088867188,0.6412213740458015,16.045801526717558,-3.877862595419847,-7.6087728759765625,1.448492004394531,2.6288334228515624,21.51145038167939,-20.50381679389313,-14.061068702290076,0.0
11.880000829696655,-9.07163009033203,0.8810662109374999,1.458068811035156,2.564885496183206,18.045801526717558,-5.068702290076335,-8.221688500976562,0.9193734375,2.7533319091796873,16.50381679389313,-14.702290076335878,-11.007633587786259,0.0
11.890000820159912,-10.357316381835936,1.9536685546875,2.233790148925781,0.9007633587786259,18.0,-7.9541984732824424,-8.463502868652343,0.3591302490234375,2.9664158569335934,18.65648854961832,-12.320610687022901,-9.358778625954198,0.0
11.90000057220459,-9.981426721191406,1.1851298217773436,2.233790148925781,9.801526717557252,17.49618320610687,-8.076335877862595,-8.142679846191406,-0.15562310791015624,3.308786694335937,21.61832061068702,-11.221374045801527,-8.488549618320612,0.0
11.910000801086426,-9.789890588378906,1.6424223388671875,2.6575638427734374,16.198473282442748,17.389312977099237,-10.65648854961832,-9.138667736816405,-0.41419688720703124,4.007893579101562,25.862595419847327,-8.885496183206106,-8.091603053435115,0.0
11.920000553131104,-9.03332286376953,1.0510545288085937,2.1164742675781247,23.404580152671755,13.541984732824428,-11.251908396946565,-8.01818135986328,0.23702596435546874,3.1292215698242187,24.519083969465647,-9.786259541984732,-9.297709923664122,0.0
11.93000078201294,-8.980650427246093,1.0989385620117187,1.9728221679687499,25.923664122137403,9.801526717557252,-12.366412213740459,-7.52737001953125,0.32082302246093747,3.2824504760742186,18.946564885496183,-6.442748091603053,-9.251908396946565,0.0
11.940000534057617,-10.05564697265625,2.877830395507812,2.9640216552734375,21.587786259541986,6.595419847328245,-15.099236641221374,-7.903259680175781,0.16998831787109375,3.2441432495117186,15.664122137404581,-3.49618320610687,-8.091603053435115,0.0
11.950000762939453,-9.794678991699218,2.0638018310546875,2.398990063476562,23.51145038167939,1.3282442748091603,-13.511450381679388,-8.276755139160155,0.2059013427734375,3.071760729980469,14.259541984732824,-1.83206106870229,-7.083969465648855,0.0
11.96000051498413,-9.105148913574219,1.956062756347656,2.013523596191406,27.19083969465649,-0.22900763358778625,-12.122137404580153,-8.281543542480469,-0.5243301635742187,3.574543078613281,8.534351145038167,3.450381679389313,-6.259541984732825,0.0
11.970000505447388,-9.344569079589844,2.2864625854492187,1.8315642700195311,28.3206106870229,-0.9007633587786259,-11.48091603053435,-8.298302954101562,-0.6967126831054687,3.5601778686523438,12.259541984732824,4.763358778625954,-6.137404580152672,0.0
11.980000257492065,-9.459490759277344,2.6216508178710938,1.848323681640625,27.557251908396946,-2.0916030534351147,-11.725190839694656,-8.43956085205078,-0.8643067993164062,3.5697546752929687,16.198473282442748,5.770992366412214,-6.748091603053435,0.0
11.990000486373901,-9.473855969238281,2.7724855224609373,1.8746598999023436,26.717557251908396,-3.5419847328244276,-11.038167938931299,-8.51617530517578,-0.9265560424804687,3.6296097167968746,20.3206106870229,7.099236641221374,-7.8320610687022905,0.0
12.000000476837158,-9.277531433105468,2.6575638427734374,1.867477294921875,25.206106870229007,-4.931297709923665,-10.274809160305344,-8.468291271972657,-0.8834604125976562,3.6152445068359373,22.68702290076336,7.7251908396946565,-9.541984732824428,0.0
12.010000705718994,-9.411606726074218,2.427720483398437,1.9393033447265624,23.404580152671755,-5.679389312977099,-10.106870229007633,-8.597578161621094,-0.8307879760742187,3.6822821533203123,24.33587786259542,8.916030534351146,-10.351145038167939,0.0
12.020000696182251,-9.1554271484375,2.2864625854492187,2.068590234375,22.549618320610687,-6.519083969465649,-9.404580152671755,-8.616731774902343,-0.6368576416015624,3.782838623046875,25.587786259541986,9.32824427480916,-11.84732824427481,0.0
12.030000448226929,-9.188945971679686,2.2290017456054687,2.039859814453125,22.3206106870229,-7.206106870229007,-9.465648854961833,-8.489839086914062,-0.6679822631835937,3.825934252929687,27.34351145038168,9.572519083969466,-12.625954198473282,0.0
12.040000915527344,-9.236830004882812,2.3032219970703123,2.224213342285156,21.114503816793892,-7.755725190839694,-9.267175572519085,-8.391676818847655,-0.7278373046875,3.7995980346679685,28.65648854961832,9.755725190839694,-13.282442748091603,0.0
12.050000429153442,-9.435548742675781,2.1930887207031247,2.1739351074218747,19.633587786259543,-8.687022900763358,-9.633587786259541,-8.224082702636718,-0.6081272216796875,3.842693664550781,30.259541984732824,9.954198473282442,-14.259541984732824,0.0
12.060001134872437,-9.464279162597656,1.9895815795898437,2.157175695800781,19.374045801526716,-10.229007633587786,-10.030534351145038,-8.154650854492187,-0.6847416748046875,3.871424084472656,31.46564885496183,10.381679389312977,-14.732824427480915,0.0
12.070000648498535,-9.387664709472656,1.9129671264648436,2.3151930053710936,18.549618320610687,-11.038167938931299,-11.450381679389313,-8.05648858642578,-0.5147533569335937,3.8666356811523435,31.96946564885496,10.854961832061068,-16.061068702290076,0.0
12.0800621509552,-9.390058911132812,1.7932570434570312,2.118868469238281,18.68702290076336,-12.106870229007633,-12.51908396946565,-7.955932116699218,-0.6440402465820312,3.718195178222656,31.221374045801525,11.877862595419847,-17.14503816793893,0.0
12.09000039100647,-9.251195214843749,1.848323681640625,2.3535002319335936,19.282442748091604,-13.49618320610687,-13.206106870229007,-7.493851196289062,-0.05985504150390625,3.1172505615234374,28.80916030534351,13.022900763358779,-19.129770992366414,0.0
12.100000619888306,-9.41639512939453,1.9608511596679685,2.4660277099609376,19.206106870229007,-14.213740458015268,-13.801526717557252,-7.948749511718749,-0.3687070556640625,2.8562825805664063,23.893129770992367,19.557251908396946,-19.022900763358777,0.0
12.110186576843262,-9.236830004882812,1.8698714965820311,2.6240450195312497,18.412213740458014,-16.015267175572518,-13.572519083969466,-7.208941198730468,0.1149216796875,2.4157494750976563,21.61832061068702,22.748091603053435,-19.633587786259543,0.0
12.12000036239624,-9.220070593261719,1.5873557006835937,2.8227637573242186,19.709923664122137,-19.541984732824428,-13.34351145038168,-6.9360022094726554,-0.23702596435546874,2.3056161987304686,24.045801526717558,27.66412213740458,-19.221374045801525,0.0
12.130000591278076,-9.220070593261719,1.3862427612304686,3.2130186279296873,22.229007633587788,-22.244274809160306,-13.450381679389313,-7.216123803710937,0.5913678100585937,1.5873557006835937,26.48854961832061,31.66412213740458,-19.66412213740458,0.0
12.140000820159912,-9.244012609863281,1.4604630126953124,3.622427111816406,26.717557251908396,-25.66412213740458,-12.320610687022901,-7.070077502441406,1.7214309936523438,1.3024457031249999,23.083969465648856,38.29007633587786,-20.641221374045802,0.0
12.15000057220459,-9.612719665527344,1.5514426757812498,4.036623999023437,30.977099236641223,-29.893129770992367,-11.419847328244275,-8.080430603027343,1.0534487304687499,2.3223756103515623,17.00763358778626,48.412213740458014,-20.290076335877863,0.0
12.160000562667847,-10.611101757812499,1.6903063720703124,4.393360046386719,34.16793893129771,-35.74045801526717,-11.938931297709924,-10.251971508789062,0.02154781494140625,3.7158009765625,18.061068702290076,52.44274809160305,-20.076335877862597,0.0
12.170000791549683,-11.628637463378906,2.8706477905273435,5.061342309570312,34.030534351145036,-42.42748091603053,-13.694656488549619,-13.302184423828125,-1.1851298217773436,5.652710119628906,19.938931297709924,51.41984732824427,-25.587786259541986,0.0
12.18000078201294,-11.482591162109374,3.143586779785156,5.185840795898438,31.450381679389313,-54.16793893129771,-13.450381679389313,-14.602235925292968,-0.9983820922851562,7.0102224609374995,12.274809160305344,45.23664122137404,-34.916030534351144,0.0
12.190000772476196,-12.220005273437499,2.825157958984375,5.2433016357421875,31.541984732824428,-68.41221374045801,-11.633587786259541,-16.11297717285156,-2.2194249389648437,8.508992700195313,6.931297709923665,40.30534351145038,-34.717557251908396,0.0
12.200000524520874,-13.318943835449218,2.3582886352539063,6.177040283203125,32.54961832061068,-78.87022900763358,-11.297709923664122,-14.889540124511718,-1.5251064575195312,7.113173132324218,12.076335877862595,27.81679389312977,-28.12213740458015,0.0
12.21000051498413,-12.76827745361328,1.695094775390625,6.48589229736328,39.32824427480916,-93.64885496183206,-9.282442748091603,-10.694898815917968,0.9648632690429687,3.3686417358398435,12.061068702290076,16.519083969465647,-19.282442748091604,0.0
12.220000505447388,-12.58392392578125,1.0127473022460938,6.629544396972656,49.099236641221374,-104.8854961832061,-6.549618320610687,-8.13310303955078,3.143586779785156,0.5746083984375,3.267175572519084,13.633587786259541,-13.435114503816793,0.0
12.230000257492065,-12.897564343261719,1.47482822265625,7.307103466796875,53.541984732824424,-115.7557251908397,-4.519083969465649,-6.835445739746094,1.9991583862304687,-0.2753331909179687,-15.725190839694656,18.3206106870229,-6.641221374045801,0.0
12.240000247955322,-13.182474340820312,1.1611878051757811,7.505822204589843,53.43511450381679,-128.50381679389312,-0.2595419847328244,-6.825868933105468,0.39264907226562495,-0.6631938598632812,-25.938931297709924,23.404580152671755,-3.5114503816793894,0.0
12.250000476837158,-13.098677282714842,0.6631938598632812,6.212953308105468,44.091603053435115,-143.40458015267177,3.6030534351145036,-8.334215979003906,-2.446874096679687,0.36152445068359373,-24.748091603053435,28.931297709923665,-1.3129770992366412,0.0
12.260001182556152,-13.113042492675781,-0.5602431884765625,4.204218115234375,34.091603053435115,-153.38931297709922,3.7557251908396947,-10.01733974609375,-4.431667272949219,1.2904746948242187,-8.687022900763358,32.16793893129771,-2.030534351145038,0.0
12.270000696182251,-12.58392392578125,-1.2713210815429687,2.703053674316406,27.603053435114504,-159.9236641221374,3.267175572519084,-10.084377392578125,-5.432443566894531,1.0702081420898437,8.977099236641221,30.412213740458014,-6.3816793893129775,0.0
12.280000925064087,-12.090718383789062,-1.350329736328125,1.697488977050781,27.87786259541985,-160.01526717557252,2.9770992366412212,-10.328585961914062,-5.195417602539062,1.4341267944335936,24.595419847328245,30.625954198473284,-10.061068702290076,0.0
12.290000677108765,-11.863269226074218,-1.7932570434570312,-0.20829554443359374,31.51145038167939,-157.74045801526717,5.358778625954199,-10.47702646484375,-3.67749375,1.0199299072265624,37.847328244274806,29.17557251908397,-12.091603053435115,0.0
12.30000114440918,-11.489773767089844,-1.3646949462890625,-0.8451531860351562,37.786259541984734,-147.23664122137404,6.702290076335878,-10.407594616699217,-2.990357873535156,1.656787548828125,37.83206106870229,32.38167938931298,-11.267175572519085,0.0
12.310000658035278,-9.753977563476562,-0.5626373901367188,-1.6112977172851561,43.23664122137404,-133.4351145038168,8.427480916030534,-9.337386474609374,-2.176329309082031,1.599326708984375,33.12977099236641,32.274809160305345,-10.13740458015267,0.0
12.320037126541138,-9.5384994140625,-0.105344873046875,-1.3670891479492187,44.13740458015267,-114.51908396946565,8.335877862595419,-10.20169327392578,-2.114080065917969,1.9632453613281249,28.610687022900763,36.16793893129771,-6.656488549618321,0.0
12.330000877380371,-8.942343200683593,0.55545478515625,-1.005564697265625,45.083969465648856,-97.31297709923665,9.801526717557252,-9.344569079589844,-2.7533319091796873,1.714248388671875,22.045801526717558,36.76335877862596,-4.6106870229007635,0.0
12.340000629425049,-8.781931689453124,1.4604630126953124,0.5602431884765625,44.38167938931298,-77.87786259541984,11.206106870229007,-9.560047229003906,-3.5793314819335937,1.8722656982421875,21.31297709923664,37.725190839694655,-2.4427480916030535,0.0
12.350000858306885,-8.312668164062499,0.7398083129882812,1.0941501586914062,42.97709923664122,-58.412213740458014,11.526717557251908,-9.394847314453125,-3.5984850952148437,1.879448303222656,27.61832061068702,34.99236641221374,-3.404580152671756,0.0
12.360000610351562,-7.9104422851562495,1.235408056640625,1.0199299072265624,36.74809160305343,-43.89312977099237,9.587786259541986,-9.358934289550781,-3.2154128295898436,1.9201497314453124,32.50381679389313,33.6793893129771,-5.511450381679389,0.0
12.37000036239624,-8.157045056152343,1.5394716674804687,1.6136919189453125,24.38167938931298,-31.64885496183206,6.8396946564885495,-8.985438830566405,-2.0829554443359375,1.7525556152343749,30.83969465648855,33.16030534351145,-7.511450381679389,0.0
12.380000352859497,-8.176198669433592,2.446874096679687,1.6256629272460936,8.335877862595419,-24.625954198473284,4.961832061068702,-8.681375219726561,-0.7206546997070312,1.3431471313476562,23.129770992366414,33.221374045801525,-8.091603053435115,0.0
12.390000581741333,-8.394071020507813,3.1771056030273437,2.1068974609374997,-8.900763358778626,-19.66412213740458,4.67175572519084,-9.660603698730467,-1.1133037719726562,1.9105729248046874,13.557251908396946,38.045801526717554,-3.404580152671756,0.0
12.40000033378601,-7.663839514160156,2.6910826660156246,2.0829554443359375,-20.82442748091603,-15.404580152671755,7.603053435114504,-9.246406811523437,-0.7852981445312499,1.7788918334960937,6.809160305343512,36.33587786259542,-2.030534351145038,0.0
12.410000324249268,-7.204152795410156,2.0183119995117185,2.1811177124023438,-30.48854961832061,-11.221374045801527,8.67175572519084,-8.808267907714843,0.105344873046875,1.2641384765625,0.6564885496183206,35.725190839694655,-0.5954198473282443,0.0
12.420000314712524,-6.256048937988281,1.5801730957031248,1.7812860351562498,-38.030534351145036,-8.335877862595419,7.404580152671755,-9.145850341796875,-0.603338818359375,1.9584569580078124,-5.343511450381679,38.76335877862596,3.236641221374046,0.0
12.43000054359436,-5.312733483886719,1.2401964599609374,1.3479355346679687,-45.12977099236641,-5.083969465648855,5.6183206106870225,-9.916783276367187,-0.3591302490234375,2.051830822753906,-7.816793893129771,40.045801526717554,5.541984732824427,0.0
12.440000534057617,-4.005499377441406,0.5482721801757812,0.5506663818359374,-49.9236641221374,0.2748091603053435,4.229007633587786,-8.889670764160156,-0.7134720947265625,1.5466542724609373,-13.679389312977099,38.42748091603053,6.717557251908397,0.0
12.450000762939453,-5.236119030761718,0.97683427734375,1.0941501586914062,-55.23664122137404,9.923664122137405,0.3053435114503817,-9.0021982421875,-0.7158662963867187,2.0302830078125,-20.610687022900763,40.56488549618321,8.534351145038167,0.0
12.46000051498413,-4.113238452148437,0.34237083740234375,0.4860229370117187,-48.16793893129771,21.221374045801525,0.7786259541984732,-9.813832604980469,-1.618480322265625,2.2577321655273437,-21.053435114503817,42.38167938931298,11.221374045801527,0.0
12.470000267028809,-5.815515832519531,2.952050646972656,1.8243816650390623,-60.94656488549618,30.396946564885496,-2.9770992366412212,-10.781090075683593,-3.399766357421875,2.9089550170898435,-11.648854961832061,39.16030534351145,12.50381679389313,0.0
12.480000495910645,-5.702988354492187,2.722207287597656,2.0302830078125,-74.01526717557252,34.229007633587784,-0.8702290076335878,-9.82580361328125,-2.360682836914062,2.398990063476562,-6.152671755725191,31.404580152671755,9.236641221374045,0.0
12.490000486373901,-5.499481213378906,1.7908628417968748,2.6144682128906247,-75.55725190839695,41.969465648854964,4.137404580152672,-10.002974536132811,-1.7549498168945312,2.3487118286132813,-3.984732824427481,27.389312977099237,7.908396946564886,0.0
12.500000476837158,-4.857835168457031,-0.5267243652343749,3.0214824951171875,-69.45038167938931,49.11450381679389,9.557251908396946,-9.639055883789062,-0.622492431640625,2.39420166015625,-8.82442748091603,24.442748091603054,6.900763358778626,0.0
12.510000705718994,-3.6463691284179687,-2.138022082519531,3.5625720703124997,-50.30534351145038,56.79389312977099,12.625954198473282,-9.744400756835937,-0.40940848388671874,2.6384102294921874,-15.603053435114504,24.061068702290076,8.106870229007633,0.0
12.520000696182251,-4.726154077148437,-2.1978771240234374,5.4779333984375,-31.374045801526716,64.73282442748092,11.84732824427481,-9.947907897949218,-0.7900865478515624,2.925714428710937,-19.84732824427481,23.282442748091604,9.938931297709924,0.0
12.530000686645508,-6.414066247558593,-1.8650830932617186,7.429207751464843,-15.679389312977099,68.7175572519084,11.145038167938932,-10.091559997558592,-1.2042834350585936,3.0047230834960934,-20.931297709923665,22.03053435114504,11.404580152671755,0.0
12.540000915527344,-7.869740856933594,-0.9265560424804687,9.196128576660156,-4.061068702290076,70.35114503816794,10.549618320610687,-9.950302099609374,-1.5251064575195312,3.124433166503906,-19.66412213740458,20.47328244274809,11.98473282442748,0.0
12.550000667572021,-8.616731774902343,0.28490999755859375,10.005368737792969,3.3740458015267176,64.54961832061069,10.488549618320612,-9.471461767578125,-1.24498486328125,2.81558115234375,-19.419847328244273,18.99236641221374,12.030534351145038,0.0
12.560000896453857,-9.255983618164063,1.9728221679687499,10.417171423339843,7.969465648854962,55.6793893129771,12.458015267175572,-8.963891015625,-1.0510545288085937,3.0837317382812497,-25.66412213740458,21.541984732824428,12.717557251908397,0.0
12.570000648498535,-9.706093530273437,2.8514941772460936,10.280701928710936,6.99236641221374,43.32824427480916,14.977099236641221,-9.17458076171875,-1.1324573852539062,2.882618798828125,-29.419847328244273,22.65648854961832,16.137404580152673,0.0
12.580000638961792,-11.463437548828125,4.5585599609375,11.097124694824219,1.633587786259542,31.908396946564885,19.16030534351145,-8.908824377441405,-1.5729904907226562,2.980781066894531,-33.89312977099237,23.419847328244273,18.83969465648855,0.0
12.590000629425049,-10.273519323730468,4.8889597900390624,9.5384994140625,0.3053435114503817,16.641221374045802,28.396946564885496,-8.765172277832031,-2.300827795410156,2.7724855224609373,-37.786259541984734,23.84732824427481,20.30534351145038,0.0
12.600000619888306,-10.716446630859375,5.2816088623046875,7.7787611938476555,4.076335877862595,5.8320610687022905,42.88549618320611,-9.279925634765624,-3.2225954345703123,2.959233251953125,-35.908396946564885,25.603053435114504,22.38167938931298,0.0
12.610000848770142,-10.026916552734374,4.891353991699218,4.910507604980468,10.82442748091603,5.938931297709924,56.13740458015267,-10.096348400878906,-4.407725256347656,3.201047619628906,-23.435114503816795,22.0,23.984732824427482,0.0
12.62000060081482,-8.549694128417968,2.070984436035156,0.9648632690429687,6.580152671755725,7.480916030534351,59.43511450381679,-9.641450085449218,-3.768473413085937,2.4684219116210935,-11.938931297709924,15.038167938931299,21.236641221374047,0.0
12.630000829696655,-7.996633544921875,-2.319981408691406,-0.622492431640625,-16.16793893129771,12.13740458015267,46.38167938931298,-10.184933862304687,-1.9871873779296874,2.916137622070312,-8.51908396946565,13.34351145038168,19.480916030534353,0.0
12.640000581741333,-9.868899243164062,-4.690241052246093,2.2361843505859373,-38.396946564885496,14.290076335877863,24.53435114503817,-8.729259252929687,-0.45489831542968745,2.1164742675781247,-18.091603053435115,8.778625954198473,17.251908396946565,0.0
12.65000033378601,-12.114660400390624,-3.3303345092773435,5.549759448242187,-46.51908396946565,15.297709923664122,8.610687022900763,-9.303867651367186,0.689530078125,2.583343591308594,-29.893129770992367,8.51908396946565,18.732824427480917,0.0
12.660000562667847,-12.727576025390624,-0.6392518432617187,4.972756848144531,-38.94656488549618,17.31297709923664,5.145038167938932,-9.85692823486328,0.0526724365234375,2.8012159423828122,-38.35114503816794,5.145038167938932,21.267175572519083,0.0
12.670000314712524,-10.560823522949217,-0.8451531860351562,3.0980969482421874,-19.14503816793893,25.358778625954198,8.625954198473282,-10.603919152832031,-1.2330138549804688,3.797203833007812,-37.19083969465649,-1.3282442748091603,23.66412213740458,0.0
12.68000054359436,-9.90241806640625,-0.05985504150390625,2.5641899780273434,-9.526717557251908,33.14503816793893,4.732824427480916,-10.568006127929687,-0.8762778076171874,3.1938650146484373,-33.12977099236641,-14.198473282442748,22.03053435114504,0.0
12.690000772476196,-9.981426721191406,1.2282254516601563,1.668758557128906,-6.6106870229007635,37.25190839694657,-1.083969465648855,-10.625466967773438,0.5003881469726562,2.8036101440429686,-37.541984732824424,-24.0,20.931297709923665,0.0
12.700000524520874,-8.327033374023436,2.3965958618164063,-0.0430956298828125,-6.3816793893129775,39.786259541984734,-2.183206106870229,-11.054029064941405,0.8188169677734375,2.693476867675781,-47.16030534351145,-29.221374045801525,22.16793893129771,0.0
12.71000051498413,-8.166621862792969,3.6248213134765623,-0.19393033447265623,-13.435114503816793,44.778625954198475,-1.4961832061068703,-11.456254943847656,1.2210428466796874,2.4061726684570313,-58.29007633587786,-35.038167938931295,24.16793893129771,0.0
12.720000267028809,-8.180987072753906,4.120421057128906,-0.09576806640624999,-18.137404580152673,48.80916030534351,2.33587786259542,-11.793837377929687,0.9361328491210937,2.39420166015625,-66.53435114503817,-39.25190839694657,26.137404580152673,0.0
12.730000495910645,-7.474697583007812,4.862623571777344,0.5602431884765625,-19.984732824427482,52.44274809160305,7.358778625954199,-13.491326354980467,-0.3399766357421875,3.0430303100585934,-63.20610687022901,-42.916030534351144,28.610687022900763,0.0
12.740000486373901,-7.876923461914062,5.05655390625,1.4413093994140624,-27.068702290076335,53.61832061068702,10.717557251908397,-13.072341064453123,-0.5578489868164063,2.4133552734375,-58.47328244274809,-53.14503816793893,25.6793893129771,0.0
12.750000476837158,-9.567229833984374,4.666299035644531,2.269703173828125,-35.86259541984733,53.6793893129771,13.374045801526718,-12.701239807128905,0.25139117431640623,2.059013427734375,-59.37404580152672,-58.87022900763359,21.557251908396946,0.0
12.760000705718994,-10.168174450683592,3.77326181640625,2.5809493896484375,-45.20610687022901,49.587786259541986,16.35114503816794,-13.038822241210937,-0.17238251953125,2.418143676757812,-60.85496183206107,-61.12977099236641,19.236641221374047,0.0
12.770000457763672,-9.943119494628906,3.124433166503906,2.655169641113281,-51.969465648854964,45.603053435114504,16.396946564885496,-13.383587280273437,-0.4381389038085937,2.2170307373046874,-52.458015267175576,-64.29007633587786,17.908396946564885,0.0
12.780001163482666,-10.115502014160155,2.779668127441406,2.8514941772460936,-56.29007633587786,43.61832061068702,14.290076335877863,-11.872846032714843,0.3232172241210937,1.4053963745117186,-50.62595419847328,-70.53435114503817,12.946564885496183,0.0
12.790000677108765,-10.690110412597656,2.118868469238281,2.8562825805664063,-60.99236641221374,40.396946564885496,11.755725190839694,-10.551246716308594,1.1444283935546875,0.9504980590820312,-56.06106870229008,-69.0381679389313,10.488549618320612,0.0
12.8000009059906,-9.79946739501953,0.34237083740234375,2.0254946044921875,-60.458015267175576,35.9236641221374,11.34351145038168,-10.781090075683593,0.3280056274414062,1.43652099609375,-53.38931297709924,-65.05343511450381,12.290076335877863,0.0
12.810000658035278,-8.726865051269531,-0.6919242797851562,1.9656395629882812,-46.47328244274809,38.38167938931298,9.618320610687023,-9.871293444824218,0.9552864624023437,0.7924807495117187,-44.93129770992366,-63.70992366412214,12.83969465648855,0.0
12.820000886917114,-8.997409838867187,-0.833182177734375,2.1404162841796874,-28.137404580152673,42.534351145038165,6.106870229007634,-8.808267907714843,1.5394716674804687,0.6536170532226562,-45.954198473282446,-61.02290076335878,9.84732824427481,0.0
12.830000638961792,-9.277531433105468,0.3687070556640625,2.2481553588867187,-15.572519083969466,44.229007633587784,4.458015267175573,-9.006986645507812,0.679953271484375,1.0390835205078124,-47.9236641221374,-49.7557251908397,10.259541984732824,0.0
12.840000629425049,-9.926360083007811,1.3311761230468748,2.4205378784179685,-8.01526717557252,45.06870229007634,4.3816793893129775,-8.8489693359375,-0.6296750366210937,0.7948749511718749,-40.25954198473283,-44.01526717557252,10.65648854961832,0.0
12.850000619888306,-9.986215124511718,2.059013427734375,2.482787121582031,-5.770992366412214,42.152671755725194,3.5267175572519083,-8.05648858642578,-0.9361328491210937,0.277727392578125,-32.80916030534351,-41.25190839694657,7.526717557251908,0.0
12.860000610351562,-9.624690673828125,1.5897499023437498,2.250549560546875,-2.351145038167939,38.80916030534351,4.183206106870229,-9.270348828125,-0.679953271484375,0.9504980590820312,-26.65648854961832,-33.86259541984733,5.343511450381679,0.0
12.87000036239624,-9.330203869628905,1.7262193969726563,2.578555187988281,-1.9694656488549618,35.7557251908397,2.8702290076335877,-8.734047656249999,-0.4381389038085937,0.373495458984375,-26.229007633587788,-29.236641221374047,2.198473282442748,0.0
12.880000352859497,-9.81862100830078,1.4006079711914061,2.6791116577148437,-0.15267175572519084,32.70229007633588,1.2213740458015268,-8.91840118408203,-1.0965443603515623,0.9528922607421875,-25.053435114503817,-22.061068702290076,1.984732824427481,0.0
12.890000343322754,-9.983820922851562,1.6017209106445311,2.770091320800781,0.9618320610687023,30.213740458015266,-0.32061068702290074,-8.420407238769531,-0.35194764404296874,0.277727392578125,-17.51145038167939,-23.557251908396946,0.2595419847328244,0.0
12.90000033378601,-9.821015209960937,2.4061726684570313,2.5546131713867184,0.9312977099236641,27.954198473282442,-0.9465648854961832,-8.607154968261717,-0.6392518432617187,1.0941501586914062,-19.221374045801525,-17.358778625954198,-0.549618320610687,0.0
12.910001039505005,-9.121908325195312,2.327164013671875,1.9129671264648436,1.8015267175572518,24.519083969465647,0.8396946564885496,-8.602366564941406,-0.8068459594726562,1.1156979736328125,-16.244274809160306,-15.068702290076336,-1.1145038167938932,0.0
12.920000553131104,-9.80665,1.9704279663085937,2.2290017456054687,1.0534351145038168,24.885496183206108,1.1145038167938932,-8.633491186523438,-1.0582371337890624,1.4149731811523436,-13.038167938931299,-13.801526717557252,-2.2748091603053435,0.0
12.93000078201294,-9.550470422363281,2.221819140625,2.4157494750976563,2.519083969465649,24.580152671755727,0.9770992366412213,-8.70771143798828,-1.1923124267578125,1.6927005737304686,-8.259541984732824,-13.450381679389313,-3.9389312977099236,0.0
12.940000534057617,-9.172186560058593,2.2960393920898436,2.310404602050781,3.648854961832061,23.480916030534353,1.2213740458015268,-9.270348828125,-2.5067291381835934,2.530671154785156,0.8091603053435115,-12.793893129770993,-4.152671755725191,0.0
12.950001001358032,-8.611943371582031,1.9536685546875,1.9033903198242186,3.3435114503816794,21.267175572519083,1.8931297709923665,-9.306261853027344,-2.1356278808593747,2.7198130859375,9.129770992366412,-15.572519083969466,-7.190839694656488,0.0
12.96000051498413,-10.587159741210938,1.9536685546875,2.288856787109375,0.32061068702290074,21.87786259541985,1.618320610687023,-9.311050256347656,-1.5634136840820312,2.7533319091796873,13.221374045801527,-17.236641221374047,-10.15267175572519,0.0
12.970000267028809,-9.87608184814453,2.3223756103515623,2.4875755249023435,1.7099236641221374,20.85496183206107,1.7557251908396947,-9.947907897949218,-1.6639701538085936,3.1316157714843746,14.80916030534351,-15.526717557251908,-10.885496183206106,0.0
12.980000495910645,-10.374075793457031,1.5682020874023437,2.24097275390625,0.9007633587786259,19.46564885496183,1.465648854961832,-9.3852705078125,-1.4341267944335936,2.4013842651367185,21.557251908396946,-20.18320610687023,-12.82442748091603,0.0
12.990000486373901,-9.016563452148437,1.5418658691406248,1.4149731811523436,2.717557251908397,15.877862595419847,2.8396946564885495,-9.490615380859374,-1.0749965454101562,2.3918074584960936,28.396946564885496,-23.374045801526716,-14.320610687022901,0.0
13.000000238418579,-9.303867651367186,2.3032219970703123,1.89620771484375,4.8396946564885495,16.748091603053435,2.3969465648854964,-9.069235888671875,-0.39983167724609375,2.5761609863281247,28.35114503816794,-24.625954198473284,-16.366412213740457,0.0
13.010000705718994,-9.507374792480467,2.3295582153320313,1.89620771484375,5.603053435114504,18.091603053435115,1.5877862595419847,-8.736441857910156,0.296881005859375,2.5546131713867184,22.702290076335878,-22.65648854961832,-17.129770992366414,0.0
13.020000696182251,-10.029310754394531,2.4205378784179685,1.9752163696289062,2.6564885496183206,17.282442748091604,0.16793893129770993,-9.090783703613281,0.5027823486328125,3.0885201416015624,17.34351145038168,-18.580152671755727,-15.923664122137405,0.0
13.030000686645508,-9.710881933593749,2.0278888061523435,1.5705962890624998,0.9923664122137404,15.679389312977099,-0.07633587786259542,-8.810662109374999,1.1037269653320312,2.8802245971679685,12.030534351145038,-17.34351145038168,-14.931297709923664,0.0
13.040000915527344,-8.542511523437499,2.1212626708984375,1.0845733520507812,0.015267175572519083,13.709923664122137,0.5343511450381679,-9.516951599121093,0.4477157104492187,3.6391865234374996,8.80916030534351,-14.106870229007633,-12.396946564885496,0.0
13.050000667572021,-9.382876306152344,2.3918074584960936,1.4700398193359374,-3.618320610687023,14.473282442748092,0.33587786259541985,-9.361328491210937,0.24660277099609373,3.907337109375,8.748091603053435,-14.900763358778626,-11.893129770992367,0.0
13.060001134872437,-10.139444030761718,1.3646949462890625,1.6448165405273436,-1.2061068702290076,15.633587786259541,0.8244274809160306,-9.258377819824219,0.1388636962890625,3.9695863525390624,8.091603053435115,-16.15267175572519,-11.099236641221374,0.0
13.070000648498535,-8.528146313476562,0.9864110839843749,0.9528922607421875,6.9465648854961835,14.793893129770993,2.213740458015267,-9.397241516113281,-0.9169792358398436,4.410119458007812,10.106870229007633,-16.870229007633586,-10.01526717557252,0.0
13.080000638961792,-8.971073620605468,1.1444283935546875,1.0295067138671874,8.687022900763358,15.816793893129772,0.7175572519083969,-8.729259252929687,-0.35673604736328124,3.8690298828125,13.358778625954198,-22.48854961832061,-11.282442748091603,0.0
13.09000039100647,-10.675745202636719,1.9488801513671874,1.7908628417968748,5.511450381679389,17.34351145038168,-1.4961832061068703,-9.41639512939453,-0.928950244140625,4.285620971679688,11.618320610687023,-22.061068702290076,-10.854961832061068,0.0
13.100000619888306,-9.689334118652344,1.93451494140625,1.68551796875,5.206106870229007,17.14503816793893,-1.0076335877862594,-9.10993731689453,0.07900865478515624,3.459621398925781,11.435114503816793,-25.83206106870229,-12.244274809160306,0.0
13.110000610351562,-9.356540087890625,1.2617442749023438,1.4125789794921875,6.931297709923665,16.610687022900763,-0.8244274809160306,-9.756371765136718,-0.09576806640624999,3.77326181640625,11.86259541984733,-27.419847328244273,-11.526717557251908,0.0
13.12000036239624,-9.425971936035156,2.042254016113281,2.123656872558594,5.9541984732824424,18.30534351145038,-3.053435114503817,-9.792284790039062,0.1005564697265625,3.718195178222656,11.419847328244275,-29.893129770992367,-12.030534351145038,0.0
13.130000591278076,-10.359710583496094,2.039859814453125,1.7812860351562498,0.32061068702290074,14.412213740458014,-3.66412213740458,-9.358934289550781,0.24660277099609373,3.775656018066406,4.99236641221374,-30.16793893129771,-12.625954198473282,0.0
13.140000581741333,-10.405200415039062,1.8459294799804686,1.867477294921875,1.083969465648855,13.526717557251908,-3.0839694656488548,-9.172186560058593,0.8212111694335937,3.4093431640625,-4.1679389312977095,-28.259541984732824,-11.404580152671755,0.0
13.15000057220459,-10.17056865234375,1.5586252807617187,1.7884686401367187,2.183206106870229,12.305343511450381,-2.4427480916030535,-8.935160595703124,0.2657563842773437,3.574543078613281,-13.404580152671755,-24.916030534351144,-9.557251908396946,0.0
13.160000562667847,-8.726865051269531,1.5514426757812498,1.4053963745117186,9.068702290076336,11.801526717557252,-2.183206106870229,-9.701305126953125,-0.8762778076171874,4.060566015625,-9.618320610687023,-24.198473282442748,-7.083969465648855,0.0
13.170000791549683,-9.988609326171874,1.9584569580078124,1.89620771484375,10.198473282442748,14.793893129770993,-4.809160305343512,-9.181763366699219,-0.9193734375,4.122815258789062,-8.335877862595419,-25.541984732824428,-8.061068702290076,0.0
13.18000054359436,-8.973467822265624,2.446874096679687,1.675941162109375,11.801526717557252,12.931297709923664,-3.6030534351145036,-8.427589843749999,-0.45489831542968745,3.4763808105468748,-4.3816793893129775,-28.106870229007633,-9.633587786259541,0.0
13.190000772476196,-8.980650427246093,2.2768857788085937,0.9696516723632812,9.679389312977099,10.961832061068701,-2.2290076335877864,-9.564835632324218,-1.2808978881835937,3.9935283691406247,-1.8625954198473282,-24.717557251908396,-8.213740458015268,0.0
13.200000524520874,-10.414777221679687,2.9568390502929685,2.0973206542968748,5.022900763358779,13.282442748091603,-3.450381679389313,-10.04846436767578,-1.695094775390625,4.280832568359375,4.458015267175573,-24.885496183206108,-7.923664122137405,0.0
13.210000991821289,-10.414777221679687,2.7629087158203123,1.7094599853515624,1.4961832061068703,10.442748091603054,-2.1068702290076335,-8.664615808105468,-1.1037269653320312,3.4859576171874997,8.870229007633588,-29.404580152671755,-10.290076335877863,0.0
13.220000267028809,-10.158597644042969,2.422932080078125,1.3766659545898436,-2.7938931297709924,8.122137404580153,-0.6106870229007634,-8.817844714355468,-0.7876923461914062,3.383006945800781,14.351145038167939,-30.290076335877863,-11.16030534351145,0.0
13.230000257492065,-9.866505041503906,2.0159177978515626,1.4532804077148436,-1.7557251908396947,9.450381679389313,-0.549618320610687,-8.750807067871094,-0.28490999755859375,3.277662072753906,16.778625954198475,-30.564885496183205,-11.557251908396946,0.0
13.240000486373901,-9.830592016601562,2.5617957763671875,1.7501614135742187,-2.1374045801526718,11.572519083969466,-2.1068702290076335,-9.126696728515624,-0.14604630126953125,3.5577836669921874,16.16793893129771,-28.793893129770993,-11.236641221374045,0.0
13.250000476837158,-8.470685473632813,0.8283937744140625,0.45489831542968745,-0.3816793893129771,9.068702290076336,-0.0916030534351145,-7.548917834472656,0.354341845703125,2.906560815429687,9.694656488549619,-27.46564885496183,-12.274809160305344,0.0
13.260000705718994,-8.145074047851562,1.0103531005859374,0.2561795776367187,4.534351145038168,11.709923664122137,-0.7175572519083969,-7.714117749023437,0.49320554199218747,2.825157958984375,6.534351145038168,-23.755725190839694,-11.297709923664122,0.0
13.270000457763672,-8.183381274414062,1.0869675537109373,0.06703764648437499,3.5572519083969465,12.320610687022901,-1.633587786259542,-8.377311608886718,-0.2920926025390625,3.564966271972656,0.8396946564885496,-16.702290076335878,-9.022900763358779,0.0
13.280000925064087,-8.511386901855468,1.6328455322265625,0.6655880615234374,5.969465648854962,16.3206106870229,-3.3587786259541983,-8.200140686035155,-0.689530078125,3.5913024902343746,2.946564885496183,-14.80916030534351,-8.229007633587786,0.0
13.290000677108765,-9.433154541015625,1.1731588134765625,0.8212111694335937,8.67175572519084,18.106870229007633,-5.297709923664122,-8.219294299316406,-0.7062894897460937,3.5625720703124997,5.358778625954199,-13.572519083969466,-8.106870229007633,0.0
13.3000009059906,-9.4618849609375,1.4053963745117186,1.2306196533203124,11.526717557251908,20.580152671755727,-7.00763358778626,-8.176198669433592,-0.7661445312499999,3.584119885253906,7.541984732824427,-11.511450381679388,-9.038167938931299,0.0
13.3100004196167,-9.045293872070312,2.2673089721679687,1.0773907470703123,12.778625954198473,19.19083969465649,-7.770992366412214,-8.250418920898436,-0.9097966308593749,3.5721488769531247,10.381679389312977,-9.099236641221374,-9.374045801526718,0.0
13.320000886917114,-10.730811840820312,2.4013842651367185,1.4149731811523436,7.190839694656488,17.862595419847327,-9.282442748091603,-8.597578161621094,-0.7517793212890624,3.2417490478515623,17.297709923664122,-9.32824427480916,-9.49618320610687,0.0
13.330000638961792,-9.734823950195311,1.838746875,1.0654197387695312,10.16793893129771,15.664122137404581,-7.801526717557252,-8.336610180664062,-0.36152445068359373,2.9568390502929685,18.870229007633586,-9.083969465648854,-10.625954198473282,0.0
13.340000629425049,-8.717288244628906,1.3024457031249999,0.8690952026367187,12.534351145038167,14.0,-7.099236641221374,-7.690175732421874,-0.3495534423828125,2.7916391357421872,19.893129770992367,-9.206106870229007,-11.099236641221374,0.0
13.350000619888306,-8.738836059570312,1.848323681640625,1.3383587280273437,13.312977099236642,14.106870229007633,-9.404580152671755,-9.342174877929686,-1.0366893188476562,3.81156904296875,23.068702290076335,-4.595419847328245,-9.755725190839694,0.0
13.360000848770142,-9.797073193359374,3.057395520019531,1.9895815795898437,6.229007633587786,11.618320610687023,-11.923664122137405,-7.716511950683593,-0.17477672119140625,2.9376854370117185,22.27480916030534,-6.2748091603053435,-12.625954198473282,0.0
13.37000060081482,-9.363722692871093,2.262520568847656,1.9488801513671874,5.557251908396947,8.335877862595419,-10.992366412213741,-8.027758166503906,-0.23223756103515625,3.181894006347656,20.015267175572518,-2.1374045801526718,-12.335877862595419,0.0
13.380000352859497,-9.107543115234375,1.649604943847656,1.7764976318359373,10.030534351145038,7.786259541984733,-10.396946564885496,-7.551312036132812,0.5722141967773438,2.913743420410156,11.633587786259541,2.0610687022900764,-12.793893129770993,0.0
13.390000343322754,-8.518569506835936,0.9313444458007812,1.47482822265625,18.03053435114504,7.66412213740458,-10.427480916030534,-8.25520732421875,-0.6584054565429687,3.303998291015625,9.358778625954198,8.381679389312977,-10.13740458015267,0.0
13.40000057220459,-9.730035546875,3.0071172851562498,2.4971523315429685,14.50381679389313,9.099236641221374,-15.129770992366412,-8.556876733398436,-1.0199299072265624,3.584119885253906,12.931297709923664,9.603053435114504,-10.183206106870228,0.0
13.410000801086426,-9.641450085449218,2.8730419921875,2.365471240234375,9.83206106870229,3.877862595419847,-15.129770992366412,-8.343792785644531,-0.9193734375,3.450044592285156,17.328244274809162,10.366412213740459,-11.603053435114504,0.0
13.420000314712524,-8.825027319335938,1.3910311645507811,1.9033903198242186,16.763358778625953,0.8091603053435115,-12.549618320610687,-8.058882788085937,-0.9337386474609375,3.287238879394531,19.603053435114504,12.65648854961832,-13.435114503816793,0.0
13.43000078201294,-9.459490759277344,2.6671406494140624,2.8658593872070313,18.83969465648855,2.595419847328244,-14.946564885496183,-7.819462622070312,-1.0414777221679687,2.978386865234375,21.801526717557252,15.312977099236642,-15.465648854961833,0.0
13.440000534057617,-9.557653027343749,2.4899697265625,2.6623522460937497,14.793893129770993,-2.5801526717557253,-14.67175572519084,-7.802703210449218,-0.9121908325195311,2.7724855224609373,23.801526717557252,17.541984732824428,-17.099236641221374,0.0
13.450001001358032,-9.282319836425781,2.0661960327148434,2.6958710693359373,16.82442748091603,-6.229007633587786,-13.557251908396946,-7.635109094238281,-0.7350199096679687,2.626439221191406,25.6793893129771,20.35114503816794,-17.740458015267176,0.0
13.46000051498413,-9.351751684570312,1.9680337646484374,2.8467057739257813,18.946564885496183,-8.51908396946565,-12.412213740458014,-7.548917834472656,-0.6847416748046875,2.39420166015625,27.52671755725191,23.14503816793893,-19.0381679389313,0.0
13.470000505447388,-9.26316622314453,1.9297265380859374,3.1364041748046874,21.068702290076335,-10.900763358778626,-13.34351145038168,-7.513004809570312,-0.08140285644531249,2.085349645996094,28.38167938931298,26.82442748091603,-20.702290076335878,0.0
13.480000495910645,-9.64623848876953,2.0470424194335934,3.1076737548828124,23.068702290076335,-13.679389312977099,-14.50381679389313,-7.601590270996093,0.26815058593749996,2.612074011230469,22.763358778625953,34.595419847328245,-22.717557251908396,0.0
13.490000247955322,-9.670180505371093,2.2601263671875,3.347093920898437,23.587786259541986,-16.946564885496183,-13.572519083969466,-7.398083129882812,0.7110778930664062,2.492363928222656,17.49618320610687,39.14503816793893,-22.977099236641223,0.0
13.500000476837158,-10.024522351074218,2.4899697265625,3.5003228271484375,23.709923664122137,-20.85496183206107,-13.16030534351145,-9.117119921875,0.8738836059570312,3.423708374023437,12.732824427480915,43.98473282442748,-23.251908396946565,0.0
13.510000467300415,-10.395623608398436,2.7150246826171873,3.737348791503906,24.68702290076336,-26.091603053435115,-11.465648854961833,-11.0707884765625,0.2920926025390625,5.360617517089843,2.7022900763358777,50.213740458015266,-25.236641221374047,0.0
13.520000696182251,-11.008539233398437,2.3319524169921872,3.782838623046875,25.358778625954198,-31.66412213740458,-9.083969465648854,-13.2926076171875,-2.3343466186523436,7.043741284179687,6.091603053435114,46.85496183206107,-25.51145038167939,0.0
13.530000448226929,-11.382034692382812,1.8602946899414061,4.029441394042968,27.908396946564885,-39.31297709923664,-8.045801526717558,-14.372392565917968,-2.070984436035156,7.9272016967773435,14.763358778625955,35.908396946564885,-25.84732824427481,0.0
13.540000915527344,-11.832144604492187,2.674323254394531,5.233724829101562,29.083969465648856,-48.06106870229008,-9.49618320610687,-12.708422412109375,-0.30885201416015623,6.5768719604492185,14.458015267175572,22.427480916030536,-25.0381679389313,0.0
13.550000667572021,-12.694057202148437,2.5450363647460934,6.167463476562499,25.450381679389313,-60.19847328244275,-10.473282442748092,-11.662156286621093,1.908178723144531,4.671087438964843,7.816793893129771,18.213740458015266,-18.870229007633586,0.0
13.560000896453857,-12.112266198730469,1.7573440185546874,6.289567761230469,24.3206106870229,-75.02290076335878,-9.389312977099237,-9.952696301269532,0.9409212524414062,2.887407202148437,-5.190839694656488,17.954198473282442,-11.236641221374045,0.0
13.570000886917114,-11.79862578125,1.1947066284179686,6.509834313964843,21.0381679389313,-94.09160305343511,-10.122137404580153,-8.920795385742187,0.3112462158203125,0.32082302246093747,-14.67175572519084,17.61832061068702,-6.549618320610687,0.0
13.580190658569336,-12.023680737304687,0.0,6.471527087402343,23.251908396946565,-108.21374045801527,-10.885496183206106,-8.43956085205078,-1.3742717529296875,0.033518823242187495,-14.641221374045802,18.396946564885496,-3.954198473282443,0.0
13.590076923370361,-12.437877624511717,-0.3447650390625,6.210559106445312,24.198473282442748,-119.96946564885496,-12.061068702290076,-9.564835632324218,-2.839523168945312,0.8044517578125,-10.595419847328245,23.81679389312977,-3.5877862595419847,0.0
13.600000619888306,-12.629413757324219,-0.93852705078125,5.1714755859374995,25.206106870229007,-132.41221374045801,-11.801526717557252,-8.564059338378906,-3.383006945800781,0.15083470458984374,-4.076335877862595,22.15267175572519,-6.320610687022901,0.0
13.610000610351562,-13.658920471191406,-0.6488286499023437,4.340687609863281,26.80916030534351,-138.83969465648855,-12.80916030534351,-9.334992272949219,-3.5434184570312497,0.6368576416015624,1.7404580152671756,26.27480916030534,-8.51908396946565,0.0
13.62000036239624,-14.322114331054687,-0.9361328491210937,2.9831752685546875,28.045801526717558,-143.2824427480916,-11.145038167938932,-9.2320416015625,-3.356670727539062,0.8643067993164062,5.374045801526718,29.19083969465649,-11.083969465648854,0.0
13.630000591278076,-13.589488623046874,-1.3646949462890625,0.44532150878906246,31.328244274809162,-143.46564885496184,-7.526717557251908,-10.134655627441406,-3.8690298828125,1.649604943847656,10.946564885496183,34.01526717557252,-10.030534351145038,0.0
13.640000581741333,-13.019668627929686,-1.2880804931640624,-0.3495534423828125,35.17557251908397,-138.38167938931298,-5.236641221374046,-10.196904870605469,-4.328716601562499,1.7381904052734374,21.49618320610687,34.030534351145036,-9.206106870229007,0.0
13.65000057220459,-12.191274853515624,-1.5682020874023437,-0.4429273071289062,40.83969465648855,-129.3740458015267,-4.595419847328245,-9.842563024902343,-3.5601778686523438,1.8028338500976562,32.12213740458015,30.213740458015266,-9.98473282442748,0.0
13.660000562667847,-10.802637890625,-1.7597382202148437,-0.9337386474609375,47.14503816793893,-118.41221374045801,-4.580152671755725,-10.548852514648438,-2.1883003173828124,1.905784521484375,36.3206106870229,30.65648854961832,-9.969465648854962,0.0
13.670000791549683,-9.469067565917967,-0.852335791015625,-1.4221557861328125,48.68702290076336,-103.80152671755725,-6.458015267175573,-9.325415466308593,-1.0007762939453124,1.139639990234375,28.793893129770993,29.96946564885496,-10.977099236641221,0.0
13.68000078201294,-8.710105639648438,-0.03591302490234375,-1.4963760375976562,41.81679389312977,-91.96946564885496,-8.793893129770993,-9.60793126220703,-0.7829039428710937,1.5682020874023437,19.31297709923664,33.25190839694657,-8.610687022900763,0.0
13.690000772476196,-8.722076647949219,0.6200982299804687,-0.8690952026367187,35.48091603053435,-78.36641221374046,-9.633587786259541,-9.787496386718749,-1.927332336425781,1.7405846069335937,11.709923664122137,35.786259541984734,-5.297709923664122,0.0
13.700000286102295,-8.662221606445312,1.5298948608398437,0.2657563842773437,31.16030534351145,-63.25190839694657,-8.412213740458014,-10.328585961914062,-2.6671406494140624,1.2425906616210938,15.374045801526718,33.55725190839695,-3.633587786259542,0.0
13.71000051498413,-8.47786807861328,1.2832920898437499,0.48123453369140623,28.366412213740457,-51.038167938931295,-6.122137404580153,-10.462661254882812,-2.770091320800781,1.5825672973632812,20.458015267175572,32.717557251908396,-3.7251908396946565,0.0
13.720000505447388,-8.506598498535157,1.8626888916015625,0.8044517578125,22.702290076335878,-41.19083969465649,-4.916030534351145,-9.375693701171874,-1.1707646118164061,1.1875240234375,19.328244274809162,30.48854961832061,-6.122137404580153,0.0
13.730000495910645,-7.682993127441406,2.360682836914062,0.5195417602539062,10.244274809160306,-35.908396946564885,-4.290076335877862,-9.490615380859374,-1.4149731811523436,1.7812860351562498,12.198473282442748,34.82442748091603,-3.099236641221374,0.0
13.74000072479248,-8.456320263671875,2.7820623291015623,1.4796166259765624,-3.267175572519084,-30.16793893129771,-3.3740458015267176,-9.272743029785156,-1.3215993164062498,1.5562310791015623,11.312977099236642,33.221374045801525,-2.3206106870229006,0.0
13.750000238418579,-8.590395556640624,2.214636535644531,1.5873557006835937,-11.770992366412214,-26.82442748091603,-0.3816793893129771,-9.052476477050782,-0.8499415893554687,1.668758557128906,4.961832061068702,33.099236641221374,-2.213740458015267,0.0
13.760000705718994,-8.013392956542969,2.5546131713867184,1.2880804931640624,-18.229007633587788,-23.557251908396946,2.885496183206107,-8.535328918457031,-0.5722141967773438,1.7381904052734374,-6.99236641221374,35.099236641221374,-1.0687022900763359,0.0
13.770000696182251,-8.259995727539062,2.3678654418945313,1.6543933471679686,-28.885496183206108,-19.541984732824428,5.6183206106870225,-9.5384994140625,-0.4836287353515625,2.1452046874999997,-14.01526717557252,39.16030534351145,2.2595419847328246,0.0
13.780000925064087,-7.149086157226562,1.6903063720703124,1.2114660400390624,-36.900763358778626,-17.389312977099237,7.419847328244275,-9.449913952636718,-1.6639701538085936,2.3343466186523436,-14.458015267175572,38.091603053435115,5.557251908396947,0.0
13.790000438690186,-6.691793640136718,1.7334020019531249,1.1324573852539062,-43.86259541984733,-14.351145038167939,8.122137404580153,-9.299079248046874,-1.2689268798828124,1.9033903198242186,-14.305343511450381,36.74809160305343,5.679389312977099,0.0
13.8000009059906,-6.253654736328125,0.8164227661132812,0.6943184814453125,-45.83206106870229,-7.648854961832061,8.916030534351146,-9.557653027343749,-0.8882488159179687,2.2577321655273437,-16.748091603053435,37.74045801526717,5.709923664122138,0.0
13.810000658035278,-5.949591125488281,-0.5674257934570313,0.18914193115234373,-44.38167938931298,-2.2595419847328246,9.083969465648854,-9.76116016845703,-1.7836802368164062,2.365471240234375,-18.35114503816794,38.13740458015267,7.541984732824427,0.0
13.820000886917114,-6.4643444824218745,0.105344873046875,0.8044517578125,-46.656488549618324,5.175572519083969,6.8396946564885495,-9.622296472167967,-2.9281086303710935,2.4013842651367185,-10.763358778625955,33.11450381679389,8.625954198473282,0.0
13.830000400543213,-7.1586629638671875,0.8379705810546875,1.7357962036132812,-47.969465648854964,12.702290076335878,4.290076335877862,-9.923965881347655,-2.2864625854492187,2.133233679199219,-2.213740458015267,27.862595419847327,7.786259541984733,0.0
13.840000629425049,-5.935225915527344,-0.9097966308593749,1.4820108276367188,-38.42748091603053,19.862595419847327,6.2748091603053435,-10.101136804199218,-2.375048046875,2.4492682983398435,-2.3053435114503817,26.82442748091603,6.8396946564885495,0.0
13.850000381469727,-6.564900952148437,0.0526724365234375,2.5354595581054684,-35.55725190839695,25.908396946564885,5.526717557251908,-9.651026892089844,-1.5490484741210937,2.0159177978515626,-2.900763358778626,23.083969465648856,5.282442748091603,0.0
13.860000610351562,-7.199364392089843,0.4070142822265625,3.5146880371093747,-34.778625954198475,28.65648854961832,5.236641221374046,-9.840168823242188,-1.4891934326171874,2.288856787109375,-5.4961832061068705,22.458015267175572,5.9541984732824424,0.0
13.87000060081482,-7.249642626953125,0.4070142822265625,4.338293408203125,-31.46564885496183,30.80916030534351,7.297709923664122,-9.916783276367187,-1.5251064575195312,2.4971523315429685,-7.526717557251908,22.015267175572518,6.8396946564885495,0.0
13.880000591278076,-7.472303381347656,0.3687070556640625,5.386953735351562,-28.68702290076336,31.221374045801525,9.236641221374045,-9.770736975097655,-1.5131354492187499,2.612074011230469,-8.534351145038167,21.221374045801525,7.893129770992366,0.0
13.890000581741333,-7.694964135742187,0.41419688720703124,6.323086584472656,-25.068702290076335,30.12213740458015,12.183206106870228,-9.536105212402344,-1.6543933471679686,2.6815058593749996,-7.66412213740458,20.748091603053435,8.595419847328245,0.0
13.90000033378601,-7.584830859375,0.2705447875976562,7.153874560546875,-19.34351145038168,27.96946564885496,15.32824427480916,-9.402029919433593,-1.656787548828125,2.7365724975585937,-6.67175572519084,20.244274809160306,8.977099236641221,0.0
13.910000801086426,-7.532158422851562,0.105344873046875,7.536946826171874,-13.34351145038168,25.374045801526716,17.022900763358777,-9.210493786621093,-1.6041151123046875,2.77727392578125,-5.587786259541985,19.740458015267176,8.961832061068701,0.0
13.920000553131104,-7.4579381713867186,0.49799394531249996,7.8170684204101555,-6.0,22.12213740458015,18.80916030534351,-9.227253198242186,-1.6735469604492186,2.863465185546875,-4.870229007633588,19.114503816793892,9.541984732824428,0.0
13.93000078201294,-7.4603323730468745,1.197100830078125,7.975085729980468,-0.8549618320610687,17.221374045801525,18.900763358778626,-9.323021264648437,-1.7310078002929687,2.9472622436523435,-3.648854961832061,18.27480916030534,10.229007633587786,0.0
13.940000534057617,-7.637503295898437,1.5035586425781249,7.639897497558593,2.885496183206107,12.763358778625955,19.603053435114504,-9.33978067626953,-1.707065783691406,2.8730419921875,-3.2977099236641223,17.72519083969466,11.053435114503817,0.0
13.950000762939453,-7.3837179199218745,1.6472107421875,6.833051538085937,5.4961832061068705,9.038167938931299,20.85496183206107,-9.354145886230468,-1.5011644409179687,2.9448680419921875,-2.0916030534351147,16.106870229007633,11.938931297709924,0.0
13.96000051498413,-7.161057165527343,1.8555062866210936,5.825092639160156,7.984732824427481,6.748091603053435,21.6793893129771,-9.14824454345703,-0.97683427734375,2.923320227050781,-3.786259541984733,14.778625954198473,12.702290076335878,0.0
13.970000505447388,-6.79953271484375,2.147598889160156,4.587290380859375,7.572519083969466,7.480916030534351,21.923664122137403,-8.966285217285156,0.3902548706054687,2.760514514160156,-15.32824427480916,17.16030534351145,13.099236641221374,0.0
13.980000257492065,-6.677428430175781,2.1452046874999997,3.517082238769531,1.8778625954198473,8.916030534351146,22.519083969465647,-9.277531433105468,-0.3854664672851562,2.9281086303710935,-24.564885496183205,21.083969465648856,16.671755725190838,0.0
13.990000486373901,-6.624755993652343,1.8818425048828125,2.6384102294921874,-7.893129770992366,12.030534351145038,22.198473282442748,-9.581595043945311,-0.9864110839843749,2.786850732421875,-28.68702290076336,21.541984732824428,19.022900763358777,0.0
14.000000476837158,-4.855440966796874,0.040701428222656245,0.584185205078125,-5.755725190839694,19.740458015267176,24.076335877862597,-9.105148913574219,-1.3120225097656248,2.6575638427734374,-34.48854961832061,21.236641221374047,19.267175572519083,0.0
14.010000467300415,-5.844246252441406,-0.1867477294921875,-0.01915361328125,-2.213740458015267,35.29770992366412,22.045801526717558,-9.60793126220703,-2.722207287597656,2.8850130004882812,-33.908396946564885,22.35114503816794,21.328244274809162,0.0
14.020000696182251,-8.329427575683594,0.16041151123046873,0.8092401611328125,-7.938931297709924,46.94656488549618,16.519083969465647,-10.160991845703125,-3.9911341674804683,2.9855694702148434,-25.480916030534353,18.50381679389313,21.435114503816795,0.0
14.030000686645508,-9.897629663085937,-0.04548983154296875,2.896984008789062,-9.664122137404581,52.19847328244275,14.961832061068701,-9.763554370117188,-2.8036101440429686,1.9895815795898437,-20.732824427480917,11.923664122137405,18.061068702290076,0.0
14.040000915527344,-13.227964172363281,1.1731588134765625,6.299144567871093,-5.465648854961832,56.0763358778626,16.946564885496183,-10.08677159423828,-1.465251416015625,2.080561242675781,-23.0381679389313,9.801526717557252,17.16030534351145,0.0
14.050000667572021,-15.380351464843748,3.337517114257812,8.688557824707031,-9.633587786259541,53.41984732824427,18.045801526717558,-9.804255798339844,-0.7852981445312499,1.8243816650390623,-31.572519083969464,7.587786259541985,17.267175572519083,0.0
14.060000896453857,-15.66047305908203,4.407725256347656,8.008604553222655,-25.6793893129771,44.16793893129771,18.717557251908396,-10.390835205078124,-1.8315642700195311,2.389413256835937,-35.25190839694657,4.900763358778626,20.870229007633586,0.0
14.070000648498535,-13.99410870361328,2.7365724975585937,6.011840368652344,-41.83206106870229,32.33587786259542,18.137404580152673,-10.91037696533203,-1.7980454467773437,2.7054478759765623,-30.641221374045802,-1.8015267175572518,22.85496183206107,0.0
14.080000877380371,-11.834538806152343,0.3136404174804687,4.278438366699218,-43.770992366412216,25.00763358778626,14.16793893129771,-10.615890161132812,-1.70467158203125,2.7269956909179687,-22.778625954198475,-11.694656488549619,23.236641221374047,0.0
14.090001344680786,-9.533711010742186,0.0047884033203125,1.9919757812499999,-41.083969465648856,19.83206106870229,8.625954198473282,-9.900023864746093,0.20829554443359374,2.1212626708984375,-24.35114503816794,-20.244274809160306,20.870229007633586,0.0
14.100000619888306,-8.078036401367187,-0.5674257934570313,0.689530078125,-35.099236641221374,19.129770992366414,8.366412213740459,-10.144232434082031,0.6344634399414062,2.281674182128906,-32.656488549618324,-22.885496183206108,22.076335877862597,0.0
14.110000610351562,-6.775590698242187,-1.1563994018554686,-0.1388636962890625,-22.076335877862597,22.717557251908396,8.80916030534351,-10.216058483886718,0.7302315063476562,2.3247698120117186,-40.3206106870229,-25.0381679389313,25.083969465648856,0.0
14.120003461837769,-6.744466076660156,0.1867477294921875,0.23702596435546874,-10.412213740458014,30.106870229007633,7.419847328244275,-10.441113439941406,0.7445967163085937,2.3678654418945313,-45.37404580152672,-28.50381679389313,26.702290076335878,0.0
14.130618333816528,-6.461950280761719,2.123656872558594,0.21787235107421873,-6.961832061068702,33.14503816793893,7.755725190839694,-10.723629235839843,0.3806780639648437,2.5043349365234375,-47.847328244274806,-31.61832061068702,27.81679389312977,0.0
14.140000820159912,-8.010998754882811,3.450044592285156,0.9888052856445312,-9.618320610687023,37.64885496183206,10.580152671755725,-11.219228979492186,0.0383072265625,2.6575638427734374,-48.10687022900763,-34.717557251908396,27.541984732824428,0.0
14.15000057220459,-9.131485131835937,4.106055847167968,1.5011644409179687,-16.99236641221374,40.97709923664122,13.954198473282442,-12.275071911621094,-0.6607996582031249,3.019088293457031,-41.81679389312977,-37.87786259541985,28.30534351145038,0.0
14.160000324249268,-10.117896215820313,3.555389465332031,2.221819140625,-25.022900763358777,41.81679389312977,16.748091603053435,-11.9518546875,0.08858546142578125,2.597708801269531,-40.87022900763359,-44.48854961832061,24.793893129770993,0.0
14.170000791549683,-9.524134204101562,2.8514941772460936,2.3582886352539063,-29.83206106870229,40.50381679389313,17.908396946564885,-10.096348400878906,0.6105214233398437,1.7334020019531249,-46.030534351145036,-51.32824427480916,21.893129770992367,0.0
14.18000054359436,-9.947907897949218,2.221819140625,2.482787121582031,-38.2442748091603,39.00763358778626,15.694656488549619,-11.901576452636718,0.316034619140625,2.2577321655273437,-50.79389312977099,-50.30534351145038,22.33587786259542,0.0
14.190000534057617,-9.3852705078125,1.0486603271484374,2.1619640991210938,-39.83206106870229,36.54961832061068,13.755725190839694,-11.441889733886718,-1.1947066284179686,2.2840683837890623,-49.45038167938932,-53.11450381679389,22.213740458015266,0.0
14.200000286102295,-9.557653027343749,0.8834604125976562,2.2026655273437497,-36.18320610687023,36.44274809160305,10.83969465648855,-11.362881079101562,-2.1811177124023438,2.0183119995117185,-39.48091603053435,-57.969465648854964,20.27480916030534,0.0
14.21000075340271,-9.823409411621093,1.1348515869140625,2.2026655273437497,-30.442748091603054,34.48854961832061,8.992366412213741,-10.70686982421875,-0.5386953735351562,1.4963760375976562,-30.564885496183205,-63.3587786259542,16.15267175572519,0.0
14.220000505447388,-9.651026892089844,1.3742717529296875,2.1452046874999997,-23.114503816793892,33.603053435114504,9.648854961832061,-9.6917283203125,0.3399766357421875,1.3263877197265623,-31.51145038167939,-61.66412213740458,12.625954198473282,0.0
14.230000495910645,-10.12507882080078,2.578555187988281,2.5857377929687497,-19.64885496183206,32.48854961832061,9.893129770992367,-9.957484704589843,-0.814028564453125,1.7645266235351562,-31.068702290076335,-55.770992366412216,13.664122137404581,0.0
14.240000247955322,-10.335768566894531,2.540247961425781,2.142810485839844,-21.129770992366414,29.31297709923664,11.145038167938932,-10.103531005859374,-1.1468225952148436,1.8626888916015625,-19.49618320610687,-53.45038167938932,13.740458015267176,0.0
14.250000476837158,-10.577582934570312,2.085349645996094,2.1978771240234374,-21.17557251908397,28.076335877862597,11.34351145038168,-9.782707983398437,0.09576806640624999,1.4006079711914061,-12.473282442748092,-51.603053435114504,11.923664122137405,0.0
14.260000705718994,-8.90643017578125,0.6703764648437499,0.967257470703125,-16.015267175572518,24.045801526717558,13.465648854961833,-8.765172277832031,1.2378022583007813,1.1611878051757811,-16.65648854961832,-46.916030534351144,8.183206106870228,0.0
14.270000696182251,-10.029310754394531,0.8020575561523438,1.8052280517578123,-12.717557251908397,26.793893129770993,9.877862595419847,-9.299079248046874,0.9792284790039062,0.9576806640625,-25.206106870229007,-35.87786259541985,6.793893129770993,0.0
14.280000925064087,-8.949525805664061,0.8547299926757812,1.467645617675781,-6.519083969465649,25.87786259541985,8.13740458015267,-9.725247143554688,-0.6248866333007812,1.35990654296875,-26.580152671755727,-27.221374045801525,8.0,0.0
14.290000677108765,-9.296685046386719,0.5243301635742187,1.3910311645507811,-0.5190839694656488,26.793893129770993,5.847328244274809,-8.757989672851561,-0.14125789794921875,0.5339069702148437,-28.793893129770993,-23.862595419847327,4.412213740458015,0.0
14.3000009059906,-4.75009609375,-4.833893151855468,-0.8283937744140625,27.34351145038168,25.755725190839694,10.83969465648855,-9.313444458007812,-1.2473790649414063,0.948103857421875,-25.221374045801525,-18.30534351145038,3.3435114503816794,0.0
14.310000658035278,-6.313509777832031,-4.170699291992188,-0.354341845703125,69.5114503816794,48.87022900763359,3.633587786259542,-9.112331518554686,-1.848323681640625,1.2234370483398436,-19.053435114503817,-14.717557251908397,0.8854961832061069,0.0
14.320000886917114,-9.390058911132812,1.4963760375976562,1.93451494140625,73.74045801526718,60.93129770992366,-11.007633587786259,-9.306261853027344,-1.8339584716796873,1.235408056640625,-8.122137404580153,-14.458015267175572,-2.2290076335877864,0.0
14.330000638961792,-12.356474768066406,6.5218053222656245,3.0645781249999997,44.656488549618324,55.603053435114504,-17.81679389312977,-9.418789331054686,-1.3263877197265623,1.5418658691406248,0.9007633587786259,-14.320610687022901,-3.786259541984733,0.0
14.340000867843628,-11.7603185546875,7.426813549804687,3.3399113159179685,16.458015267175572,44.25954198473283,-12.442748091603054,-9.37808790283203,-0.5099649536132812,1.5131354492187499,3.0076335877862594,-14.65648854961832,-4.99236641221374,0.0
14.350000619888306,-12.433089221191405,6.234501123046875,3.337517114257812,-7.587786259541985,34.48854961832061,-6.5038167938931295,-9.095572106933593,0.062249243164062495,1.429338391113281,-0.030534351145038167,-14.427480916030534,-5.450381679389313,0.0
14.360000610351562,-11.061211669921875,4.46279189453125,2.5139117431640625,-16.778625954198475,25.450381679389313,-0.22900763358778625,-8.916006982421875,0.1771709228515625,1.5083470458984374,-3.6946564885496183,-12.900763358778626,-4.778625954198473,0.0
14.37000060081482,-10.608707556152343,2.626439221191406,1.9919757812499999,-21.923664122137403,17.862595419847327,2.6259541984732824,-10.158597644042969,-1.8267758666992187,2.7916391357421872,2.8091603053435112,-10.16793893129771,-1.1755725190839694,0.0
14.380000591278076,-9.167398156738281,0.9792284790039062,1.3670891479492187,-8.854961832061068,17.14503816793893,4.961832061068702,-9.33978067626953,-2.1547814941406247,2.655169641113281,14.992366412213741,-16.65648854961832,-3.267175572519084,0.0
14.390000581741333,-9.931148486328125,2.176329309082031,1.7956512451171873,-5.755725190839694,18.244274809160306,1.9541984732824427,-9.275137231445312,-1.6400281372070311,2.549824768066406,25.0381679389313,-20.778625954198475,-7.068702290076335,0.0
14.40000057220459,-10.915165368652342,4.304774584960938,2.7437551025390623,-14.977099236641221,15.755725190839694,0.12213740458015267,-8.719682446289061,-0.5746083984375,2.3582886352539063,29.17557251908397,-21.34351145038168,-10.51908396946565,0.0
14.410000801086426,-11.6070896484375,3.816357446289062,2.8012159423828122,-26.50381679389313,10.488549618320612,1.5267175572519085,-7.9655089233398435,0.3399766357421875,1.7717092285156248,24.38167938931298,-20.198473282442748,-12.366412213740459,0.0
14.420000314712524,-9.284714038085937,1.9656395629882812,1.915361328125,-29.72519083969466,3.267175572519084,5.770992366412214,-8.628702783203124,0.2154781494140625,2.480392919921875,16.83969465648855,-13.114503816793894,-10.641221374045802,0.0
14.430001020431519,-8.789114294433594,1.1061211669921875,1.946485949707031,-28.549618320610687,3.236641221374046,5.740458015267175,-8.463502868652343,0.9121908325195311,2.094926452636719,12.061068702290076,-11.206106870229007,-10.83969465648855,0.0
14.440000534057617,-8.547299926757812,0.17477672119140625,1.659181750488281,-26.259541984732824,0.8244274809160306,5.312977099236641,-9.435548742675781,-0.016759411621093748,2.7581203125,10.366412213740459,-8.01526717557252,-8.961832061068701,0.0
14.450000762939453,-8.923189587402343,0.46208092041015625,1.9991583862304687,-15.816793893129772,5.190839694656488,4.305343511450381,-9.363722692871093,-0.3447650390625,3.0502129150390624,12.366412213740459,-8.427480916030534,-9.358778625954198,0.0
14.46000051498413,-9.414000927734374,1.419761584472656,2.29843359375,-10.82442748091603,4.870229007633588,2.7480916030534353,-9.392453112792968,-0.44532150878906246,3.1004911499023438,14.442748091603054,-9.816793893129772,-10.0,0.0
14.470000505447388,-10.12507882080078,1.656787548828125,2.50912333984375,-9.49618320610687,2.015267175572519,2.427480916030534,-10.304643945312499,-1.905784521484375,4.070142822265625,21.984732824427482,-9.954198473282442,-8.65648854961832,0.0
14.480000495910645,-9.662997900390625,0.9552864624023437,2.4875755249023435,-3.282442748091603,-1.2366412213740459,2.900763358778626,-9.169792358398437,-1.3646949462890625,3.2417490478515623,31.709923664122137,-19.251908396946565,-10.83969465648855,0.0
14.490000486373901,-9.79946739501953,1.1827356201171875,2.703053674316406,3.5419847328244276,-2.687022900763359,1.4045801526717556,-9.354145886230468,-0.4955997436523437,3.2225954345703123,37.3587786259542,-23.83206106870229,-11.587786259541986,0.0
14.500000476837158,-10.029310754394531,2.059013427734375,2.7916391357421872,6.229007633587786,-4.427480916030534,-0.10687022900763359,-8.80347950439453,0.28969840087890625,2.8107927490234372,32.6412213740458,-26.48854961832061,-13.419847328244275,0.0
14.510000705718994,-9.586383447265625,2.176329309082031,2.2002713256835937,9.83206106870229,-6.8396946564885495,0.07633587786259542,-8.29351455078125,1.177947216796875,2.7341782958984373,23.282442748091604,-24.061068702290076,-12.488549618320612,0.0
14.520000696182251,-10.417171423339843,2.6096798095703124,2.1835119140624997,5.4961832061068705,-9.389312977099237,-0.3511450381679389,-9.435548742675781,1.4221557861328125,2.9640216552734375,14.16793893129771,-18.549618320610687,-10.687022900763358,0.0
14.530000448226929,-9.548076220703125,1.7764976318359373,1.1659762084960936,5.114503816793893,-13.32824427480916,1.5114503816793894,-8.88009395751953,1.0295067138671874,3.27526787109375,2.33587786259542,-13.786259541984732,-8.610687022900763,0.0
14.540000915527344,-8.544905725097657,0.9576806640625,0.7733271362304687,12.320610687022901,-10.702290076335878,1.816793893129771,-9.3086560546875,-0.09576806640624999,3.603273498535156,1.450381679389313,-11.251908396946565,-6.580152671755725,0.0
14.550000667572021,-11.006145031738281,3.2632968627929686,2.1164742675781247,11.145038167938932,-4.213740458015267,-2.6259541984732824,-9.595960253906249,-0.8667010009765624,3.9145197143554684,7.7251908396946565,-12.030534351145038,-6.687022900763359,0.0
14.560000896453857,-10.532093103027343,2.806004345703125,1.2880804931640624,6.030534351145038,-7.6183206106870225,-2.2290076335877864,-8.820238916015624,0.00718260498046875,3.708618371582031,7.297709923664122,-13.17557251908397,-9.145038167938932,0.0
14.570000648498535,-11.245565197753905,3.749319799804687,1.9297265380859374,3.3435114503816794,-5.1603053435114505,-2.2900763358778624,-8.939948999023438,-0.22744915771484372,3.6846763549804686,5.419847328244275,-11.740458015267176,-9.374045801526718,0.0
14.58000111579895,-9.459490759277344,3.5865140869140624,1.3072341064453123,-5.938931297709924,-10.045801526717558,0.061068702290076333,-9.188945971679686,-0.45489831542968745,3.768473413085937,5.541984732824427,-11.908396946564885,-8.748091603053435,0.0
14.590000629425049,-10.58476553955078,2.6479870361328124,1.2832920898437499,-11.618320610687023,-10.091603053435115,0.549618320610687,-10.62307276611328,-1.465251416015625,4.3239281982421875,15.312977099236642,-13.206106870229007,-6.564885496183206,0.0
14.600000858306885,-9.947907897949218,1.5394716674804687,1.4604630126953124,-10.442748091603054,-7.969465648854962,1.0534351145038168,-10.05564697265625,-1.6256629272460936,4.455609289550781,21.557251908396946,-19.52671755725191,-8.51908396946565,0.0
14.610000610351562,-8.595183959960938,0.3136404174804687,0.37828386230468747,-2.732824427480916,-6.809160305343512,1.282442748091603,-9.706093530273437,-0.9648632690429687,4.043806604003906,26.870229007633586,-24.564885496183205,-10.793893129770993,0.0
14.62000060081482,-8.650250598144531,1.1923124267578125,0.430956298828125,0.8396946564885496,-3.8625954198473282,-0.6106870229007634,-8.767566479492187,0.45010991210937495,3.418919970703125,24.83969465648855,-27.328244274809162,-12.763358778625955,0.0
14.630000591278076,-9.548076220703125,2.138022082519531,1.0366893188476562,-1.9389312977099236,-0.366412213740458,-2.9618320610687023,-8.001421948242188,0.9337386474609375,3.265691064453125,15.664122137404581,-26.03053435114504,-12.854961832061068,0.0
14.640000581741333,-10.007762939453125,2.731784094238281,1.1516109985351561,-5.603053435114504,3.1755725190839694,-3.66412213740458,-9.442731347656249,0.8978256225585937,3.900154504394531,7.32824427480916,-19.389312977099237,-9.694656488549619,0.0
14.65000033378601,-8.535328918457031,1.0582371337890624,0.7206546997070312,-0.7480916030534351,5.786259541984733,-2.16793893129771,-9.449913952636718,0.19871873779296872,3.6942531616210936,6.641221374045801,-19.96946564885496,-7.251908396946565,0.0
14.660000324249268,-9.457096557617186,2.403778466796875,1.1420341918945311,-3.954198473282443,9.022900763358779,-5.3893129770992365,-9.143456140136719,-0.928950244140625,4.153939880371094,8.244274809160306,-20.793893129770993,-7.694656488549619,0.0
14.670000791549683,-9.504980590820312,2.2481553588867187,1.1180921752929687,-6.152671755725191,9.358778625954198,-5.755725190839694,-9.49300958251953,-0.3399766357421875,3.938461730957031,13.98473282442748,-22.244274809160306,-8.931297709923664,0.0
14.68000054359436,-9.33978067626953,1.7645266235351562,0.82360537109375,-3.83206106870229,10.442748091603054,-5.648854961832061,-9.643844287109374,-0.5626373901367188,4.012681982421875,16.641221374045802,-22.580152671755727,-9.17557251908397,0.0
14.690000772476196,-9.112331518554686,1.6304513305664061,1.0127473022460938,-0.9923664122137404,12.183206106870228,-5.801526717557252,-9.318232861328125,-0.5099649536132812,3.8379052612304685,16.9618320610687,-22.396946564885496,-9.877862595419847,0.0
14.700000524520874,-9.373299499511718,1.7669208251953124,1.180341418457031,0.7633587786259542,13.786259541984732,-6.900763358778626,-7.924807495117187,-0.016759411621093748,3.2441432495117186,12.916030534351146,-22.244274809160306,-11.007633587786259,0.0
14.71000051498413,-9.344569079589844,1.85790048828125,1.3575123413085937,2.122137404580153,14.595419847328245,-7.770992366412214,-8.772354882812499,0.0383072265625,3.785232824707031,8.65648854961832,-16.702290076335878,-10.290076335877863,0.0
14.720000505447388,-9.414000927734374,1.8914193115234375,1.3742717529296875,2.4427480916030535,14.961832061068701,-8.580152671755725,-8.896853369140624,-0.3711012573242187,3.9600095458984375,4.152671755725191,-11.954198473282442,-8.931297709923664,0.0
14.730000495910645,-9.392453112792968,1.8626888916015625,1.5634136840820312,1.9236641221374047,15.725190839694656,-9.358778625954198,-8.90643017578125,-0.9193734375,3.948038537597656,7.755725190839694,-10.977099236641221,-8.900763358778626,0.0
14.740000486373901,-9.26316622314453,1.47482822265625,1.438915197753906,3.3740458015267176,15.022900763358779,-10.320610687022901,-9.612719665527344,-0.737414111328125,4.012681982421875,15.587786259541986,-10.83969465648855,-8.854961832061068,0.0
14.750000476837158,-9.112331518554686,1.4149731811523436,1.4173673828125,7.1603053435114505,16.259541984732824,-11.282442748091603,-9.279925634765624,-0.7398083129882812,3.746925598144531,21.52671755725191,-11.938931297709924,-10.290076335877863,0.0
14.760000705718994,-8.985438830566405,1.1037269653320312,1.1923124267578125,11.32824427480916,17.358778625954198,-13.129770992366412,-8.75320126953125,-0.031124621582031248,3.277662072753906,23.572519083969464,-12.412213740458014,-11.740458015267176,0.0
14.77000093460083,-8.647856396484375,0.2346317626953125,0.47165772705078124,18.625954198473284,19.083969465648856,-13.282442748091603,-7.81467421875,0.5674257934570313,2.8131869506835936,20.48854961832061,-10.641221374045802,-12.610687022900763,0.0
14.780000925064087,-8.870517150878905,1.1372457885742187,1.0127473022460938,25.46564885496183,24.442748091603054,-15.48091603053435,-7.388506323242187,-0.19632453613281248,3.095702746582031,14.732824427480915,-6.320610687022901,-12.351145038167939,0.0
14.790000677108765,-8.583212951660157,1.66636435546875,0.8882488159179687,25.69465648854962,25.96946564885496,-16.412213740458014,-7.182604980468749,0.9457096557617187,2.7653029174804686,7.908396946564886,-2.198473282442748,-13.251908396946565,0.0
