timestamp,Thigh_L_Acc_X,Thigh_L_Acc_Y,Thigh_L_Acc_Z,Thigh_L_Gyr_X,Thigh_L_Gyr_Y,Thigh_L_Gyr_Z,Thigh_R_Acc_X,Thigh_R_Acc_Y,Thigh_R_Acc_Z,Thigh_R_Gyr_X,Thigh_R_Gyr_Y,Thigh_R_Gyr_Z,gpio_output
10.00000786781311,-11.226411584472656,-10.670956799316405,0.29448680419921874,-116.58015267175573,44.717557251908396,-8.183206106870228,-14.365209960937499,-1.39821376953125,6.387730029296875,26.9618320610687,-28.9618320610687,22.35114503816794,0.0
10.010000705718994,-13.84806240234375,-13.946224670410155,11.176133349609374,-15.251908396946565,63.038167938931295,4.916030534351145,-13.603853833007811,-2.5570073730468748,6.308721374511719,34.030534351145036,-50.656488549618324,25.068702290076335,1.0
10.020000696182251,-15.126566088867186,-2.7269956909179687,6.79953271484375,55.61832061068702,71.96946564885496,6.717557251908397,-15.251064575195311,-2.5426421630859375,6.962338427734375,37.17557251908397,-68.90076335877863,23.16030534351145,1.0
10.030000686645508,-13.864821813964843,0.948103857421875,3.0166940917968748,35.221374045801525,65.87786259541984,-11.618320610687023,-14.595053320312498,-2.370259643554687,7.256825231933593,38.0,-86.59541984732824,17.83206106870229,1.0
10.040000677108765,-13.548787194824218,-2.2074539306640624,3.306392492675781,16.99236641221374,62.0763358778626,-23.358778625954198,-13.951013073730469,-0.967257470703125,7.848193041992187,19.00763358778626,-94.8854961832061,11.450381679389313,1.0
10.05008864402771,-10.563217724609375,-2.157175695800781,0.09816226806640624,-6.061068702290076,52.961832061068705,-35.221374045801525,-13.120225097656249,1.8315642700195311,6.600813977050781,-5.740458015267175,-104.07633587786259,7.877862595419847,1.0
10.0600004196167,-8.664615808105468,-0.7158662963867187,-2.5905261962890624,-8.83969465648855,50.6412213740458,-42.61068702290076,-13.95580147705078,1.0486603271484374,6.4834980957031245,-28.793893129770993,-111.83206106870229,7.32824427480916,1.0
10.070000648498535,-8.48505068359375,3.9312791259765625,-2.4899697265625,1.984732824427481,56.045801526717554,-37.847328244274806,-14.118607189941406,-0.74699091796875,5.973533142089844,-47.603053435114504,-114.51908396946565,6.183206106870229,1.0
10.080000638961792,-8.355763793945313,4.163516687011718,-0.6967126831054687,15.267175572519085,62.82442748091603,-26.396946564885496,-13.66849727783203,-2.2649147705078123,3.6750995483398436,-60.045801526717554,-117.58778625954199,2.7938931297709924,1.0
10.090000629425049,-8.789114294433594,2.8562825805664063,-0.9169792358398436,22.229007633587788,67.78625954198473,-19.099236641221374,-11.877634436035155,-3.6104561035156246,0.9744400756835937,-50.82442748091603,-119.49618320610686,-2.9160305343511452,1.0
10.100000858306885,-9.208099584960937,3.0071172851562498,0.5027823486328125,18.68702290076336,66.1526717557252,-20.610687022900763,-12.485761657714843,-5.054159704589844,-0.5363011718749999,-12.854961832061068,-129.63358778625954,-7.694656488549619,1.0
10.110000610351562,-9.380482104492186,3.1866824096679687,-0.26815058593749996,13.954198473282442,62.74809160305343,-20.519083969465647,-12.028469140624999,-2.1308394775390624,0.354341845703125,10.412213740458014,-131.6793893129771,-13.725190839694656,1.0
10.12000036239624,-11.587936035156249,4.084508032226562,0.6943184814453125,0.9770992366412213,58.213740458015266,-19.00763358778626,-12.46900224609375,-0.8906430175781249,2.882618798828125,22.82442748091603,-126.44274809160305,-18.977099236641223,1.0
10.130000591278076,-13.903129040527343,4.565742565917969,3.1316157714843746,-15.19083969465649,52.19847328244275,-20.458015267175572,-13.065158459472656,2.214636535644531,1.8339584716796873,21.862595419847327,-135.72519083969465,-28.076335877862597,1.0
10.140000581741333,-11.200075366210937,1.6639701538085936,1.22583125,-25.572519083969464,42.0,-20.549618320610687,-13.160926525878905,1.5227122558593749,1.7669208251953124,14.106870229007633,-130.10687022900763,-32.36641221374046,1.0
10.15000057220459,-11.851298217773437,0.814028564453125,1.2808978881835937,-28.091603053435115,45.51145038167939,-25.236641221374047,-13.680468286132811,0.6823474731445313,1.1013327636718748,11.465648854961833,-122.04580152671755,-29.740458015267176,1.0
10.160000324249268,12.808978881835937,-39.2266,-25.0912333984375,65.20610687022901,15.465648854961833,1.9694656488549618,-13.881581225585936,-1.120486376953125,1.678335363769531,8.396946564885496,-109.20610687022901,-25.83206106870229,1.0
10.170055389404297,-1.1851298217773436,-39.2266,-18.45690059814453,429.70992366412213,204.5801526717557,9.86259541984733,-8.997409838867187,-5.092466931152344,2.308010400390625,16.85496183206107,-104.65648854961832,-23.6793893129771,1.0
10.18000054359436,-14.267047692871094,-2.2266075439453124,-0.3758896606445312,487.0534351145038,238.9618320610687,-44.36641221374046,-7.395688928222656,-3.4261025756835934,2.109291662597656,36.595419847328245,-104.73282442748092,-34.42748091603053,1.0
10.190000534057617,-24.825477014160153,28.548460595703123,5.157110375976562,314.44274809160305,196.41221374045801,-83.74045801526718,-8.779537487792968,0.8355763793945312,1.9919757812499999,60.213740458015266,-113.2824427480916,-33.587786259541986,1.0
10.200000286102295,-17.417817077636716,34.84042255859375,5.293579870605469,111.19083969465649,139.45038167938932,-83.41984732824427,-8.556876733398436,5.006275671386718,1.6831237670898436,15.83206106870229,-95.87786259541984,-34.18320610687023,1.0
10.21000075340271,-12.701239807128905,20.848708056640625,1.8459294799804686,-46.2442748091603,86.90076335877863,-86.61068702290076,-10.46984385986328,2.7174188842773437,1.3096283081054687,-4.0,-88.41221374045801,-22.702290076335878,0.0
10.220000505447388,-13.951013073730469,15.962142468261717,2.221819140625,-143.57251908396947,38.916030534351144,-96.53435114503817,-11.602301245117188,0.5865794067382812,1.8435352783203125,-16.82442748091603,-85.5114503816794,-15.954198473282442,0.0
10.230000734329224,-7.3669585083007805,-1.2976572998046874,-2.528276953125,-109.08396946564885,30.580152671755727,-75.2824427480916,-9.878476049804688,-1.8363526733398436,1.9871873779296874,-22.3206106870229,-85.66412213740458,-18.03053435114504,0.0
10.240000486373901,-18.612523706054688,21.729774267578122,4.223371728515625,-109.23664122137404,49.38931297709924,-80.93129770992367,-10.457872851562499,-4.924872814941406,2.959233251953125,-7.190839694656488,-89.78625954198473,-22.50381679389313,0.0
10.250000476837158,-11.372457885742186,9.557653027343749,0.488417138671875,-236.06106870229007,-25.6793893129771,-63.954198473282446,-12.39238779296875,-3.9719805541992184,3.2704794677734372,21.129770992366414,-98.04580152671755,-29.786259541984734,0.0
10.260000944137573,-12.059593762207031,9.026140258789061,1.6927005737304686,-220.93129770992365,-22.564885496183205,-47.74045801526717,-11.235988391113281,-3.5003228271484375,3.9983167724609374,40.42748091603053,-96.73282442748092,-31.19083969465649,0.0
10.270000696182251,-8.372523205566406,-2.221819140625,-2.863465185546875,-206.8854961832061,-28.931297709923665,-28.763358778625953,-10.077194787597655,-2.0087351928710935,3.9432501342773434,54.67175572519084,-102.51908396946565,-34.94656488549618,0.0
10.280000686645508,-10.807426293945312,-1.0797849487304687,1.4341267944335936,-154.42748091603053,-8.564885496183207,-18.9618320610687,-8.901641772460938,-0.5410895751953124,4.426878869628906,62.25954198473283,-99.86259541984732,-34.51908396946565,0.0
10.290000915527344,-7.874529260253905,-4.144363073730468,-1.5298948608398437,-133.1145038167939,-13.908396946564885,-9.954198473282442,-7.184999182128906,-0.21308394775390624,4.292803576660156,60.030534351145036,-98.16793893129771,-34.12213740458015,0.0
10.300000667572021,-9.418789331054686,0.0430956298828125,1.9105729248046874,-97.6793893129771,7.984732824427481,-9.236641221374045,-5.2073886108398435,-0.9552864624023437,4.862623571777344,51.64885496183206,-89.7557251908397,-31.206106870229007,0.0
10.310000658035278,-7.967903124999999,-2.1404162841796874,-0.8307879760742187,-89.64885496183206,5.297709923664122,-4.763358778625954,-4.187458703613281,0.4955997436523437,5.102043737792968,36.595419847328245,-82.76335877862596,-31.84732824427481,0.0
10.320000410079956,-16.49604943847656,11.015721838378905,5.2624552490234375,-85.55725190839695,32.74809160305343,-13.221374045801527,-3.622427111816406,1.407790576171875,4.613626599121093,25.954198473282442,-77.1145038167939,-32.3206106870229,0.0
10.330000638961792,-12.624625354003905,11.425130322265625,4.623203405761719,-175.08396946564886,-25.938931297709924,-8.67175572519084,-5.968744738769531,0.7948749511718749,4.728548278808593,12.442748091603054,-67.54198473282443,-30.061068702290076,0.0
10.34010910987854,-19.610905798339843,14.173673828124999,7.208941198730468,-197.63358778625954,-32.412213740458014,4.67175572519084,-4.417302062988281,1.9608511596679685,4.0988732421875,-0.2595419847328244,-68.06106870229007,-28.778625954198475,0.0
10.350000619888306,-14.085088366699217,5.758054992675781,2.252943762207031,-223.1908396946565,-75.19083969465649,33.74045801526717,-5.65031591796875,0.737414111328125,4.498704919433593,-19.022900763358777,-56.2442748091603,-25.893129770992367,0.0
10.360000848770142,-7.426813549804687,-7.850587243652344,-2.602497204589844,-159.72519083969465,-82.06106870229007,60.916030534351144,-6.880935571289062,-0.028730419921875,4.2880151733398435,-18.229007633587788,-54.656488549618324,-20.931297709923665,0.0
10.37000060081482,-5.817910034179687,-9.775525378417969,-2.5450363647460934,-104.61068702290076,-67.06870229007633,57.52671755725191,-5.363011718749999,-0.2753331909179687,4.352658618164062,-19.81679389312977,-51.19083969465649,-22.137404580152673,0.0
10.380000352859497,-4.062960217285156,-12.804190478515624,-1.946485949707031,-34.213740458015266,-43.23664122137404,42.85496183206107,-4.979939453125,-0.6368576416015624,4.637568615722656,-9.16030534351145,-43.43511450381679,-23.19083969465649,0.0
10.390000581741333,-4.13718046875,-11.396399902343749,-1.235408056640625,16.213740458015266,-17.236641221374047,20.610687022900763,-5.95677373046875,-2.463633508300781,5.578489868164062,3.1908396946564888,-38.82442748091603,-21.557251908396946,0.0
10.40000057220459,-5.432443566894531,-8.118737829589843,-0.9720458740234375,53.25190839694657,7.175572519083969,-2.6106870229007635,-2.1116858642578125,0.17477672119140625,4.429273071289062,10.351145038167939,-45.083969465648856,-28.931297709923665,0.0
10.410000324249268,-8.908824377441405,-1.235408056640625,0.7781155395507812,69.7557251908397,26.748091603053435,-22.549618320610687,-3.9240965209960934,-0.7350199096679687,5.798756420898437,4.030534351145038,-16.33587786259542,-31.66412213740458,0.0
10.420000314712524,-9.97184991455078,2.5570073730468748,1.8842367065429686,59.083969465648856,33.06870229007634,-28.65648854961832,-4.8123453369140625,-0.0526724365234375,3.778050219726562,8.977099236641221,-22.99236641221374,-28.717557251908396,0.0
10.43000054359436,-9.440337145996093,3.1220389648437497,1.7501614135742187,52.3206106870229,32.0763358778626,-25.84732824427481,-6.768408093261718,-1.0319009155273438,5.106832141113281,5.633587786259542,-7.282442748091603,-26.259541984732824,0.0
10.440179109573364,-9.208099584960937,2.221819140625,1.5921441040039062,54.67175572519084,37.63358778625954,-22.458015267175572,-7.599196069335937,-1.39821376953125,4.1946413085937495,10.610687022900763,-11.83206106870229,-23.236641221374047,0.0
10.45005750656128,-9.466673364257812,3.2537200561523436,0.9911994873046874,54.79389312977099,39.038167938931295,-24.38167938931298,-8.504204296874999,-1.9967641845703124,5.336675500488281,11.801526717557252,-4.702290076335878,-23.51145038167939,0.0
10.46000075340271,-11.688492504882811,4.946420629882812,1.3718775512695311,50.10687022900763,41.05343511450382,-24.748091603053435,-8.571241943359375,-2.29843359375,4.872200378417968,16.229007633587788,-7.114503816793893,-25.17557251908397,0.0
10.470000505447388,-11.477802758789062,5.734112976074218,0.7781155395507812,37.86259541984733,33.05343511450382,-20.366412213740457,-7.841010437011718,-1.8770541015625,4.833893151855468,19.6793893129771,-8.366412213740459,-28.015267175572518,0.0
10.480000495910645,-13.1776859375,5.781997009277344,1.618480322265625,24.99236641221374,31.893129770992367,-15.129770992366412,-6.907271789550781,-1.1875240234375,4.783614916992187,20.68702290076336,-7.099236641221374,-29.770992366412212,0.0
10.49000072479248,-12.083535778808592,5.224148022460938,1.8650830932617186,14.13740458015267,28.793893129770993,-11.419847328244275,-6.4284314575195305,-1.0678139404296874,5.128379956054687,19.053435114503817,-2.213740458015267,-29.633587786259543,0.0
10.500093460083008,-11.822567797851562,4.185064501953125,1.5849614990234373,1.4961832061068703,24.27480916030534,-9.664122137404581,-5.916072302246094,-0.7278373046875,5.394136340332031,16.458015267175572,1.984732824427481,-29.114503816793892,0.0
10.510000705718994,-11.195286962890624,2.8227637573242186,1.3215993164062498,1.2366412213740459,25.19083969465649,-8.106870229007633,-6.296750366210937,-0.9217676391601562,5.84185205078125,18.916030534351144,6.564885496183206,-27.022900763358777,0.0
10.52012038230896,-11.341333264160156,2.233790148925781,1.1731588134765625,-2.427480916030534,24.885496183206108,-9.816793893129772,-6.392518432617187,-0.9624690673828125,6.251260534667968,19.984732824427482,9.48091603053435,-25.404580152671755,0.0
10.530000448226929,-11.171344946289063,2.0925322509765625,1.62805712890625,-7.877862595419847,23.129770992366414,-10.67175572519084,-6.509834313964843,-0.948103857421875,6.275202551269531,23.328244274809162,11.786259541984732,-24.091603053435115,0.0
10.540000677108765,-11.671733093261718,1.62805712890625,1.47482822265625,-11.297709923664122,22.519083969465647,-10.977099236641221,-6.301538769531249,-0.5051765502929687,6.030993981933594,25.16030534351145,12.82442748091603,-22.519083969465647,0.0
10.550000667572021,-12.076353173828124,1.4939818359375,1.9393033447265624,-17.34351145038168,21.221374045801525,-12.50381679389313,-6.155492468261718,-0.2442085693359375,5.655104321289063,26.458015267175572,15.358778625954198,-20.045801526717558,0.0
10.560000896453857,-11.841721411132811,1.2306196533203124,2.4492682983398435,-20.80916030534351,19.587786259541986,-14.213740458015268,-5.504269616699219,0.38786066894531246,5.0948611328124995,26.213740458015266,18.198473282442748,-17.572519083969464,0.0
10.570000648498535,-11.267113012695312,1.1923124267578125,2.920926025390625,-21.69465648854962,17.31297709923664,-16.48854961832061,-6.0142345703124995,0.07422025146484375,5.181052392578125,24.9618320610687,23.87786259541985,-13.603053435114504,0.0
10.580000638961792,-12.224793676757812,2.7437551025390623,4.4005426513671875,-28.16793893129771,15.358778625954198,-20.702290076335878,-3.749319799804687,3.450044592285156,3.6008792968749996,13.526717557251908,21.908396946564885,-14.82442748091603,0.0
10.590000629425049,-10.429142431640624,4.216189123535156,4.872200378417968,-38.3206106870229,-0.5343511450381679,-18.259541984732824,1.905784521484375,7.4770917846679685,1.455674609375,-28.137404580152673,35.29770992366412,-21.740458015267176,0.0
10.600099325180054,-10.412383020019531,3.6152445068359373,5.659892724609374,-43.3587786259542,-9.526717557251908,-12.885496183206106,-3.0502129150390624,2.133233679199219,4.039018200683594,-72.41221374045801,83.95419847328245,-11.251908396946565,0.0
10.610000610351562,-11.240776794433593,3.881000891113281,8.288726147460936,-53.16030534351145,-14.458015267175572,-14.045801526717558,0.928950244140625,5.295974072265625,-0.4429273071289062,-88.54961832061069,71.26717557251908,-4.091603053435114,0.0
10.62000060081482,-11.681309899902343,4.060566015625,8.329427575683594,-53.66412213740458,-34.152671755725194,-13.32824427480916,2.8706477905273435,9.749189160156249,-3.0933085449218747,-141.1145038167939,112.79389312977099,-16.091603053435115,0.0
10.630000591278076,-11.042058056640624,3.1004911499023438,9.248801013183593,-46.16793893129771,-45.00763358778626,-6.595419847328245,-6.332663391113281,1.369483349609375,-0.4070142822265625,-187.40458015267177,174.35114503816794,-4.854961832061068,0.0
10.640000343322754,-12.136208215332031,3.0885201416015624,11.6837041015625,-46.10687022900763,-56.82442748091603,-9.297709923664122,-11.774683764648437,-1.956062756347656,-0.33039982910156246,-165.32824427480915,167.6946564885496,3.984732824427481,0.0
10.650000810623169,-15.691597680664062,2.5043349365234375,12.684480395507812,-37.32824427480916,-83.45038167938931,-12.13740458015267,-16.76659422607422,-7.687781530761718,7.062894897460937,-144.54961832061068,187.49618320610688,2.549618320610687,0.0
10.66013765335083,-15.270218188476562,-1.16837041015625,13.290213415527344,-15.114503816793894,-107.40458015267176,-5.099236641221374,-5.209782812499999,-0.4333505004882812,2.4851813232421875,-135.3587786259542,148.33587786259542,-17.00763358778626,0.0
10.670153379440308,-16.333243725585938,-2.04943662109375,14.650119958496093,14.412213740458014,-126.97709923664122,-7.282442748091603,-11.61906065673828,4.467580297851562,2.540247961425781,-220.19847328244273,205.9236641221374,-27.251908396946565,0.0
10.68000054359436,-19.52471453857422,-0.5817910034179687,14.85602130126953,28.106870229007633,-152.19847328244273,-8.290076335877863,-11.903970654296874,1.1348515869140625,-1.9728221679687499,-199.29770992366412,192.3206106870229,-1.2213740458015268,0.0
10.690000295639038,-18.72026278076172,-2.085349645996094,13.874398620605469,39.38931297709924,-189.6793893129771,-6.030534351145038,-16.074669946289063,-2.8203695556640622,-0.5027823486328125,-199.06870229007635,199.3587786259542,16.900763358778626,0.0
10.700370788574219,-17.405846069335936,-2.588131994628906,10.216058483886718,71.14503816793894,-207.7709923664122,-0.15267175572519084,-13.2159931640625,-8.992621435546875,2.4779987182617185,-133.48091603053436,168.59541984732823,34.54961832061068,0.0
10.71000075340271,-16.49126103515625,-1.0510545288085937,3.545812658691406,74.80916030534351,-223.84732824427482,-1.4961832061068703,-13.824120385742187,-9.878476049804688,3.5003228271484375,-67.87786259541984,133.96946564885496,42.87022900763359,0.0
10.720237731933594,-15.308525415039062,0.718260498046875,-2.789244934082031,73.48091603053435,-231.5267175572519,1.8015267175572518,-11.722011328125,-9.543287817382812,3.1220389648437497,-4.244274809160306,94.61068702290076,47.81679389312977,0.0
10.730000734329224,-15.62216583251953,3.066972326660156,-6.751648681640624,51.80152671755725,-228.06106870229007,9.923664122137405,-9.035717065429687,-6.907271789550781,2.262520568847656,42.33587786259542,68.06106870229007,47.87786259541985,0.0
10.740000486373901,-14.733917016601561,3.375824340820312,-9.514557397460937,19.709923664122137,-222.9618320610687,20.47328244274809,-10.177751257324218,-2.3151930053710936,-0.33758243408203126,79.86259541984732,46.961832061068705,47.32824427480916,0.0
10.750000476837158,-11.920730065917969,-1.3934253662109375,-6.864176159667968,7.099236641221374,-213.05343511450383,30.80916030534351,-8.28633194580078,2.3439234252929686,-1.0941501586914062,72.4885496183206,40.97709923664122,44.33587786259542,0.0
10.760000705718994,-11.820173596191406,-3.574543078613281,-2.0374656127929685,30.015267175572518,-186.38167938931298,41.14503816793893,-8.832209924316405,2.3582886352539063,-1.0534487304687499,53.43511450381679,46.58015267175573,44.961832061068705,0.0
10.770000457763672,-11.10191309814453,-4.316745593261719,1.7597382202148437,57.25190839694657,-161.05343511450383,43.45038167938932,-9.82580361328125,2.741360900878906,-2.2936451904296873,30.442748091603054,50.732824427480914,45.98473282442748,0.0
10.780084133148193,-8.202534887695313,-5.461173986816406,0.7589619262695312,92.18320610687023,-142.12213740458014,46.412213740458014,-10.912771166992187,2.6599580444335937,-2.147598889160156,4.870229007633588,61.603053435114504,48.213740458015266,0.0
10.790000438690186,-8.726865051269531,-1.3575123413085937,1.2689268798828124,108.58015267175573,-111.23664122137404,44.091603053435115,-10.445901843261717,2.77727392578125,-1.7334020019531249,-37.908396946564885,80.41221374045801,49.70992366412214,0.0
10.800000429153442,-10.448296044921875,2.712630480957031,1.2330138549804688,101.72519083969466,-99.81679389312977,41.48091603053435,-11.884817041015625,-0.6560112548828124,0.15562310791015624,-48.06106870229008,93.6030534351145,56.3206106870229,0.0
10.810000658035278,-9.986215124511718,4.110844250488281,1.8148048583984373,82.25954198473282,-95.63358778625954,43.48091603053435,-11.690886706542969,-1.0319009155273438,-0.22744915771484372,-62.50381679389313,100.56488549618321,58.732824427480914,0.0
10.820000886917114,-9.938331091308592,4.211400720214844,0.9696516723632812,55.465648854961835,-97.26717557251908,48.0,-8.889670764160156,-1.0989385620117187,-1.1540052001953125,-60.152671755725194,92.10687022900764,56.18320610687023,0.0
10.830000877380371,-9.485826977539062,4.458003491210937,1.0390835205078124,27.404580152671755,-96.74809160305344,49.7557251908397,-10.139444030761718,-4.235342736816406,0.8762778076171874,-60.030534351145036,97.29770992366412,58.85496183206107,0.0
10.840000867843628,-9.33978067626953,4.944026428222656,0.5291185668945312,-10.961832061068701,-103.00763358778626,50.47328244274809,-7.781155395507812,-3.909731311035156,0.9313444458007812,-54.67175572519084,89.2824427480916,57.38931297709924,0.0
10.850051879882812,-4.778826513671874,0.033518823242187495,-2.6431986328124997,-22.931297709923665,-108.38167938931298,57.541984732824424,-9.425971936035156,-6.610390783691406,1.7597382202148437,-34.83969465648855,84.9618320610687,61.29770992366412,0.0
10.860000848770142,-1.908178723144531,-1.9943699829101562,-3.4620156005859375,-15.267175572519085,-88.1526717557252,59.603053435114504,-7.943961108398437,-3.1172505615234374,0.622492431640625,-21.984732824427482,76.27480916030534,57.7557251908397,0.0
10.870215892791748,-3.816357446289062,0.8068459594726562,-2.0374656127929685,-17.221374045801525,-68.38167938931298,47.847328244274806,-7.723694555664062,-4.127603662109375,1.4341267944335936,-11.557251908396946,77.46564885496183,57.12977099236641,0.0
10.880000352859497,0.5434837768554687,-3.9815573608398434,-4.46279189453125,-22.106870229007633,-66.27480916030534,45.25190839694657,-12.30859073486328,-11.63821427001953,5.6574985229492185,26.366412213740457,84.3969465648855,64.62595419847328,0.0
10.890062093734741,1.467645617675781,-5.145139367675781,-4.510675927734375,-7.099236641221374,-28.16793893129771,38.01526717557252,-8.183381274414062,-5.923254907226562,2.6767174560546874,64.80916030534351,54.916030534351144,58.961832061068705,0.0
10.90000033378601,-1.8148048583984373,-0.08858546142578125,-1.458068811035156,-21.96946564885496,-11.725190839694656,17.022900763358777,-10.723629235839843,-3.488351818847656,2.094926452636719,69.32824427480917,51.25190839694657,53.099236641221374,0.0
10.910419225692749,-1.1923124267578125,0.6536170532226562,-0.7350199096679687,-39.02290076335878,1.3435114503816794,10.610687022900763,-9.023746057128905,-3.1076737548828124,1.4939818359375,67.08396946564885,41.48091603053435,48.274809160305345,0.0
10.920000314712524,-0.7924807495117187,1.2210428466796874,-0.13168109130859373,-42.88549618320611,18.427480916030536,8.106870229007633,-12.332532751464843,-3.1747114013671873,2.3319524169921872,63.11450381679389,44.3206106870229,42.29007633587786,0.0
10.93000054359436,0.5602431884765625,1.5849614990234373,0.6679822631835937,-38.47328244274809,33.099236641221374,4.885496183206107,-10.043675964355469,-2.940079638671875,2.6910826660156246,53.099236641221374,37.3587786259542,32.36641221374046,0.0
10.940000772476196,0.33758243408203126,2.1404162841796874,2.6886884643554687,-39.80152671755725,41.43511450381679,0.13740458015267176,-10.220846887207031,-1.93451494140625,3.5314474487304683,42.67175572519084,36.56488549618321,24.763358778625953,0.0
10.950000762939453,0.3280056274414062,1.149216796875,4.7381250854492185,-30.412213740458014,44.97709923664122,0.3816793893129771,-11.52329259033203,-2.8658593872070313,6.076483813476562,31.51145038167939,40.88549618320611,22.80916030534351,0.0
10.960496425628662,-0.5578489868164063,1.2425906616210938,7.381323718261719,-6.137404580152672,49.32824427480916,5.679389312977099,-12.471396447753905,-3.8283284545898435,6.524199523925781,31.923664122137403,34.6412213740458,22.83969465648855,0.0
10.970221757888794,-3.0358477050781247,2.8012159423828122,9.830592016601562,13.312977099236642,49.43511450381679,13.557251908396946,-10.802637890625,-2.703053674316406,5.600037683105469,23.862595419847327,23.72519083969466,20.793893129770993,0.0
10.980000495910645,-5.097255334472656,3.299209887695312,11.305420239257812,21.938931297709924,43.847328244274806,21.908396946564885,-14.9015111328125,-5.872976672363281,8.537723120117187,31.099236641221374,23.801526717557252,25.34351145038168,0.0
10.99000072479248,-6.773196496582031,2.473210314941406,12.334926953124999,27.954198473282442,34.47328244274809,28.244274809160306,-11.130643518066405,-4.223371728515625,6.074089611816406,49.49618320610687,-8.122137404580153,21.51145038167939,0.0
11.000000238418579,-6.121973645019531,1.8028338500976562,9.617508068847656,36.88549618320611,19.328244274809162,31.16030534351145,-10.36210478515625,0.8834604125976562,3.758896606445312,28.48854961832061,-18.045801526717558,13.740458015267176,0.0
11.010000705718994,-5.700594152832031,3.9312791259765625,3.584119885253906,22.549618320610687,16.99236641221374,32.595419847328245,-11.822567797851562,-2.157175695800781,7.127538342285156,-2.7480916030534353,-5.847328244274809,16.748091603053435,0.0
11.020000457763672,-5.667075329589843,0.47884033203125,-1.8052280517578123,-21.404580152671755,9.770992366412214,26.641221374045802,-11.085153686523437,-2.1739351074218747,6.567295153808593,-3.969465648854962,-23.099236641221374,16.33587786259542,0.0
11.030000686645508,-10.378864196777343,1.2976572998046874,-3.0430303100585934,-54.091603053435115,12.351145038167939,11.694656488549619,-10.79545528564453,-1.5466542724609373,5.990292553710937,-22.03053435114504,-30.610687022900763,14.732824427480915,0.0
11.040307521820068,-10.386046801757812,-1.5753846923828123,-4.290409374999999,-60.06106870229008,27.31297709923664,14.641221374045802,-14.84883869628906,-6.907271789550781,8.920795385742187,-17.893129770992367,-29.404580152671755,19.984732824427482,0.0
11.050000667572021,-14.616601135253905,-4.57771357421875,3.6750995483398436,-29.31297709923664,53.51145038167939,19.740458015267176,-14.058752148437499,-7.400477331542969,7.522581616210937,16.30534351145038,-73.3587786259542,18.427480916030536,0.0
11.060000896453857,-16.455348010253907,-4.197035510253906,10.907982763671875,54.74809160305343,73.16030534351145,20.870229007633586,-15.377957263183593,-4.786009118652344,6.564900952148437,29.297709923664122,-103.20610687022901,10.961832061068701,0.0
11.070000410079956,-15.157690710449218,0.07422025146484375,5.540182641601562,80.61068702290076,82.3969465648855,14.946564885496183,-15.844826586914062,-2.93050283203125,7.572859851074218,15.038167938931299,-108.1526717557252,1.6030534351145038,0.0
11.080000877380371,-15.806519360351562,2.4660277099609376,0.5267243652343749,24.717557251908396,76.38167938931298,-4.3816793893129775,-14.39633458251953,-4.522646936035156,8.341398583984375,19.81679389312977,-127.06870229007633,-7.541984732824427,0.0
11.090000629425049,-12.416329809570312,-2.269703173828125,2.1356278808593747,-10.610687022900763,66.58015267175573,-12.580152671755725,-14.324508532714843,-1.3838485595703125,7.407659936523437,32.25954198473283,-156.793893129771,-14.885496183206106,0.0
11.100000858306885,-12.188880651855468,0.12210428466796874,1.707065783691406,-18.595419847328245,64.22900763358778,-19.938931297709924,-15.837643981933592,2.5354595581054684,5.561730456542969,26.015267175572518,-165.48091603053436,-18.595419847328245,0.0
11.110000371932983,-12.495338464355468,2.212242333984375,2.5713725830078125,-39.52671755725191,51.66412213740458,-25.450381679389313,-15.658078857421874,5.066130712890625,1.3479355346679687,18.65648854961832,-168.0916030534351,-14.030534351145038,0.0
11.120000839233398,-9.89523546142578,1.16837041015625,0.7661445312499999,-47.847328244274806,42.717557251908396,-23.297709923664122,-14.8248966796875,7.5537062377929685,-2.104503259277344,-1.465648854961832,-166.61068702290078,-4.854961832061068,0.0
11.130000591278076,-8.12113203125,-0.45489831542968745,-0.105344873046875,-41.099236641221374,47.37404580152672,-20.549618320610687,-15.401899279785155,5.434837768554687,-2.212242333984375,-25.908396946564885,-152.45801526717557,4.687022900763359,0.0
11.140000343322754,-7.577648254394531,-1.0079588989257813,-1.0438719238281249,-39.74045801526717,49.038167938931295,-23.603053435114504,-14.935029956054686,4.7572786987304685,-3.603273498535156,-44.85496183206107,-140.19847328244273,8.83969465648855,0.0
11.15000057220459,-5.518634826660156,-2.952050646972656,-1.3862427612304686,-3.786259541984733,66.67175572519083,-17.206106870229007,-15.136142895507811,0.5817910034179687,-3.1507693847656246,-57.74045801526717,-124.99236641221374,9.740458015267176,0.0
11.160000562667847,10.802637890625,-16.78335363769531,-8.410830432128906,66.68702290076335,79.78625954198473,-10.854961832061068,-12.770671655273437,-0.8714894042968749,-2.8323405639648436,-63.86259541984733,-115.43511450381679,0.5954198473282443,0.0
11.170145750045776,4.5968671875,-18.028338500976563,-9.323021264648437,188.15267175572518,158.85496183206106,-25.17557251908397,-11.65736788330078,-4.745307690429687,-0.948103857421875,-61.48091603053435,-93.80152671755725,-7.969465648854962,0.0
11.18000054359436,-10.046070166015625,-1.1516109985351561,-4.199429711914062,213.40458015267177,187.12977099236642,-79.05343511450381,-11.245565197753905,-6.959944226074218,0.7876923461914062,-43.3587786259542,-79.17557251908397,-18.259541984732824,0.0
11.19009017944336,-11.437101330566406,5.396530541992187,-2.2768857788085937,187.00763358778627,173.08396946564886,-85.31297709923665,-12.243947290039062,-6.967126831054687,1.7860744384765623,-15.083969465648854,-76.70229007633588,-20.916030534351144,0.0
11.200000524520874,-9.849745629882811,-2.5139117431640625,-5.121197351074218,212.21374045801528,189.75572519083968,-62.18320610687023,-10.919953771972656,-3.6296097167968746,1.6017209106445311,6.33587786259542,-81.38931297709924,-28.076335877862597,0.0
11.21000075340271,-14.092270971679687,2.327164013671875,-0.7326257080078125,231.22137404580153,207.55725190839695,-65.66412213740458,-9.181763366699219,-1.68551796875,1.3192051147460937,13.786259541984732,-79.08396946564885,-35.05343511450382,0.0
11.220000505447388,5.772420202636718,-28.040889843749998,-23.010672155761718,271.57251908396944,160.4885496183206,-43.00763358778626,-9.124302526855468,-0.45968671875,1.2569558715820313,20.82442748091603,-73.66412213740458,-36.94656488549618,0.0
11.230000734329224,-13.453019128417967,-16.89827531738281,-12.89038173828125,500.25954198473283,312.1526717557252,-35.343511450381676,-5.504269616699219,-1.3024457031249999,1.6998831787109374,20.977099236641223,-73.66412213740458,-39.29770992366412,0.0
11.240000247955322,-25.69217801513672,32.79816854248047,7.486668591308593,426.7022900763359,272.9770992366412,-75.22137404580153,-10.280701928710936,-3.660734338378906,2.7748797241210936,50.51908396946565,-76.97709923664122,-44.80916030534351,0.0
11.250000238418579,-19.103335046386718,36.379894226074214,8.710105639648438,186.0,181.206106870229,-76.9618320610687,-9.421183532714844,0.12689268798828124,2.4851813232421875,55.404580152671755,-95.63358778625954,-47.57251908396947,0.0
11.26002287864685,-13.57272921142578,30.844499987792968,6.60799658203125,-21.00763358778626,99.83206106870229,-84.29007633587786,-7.101202124023437,2.499546533203125,1.024718310546875,27.96946564885496,-94.68702290076335,-52.10687022900763,0.0
11.270190954208374,-8.109161022949218,16.85996809082031,3.67749375,-153.48091603053436,35.61832061068702,-91.06870229007633,-7.594407666015624,-1.0510545288085937,1.62805712890625,21.633587786259543,-84.61068702290076,-43.89312977099237,0.0
11.280000686645508,-5.691017346191406,-0.296881005859375,-0.8858546142578124,-135.38931297709922,25.51145038167939,-76.94656488549619,-7.187393383789062,-3.5817256835937497,3.3446997192382812,30.564885496183205,-79.58778625954199,-35.29770992366412,0.0
11.290016889572144,-6.629544396972656,-0.5913678100585937,0.7398083129882812,-96.41221374045801,21.236641221374047,-62.83969465648855,-7.864952453613281,-4.182670300292968,4.0988732421875,64.33587786259542,-93.52671755725191,-33.66412213740458,0.0
11.300000429153442,-7.879317663574218,0.6703764648437499,1.0678139404296874,-66.16793893129771,26.442748091603054,-47.847328244274806,-6.217741711425781,-1.216254443359375,4.034229797363281,75.96946564885496,-97.37404580152672,-38.80916030534351,0.0
11.310000658035278,-8.271966735839843,1.8818425048828125,0.9193734375,-54.10687022900763,29.786259541984734,-33.86259541984733,-6.945579016113281,-1.0726023437499999,5.233724829101562,73.86259541984732,-83.66412213740458,-36.93129770992366,0.0
11.320000886917114,-8.090007409667969,-0.086191259765625,0.8882488159179687,-52.19847328244275,27.938931297709924,-26.870229007633586,-5.070919116210937,0.603338818359375,4.932055419921875,66.62595419847328,-81.38931297709924,-36.091603053435115,0.0
11.330000877380371,-8.978256225585938,-2.1739351074218747,0.6560112548828124,-33.61832061068702,32.3206106870229,-22.412213740458014,-4.398148449707031,3.1124621582031247,3.825934252929687,54.13740458015267,-78.16793893129771,-33.81679389312977,0.0
11.340000867843628,-10.374075793457031,0.19153613281249998,1.2138602416992186,-29.770992366412212,36.06106870229008,-20.931297709923665,-5.1882349975585935,2.2553379638671873,4.802768530273437,28.702290076335878,-64.36641221374046,-27.114503816793892,0.0
11.350024938583374,-7.75721337890625,-0.7038952880859375,-0.24899697265624998,-28.106870229007633,33.3587786259542,-15.34351145038168,-7.240065820312499,1.6136919189453125,4.984727856445312,20.03053435114504,-61.51145038167939,-19.083969465648856,0.0
11.360000848770142,-9.291896643066405,-1.37906015625,-0.8499415893554687,-6.625954198473282,42.12213740458015,-15.541984732824428,-6.548141540527343,2.365471240234375,4.7572786987304685,4.0458015267175576,-63.6793893129771,-18.3206106870229,0.0
11.37000060081482,-8.504204296874999,-2.4444798950195312,-1.1420341918945311,19.267175572519083,48.045801526717554,-13.664122137404581,-6.117185241699218,0.9361328491210937,5.312733483886719,-12.381679389312977,-56.900763358778626,-17.893129770992367,0.0
11.380000829696655,-13.560758203125,7.702146740722656,3.660734338378906,6.961832061068702,54.900763358778626,-25.61832061068702,-8.43956085205078,-1.637633935546875,5.8083332275390624,-14.870229007633588,-52.94656488549618,-14.641221374045802,0.0
11.390000581741333,-10.788272680664061,2.9759926635742184,1.1659762084960936,-33.16030534351145,31.17557251908397,-27.69465648854962,-9.794678991699218,-3.9264907226562498,6.133944653320312,2.9770992366412212,-63.3587786259542,-12.748091603053435,0.0
11.40000033378601,-26.78393397216797,37.91218328857422,21.83272493896484,-115.09923664122137,43.02290076335878,-57.55725190839695,-11.348515869140625,-4.7022120605468745,7.204152795410156,27.297709923664122,-72.45801526717557,-12.030534351145038,0.0
11.410000562667847,-10.13226142578125,13.407529296875,2.942473840332031,-315.00763358778624,-79.55725190839695,-39.099236641221374,-10.819397302246093,-0.9959878906249999,4.8506525634765625,40.99236641221374,-88.58015267175573,-16.061068702290076,0.0
11.420000553131104,-8.91840118408203,-1.3646949462890625,-6.1626750732421876,-262.6564885496183,-90.21374045801527,-13.297709923664122,-7.8721350585937495,-0.0143652099609375,4.570530969238281,30.977099236641223,-88.77862595419847,-16.595419847328245,0.0
11.43000054359436,-18.593370092773437,8.588001354980468,6.179434484863281,-194.25954198473283,-47.57251908396947,-8.01526717557252,-6.926425402832031,-0.5386953735351562,4.446032482910156,31.81679389312977,-88.19847328244275,-15.969465648854962,0.0
11.440000534057617,-15.282189196777344,7.819462622070312,2.559401574707031,-237.6946564885496,-93.40458015267176,2.0916030534351147,-8.595183959960938,0.51714755859375,3.77326181640625,38.595419847328245,-90.10687022900764,-15.679389312977099,0.0
11.450084209442139,-12.746729638671875,-1.9919757812499999,-1.6543933471679686,-209.3740458015267,-118.03053435114504,27.206106870229007,-7.572859851074218,1.5155296508789062,3.6535517333984373,34.35114503816794,-87.40458015267176,-12.198473282442748,0.0
11.46000051498413,-15.023615417480467,-3.0813375366210938,1.419761584472656,-132.77862595419847,-88.67175572519083,44.6412213740458,-6.076483813476562,0.239420166015625,4.247313745117188,28.564885496183205,-78.25954198473282,-9.908396946564885,0.0
11.470000743865967,-10.058041174316406,-4.350264416503906,-0.8906430175781249,-110.54961832061069,-100.58015267175573,48.56488549618321,-5.702988354492187,0.023942016601562498,4.627991809082031,30.045801526717558,-69.3587786259542,-9.755725190839694,0.0
11.480000972747803,-7.218518005371093,-4.058171813964844,0.2753331909179687,-56.595419847328245,-75.2824427480916,42.656488549618324,-4.034229797363281,0.11252747802734374,5.288791467285156,30.198473282442748,-57.66412213740458,-9.068702290076336,0.0
11.49000096321106,-5.872976672363281,-3.9983167724609374,-1.4724340209960938,-39.725190839694655,-63.57251908396947,29.755725190839694,-4.328716601562499,-1.1276689819335937,6.212953308105468,25.541984732824428,-43.12977099236641,-9.969465648854962,0.0
11.500000476837158,-3.9528269409179684,-4.395754248046875,-2.7198130859375,-10.198473282442748,-45.52671755725191,18.946564885496183,-1.7932570434570312,-0.2609679809570312,6.117185241699218,17.31297709923664,-36.091603053435115,-14.778625954198473,0.0
11.510000705718994,-3.6631285400390623,-3.459621398925781,-2.6958710693359373,9.648854961832061,-15.32824427480916,4.931297709923665,-4.103661645507812,-1.01514150390625,6.775590698242187,15.083969465648854,-22.977099236641223,-14.381679389312977,0.0
11.520028114318848,-5.868188269042968,-1.0989385620117187,-1.0630255371093749,19.358778625954198,14.458015267175572,-10.732824427480915,-5.125985754394531,-0.5578489868164063,5.942408520507812,17.862595419847327,-24.80916030534351,-16.045801526717558,0.0
11.530000686645508,-8.049305981445311,0.4165910888671875,-0.49799394531249996,18.870229007633586,30.35114503816794,-19.17557251908397,-5.540182641601562,-0.4644751220703125,6.672640026855468,13.908396946564885,-11.786259541984732,-21.068702290076335,0.0
11.540039777755737,-7.232883215332031,-1.20667763671875,-1.0295067138671874,30.427480916030536,42.83969465648855,-18.213740458015266,-7.9295958984374995,-1.3048399047851562,5.679046337890624,18.99236641221374,-16.793893129770993,-18.564885496183205,0.0
11.550000667572021,-8.990227233886719,0.5051765502929687,-0.24181436767578124,37.12977099236641,56.778625954198475,-23.236641221374047,-5.865794067382812,-0.10773907470703124,4.709394665527343,15.86259541984733,-22.83969465648855,-22.442748091603054,0.0
11.560000896453857,-10.893617553710937,2.6815058593749996,-0.08379705810546874,30.16793893129771,59.038167938931295,-27.00763358778626,-8.798691101074219,-1.0869675537109373,5.702988354492187,21.267175572519083,-16.778625954198475,-22.229007633587788,0.0
11.570000410079956,-11.008539233398437,2.722207287597656,-0.229843359375,22.061068702290076,55.267175572519086,-23.87786259541985,-7.493851196289062,-0.16998831787109375,5.315127685546875,16.977099236641223,-20.076335877862597,-23.61832061068702,0.0
11.580000877380371,-9.674968908691406,1.1923124267578125,-0.6296750366210937,22.580152671755727,54.01526717557252,-19.64885496183206,-6.940790612792968,0.6847416748046875,5.2648494506835934,11.099236641221374,-17.206106870229007,-22.900763358778626,0.0
11.590000867843628,-12.097900988769531,4.350264416503906,1.22583125,17.16030534351145,59.31297709923664,-25.51145038167939,-5.0206408813476555,2.4779987182617185,4.084508032226562,1.816793893129771,-15.679389312977099,-22.48854961832061,0.0
11.600000858306885,-14.480131640624998,6.804321118164062,1.3910311645507811,-18.47328244274809,39.06870229007634,-26.259541984732824,-5.334281298828125,2.142810485839844,4.620809204101562,-10.51908396946565,-5.572519083969466,-18.885496183206108,0.0
11.610000610351562,-12.181698046874999,2.370259643554687,1.2282254516601563,-12.030534351145038,32.2442748091603,-11.648854961832061,-4.874594580078124,1.484405029296875,5.298368273925781,-21.099236641221374,6.564885496183206,-14.198473282442748,0.0
11.62000036239624,-13.235146777343749,3.7134067749023436,3.438073583984375,-11.32824427480916,38.56488549618321,-12.351145038167939,-4.608838195800781,0.5458779785156249,4.953603234863281,-21.755725190839694,8.381679389312977,-11.114503816793894,0.0
11.630000591278076,-13.529633581542967,4.240131140136718,2.427720483398437,-26.38167938931298,23.31297709923664,-17.374045801526716,-4.376600634765625,0.41419688720703124,5.487510205078125,-24.870229007633586,20.671755725190838,-10.549618320610687,0.0
11.640000581741333,-13.158532324218749,3.201047619628906,2.109291662597656,-29.83206106870229,16.641221374045802,-11.129770992366412,-4.3071687866210935,0.2442085693359375,5.468356591796875,-23.450381679389313,27.129770992366414,-8.381679389312977,0.0
11.65000057220459,-11.698069311523437,1.9488801513671874,1.9967641845703124,-30.03053435114504,10.198473282442748,-8.748091603053435,-3.342305517578125,0.7900865478515624,5.011064074707031,-33.66412213740458,43.06870229007634,-8.549618320610687,0.0
11.660000324249268,-10.026916552734374,0.9433154541015625,1.9871873779296874,-31.6793893129771,6.931297709923665,-8.870229007633588,-5.1523219726562495,-1.24498486328125,4.697423657226563,-30.458015267175572,51.74045801526717,-2.9618320610687023,0.0
11.6703462600708,-10.129867224121092,1.3263877197265623,2.770091320800781,-31.053435114503817,6.702290076335878,-13.603053435114504,-6.655880615234374,-2.7844565307617186,4.92247861328125,-19.419847328244273,56.732824427480914,1.3740458015267176,0.0
11.68000054359436,-11.520898388671874,1.3144167114257812,4.426878869628906,-28.580152671755727,7.541984732824427,-18.65648854961832,-6.265625744628906,-2.8012159423828122,4.185064501953125,-3.9083969465648853,56.01526717557252,-0.0916030534351145,0.0
11.690149068832397,-10.496180078124999,0.5865794067382812,5.781997009277344,-15.725190839694656,5.175572519083969,-21.51145038167939,-3.153163586425781,-1.0510545288085937,2.0470424194335934,-5.221374045801527,60.458015267175576,-8.01526717557252,0.0
11.700065612792969,-11.291055029296874,2.0302830078125,7.017405065917968,-10.442748091603054,0.10687022900763359,-23.69465648854962,-3.5506010620117183,-1.8722656982421875,0.5410895751953124,-16.931297709923665,86.30534351145039,-12.885496183206106,0.0
11.71000075340271,-11.748347546386718,3.0071172851562498,8.74601866455078,-10.50381679389313,-8.885496183206106,-24.061068702290076,-5.425260961914062,-3.766079211425781,-0.7015010864257812,-10.961832061068701,101.64885496183206,-11.83206106870229,0.0
11.720000505447388,-14.276624499511717,6.040570788574218,11.666944689941406,-24.748091603053435,-27.51145038167939,-27.068702290076335,-4.0988732421875,-0.4525041137695312,-0.076614453125,-5.251908396946565,107.12977099236642,-18.290076335877863,0.0
11.730000734329224,-16.333243725585938,7.062894897460937,12.567164514160156,-43.57251908396947,-56.229007633587784,-24.106870229007633,-9.643844287109374,0.15083470458984374,9.244012609863281,-27.61832061068702,125.87786259541984,-25.770992366412212,0.0
11.740000486373901,-16.2805712890625,4.872200378417968,13.218387365722656,-46.70229007633588,-84.42748091603053,-17.770992366412212,-13.256694592285156,-7.410054138183593,15.885528015136718,-65.14503816793894,119.95419847328245,-47.404580152671755,0.0
11.750000238418579,-16.409858178710937,4.556165759277343,13.455413330078125,-38.274809160305345,-112.73282442748092,-14.900763358778626,-16.024391711425782,-12.167332836914062,14.14733760986328,-61.29770992366412,140.19847328244273,-71.09923664122137,0.0
11.760000705718994,-15.773000537109374,3.5817256835937497,13.893552233886718,-30.717557251908396,-139.70992366412213,-11.389312977099237,-7.6614453125,-0.316034619140625,4.53940634765625,-28.27480916030534,106.7175572519084,-56.717557251908396,0.0
11.770000696182251,-15.962142468261717,1.5538368774414062,14.477737438964843,-3.6030534351145036,-169.58778625954199,-8.82442748091603,-7.536946826171874,5.351040710449219,0.507570751953125,-21.0381679389313,124.67175572519083,-34.99236641221374,0.0
11.780000686645508,-16.175226416015622,-0.5698199951171875,13.36203946533203,17.00763358778626,-190.51908396946564,-3.282442748091603,-0.29448680419921874,5.722141967773437,-1.1372457885742187,-41.66412213740458,118.44274809160305,-18.47328244274809,0.0
11.790000677108765,-15.818490368652343,-3.143586779785156,11.516109985351562,39.86259541984733,-213.80152671755727,0.9007633587786259,-3.114856359863281,10.079588989257813,2.887407202148437,-98.33587786259542,161.46564885496184,-11.618320610687023,0.0
11.800000667572021,-15.99326708984375,-1.5275006591796874,7.390900524902343,37.541984732824424,-221.75572519083968,5.648854961832061,-9.6151138671875,7.783549597167968,0.29448680419921874,-113.87786259541984,171.75572519083968,13.618320610687023,0.0
11.810000658035278,-16.76659422607422,-0.9744400756835937,3.143586779785156,5.923664122137405,-235.31297709923663,2.717557251908397,-12.504915270996094,5.157110375976562,2.3319524169921872,-140.06106870229007,182.41221374045801,25.64885496183206,0.0
11.820001125335693,-15.48809053955078,-4.805162731933594,-0.143652099609375,21.450381679389313,-244.15267175572518,9.450381679389313,-10.424354028320312,5.485116003417969,-0.2825157958984375,-135.6793893129771,150.45801526717557,31.633587786259543,0.0
11.830000638961792,-13.148955517578123,-3.0166940917968748,-7.132326745605468,36.732824427480914,-228.44274809160305,14.061068702290076,-11.858480822753906,5.851428857421874,1.458068811035156,-188.90076335877862,172.25954198473283,36.2442748091603,0.0
11.840001106262207,-9.801861596679688,-4.75009609375,-11.592724438476562,40.229007633587784,-211.1145038167939,16.106870229007633,-11.439495532226562,5.410895751953125,-3.038241906738281,-187.32824427480915,145.26717557251908,47.282442748091604,0.0
11.850000619888306,-7.343016491699219,-6.787561706542968,-7.7763669921875,71.6793893129771,-173.5267175572519,14.702290076335878,-12.911929553222656,0.9744400756835937,0.16041151123046873,-219.6946564885496,156.04580152671755,56.961832061068705,0.0
11.860000848770142,-6.244077929687499,-4.541800549316406,-5.896918688964844,101.22137404580153,-139.32824427480915,12.0,-13.836091394042969,-5.698199951171874,0.5195417602539062,-182.42748091603053,137.06870229007635,70.35114503816794,0.0
11.87000036239624,-6.241683728027343,-3.699041564941406,-1.8100164550781248,136.3969465648855,-100.41221374045801,9.98473282442748,-11.307814440917968,-10.711658227539061,1.0295067138671874,-137.5267175572519,111.7557251908397,76.99236641221374,0.0
11.880000591278076,-5.781997009277344,-2.128445275878906,-1.8171990600585937,159.80152671755727,-76.90076335877863,7.801526717557252,-9.253589416503905,-11.286266625976562,-1.22583125,-73.78625954198473,80.8854961832061,77.02290076335878,0.0
11.890000343322754,-8.51617530517578,3.327940307617187,-0.5219359619140624,145.70992366412213,-55.87786259541985,2.122137404580153,-9.014169250488282,-11.494562170410155,-1.0295067138671874,-21.328244274809162,61.64885496183206,73.41984732824427,0.0
11.90000057220459,-7.56567724609375,3.0334535034179684,-0.11013327636718749,127.29770992366412,-49.41984732824427,6.99236641221374,-9.519345800781249,-8.535328918457031,-2.43250888671875,13.84732824427481,44.3206106870229,64.09160305343511,0.0
11.910000562667847,-10.067617980957031,5.327098693847656,1.838746875,97.3587786259542,-40.0763358778626,12.244274809160306,-9.6917283203125,-6.016628771972656,-1.6927005737304686,19.64885496183206,45.12977099236641,52.79389312977099,0.0
11.920000314712524,-10.742782849121093,6.349422802734375,1.5203180541992187,63.16030534351145,-41.847328244274806,21.893129770992367,-9.751583361816406,-1.7118541870117185,-1.01514150390625,6.152671755725191,49.20610687022901,42.10687022900763,0.0
11.930001020431519,-12.320561743164061,7.742848168945312,2.6767174560546874,29.16030534351145,-33.61832061068702,34.213740458015266,-8.224082702636718,1.3215993164062498,-1.3646949462890625,-31.46564885496183,55.86259541984733,34.33587786259542,0.0
11.940000534057617,-9.236830004882812,6.339845996093749,0.00718260498046875,-5.465648854961832,-43.786259541984734,46.412213740458014,-10.594342346191405,-3.5290532470703124,1.675941162109375,-46.36641221374046,70.07633587786259,39.00763358778626,0.0
11.950000286102295,-9.701305126953125,5.216965417480468,0.3136404174804687,-33.19083969465649,-37.603053435114504,57.16030534351145,-10.805032092285156,-4.429273071289062,1.2689268798828124,-33.41984732824427,66.25954198473282,45.38931297709924,0.0
11.96000051498413,-8.042123376464843,3.4955344238281247,-0.5410895751953124,-55.221374045801525,-39.282442748091604,60.274809160305345,-8.851363537597656,-1.4604630126953124,0.5530605834960938,-39.74045801526717,68.27480916030534,47.14503816793893,0.0
11.970000505447388,-7.967903124999999,3.038241906738281,-1.177947216796875,-69.61832061068702,-36.06106870229008,61.954198473282446,-9.469067565917967,-3.9552211425781247,2.3343466186523436,-33.23664122137404,72.58015267175573,55.954198473282446,0.0
11.980000257492065,-6.387730029296875,1.5634136840820312,-1.4508862060546874,-81.89312977099236,-28.99236641221374,60.25954198473283,-7.754819177246094,-1.388636962890625,-0.10295067138671875,-28.458015267175572,65.40458015267176,56.16793893129771,0.0
11.99000072479248,-5.884947680664062,2.9448680419921875,-0.852335791015625,-90.97709923664122,-21.557251908396946,55.43511450381679,-8.635885388183594,-1.6041151123046875,0.5865794067382812,-38.25954198473283,74.44274809160305,56.94656488549618,0.0
12.000000238418579,-5.662286926269531,2.5522189697265625,-1.675941162109375,-104.45801526717557,-18.47328244274809,55.038167938931295,-9.344569079589844,-4.170699291992188,1.13006318359375,-24.900763358778626,72.42748091603053,60.13740458015267,0.0
12.010000705718994,-3.3542765258789062,0.3232172241210937,-2.9640216552734375,-101.09923664122137,-4.061068702290076,58.778625954198475,-7.364564306640625,-1.4221557861328125,0.3591302490234375,-32.396946564885496,73.66412213740458,55.98473282442748,0.0
12.020000696182251,-2.636016027832031,-0.4860229370117187,-2.932897033691406,-85.40458015267176,13.893129770992367,60.396946564885496,-8.145074047851562,-3.5506010620117183,1.9871873779296874,-30.778625954198475,76.85496183206106,58.16793893129771,0.0
12.030000686645508,-1.16837041015625,-0.7709329345703124,-2.1787235107421874,-81.29770992366412,30.213740458015266,58.38167938931298,-8.760383874511719,-2.327164013671875,0.2154781494140625,-16.229007633587788,66.73282442748092,59.31297709923664,0.0
12.040000677108765,-1.5179238525390624,1.1037269653320312,0.13646949462890623,-81.63358778625954,46.0,51.32824427480916,-9.94072529296875,-4.955997436523437,4.367023828124999,-22.595419847328245,82.56488549618321,63.29770992366412,0.0
12.050000429153442,-0.8355763793945312,-0.09337386474609374,1.608903515625,-83.64885496183206,50.82442748091603,48.274809160305345,-9.016563452148437,-5.932831713867187,3.775656018066406,6.595419847328245,60.045801526717554,62.412213740458014,0.0
12.060000896453857,-0.29927520751953124,-1.905784521484375,4.6447512207031245,-78.65648854961832,54.2442748091603,42.13740458015267,-8.786720092773438,-2.080561242675781,2.5474305664062498,14.290076335877863,49.404580152671755,55.89312977099237,0.0
12.070000648498535,-2.4947581298828125,-1.9800047729492187,9.409212524414063,-54.900763358778626,54.045801526717554,38.33587786259542,-10.067617980957031,-0.5889736083984375,4.436455676269531,0.9312977099236641,56.213740458015266,49.69465648854962,0.0
12.080047130584717,-4.046200805664062,-2.6312276245117188,15.677232470703125,-9.374045801526718,46.717557251908396,44.67175572519084,-9.294290844726563,-1.3814543579101561,4.417302062988281,0.5954198473282443,47.19083969465649,45.541984732824424,0.0
12.090000867843628,-5.6407391113281244,-3.801992236328125,20.298041674804686,47.48091603053435,34.900763358778626,53.98473282442748,-10.378864196777343,-5.647921716308593,6.962338427734375,4.8396946564885495,49.11450381679389,43.57251908396947,0.0
12.100000619888306,-6.696582043457031,-2.24097275390625,21.097705029296876,97.63358778625954,17.358778625954198,57.70992366412214,-8.79150849609375,-1.4221557861328125,4.4005426513671875,19.129770992366414,21.633587786259543,31.603053435114504,0.0
12.110000610351562,-4.805162731933594,1.6927005737304686,7.953537915039062,101.74045801526718,-3.068702290076336,46.274809160305345,-10.651803186035156,0.488417138671875,4.680664245605469,6.870229007633588,11.19083969465649,20.519083969465647,0.0
12.12000060081482,1.1827356201171875,2.0302830078125,-16.7402580078125,-11.725190839694656,-13.435114503816793,16.15267175572519,-15.435418103027343,-3.706224169921875,9.016563452148437,-3.618320610687023,20.0,19.52671755725191,0.0
12.130000352859497,-0.296881005859375,-6.8210805297851556,-17.15445489501953,-49.267175572519086,0.5190839694656488,-9.282442748091603,-11.674127294921874,-5.741295581054687,9.023746057128905,0.21374045801526717,-4.717557251908397,12.198473282442748,0.0
12.140000581741333,-10.864887133789061,-4.3430818115234375,-5.537788439941406,-48.030534351145036,43.343511450381676,-12.946564885496183,-12.27028350830078,-1.905784521484375,5.9376201171875,-0.2595419847328244,-35.81679389312977,2.595419847328244,0.0
12.150000810623169,-15.962142468261717,-5.2624552490234375,9.442731347656249,-21.862595419847327,57.25190839694657,-14.50381679389313,-17.83201396484375,-6.950367419433594,9.009380847167968,-10.83969465648855,-34.29007633587786,4.1679389312977095,0.0
12.160000562667847,-15.413870288085937,-0.19632453613281248,9.775525378417969,78.18320610687023,73.37404580152672,-2.427480916030534,-16.493655236816405,-10.369287390136718,8.870517150878905,38.458015267175576,-88.01526717557252,1.5725190839694656,0.0
12.170000553131104,-16.213533642578124,5.9017070922851556,0.4381389038085937,94.3969465648855,75.23664122137404,-6.778625954198473,-22.462399975585935,-13.781024755859374,12.042834350585936,77.80152671755725,-108.82442748091603,0.7938931297709924,0.0
12.18000054359436,-15.636531042480469,5.061342309570312,-1.687912170410156,29.083969465648856,74.85496183206106,-14.045801526717558,-16.160861206054687,-9.792284790039062,7.378929516601562,125.17557251908397,-175.7709923664122,-16.244274809160306,0.0
12.190000534057617,-16.474501623535154,4.841075756835937,2.6599580444335937,-19.862595419847327,66.65648854961832,-22.244274809160306,-19.06263361816406,-4.304774584960938,6.433219860839843,124.2442748091603,-190.15267175572518,-35.23664122137404,0.0
12.200000524520874,-16.63730733642578,7.860164050292968,4.197035510253906,-42.534351145038165,55.69465648854962,-16.610687022900763,-15.33486163330078,0.8810662109374999,2.118868469238281,105.19083969465649,-204.83969465648855,-52.33587786259542,0.0
12.21000075340271,-13.479355346679686,4.261678955078125,2.214636535644531,-79.52671755725191,36.13740458015267,-6.5038167938931295,-17.305289599609374,0.8714894042968749,2.31758720703125,74.67175572519083,-187.7709923664122,-52.61068702290076,0.0
12.220000505447388,-10.735600244140624,-0.9457096557617187,1.9991583862304687,-79.72519083969466,36.61068702290076,-1.2061068702290076,-17.851167578125,0.6727706665039062,0.47165772705078124,80.47328244274809,-194.45801526717557,-43.541984732824424,0.0
12.230000495910645,-6.244077929687499,-5.104437939453125,-2.051830822753906,-60.229007633587784,39.64885496183206,-4.33587786259542,-17.025168005371093,1.1635820068359375,0.2561795776367187,71.12977099236642,-191.06870229007635,-36.80916030534351,0.0
12.240000486373901,-7.594407666015624,-1.9728221679687499,-0.8595183959960937,-39.603053435114504,54.38167938931298,-16.458015267175572,-16.098611962890622,0.1197100830078125,1.695094775390625,47.48091603053435,-167.9083969465649,-25.389312977099237,0.0
12.250000476837158,-10.651803186035156,2.1906945190429687,0.7278373046875,-31.206106870229007,59.69465648854962,-21.541984732824428,-13.927071057128906,2.987963671875,-1.4006079711914061,21.114503816793892,-155.38931297709922,-27.19083969465649,0.0
12.260000467300415,-8.882488159179687,2.920926025390625,0.5626373901367188,-21.00763358778626,66.19847328244275,-13.877862595419847,-11.231199987792968,4.067748620605468,-2.039859814453125,-19.022900763358777,-123.19083969465649,-29.740458015267176,0.0
12.270000696182251,-8.686163623046875,3.105279553222656,1.4508862060546874,-23.938931297709924,75.00763358778626,-9.49618320610687,-9.196128576660156,1.1037269653320312,-0.4572925170898437,-48.045801526717554,-86.01526717557252,-27.099236641221374,0.0
12.280000686645508,-8.568847741699217,1.8363526733398436,2.061407629394531,-25.709923664122137,80.0,-8.183206106870228,-10.342951171874999,-1.3431471313476562,0.6560112548828124,-45.16030534351145,-67.77099236641222,-21.923664122137403,0.0
12.290000438690186,-8.245630517578125,0.02633621826171875,1.7836802368164062,-18.564885496183205,82.44274809160305,-8.564885496183207,-9.79946739501953,-1.838746875,1.8555062866210936,-32.44274809160305,-58.778625954198475,-20.15267175572519,0.0
12.300000667572021,-8.161833459472655,-1.0630255371093749,1.5227122558593749,-4.396946564885496,86.04580152671755,-11.694656488549619,-10.627861169433594,-2.094926452636719,3.1364041748046874,-21.053435114503817,-47.80152671755725,-19.0381679389313,0.0
12.310000658035278,-8.588001354980468,-1.70467158203125,1.7357962036132812,7.557251908396947,86.54961832061069,-16.564885496183205,-10.386046801757812,-2.1308394775390624,3.23696064453125,-7.6183206106870225,-49.20610687022901,-21.282442748091604,0.0
12.320000886917114,-8.94473740234375,-1.6519991455078125,1.905784521484375,19.755725190839694,86.18320610687023,-21.61832061068702,-8.75320126953125,-2.281674182128906,3.361459130859375,3.49618320610687,-50.213740458015266,-23.17557251908397,0.0
12.330000400543213,-7.268796240234375,-2.5953145996093747,1.2832920898437499,38.97709923664122,82.90076335877863,-22.946564885496183,-8.044517578125,-1.5275006591796874,2.185906115722656,17.480916030534353,-57.267175572519086,-24.9618320610687,0.0
12.340000867843628,-2.9927520751953125,-5.9591679321289055,-0.8978256225585937,75.08396946564885,90.16793893129771,-25.282442748091604,-7.3932947265625,-1.687912170410156,2.1619640991210938,29.633587786259543,-60.19847328244275,-27.236641221374047,0.0
12.350000381469727,-7.273584643554687,-2.080561242675781,1.2641384765625,98.3969465648855,98.29007633587786,-37.63358778625954,-7.843404638671874,-2.50912333984375,2.3487118286132813,50.18320610687023,-66.29007633587786,-26.30534351145038,0.0
12.36000108718872,0.25139117431640623,-10.28549033203125,-7.125144140624999,126.38167938931298,82.99236641221374,-33.80152671755725,-5.540182641601562,-0.00718260498046875,2.1404162841796874,54.42748091603053,-71.69465648854961,-32.213740458015266,0.0
12.37000036239624,10.117896215820313,-26.91561506347656,-14.477737438964843,280.4580152671756,147.3740458015267,-28.30534351145038,-7.082048510742187,-3.6463691284179687,4.6447512207031245,50.10687022900763,-60.68702290076336,-27.954198473282442,0.0
12.380000591278076,-2.4157494750976563,-18.028338500976563,-10.448296044921875,407.80152671755724,227.1908396946565,-63.20610687022901,-5.315127685546875,-2.906560815429687,4.053383410644531,56.2442748091603,-68.50381679389314,-34.717557251908396,0.0
12.390000581741333,4.9823336547851556,-32.70958308105469,-25.778369274902342,498.5496183206107,223.3740458015267,-74.1526717557252,-6.605602380371093,-2.262520568847656,4.335899206542969,65.80152671755725,-71.55725190839695,-40.18320610687023,0.0
12.40000057220459,-22.78561719970703,-1.1420341918945311,-14.451401220703124,500.25954198473283,354.25954198473283,-82.35114503816794,-5.736507177734374,-3.19865341796875,5.724536169433593,55.63358778625954,-66.3206106870229,-44.50381679389313,0.0
12.410000562667847,-32.972945263671875,39.22540289916992,6.260837341308593,483.1297709923664,298.68702290076334,-108.97709923664122,-9.265560424804686,-2.528276953125,5.1140147460937495,73.0381679389313,-80.53435114503817,-53.06870229007634,0.0
12.420000314712524,-21.698649645996092,39.22540289916992,9.387664709472656,159.74045801526717,185.80152671755727,-102.56488549618321,-12.253524096679687,1.2737152832031249,4.505887524414062,59.587786259541986,-85.86259541984732,-52.6412213740458,0.0
12.43000054359436,-10.831368310546875,30.06399024658203,7.71890615234375,-42.42748091603053,107.89312977099236,-98.53435114503817,-11.73398233642578,4.984727856445312,1.9752163696289062,11.786259541984732,-94.47328244274809,-47.52671755725191,0.0
12.440000295639038,-5.7077767578125,18.67956135253906,3.775656018066406,-155.00763358778627,38.93129770992366,-97.95419847328245,-8.092401611328125,4.029441394042968,0.9816226806640624,-23.786259541984734,-88.83969465648855,-40.534351145038165,0.0
12.450001001358032,-1.9895815795898437,0.3806780639648437,-3.047818713378906,-121.8473282442748,26.885496183206108,-77.16030534351145,-5.9017070922851556,1.7238251953125,2.176329309082031,-40.778625954198475,-75.29770992366412,-30.03053435114504,0.0
12.460000276565552,-8.149862451171874,1.5658078857421873,-2.7748797241210936,-86.80916030534351,31.51145038167939,-61.847328244274806,-10.014945544433592,-4.905719201660156,5.753266589355468,-19.572519083969464,-62.97709923664122,-17.64885496183206,0.0
12.470000505447388,-11.537657800292967,1.024718310546875,-2.712630480957031,-75.0381679389313,32.97709923664122,-47.31297709923664,-8.9255837890625,-5.973533142089844,6.6319385986328125,24.931297709923665,-85.57251908396947,-21.0381679389313,0.0
12.480000495910645,-12.708422412109375,0.5602431884765625,-2.3965958618164063,-64.58015267175573,33.83206106870229,-37.11450381679389,-5.4707507934570305,-2.50912333984375,5.9950809570312495,50.900763358778626,-96.25954198473282,-29.251908396946565,0.0
12.49000072479248,-24.519019201660154,31.35925334472656,12.052411157226562,-158.24427480916032,29.282442748091604,-56.47328244274809,-4.266467358398438,-0.8068459594726562,5.858611462402344,56.595419847328245,-89.00763358778626,-30.946564885496183,0.0
12.500000476837158,-11.992556115722655,9.402029919433593,0.8571241943359375,-315.22137404580155,-45.31297709923664,-43.45038167938932,-6.490680700683593,2.683900061035156,4.204218115234375,43.969465648854964,-79.77099236641222,-26.198473282442748,0.0
12.510000705718994,-25.00743634033203,33.554736267089844,15.816096166992187,-356.3358778625954,-34.534351145038165,-56.12213740458015,-7.187393383789062,1.5131354492187499,5.185840795898438,14.076335877862595,-60.3206106870229,-15.404580152671755,0.0
12.520000696182251,-10.189722265624999,10.402806213378906,-1.4221557861328125,-464.0916030534351,-138.19847328244273,-20.290076335877863,-8.990227233886719,3.8762124877929685,3.375824340820312,3.1908396946564888,-63.954198473282446,-11.007633587786259,0.0
12.530000686645508,-24.372972900390625,11.659762084960937,1.1540052001953125,-404.1374045801527,-134.38167938931298,9.511450381679388,-10.931924780273437,0.24181436767578124,5.530605834960937,-18.50381679389313,-47.14503816793893,1.251908396946565,0.0
12.540000677108765,-13.99410870361328,-10.46984385986328,-8.942343200683593,-320.30534351145036,-154.93129770992365,69.46564885496183,-9.859322436523437,0.11252747802734374,4.412513659667969,-16.198473282442748,-59.12977099236641,-0.16793893129770993,0.0
12.550000667572021,-9.504980590820312,-21.06179200439453,-10.893617553710937,-178.25954198473283,-118.10687022900764,100.56488549618321,-10.797849487304687,-2.767697119140625,5.4013189453125,-0.12213740458015267,-57.969465648854964,2.519083969465649,0.0
12.560001134872437,-3.248931652832031,-29.407978991699217,-9.715670336914062,-60.732824427480914,-76.12213740458016,88.42748091603053,-9.030928662109375,-4.3239281982421875,5.928043310546875,31.297709923664122,-67.26717557251908,-1.9541984732824427,0.0
12.570058822631836,-2.1811177124023438,-23.7887876953125,-7.438784558105469,16.213740458015266,-34.0,37.25190839694657,-5.805939025878906,-5.255272644042968,6.380547424316406,56.06106870229008,-74.07633587786259,-10.473282442748092,0.0
12.580000877380371,-4.005499377441406,-12.722787622070312,-4.809951135253906,68.22900763358778,-0.9923664122137404,-15.725190839694656,-3.0119056884765625,-3.507505432128906,6.58884296875,70.51908396946565,-74.38167938931298,-21.84732824427481,0.0
12.590437889099121,-6.6271501953125,-4.359841223144531,-2.272097375488281,89.09923664122137,29.557251908396946,-45.66412213740458,-0.8451531860351562,-1.2808978881835937,5.533000036621093,65.69465648854961,-67.63358778625954,-31.221374045801525,0.0
12.600000858306885,-7.560888842773437,-0.5386953735351562,-0.737414111328125,95.02290076335878,50.36641221374046,-57.52671755725191,-3.8474820678710935,-0.5458779785156249,5.8226984375,61.587786259541986,-50.99236641221374,-32.045801526717554,0.0
12.610000610351562,-7.790732202148437,0.0143652099609375,0.03591302490234375,112.13740458015268,65.87786259541984,-55.6793893129771,-3.4332851806640625,2.384624853515625,4.553771557617187,43.083969465648856,-44.51908396946565,-31.938931297709924,0.0
12.62000036239624,-9.603142858886718,2.2649147705078123,1.618480322265625,127.74045801526718,80.90076335877863,-52.38167938931298,-2.4779987182617185,2.463633508300781,3.754108203125,20.15267175572519,-31.893129770992367,-30.65648854961832,0.0
12.630000591278076,-11.259930407714844,5.813121630859374,1.8650830932617186,123.86259541984732,80.16793893129771,-46.091603053435115,-4.005499377441406,1.7693150268554687,3.1842882080078123,5.557251908396947,-21.893129770992367,-27.129770992366414,0.0
12.640000343322754,-12.452242834472656,7.570465649414062,3.4524387939453125,105.23664122137404,71.20610687022901,-37.541984732824424,-7.529764221191406,-0.7278373046875,5.427655163574219,-3.954198473282443,0.3053435114503817,-21.72519083969466,0.0
12.65000033378601,-14.094665173339843,9.950302099609374,4.139574670410156,76.68702290076335,55.786259541984734,-28.65648854961832,-3.564966271972656,0.42377369384765623,3.0909143432617188,-6.656488549618321,-10.641221374045802,-25.480916030534353,0.0
12.660000562667847,-14.709975,11.365275280761718,3.749319799804687,39.93893129770992,31.19083969465649,-19.954198473282442,-3.459621398925781,1.388636962890625,4.1563340820312495,-26.900763358778626,16.83969465648855,-27.893129770992367,0.0
12.670000314712524,-13.644555261230469,8.619125976562499,2.1021090576171875,7.587786259541985,7.251908396946565,-7.129770992366412,-7.213729602050781,-2.5450363647460934,5.683834741210937,-32.88549618320611,35.86259541984733,-18.091603053435115,0.0
12.68000054359436,-15.550339782714843,7.352593298339843,2.2840683837890623,-16.778625954198475,-4.534351145038168,-5.8320610687022905,-6.926425402832031,-3.5194764404296874,4.7955859252929685,-17.450381679389313,23.49618320610687,-13.145038167938932,0.0
12.690000534057617,-16.53675086669922,8.10197841796875,2.549824768066406,-45.49618320610687,-20.702290076335878,-6.717557251908397,-4.96078583984375,-2.4253262817382812,4.762067102050781,-3.480916030534351,24.564885496183205,-17.801526717557252,0.0
12.700000524520874,-15.150508105468749,5.858611462402344,2.6719290527343746,-68.04580152671755,-42.94656488549618,-1.8473282442748091,-5.667075329589843,-2.913743420410156,5.068524914550781,4.809160305343512,34.778625954198475,-19.099236641221374,0.0
12.71000075340271,-17.896657409667966,7.615955480957031,6.121973645019531,-91.48091603053435,-53.93893129770992,-3.450381679389313,-5.1523219726562495,-2.6503812377929687,4.355052819824219,14.977099236641221,35.7557251908397,-17.419847328244273,0.0
12.720000505447388,-16.25423507080078,7.034164477539062,6.198588098144531,-121.58778625954199,-82.09160305343511,1.5877862595419847,-4.491522314453125,-0.7398083129882812,2.8419173706054686,22.38167938931298,39.48091603053435,-15.969465648854962,0.0
12.730000734329224,-13.646949462890625,2.070984436035156,5.267243652343749,-114.58015267175573,-103.66412213740458,14.442748091603054,-5.125985754394531,-0.7422025146484375,2.233790148925781,22.702290076335878,51.11450381679389,-12.244274809160306,0.0
12.740000486373901,-12.186486450195313,0.9313444458007812,6.900089184570312,-103.54198473282443,-105.98473282442748,14.244274809160306,-3.366247534179687,0.4525041137695312,0.9337386474609375,15.908396946564885,59.725190839694655,-13.038167938931299,0.0
12.750000238418579,-12.466608044433594,2.4301146850585935,7.6997525390625,-107.45038167938931,-119.66412213740458,6.885496183206107,-2.683900061035156,3.4811692138671875,2.6336218261718747,3.7709923664122136,76.38167938931298,-14.900763358778626,0.0
12.760000467300415,-11.398794104003905,0.7685387329101562,8.322244970703125,-101.09923664122137,-133.49618320610688,8.290076335877863,-6.153098266601562,1.8076222534179687,8.12113203125,-11.526717557251908,85.57251908396947,-13.83206106870229,0.0
12.770000696182251,-9.629479077148437,-2.501940734863281,9.236830004882812,-74.70229007633588,-138.70229007633588,9.282442748091603,-10.230423693847655,-4.764461303710937,13.486537951660155,-41.9236641221374,100.56488549618321,-27.740458015267176,0.0
12.780000686645508,-9.955090502929687,-3.095702746582031,8.980650427246093,-42.54961832061068,-138.3969465648855,3.9389312977099236,-13.041216442871093,-7.134720947265625,11.228805786132812,-36.213740458015266,97.52671755725191,-37.6793893129771,0.0
12.790000677108765,-11.231199987792968,-3.564966271972656,9.179369165039063,-14.259541984732824,-143.75572519083968,-4.580152671755725,-14.408305590820312,-5.137956762695312,8.008604553222655,-9.389312977099237,93.1145038167939,-32.94656488549618,0.0
12.800000429153442,-12.442666027832031,-7.4411787597656245,11.039663854980468,20.65648854961832,-156.6259541984733,-15.129770992366412,-14.350844750976561,-3.1555577880859373,4.80755693359375,20.427480916030536,81.66412213740458,-23.633587786259543,0.0
12.8100004196167,-10.228029492187499,-10.603919152832031,10.127473022460936,80.16793893129771,-173.16030534351145,-27.114503816793892,-6.457161877441406,-0.1867477294921875,2.741360900878906,17.64885496183206,64.70229007633588,-26.03053435114504,0.0
12.820000886917114,-11.552023010253906,-6.710947253417968,7.651868505859374,116.36641221374046,-170.3969465648855,-38.30534351145038,-0.11252747802734374,8.542511523437499,0.201112939453125,-33.64885496183206,103.05343511450381,-35.847328244274806,0.0
12.830000400543213,-13.524845178222655,-0.26336218261718747,6.289567761230469,103.77099236641222,-169.16030534351145,-45.099236641221374,-5.501875415039062,2.6216508178710938,0.814028564453125,-58.458015267175576,130.93129770992365,-6.213740458015267,0.0
12.840001106262207,-11.789048974609374,-1.3670891479492187,1.8100164550781248,90.99236641221374,-179.3740458015267,-31.419847328244273,3.8139632446289062,8.511386901855468,-2.3774422485351563,-88.67175572519083,107.41984732824427,-7.129770992366412,0.0
12.850000619888306,-9.91438907470703,-3.0909143432617188,-1.6807295654296874,113.17557251908397,-164.94656488549617,-14.442748091603054,7.8912886718749995,27.461493041992185,-5.238513232421875,-247.32824427480915,181.09923664122138,-21.87786259541985,0.0
12.860000848770142,-11.741164941406248,0.8978256225585937,-2.760514514160156,106.12213740458016,-145.70992366412213,-5.374045801526718,-7.6087728759765625,13.898340637207031,-4.572925170898437,-372.21374045801525,248.8854961832061,16.702290076335878,0.0
12.870000839233398,-14.700398193359375,2.1619640991210938,-6.016628771972656,57.37404580152672,-141.4351145038168,3.145038167938931,-26.293122631835935,-5.537788439941406,0.35194764404296874,-348.12213740458014,242.06106870229007,67.22137404580153,0.0
12.880000591278076,-9.64623848876953,-7.182604980468749,-11.65736788330078,74.1526717557252,-136.1679389312977,18.091603053435115,-13.151349719238281,-3.6296097167968746,-3.825934252929687,-269.98473282442745,162.2290076335878,60.274809160305345,0.0
12.890000581741333,-7.548917834472656,-12.148179223632813,-9.904812268066406,141.55725190839695,-91.64885496183206,18.53435114503817,-12.670115185546875,3.8666356811523435,-1.0486603271484374,-336.77862595419845,194.19847328244273,42.3206106870229,0.0
12.90000057220459,-12.600683337402343,-3.8283284545898435,-2.195482922363281,168.87022900763358,-61.587786259541986,5.984732824427481,-14.686032983398437,-16.967707165527344,3.318363500976562,-272.3358778625954,182.45801526717557,59.23664122137404,0.0
12.910000324249268,-12.713210815429687,-2.3511060302734372,0.8882488159179687,192.24427480916032,-61.83206106870229,0.48854961832061067,-10.893617553710937,-25.079262390136716,2.7437551025390623,-153.63358778625954,125.31297709923665,69.52671755725191,0.0
12.920000553131104,-14.015656518554687,3.6750995483398436,2.9951462768554684,217.63358778625954,-50.83969465648855,5.358778625954199,-8.269572534179687,-20.745757385253906,1.3718775512695311,-33.41984732824427,72.3969465648855,72.54961832061069,0.0
12.930000305175781,-8.37012900390625,5.537788439941406,-0.4429273071289062,185.12977099236642,-73.61832061068702,11.740458015267176,-13.431471313476562,-25.46712305908203,4.034229797363281,93.32824427480917,52.48854961832061,90.07633587786259,0.0
12.940000772476196,-15.140931298828123,10.651803186035156,5.465962390136719,139.74045801526717,-65.83206106870229,23.450381679389313,-9.14824454345703,-16.840814477539062,-1.0749965454101562,205.5114503816794,-1.3282442748091603,87.00763358778626,0.0
12.950000762939453,-16.575058093261717,13.582306018066406,5.971138940429687,67.49618320610686,-78.93129770992367,30.80916030534351,-12.8329208984375,-12.670115185546875,1.5322890624999999,241.5114503816794,-3.1908396946564888,78.29007633587786,0.0
12.96000051498413,-15.770606335449218,10.259154113769531,4.216189123535156,4.534351145038168,-94.91603053435115,52.74809160305343,-11.674127294921874,-2.7557261108398436,-1.3239935180664062,262.68702290076334,-30.27480916030534,56.33587786259542,0.0
12.970000505447388,15.365986254882811,-22.764069384765623,-13.512874169921874,50.732824427480914,-107.02290076335878,87.43511450381679,-18.85912647705078,-3.327940307617187,4.158728283691406,232.03053435114504,6.396946564885496,43.23664122137404,0.0
12.980000257492065,5.087678527832031,-22.967576525878904,-12.543222497558594,200.50381679389312,25.358778625954198,90.58015267175573,-14.77940684814453,-4.177881896972656,1.9512743530273435,253.9083969465649,-22.0,30.137404580152673,0.0
12.99000072479248,-4.522646936035156,-3.0526071166992184,-5.061342309570312,196.77862595419847,53.63358778625954,25.31297709923664,-9.888052856445311,4.3071687866210935,-1.6519991455078125,216.3969465648855,-22.137404580152673,0.22900763358778625,0.0
13.000000476837158,17.963695056152343,-30.595503015136718,-13.555969799804688,243.4351145038168,66.21374045801527,31.954198473282442,-14.903905334472656,0.3495534423828125,5.092466931152344,169.12977099236642,26.48854961832061,6.99236641221374,0.0
13.010000467300415,8.559270935058594,-38.68311622314453,-18.2725470703125,500.25954198473283,194.93129770992365,57.74045801526717,-11.094730493164063,-2.0733786376953125,2.6048914062499997,182.59541984732823,-9.236641221374045,14.458015267175572,0.0
13.020000696182251,-15.148113903808593,-0.5674257934570313,-7.936778503417968,500.25954198473283,273.5419847328244,26.519083969465647,-17.81764875488281,4.007893579101562,1.3670891479492187,162.10687022900763,-0.15267175572519084,-1.4198473282442747,0.0
13.030000448226929,-18.39943975830078,35.91302490234375,4.680664245605469,394.1374045801527,246.8091603053435,1.786259541984733,-12.337321154785155,2.779668127441406,4.474762902832031,122.73282442748092,17.938931297709924,-0.4732824427480916,0.0
13.040000677108765,-11.944672082519531,39.22540289916992,7.931990100097655,94.67175572519083,160.15267175572518,-20.83969465648855,-7.572859851074218,11.604695446777344,-0.3112462158203125,58.18320610687023,5.6183206106870225,-1.5267175572519085,0.0
13.050000667572021,-3.361459130859375,24.96194650878906,6.232106921386718,-149.64885496183206,62.74809160305343,-64.12213740458016,-7.996633544921875,11.592724438476562,0.35673604736328124,-28.595419847328245,36.396946564885496,12.15267175572519,0.0
13.060000896453857,1.946485949707031,2.1691467041015624,-0.29927520751953124,-239.72519083969465,11.34351145038168,-80.77862595419847,-7.802703210449218,5.839457849121094,0.3064578125,-67.54198473282443,34.152671755725194,37.06870229007634,0.0
13.070000648498535,0.7302315063476562,-3.7014357666015623,-2.6623522460937497,-189.00763358778627,15.038167938931299,-79.80152671755725,-9.969455712890625,-0.9696516723632812,3.27526787109375,-98.16793893129771,44.213740458015266,50.62595419847328,0.0
13.080000877380371,1.0510545288085937,-8.40125362548828,-3.459621398925781,-123.23664122137404,24.83969465648855,-62.274809160305345,-8.379705810546875,-3.9935283691406247,3.1675287963867187,-101.14503816793894,34.88549618320611,49.16030534351145,0.0
13.090000629425049,-3.450044592285156,1.8100164550781248,-0.6727706665039062,-78.06106870229007,40.534351145038165,-54.18320610687023,-9.016563452148437,-5.351040710449219,3.718195178222656,-89.2824427480916,30.763358778625953,45.9236641221374,0.0
13.100001096725464,-5.588066674804687,5.580884069824219,1.388636962890625,-72.73282442748092,42.152671755725194,-42.56488549618321,-9.34696328125,-6.0884548217773435,4.369418029785156,-72.62595419847328,25.31297709923664,41.41984732824427,0.0
13.110000610351562,-6.847416748046874,6.931213806152344,2.858676782226562,-76.8854961832061,39.267175572519086,-30.015267175572518,-8.480262280273436,-3.6200329101562496,3.440467785644531,-70.19847328244275,21.633587786259543,33.06870229007634,0.0
13.12000036239624,-9.03332286376953,6.823474731445312,6.4475850708007805,-70.8854961832061,39.12977099236641,-9.267175572519085,-5.011064074707031,-1.93451494140625,3.5913024902343746,-82.21374045801527,28.702290076335878,26.68702290076336,0.0
13.130000829696655,-11.942277880859374,5.166687182617188,9.983820922851562,-63.038167938931295,35.52671755725191,13.17557251908397,-6.890512377929687,-4.525041137695312,4.728548278808593,-75.06870229007633,29.557251908396946,32.19847328244275,0.0
13.140000343322754,-13.488932153320311,3.095702746582031,12.399570397949217,-31.64885496183206,23.31297709923664,35.98473282442748,-9.526528405761718,-4.73094248046875,4.704606262207031,-62.01526717557252,18.900763358778626,33.3587786259542,0.0
13.15000057220459,-11.226411584472656,4.039018200683594,4.809951135253906,-29.61832061068702,11.633587786259541,42.458015267175576,-9.598354455566406,-4.544194750976562,5.755660791015624,-51.45038167938932,18.213740458015266,30.16793893129771,0.0
13.160000562667847,-5.434837768554687,-5.039794494628906,-1.7836802368164062,-77.70992366412214,-10.534351145038167,19.923664122137403,-9.112331518554686,-5.3199160888671875,6.406883642578125,-36.274809160305345,10.916030534351146,29.083969465648856,0.0
13.170000314712524,-19.304447985839843,23.15671845703125,1.4437036010742186,-146.83969465648855,-3.4198473282442747,-33.05343511450382,-10.828974108886719,-4.747701892089843,7.3669585083007805,-10.427480916030534,5.083969465648855,28.99236641221374,0.0
13.18000054359436,-6.9336080078124995,7.474697583007812,-7.414842541503906,-375.9389312977099,-118.7175572519084,-82.1526717557252,-9.804255798339844,-1.7310078002929687,6.6271501953125,-9.34351145038168,-7.343511450381679,24.870229007633586,0.0
13.190000534057617,-35.85316986083984,39.22540289916992,3.347093920898437,-487.31297709923666,-116.93129770992367,-114.82442748091603,-8.78432589111328,-0.7326257080078125,7.122749938964843,-24.30534351145038,-12.229007633587786,25.84732824427481,0.0
13.200000524520874,-29.582755712890624,36.636073803710936,-2.5857377929687497,-500.2748091603053,-254.25954198473283,-64.30534351145039,-12.389993591308594,2.952050646972656,6.763619689941406,-39.603053435114504,-19.450381679389313,30.16793893129771,0.0
13.21000075340271,-27.506982873535154,-4.623203405761719,-0.718260498046875,-500.2748091603053,-281.4961832061069,88.67175572519083,-14.573505505371093,0.34237083740234375,6.8593877563476555,-76.42748091603053,-32.13740458015267,42.62595419847328,0.0
13.220000505447388,-23.977929626464842,-17.896657409667966,-9.275137231445312,-341.8473282442748,-259.2977099236641,172.793893129771,-17.87510959472656,-3.4763808105468748,8.152256652832031,-74.80916030534351,-43.32824427480916,44.33587786259542,0.0
13.230000495910645,-10.149020837402343,-21.36824981689453,-18.499996228027342,-250.1679389312977,-193.96946564885496,159.57251908396947,-18.478448413085935,-8.99501563720703,8.949525805664061,-0.10687022900763359,-75.89312977099236,48.778625954198475,0.0
13.240000247955322,-9.991003527832031,-33.76063760986328,-1.3814543579101561,-172.12213740458014,-140.4885496183206,124.38167938931298,-20.058621508789063,-9.172186560058593,10.01733974609375,58.458015267175576,-115.2824427480916,36.458015267175576,0.0
13.250000476837158,3.957615344238281,-36.233847924804685,-5.066130712890625,18.85496183206107,-78.68702290076335,74.54961832061069,-11.827356201171874,-5.925649108886718,9.964667309570311,72.06106870229007,-135.206106870229,17.404580152671755,0.0
13.260000705718994,1.4245499877929686,-15.957354064941406,-5.774814404296874,71.78625954198473,-18.458015267175572,0.9465648854961832,-5.961562133789062,-3.342305517578125,8.329427575683594,50.99236641221374,-137.66412213740458,-10.045801526717558,0.0
13.270000696182251,7.6470801025390625,-10.984597216796875,-4.8314989501953125,145.38931297709922,17.129770992366414,-16.564885496183205,-4.994304663085937,-3.3303345092773435,6.9527616210937495,41.282442748091604,-128.3053435114504,-27.0381679389313,0.0
13.280000686645508,6.4475850708007805,-5.6311623046875,-2.6671406494140624,190.99236641221373,81.05343511450381,-36.045801526717554,-7.829039428710937,-3.2800562744140622,5.4013189453125,42.595419847328245,-127.14503816793894,-37.770992366412216,0.0
13.290000677108765,7.529764221191406,-4.668693237304687,-5.480327600097656,203.23664122137404,107.12977099236642,-54.534351145038165,-8.451531860351562,-0.6296750366210937,3.2225954345703123,56.42748091603053,-124.90076335877863,-41.89312977099237,0.0
13.300000667572021,2.636016027832031,-2.224213342285156,-4.759672900390624,209.6793893129771,155.16030534351145,-75.90839694656489,-7.903259680175781,2.1404162841796874,2.1978771240234374,58.961832061068705,-131.4351145038168,-38.0,0.0
13.310000658035278,0.8212111694335937,-11.79862578125,-8.774749084472656,231.0229007633588,183.12977099236642,-95.69465648854961,-10.529698901367187,1.908178723144531,3.0933085449218747,57.038167938931295,-119.98473282442748,-33.14503816793893,0.0
13.320000410079956,6.114791040039062,-31.16771721191406,-16.074669946289063,386.8702290076336,287.2671755725191,-104.13740458015268,-7.232883215332031,1.0175357055664063,2.9448680419921875,38.38167938931298,-112.82442748091603,-35.43511450381679,0.0
13.330000638961792,-8.396465222167969,-21.447258471679685,-24.851813232421872,496.9618320610687,301.9389312977099,-172.70229007633588,-10.417171423339843,-1.9847931762695312,3.6535517333984373,52.25954198473283,-85.41984732824427,-34.10687022900763,0.0
13.340000867843628,-35.82922784423828,12.988544006347656,-7.036558679199218,500.25954198473283,328.4580152671756,-174.27480916030535,-11.803414184570311,3.6056677001953124,4.017470385742187,43.404580152671755,-93.92366412213741,-26.0,0.0
13.350000619888306,-25.83583011474609,7.668627917480468,-14.022839123535155,489.9083969465649,284.68702290076334,-108.06106870229007,-13.421894506835937,3.821145849609375,0.46208092041015625,-29.404580152671755,-79.41984732824427,-24.061068702290076,0.0
13.360000848770142,-33.57388988037109,30.514100158691406,-0.4908113403320312,490.85496183206106,331.9541984732824,-46.16793893129771,-15.722722302246092,0.1005564697265625,1.3048399047851562,-28.870229007633586,-66.45801526717557,-19.16030534351145,0.0
13.37000060081482,-22.36423770751953,38.22342950439453,10.682927807617187,247.9083969465649,234.0763358778626,-52.213740458015266,12.054805358886718,25.05053197021484,-15.653290454101562,-161.22137404580153,-124.3969465648855,-77.22137404580153,0.0
13.380000829696655,-13.960589880371092,39.22540289916992,7.101202124023437,-9.099236641221374,111.83206106870229,-77.46564885496183,17.513585144042967,35.97527414550781,-20.829554443359374,-381.4503816793893,11.954198473282442,-70.2442748091603,0.0
13.390000343322754,-24.492682983398435,39.22540289916992,13.144167114257812,-317.2824427480916,2.1526717557251906,-124.2442748091603,-20.151995373535154,-5.42047255859375,0.033518823242187495,-378.51908396946567,165.12977099236642,30.27480916030534,0.0
13.40000057220459,-10.594342346191405,24.19819617919922,-5.590460876464843,-500.2748091603053,-154.85496183206106,-106.83969465648855,-26.99222951660156,-29.91076134033203,4.678270043945313,-121.89312977099236,46.74809160305343,82.29007633587786,0.0
13.410000324249268,-27.437551025390622,21.411345446777343,-1.7405846069335937,-500.2748091603053,-173.32824427480915,-80.3969465648855,-22.75928098144531,-27.49022346191406,12.617442749023438,22.641221374045802,-47.19083969465649,32.54961832061068,0.0
13.420000314712524,-18.871097485351562,-1.350329736328125,-7.254431030273437,-500.2748091603053,-198.12213740458014,-4.137404580152672,-15.358803649902343,-12.713210815429687,11.851298217773437,79.06870229007633,-86.30534351145039,-17.801526717557252,0.0
13.430000305175781,-15.67962667236328,-18.837578662109372,-9.588777648925781,-368.76335877862596,-176.0763358778626,50.56488549618321,-11.573570825195311,-6.330269189453125,6.069301208496094,109.54198473282443,-97.14503816793894,-34.274809160305345,0.0
13.440000295639038,-12.526463085937499,-24.657882897949218,-7.821856823730468,-176.9770992366412,-112.01526717557252,80.82442748091603,-9.552864624023437,-1.0342951171875,2.7437551025390623,131.3587786259542,-111.02290076335878,-37.00763358778626,0.0
13.450000762939453,-5.228936425781249,-20.1879083984375,-6.2201359130859375,-53.00763358778626,-49.267175572519086,78.13740458015268,-6.2392895263671875,2.185906115722656,2.6144682128906247,120.1526717557252,-110.29007633587786,-36.213740458015266,0.0
13.46000051498413,-0.1771709228515625,-16.704344982910154,-6.636727001953124,9.083969465648854,-2.0763358778625953,47.61832061068702,-5.542576843261719,3.308786694335937,1.649604943847656,100.59541984732824,-105.83206106870229,-30.458015267175572,0.0
13.470000743865967,-0.3854664672851562,-11.384428894042967,-2.935291235351562,41.9236641221374,44.18320610687023,-5.083969465648855,-3.9312791259765625,4.3263223999023435,2.612074011230469,58.47328244274809,-82.94656488549619,-35.98473282442748,0.0
13.480000495910645,-2.0374656127929685,-4.3813890380859375,-1.39821376953125,35.64885496183206,64.67175572519083,-38.51908396946565,-2.0350714111328125,5.980715747070312,2.616862414550781,23.51145038167939,-64.97709923664122,-39.25190839694657,0.0
13.49000072479248,-2.0757728393554684,-3.801992236328125,-2.786850732421875,39.23664122137404,89.29770992366412,-53.52671755725191,-3.0262708984374997,3.8187516479492185,3.7804444213867185,-9.389312977099237,-40.94656488549618,-34.33587786259542,0.0
13.500000476837158,-1.5682020874023437,-5.600037683105469,-4.450820886230469,68.0,117.1145038167939,-61.32824427480916,-5.983109948730468,0.32082302246093747,3.6631285400390623,-22.931297709923665,-34.0,-26.106870229007633,0.0
13.510000705718994,-3.9456443359374997,-3.438073583984375,-4.695029455566406,91.45038167938931,136.21374045801528,-73.69465648854961,-7.082048510742187,-0.8307879760742187,4.273649963378906,-26.9618320610687,-28.198473282442748,-28.80916030534351,0.0
13.52000093460083,-8.473079675292968,-1.1228805786132812,-0.9265560424804687,105.86259541984732,146.01526717557252,-78.38167938931298,-10.235212097167969,-3.1842882080078123,4.774038110351563,-16.53435114503817,-30.870229007633586,-28.106870229007633,0.0
13.530000686645508,-11.235988391113281,3.0023288818359375,0.1005564697265625,107.00763358778626,140.6412213740458,-76.18320610687023,-9.868899243164062,-2.3127988037109373,4.065354418945312,-4.0458015267175576,-43.66412213740458,-31.83206106870229,0.0
13.540000677108765,-13.560758203125,7.503428002929687,1.2808978881835937,92.01526717557252,125.81679389312977,-66.6412213740458,-8.28633194580078,-0.5889736083984375,3.6487633300781246,1.9236641221374047,-49.25190839694657,-36.38167938931298,0.0
13.550000429153442,-13.998897106933592,11.197681164550781,2.645592834472656,57.05343511450382,102.13740458015268,-53.587786259541986,-5.590460876464843,0.6392518432617187,3.3446997192382812,-6.106870229007634,-46.152671755725194,-37.32824427480916,0.0
13.560000896453857,-22.19185518798828,23.68583702392578,9.423577734375,-18.213740458015266,79.46564885496183,-50.412213740458014,-4.912901806640625,0.26815058593749996,3.5506010620117183,-10.67175572519084,-38.36641221374046,-30.885496183206108,0.0
13.570077657699585,-24.41846273193359,27.583597326660154,10.747571252441405,-148.59541984732823,17.61832061068702,-31.46564885496183,-6.270414147949219,-1.6160861206054686,4.220977526855468,-3.435114503816794,-33.908396946564885,-20.412213740458014,0.0
13.580000877380371,-17.635689428710936,14.00129130859375,5.4013189453125,-217.93893129770993,-39.32824427480916,8.198473282442748,-7.201758593749999,-2.310404602050781,4.7189714721679685,12.442748091603054,-40.35114503816794,-11.511450381679388,0.0
13.590000629425049,-16.251840869140626,2.454056701660156,3.373430139160156,-192.3053435114504,-57.083969465648856,37.41984732824427,-4.259284753417968,-0.44532150878906246,4.333505004882812,12.396946564885496,-39.603053435114504,-12.198473282442748,0.0
13.600000858306885,-9.02135185546875,-6.536170532226562,-0.5267243652343749,-142.93129770992365,-65.6793893129771,55.038167938931295,-4.946420629882812,-1.867477294921875,4.843469958496094,18.641221374045802,-30.137404580152673,-8.67175572519084,0.0
13.610000371932983,-9.7683427734375,-3.5673604736328124,-0.5195417602539062,-121.7557251908397,-62.42748091603053,44.97709923664122,-4.182670300292968,-1.8363526733398436,5.240907434082031,22.641221374045802,-26.80916030534351,-7.6183206106870225,0.0
13.62000060081482,-8.458714465332031,-5.963956335449218,-1.0917559570312498,-91.98473282442748,-61.221374045801525,39.98473282442748,-3.778050219726562,-1.6472107421875,5.216965417480468,26.610687022900763,-17.49618320610687,-7.770992366412214,0.0
13.630000352859497,-7.5345526245117185,-5.863399865722656,-0.09337386474609374,-67.26717557251908,-43.25190839694657,28.564885496183205,-3.718195178222656,-1.89620771484375,5.2433016357421875,26.625954198473284,-20.610687022900763,-9.19083969465649,0.0
13.640000343322754,-6.885723974609375,-4.790797521972656,0.7206546997070312,-53.19083969465649,-30.68702290076336,13.648854961832061,-4.091690637207031,-2.731784094238281,5.65031591796875,24.99236641221374,-9.404580152671755,-15.251908396946565,0.0
13.65000057220459,-6.612784985351562,-4.608838195800781,1.1372457885742187,-37.81679389312977,-15.007633587786259,3.618320610687023,-5.097255334472656,-3.2154128295898436,5.360617517089843,27.389312977099237,-7.251908396946565,-18.03053435114504,0.0
13.660000324249268,-6.215347509765625,-3.7421371948242186,0.8954314208984374,-22.12213740458015,1.8931297709923665,-5.572519083969466,-4.436455676269531,-2.8993782104492185,5.082890124511718,29.31297709923664,-6.198473282442748,-24.68702290076336,0.0
13.670000553131104,-6.8569935546875,-2.5378537597656248,0.4740519287109375,-15.374045801526718,12.183206106870228,-11.557251908396946,-5.9974751586914055,-3.2920272827148436,4.96078583984375,33.31297709923664,-2.183206106870229,-27.31297709923664,0.0
13.68000054359436,-6.574477758789062,-2.27927998046875,0.239420166015625,-5.557251908396947,20.442748091603054,-13.86259541984733,-6.696582043457031,-2.8945898071289062,4.3239281982421875,36.045801526717554,-2.030534351145038,-28.671755725190838,0.0
13.690000534057617,-7.017405065917968,-3.066972326660156,0.0430956298828125,12.946564885496183,29.83206106870229,-16.427480916030536,-6.186617089843749,-1.9608511596679685,3.6583401367187496,34.732824427480914,1.9236641221374047,-29.786259541984734,0.0
13.700000524520874,-7.510610607910156,-3.066972326660156,-0.17956512451171874,31.267175572519083,38.06106870229008,-22.442748091603054,-6.332663391113281,-1.675941162109375,3.0334535034179684,38.18320610687023,4.854961832061068,-27.81679389312977,0.0
13.71000075340271,-8.44674345703125,-2.0374656127929685,0.14604630126953125,47.12977099236641,42.961832061068705,-30.931297709923665,-5.336675500488281,-1.0462661254882812,2.5617957763671875,37.20610687022901,12.748091603053435,-27.450381679389313,0.0
13.720000505447388,-9.775525378417969,-0.28012159423828126,1.0175357055664063,55.83206106870229,45.66412213740458,-37.02290076335878,-4.261678955078125,-0.43574470214843747,2.319981408691406,38.213740458015266,19.96946564885496,-24.916030534351144,0.0
13.730000734329224,-12.006921325683592,2.6886884643554687,2.5354595581054684,53.19083969465649,42.13740458015267,-41.66412213740458,-2.9448680419921875,0.93852705078125,2.0278888061523435,33.12977099236641,29.6793893129771,-22.977099236641223,0.0
13.740000247955322,-11.578359228515625,3.6056677001953124,2.8802245971679685,47.14503816793893,30.82442748091603,-38.717557251908396,-1.2401964599609374,2.1835119140624997,1.9009961181640624,16.793893129770993,46.68702290076336,-19.389312977099237,0.0
13.750000476837158,-13.2159931640625,3.2561142578125,4.383783239746093,44.274809160305345,26.30534351145038,-33.49618320610687,-1.4867992309570313,3.8091748413085935,3.6200329101562496,0.8396946564885496,61.29770992366412,-11.603053435114504,0.0
13.760000705718994,-16.768988427734374,6.3709706176757805,6.497863305664062,35.00763358778626,21.740458015267176,-34.030534351145036,-4.522646936035156,3.957615344238281,9.076418493652342,-25.954198473282442,74.9618320610687,-3.2061068702290076,0.0
13.770000696182251,-14.958971972656249,4.211400720214844,6.210559106445312,26.53435114503817,1.5114503816793894,-26.549618320610687,-11.386823095703125,-3.402160559082031,15.2079689453125,-52.80916030534351,74.51908396946565,-6.183206106870229,0.0
13.780000686645508,-14.944606762695312,5.066130712890625,6.7085530517578125,33.25190839694657,-10.229007633587786,-21.435114503816795,-14.197615844726561,-12.375628381347655,13.94861887207031,-69.32824427480917,79.2824427480916,-34.29007633587786,0.0
13.790000677108765,-15.883133813476562,7.510610607910156,8.06367119140625,13.877862595419847,-27.022900763358777,-19.587786259541986,-15.502455749511718,-11.068394274902342,7.48906279296875,-27.480916030534353,75.0381679389313,-47.63358778625954,0.0
13.800000429153442,-14.487314245605468,7.0078282592773435,7.611167077636718,-10.198473282442748,-52.58015267175573,-10.732824427480915,-13.682862487792969,-4.477157104492187,2.9759926635742184,27.17557251908397,57.41984732824427,-37.25190839694657,0.0
13.8100004196167,-14.72912861328125,3.9695863525390624,8.59278975830078,-20.748091603053435,-67.55725190839695,-2.2290076335877864,-13.661314672851562,-3.9049429077148434,5.719747766113281,57.66412213740458,49.19083969465649,-25.66412213740458,0.0
13.820000886917114,-14.482525842285156,2.4588451049804685,9.373299499511718,-24.244274809160306,-86.6412213740458,2.6717557251908395,-10.20887587890625,-4.015076184082031,5.453991381835937,50.458015267175576,42.83969465648855,-27.16030534351145,0.0
13.830000638961792,-15.64131944580078,0.9026140258789062,9.490615380859374,-26.778625954198475,-108.33587786259542,4.1679389312977095,-7.433996154785156,-2.583343591308594,0.9337386474609375,58.50381679389313,40.2442748091603,-30.366412213740457,0.0
13.840000867843628,-16.091429357910155,0.19871873779296872,9.591171850585937,-25.0381679389313,-130.5648854961832,3.49618320610687,-6.406883642578125,1.407790576171875,-0.5793968017578125,58.42748091603053,54.61068702290076,-34.274809160305345,0.0
13.850000619888306,-17.02756220703125,-0.9337386474609375,8.109161022949218,-21.801526717557252,-152.6259541984733,4.091603053435114,-9.56962403564453,1.5634136840820312,1.1372457885742187,54.13740458015267,65.26717557251908,-27.17557251908397,0.0
13.860000610351562,-16.855179687499998,-2.0470424194335934,7.4962453979492185,-13.633587786259541,-173.64885496183206,1.4961832061068703,-10.793061083984375,1.5346832641601562,1.9800047729492187,48.19847328244275,65.8473282442748,-21.557251908396946,0.0
13.87000036239624,-16.275782885742185,-2.8036101440429686,4.80755693359375,5.465648854961832,-189.23664122137404,3.099236641221374,-9.634267480468749,2.528276953125,1.2497732666015624,33.099236641221374,72.91603053435115,-19.16030534351145,0.0
13.880000829696655,-15.148113903808593,-2.5450363647460934,1.4796166259765624,19.31297709923664,-195.6793893129771,9.282442748091603,-10.465055456542968,1.8842367065429686,1.8650830932617186,22.580152671755727,84.07633587786259,-10.763358778625955,0.0
13.890000581741333,-14.123395593261717,-3.066972326660156,-0.9983820922851562,25.96946564885496,-196.24427480916032,16.396946564885496,-5.439626171875,3.294421484375,-0.469263525390625,2.8244274809160306,71.74045801526718,-9.557251908396946,0.0
13.90000057220459,-11.755530151367187,-2.166752502441406,-2.308010400390625,29.801526717557252,-188.61068702290078,21.129770992366414,-3.651157531738281,11.712434521484374,-0.12689268798828124,-68.1526717557252,116.47328244274809,-7.877862595419847,0.0
13.910000562667847,-10.802637890625,-0.6009446166992187,-2.6479870361328124,14.534351145038167,-178.59541984732823,31.770992366412212,4.122815258789062,13.816937780761718,-6.337451794433593,-143.54198473282443,119.92366412213741,4.259541984732825,0.0
13.920000553131104,-9.832986218261718,-1.1037269653320312,-0.5363011718749999,3.0076335877862594,-165.4351145038168,32.778625954198475,1.0558429321289062,22.297200061035156,-9.56962403564453,-282.30534351145036,196.27480916030535,17.267175572519083,0.0
13.93000054359436,-8.228871105957031,-1.9823989746093749,-1.158793603515625,5.770992366412214,-145.206106870229,38.396946564885496,-14.654908361816405,5.616797094726562,-4.7189714721679685,-347.0534351145038,248.68702290076337,60.58015267175573,0.0
13.940000295639038,-8.916006982421875,-6.325480786132812,-0.2561795776367187,16.061068702290076,-132.8091603053435,31.358778625954198,-22.91250988769531,-11.999738720703125,1.4221557861328125,-287.89312977099235,228.35114503816794,96.33587786259542,0.0
13.950000762939453,-12.361263171386717,-6.809109521484374,0.507570751953125,48.47328244274809,-114.22900763358778,18.778625954198475,-15.521609362792967,-5.403713146972656,-4.589684582519531,-213.49618320610688,160.70229007633588,72.67175572519083,0.0
13.96000051498413,-15.440206506347655,-1.0893617553710937,3.172317199707031,63.57251908396947,-111.86259541984732,4.870229007633588,-10.721235034179687,8.377311608886718,-7.122749938964843,-275.7251908396947,170.44274809160305,44.80916030534351,0.0
13.970000743865967,-13.237540979003905,-0.2609679809570312,2.061407629394531,72.06106870229007,-112.56488549618321,16.290076335877863,-11.79862578125,-2.978386865234375,-1.5729904907226562,-311.7557251908397,194.5801526717557,57.74045801526717,0.0
13.980000495910645,-12.928688964843749,1.197100830078125,3.5577836669921874,69.14503816793894,-106.07633587786259,21.297709923664122,-13.031639636230468,-21.531055529785156,3.5051112304687497,-216.3206106870229,166.793893129771,73.25190839694656,0.0
13.99000072479248,-13.376404675292967,2.839523168945312,4.110844250488281,64.50381679389314,-107.98473282442748,21.984732824427482,-11.034875451660156,-25.775975073242186,4.364629626464843,-86.74809160305344,115.17557251908397,79.6793893129771,0.0
14.000000238418579,-14.355633154296875,6.45476767578125,4.204218115234375,51.465648854961835,-113.49618320610686,25.64885496183206,-12.433089221191405,-14.482525842285156,0.411802685546875,46.152671755725194,56.213740458015266,84.8854961832061,0.0
14.010000705718994,-13.098677282714842,7.165845568847656,4.704606262207031,19.129770992366414,-122.50381679389314,33.43511450381679,-8.008604553222655,-2.6384102294921874,-1.9967641845703124,61.038167938931295,40.0,78.85496183206106,0.0
14.020000696182251,-11.226411584472656,5.5545478515625,2.5761609863281247,-10.961832061068701,-133.57251908396947,46.70229007633588,-8.74601866455078,-0.02633621826171875,-1.3455413330078123,55.38931297709924,47.969465648854964,72.44274809160305,0.0
14.030000686645508,-9.737218151855469,2.8275521606445313,1.7956512451171873,-37.7557251908397,-133.0229007633588,55.05343511450382,-8.63827958984375,-1.7645266235351562,-0.41419688720703124,47.69465648854962,57.25190839694657,64.9618320610687,0.0
14.040000677108765,-0.28730419921875,-7.4579381713867186,-4.838681555175781,-8.916030534351146,-129.7709923664122,69.14503816793894,-20.233398229980466,-25.239673901367187,9.425971936035156,112.36641221374046,94.87022900763358,87.96946564885496,0.0
14.050000667572021,9.528922607421874,-20.626047302246093,-10.991779821777342,72.41221374045801,-80.51908396946565,67.70992366412214,-21.193473095703123,-39.2266,14.14733760986328,345.3587786259542,7.603053435114504,106.79389312977099,0.0
14.060000896453857,1.3934253662109375,-16.962918762207032,-7.086836914062499,131.89312977099237,-15.083969465648854,17.297709923664122,-16.704344982910154,-22.476765185546874,1.8507178833007811,500.25954198473283,-130.3206106870229,67.5114503816794,0.0
14.070000410079956,-11.889605444335936,-0.9864110839843749,-0.584185205078125,123.12977099236642,3.1603053435114505,-30.35114503816794,-18.519149841308593,-7.436390356445312,-0.7613561279296874,461.5267175572519,-137.3587786259542,2.0763358778625953,0.0
14.080000638961792,-7.656656909179687,1.707065783691406,-1.62805712890625,118.38167938931298,16.259541984732824,-16.396946564885496,-20.07777512207031,6.943184814453125,-7.271190441894531,341.3587786259542,-134.61068702290078,-55.20610687022901,0.0
14.09000039100647,-11.927912670898436,11.068394274902342,3.766079211425781,32.85496183206107,12.900763358778626,-30.3206106870229,-6.423643054199219,18.21987463378906,-6.885723974609375,201.66412213740458,-97.89312977099236,-89.19083969465649,0.0
14.100001096725464,-9.823409411621093,13.302184423828125,5.2433016357421875,-55.66412213740458,-13.679389312977099,-19.603053435114504,2.2290017456054687,22.069750903320312,-6.311115576171875,75.58778625954199,-51.05343511450382,-77.63358778625954,0.0
14.110000610351562,-7.122749938964843,11.805808386230469,5.178658190917968,-95.92366412213741,-22.9618320610687,7.908396946564886,0.22266075439453123,17.259799768066404,-1.9393033447265624,-9.374045801526718,-0.183206106870229,-31.64885496183206,0.0
14.12000060081482,-3.9815573608398434,9.370905297851563,4.544194750976562,-127.8473282442748,-33.23664122137404,29.358778625954198,-2.703053674316406,9.765948571777344,0.2920926025390625,-83.54198473282443,31.053435114503817,4.122137404580153,0.0
14.130000591278076,-0.8714894042968749,2.3223756103515623,2.001552587890625,-124.04580152671755,-27.938931297709924,50.67175572519084,-5.154716174316406,4.920084411621094,1.7908628417968748,-112.16793893129771,54.47328244274809,34.50381679389313,0.0
14.140000820159912,0.229843359375,-0.3711012573242187,0.8667010009765624,-119.2824427480916,-30.137404580152673,53.25190839694657,-5.614402893066406,3.0526071166992184,1.4053963745117186,-133.89312977099237,72.06106870229007,49.66412213740458,0.0
14.15000057220459,2.269703173828125,-3.881000891113281,0.4836287353515625,-83.41984732824427,-20.198473282442748,61.404580152671755,-8.2743609375,0.19871873779296872,1.5227122558593749,-142.59541984732823,92.30534351145039,59.37404580152672,0.0
14.160000324249268,8.777143286132812,-9.030928662109375,-0.0909796630859375,-24.3206106870229,-6.595419847328245,60.62595419847328,-9.349357482910156,-2.8323405639648436,2.5953145996093747,-137.95419847328245,106.87022900763358,61.61832061068702,0.0
14.170000314712524,5.590460876464843,-9.79946739501953,2.205059729003906,43.19083969465649,43.45038167938932,50.0,-12.042834350585936,-5.916072302246094,4.905719201660156,-123.12977099236642,117.83206106870229,60.10687022900763,0.0
14.180000305175781,-4.797980126953124,4.120421057128906,6.208164904785156,48.961832061068705,57.98473282442748,16.412213740458014,-12.571952917480468,-7.9295958984374995,6.579266162109374,-96.2442748091603,114.73282442748092,53.9236641221374,0.0
14.190000534057617,-8.264784130859374,8.425195642089843,6.8785413696289055,-12.030534351145038,23.083969465648856,6.763358778625954,-12.342109558105468,-8.104372619628906,6.0142345703124995,-63.81679389312977,93.8473282442748,47.725190839694655,0.0
14.200000762939453,-4.783614916992187,2.9376854370117185,5.659892724609374,-28.15267175572519,15.236641221374045,28.9618320610687,-12.016498132324218,-6.471527087402343,4.53940634765625,-45.63358778625954,71.95419847328245,41.541984732824424,0.0
14.21000075340271,-4.479551306152343,3.0071172851562498,6.174646081542968,-26.885496183206108,21.61832061068702,33.69465648854962,-8.51617530517578,-3.2321722412109373,3.5817256835937497,-32.62595419847328,51.89312977099237,29.46564885496183,0.0
14.220000505447388,-2.35589443359375,0.7565677246093749,4.139574670410156,-16.35114503816794,18.50381679389313,37.847328244274806,-10.108319409179687,-5.849034655761718,4.5968671875,-12.213740458015268,40.0763358778626,28.442748091603054,0.0
14.230000972747803,-3.845087866210937,-0.354341845703125,7.101202124023437,-2.122137404580153,24.16793893129771,37.38931297709924,-10.570400329589843,-4.987122058105468,5.104437939453125,6.137404580152672,22.091603053435115,24.106870229007633,0.0
14.240000486373901,-5.853823059082031,-0.2657563842773437,8.145074047851562,14.045801526717558,24.610687022900763,34.80916030534351,-11.520898388671874,-4.153939880371094,5.68862314453125,8.595419847328245,9.083969465648854,18.213740458015266,0.0
14.250000476837158,-7.541735229492187,1.7836802368164062,2.061407629394531,13.618320610687023,34.74809160305343,38.19847328244275,-12.457031237792968,-3.5889082885742187,5.7700260009765625,13.938931297709924,-6.870229007633588,17.236641221374047,0.0
14.260000705718994,-11.693280908203125,0.04548983154296875,0.9888052856445312,-15.618320610687023,44.94656488549618,28.396946564885496,-13.929465258789062,-5.645527514648437,6.155492468261718,24.045801526717558,-30.259541984732824,18.30534351145038,0.0
14.270000696182251,-16.5104146484375,-4.027047192382812,6.742071875,-1.0076335877862594,52.94656488549618,23.374045801526716,-17.324443212890625,-2.463633508300781,7.067683300781249,27.0381679389313,-46.916030534351144,13.969465648854962,0.0
14.280000448226929,-16.596605908203124,-2.8993782104492185,7.000645654296875,28.30534351145038,64.16793893129771,20.580152671755727,-17.48006632080078,0.2657563842773437,7.807491613769531,13.282442748091603,-59.37404580152672,8.82442748091603,0.0
14.290000438690186,-14.923058947753905,-1.5753846923828123,5.384559533691406,36.0763358778626,71.34351145038168,11.557251908396946,-16.191985827636717,2.0829554443359375,7.867346655273437,-7.603053435114504,-71.23664122137404,3.877862595419847,0.0
14.300000429153442,-14.267047692871094,0.3806780639648437,1.1947066284179686,21.129770992366414,67.12977099236642,-0.6106870229007634,-13.66849727783203,4.3263223999023435,7.019799267578125,-30.900763358778626,-80.12213740458016,1.2671755725190839,0.0
14.3100004196167,-11.468225952148437,-2.152387292480469,-2.262520568847656,-4.1679389312977095,56.900763358778626,-6.152671755725191,-10.687716210937499,6.344634399414062,4.53940634765625,-46.6412213740458,-92.12213740458016,1.1603053435114503,0.0
14.320000886917114,-11.48498536376953,-1.695094775390625,0.3854664672851562,7.099236641221374,64.19847328244275,-12.534351145038167,-11.386823095703125,3.5865140869140624,5.202600207519531,-63.69465648854962,-89.86259541984732,9.053435114503817,0.0
14.330000638961792,-1.448492004394531,-8.394071020507813,-1.7429788085937499,39.847328244274806,55.06870229007634,-7.66412213740458,-11.29344923095703,1.3718775512695311,3.2034418212890623,-60.62595419847328,-100.13740458015268,17.0381679389313,0.0
14.340000867843628,-2.099714855957031,-12.133814013671874,-3.1028853515624997,109.09923664122137,99.40458015267176,-15.206106870229007,-10.886434948730468,-1.4963760375976562,2.925714428710937,-54.0,-106.82442748091603,20.366412213740457,0.0
14.350000619888306,-9.672574707031249,-1.2689268798828124,-2.039859814453125,128.04580152671755,114.91603053435115,-49.93893129770992,-11.923124267578125,-3.114856359863281,1.8195932617187498,-28.931297709923665,-119.29770992366412,16.427480916030536,0.0
14.360000848770142,4.6351744140625,-13.678074084472655,-8.434772448730468,169.05343511450383,118.54961832061069,-39.74045801526717,-12.85207451171875,-1.446097802734375,1.4963760375976562,-20.946564885496183,-121.86259541984732,8.091603053435115,0.0
14.37000060081482,4.369418029785156,-27.667394384765622,-15.792154150390624,319.3587786259542,200.65648854961833,-34.36641221374046,-11.209652172851563,-1.209071838378906,0.40940848388671874,-33.083969465648856,-120.68702290076335,-4.0458015267175576,0.0
14.380000591278076,-12.152967626953124,-2.9759926635742184,-4.6639048339843745,400.9312977099237,245.87786259541986,-80.65648854961832,-14.49928525390625,-2.8203695556640622,0.29927520751953124,-13.389312977099237,-112.07633587786259,-15.572519083969466,0.0
14.390000820159912,-13.311761230468749,0.5578489868164063,-6.004657763671875,382.44274809160305,230.38167938931298,-91.90839694656489,-13.189656945800781,0.6344634399414062,-1.0103531005859374,-13.114503816793894,-119.7557251908397,-26.33587786259542,0.0
14.40000057220459,-22.213403002929685,16.965312963867188,-1.6711527587890624,372.7480916030534,246.82442748091603,-75.34351145038168,-13.479355346679686,1.946485949707031,-0.9265560424804687,-45.80152671755725,-106.33587786259542,-32.62595419847328,0.0
14.410000562667847,-13.45780753173828,15.255852978515625,-1.9321207397460936,240.24427480916032,192.99236641221373,-54.94656488549618,-14.180856433105468,1.4053963745117186,-1.908178723144531,-45.98473282442748,-98.16793893129771,-30.763358778625953,0.0
14.420000553131104,-12.85207451171875,20.738574780273435,4.53940634765625,160.53435114503816,175.49618320610688,-55.63358778625954,-12.919112158203124,2.1164742675781247,-1.484405029296875,-54.916030534351144,-104.13740458015268,-28.427480916030536,0.0
14.43000054359436,-8.267178332519531,16.661249353027344,3.35188232421875,28.717557251908396,114.61068702290076,-69.7557251908397,-11.578359228515625,2.770091320800781,-0.7637503295898437,-70.83969465648855,-90.99236641221374,-26.33587786259542,0.0
14.440000534057617,-9.952696301269532,14.159308618164061,2.243366955566406,-66.3969465648855,67.37404580152672,-82.27480916030534,-10.86009873046875,-1.4939818359375,0.2537853759765625,-68.79389312977099,-86.80916030534351,-16.80916030534351,0.0
14.450001001358032,-7.2903440551757805,9.196128576660156,-0.488417138671875,-122.56488549618321,33.48091603053435,-84.51908396946565,-12.739547033691405,-6.016628771972656,2.703053674316406,-35.908396946564885,-87.34351145038168,-13.297709923664122,0.0
14.460000276565552,-7.4579381713867186,1.7549498168945312,-2.2768857788085937,-133.16030534351145,24.763358778625953,-75.74045801526718,-11.049240661621093,-5.793968017578124,4.295197778320312,-5.312977099236641,-100.3206106870229,-23.709923664122137,0.0
14.470000505447388,-9.751583361816406,0.411802685546875,-2.099714855957031,-112.76335877862596,32.47328244274809,-63.48091603053435,-8.271966735839843,-3.9504327392578125,3.8857892944335934,9.557251908396946,-105.37404580152672,-34.656488549618324,0.0
14.480000495910645,-9.907206469726562,-1.39821376953125,-1.4245499877929686,-103.63358778625954,39.86259541984733,-53.083969465648856,-8.027758166503906,-1.1468225952148436,2.5378537597656248,23.908396946564885,-111.02290076335878,-41.32824427480916,0.0
14.49000072479248,-10.723629235839843,-4.623203405761719,-2.0781670410156248,-76.97709923664122,53.55725190839695,-46.36641221374046,-7.505822204589843,0.43574470214843747,2.1883003173828124,30.076335877862597,-105.96946564885496,-43.05343511450382,0.0
14.500000476837158,-9.016563452148437,-4.553771557617187,-1.6208745239257811,-49.541984732824424,63.969465648854964,-42.48854961832061,-8.24802471923828,0.7254431030273437,2.3439234252929686,26.33587786259542,-92.65648854961832,-39.49618320610687,0.0
14.510000705718994,-9.835380419921874,-3.9719805541992184,-1.2018892333984375,-28.38167938931298,74.67175572519083,-41.908396946564885,-5.748478186035156,2.710236279296875,0.9720458740234375,16.137404580152673,-92.7175572519084,-37.9236641221374,0.0
14.520000457763672,-10.733206042480468,-0.9696516723632812,-0.2657563842773437,-8.01526717557252,86.45801526717557,-45.587786259541986,-7.319074475097656,1.254561669921875,1.7669208251953124,12.977099236641221,-83.02290076335878,-31.068702290076335,0.0
14.530000448226929,-9.751583361816406,-0.8882488159179687,0.33518823242187495,-9.603053435114504,84.77862595419847,-48.595419847328245,-6.414066247558593,1.6472107421875,2.061407629394531,1.2671755725190839,-78.83969465648855,-28.30534351145038,0.0
14.540000677108765,-9.603142858886718,1.0654197387695312,0.8499415893554687,-9.541984732824428,81.69465648854961,-52.3206106870229,-8.003816149902343,-1.2856862915039062,3.6056677001953124,0.4580152671755725,-71.38931297709924,-22.015267175572518,0.0
14.550000667572021,-9.085995300292968,-0.8259995727539062,-0.16519991455078123,-15.648854961832061,74.03053435114504,-54.67175572519084,-8.585607153320312,-1.0702081420898437,3.806780639648437,9.86259541984733,-78.56488549618321,-21.66412213740458,0.0
14.560000896453857,-8.741230261230468,1.4820108276367188,0.46208092041015625,-10.610687022900763,73.74045801526718,-57.32824427480916,-7.335833886718749,-0.9576806640625,4.434061474609375,7.969465648854962,-78.16793893129771,-23.34351145038168,0.0
14.570000410079956,-8.571241943359375,0.7733271362304687,-0.00239420166015625,-29.51145038167939,62.61068702290076,-57.41984732824427,-7.034164477539062,-0.9552864624023437,4.070142822265625,14.931297709923664,-83.09923664122137,-24.916030534351144,0.0
14.580000638961792,-12.342109558105468,6.919242797851562,1.4149731811523436,-47.02290076335878,61.32824427480916,-64.1526717557252,-7.455543969726562,-1.6352397338867186,4.984727856445312,11.053435114503817,-73.55725190839695,-22.763358778625953,0.0
14.590000629425049,-15.48809053955078,7.651868505859374,2.9448680419921875,-82.87022900763358,51.06870229007634,-63.87786259541985,-7.587225061035156,-0.44532150878906246,3.7110125732421873,23.938931297709924,-83.43511450381679,-22.412213740458014,0.0
14.600000858306885,-9.145850341796875,0.086191259765625,-1.5370774658203123,-81.8473282442748,37.31297709923664,-54.97709923664122,-7.716511950683593,-0.8355763793945312,4.829104748535156,24.30534351145038,-78.82442748091603,-20.015267175572518,0.0
14.610000371932983,-16.0507279296875,11.686098303222655,0.689530078125,-110.97709923664122,35.3587786259542,-59.05343511450382,-6.315903979492187,-0.5363011718749999,4.872200378417968,21.129770992366414,-76.38167938931298,-19.84732824427481,0.0
14.620166778564453,-9.725247143554688,2.1116858642578125,0.22744915771484372,-160.99236641221373,8.442748091603054,-48.3206106870229,-7.237671618652343,0.43574470214843747,4.161122485351562,26.137404580152673,-80.51908396946565,-18.27480916030534,0.0
14.630000352859497,-8.147468249511718,-4.963180041503906,-2.942473840332031,-115.32824427480917,15.068702290076336,-35.908396946564885,-6.517016918945312,-0.8044517578125,4.886565588378906,17.236641221374047,-71.61832061068702,-15.312977099236642,0.0
14.640000581741333,-19.67794344482422,17.501614135742187,5.9974751586914055,-111.38931297709924,42.274809160305345,-46.56488549618321,-4.881777185058594,-0.7158662963867187,5.0206408813476555,12.198473282442748,-69.48091603053435,-16.442748091603054,0.0
14.65000057220459,-15.483302136230467,15.811307763671874,4.101267443847656,-246.87022900763358,-25.083969465648856,-41.00763358778626,-6.41646044921875,0.28490999755859375,4.182670300292968,13.938931297709924,-69.64885496183206,-14.442748091603054,0.0
14.660000324249268,-10.376469995117187,2.952050646972656,-0.5099649536132812,-265.57251908396944,-53.64885496183206,-16.12213740458015,-6.248866333007812,-0.12449848632812499,4.733336682128906,-0.10687022900763359,-60.16793893129771,-9.404580152671755,0.0
14.670000553131104,-18.988413366699216,9.13627353515625,4.745307690429687,-236.99236641221373,-41.587786259541986,-2.427480916030534,-5.607220288085937,-0.8714894042968749,4.438849877929687,-1.4045801526717556,-60.54961832061068,-7.297709923664122,0.0
14.680000305175781,-10.46984385986328,2.1212626708984375,1.2593500732421874,-248.21374045801528,-70.36641221374046,17.282442748091604,-7.304709265136719,-1.9752163696289062,4.972756848144531,6.977099236641221,-57.343511450381676,-4.748091603053435,0.0
14.690000534057617,-12.892775939941405,-0.7302315063476562,-0.28730419921875,-201.80152671755727,-66.62595419847328,33.64885496183206,-4.996698864746094,-2.6216508178710938,5.389347937011719,4.824427480916031,-54.091603053435115,-4.244274809160306,0.0
14.700000286102295,-9.344569079589844,-6.79953271484375,-3.564966271972656,-151.57251908396947,-64.3969465648855,50.12213740458015,-2.8898014038085935,-2.310404602050781,4.817133740234374,9.618320610687023,-53.770992366412216,-9.19083969465649,0.0
14.71000075340271,-11.271901416015623,-4.910507604980468,-2.834734765625,-101.81679389312977,-45.89312977099237,44.152671755725194,-3.6391865234374996,-4.4196962646484375,5.865794067382812,19.87786259541985,-42.85496183206107,-9.16030534351145,0.0
14.720000505447388,-7.194575988769531,-5.135562561035156,-1.9680337646484374,-85.83206106870229,-18.076335877862597,32.0763358778626,0.5315127685546874,-2.6982652709960937,4.565742565917969,18.045801526717558,-41.69465648854962,-18.916030534351144,0.0
14.730000734329224,-5.537788439941406,-4.328716601562499,-2.24097275390625,-53.3587786259542,7.694656488549619,23.099236641221374,0.11731588134765625,-3.5027170288085934,5.05655390625,21.81679389312977,-23.0381679389313,-20.885496183206108,0.0
14.740000486373901,-4.460397692871093,-4.548983154296875,-0.6919242797851562,-23.908396946564885,35.12977099236641,13.83206106870229,-0.7709329345703124,-3.1387983764648437,4.786009118652344,27.358778625954198,-16.30534351145038,-22.229007633587788,0.0
14.750325441360474,-6.924031201171875,-3.375824340820312,0.5506663818359374,-9.282442748091603,53.404580152671755,2.9618320610687023,-1.1013327636718748,-2.422932080078125,4.335899206542969,30.625954198473284,-10.091603053435115,-25.236641221374047,0.0
14.760000705718994,-8.212111694335936,-3.9791631591796874,1.5610194824218748,13.419847328244275,65.7557251908397,-2.351145038167939,-3.81156904296875,-1.0702081420898437,3.2321722412109373,34.229007633587784,-1.9389312977099236,-25.633587786259543,0.0
14.770000696182251,-9.102754711914063,-3.124433166503906,2.4109610717773435,39.89312977099237,75.31297709923665,-6.748091603053435,-3.8570588745117185,0.9313444458007812,1.3623007446289062,28.33587786259542,7.297709923664122,-27.954198473282442,0.0
14.780000448226929,-9.641450085449218,-1.1276689819335937,3.21780703125,56.778625954198475,77.17557251908397,-11.557251908396946,-1.8243816650390623,3.5601778686523438,-0.6871358764648438,9.83206106870229,27.893129770992367,-29.129770992366414,0.0
