timestamp,Thigh_L_Acc_X,Thigh_L_Acc_Y,Thigh_L_Acc_Z,Thigh_L_Gyr_X,Thigh_L_Gyr_Y,Thigh_L_Gyr_Z,Thigh_R_Acc_X,Thigh_R_Acc_Y,Thigh_R_Acc_Z,Thigh_R_Gyr_X,Thigh_R_Gyr_Y,Thigh_R_Gyr_Z,gpio_output
10.000000476837158,-9.018957653808593,3.4093431640625,1.1013327636718748,13.251908396946565,38.091603053435115,-8.65648854961832,-6.830657336425781,0.2346317626953125,-1.0869675537109373,19.31297709923664,-25.083969465648856,-7.404580152671755,0.0
10.010000467300415,-11.080365283203124,4.656722229003906,2.9568390502929685,2.0610687022900764,37.038167938931295,-7.114503816793893,-9.313444458007812,3.411737365722656,-1.350329736328125,19.297709923664122,-22.15267175572519,-9.98473282442748,1.0
10.02000093460083,-10.216058483886718,3.775656018066406,2.5617957763671875,-2.1374045801526718,35.00763358778626,-1.8473282442748091,-7.256825231933593,4.477157104492187,-2.530671154785156,-7.1603053435114505,-20.16793893129771,-9.129770992366412,1.0
10.030000686645508,-9.325415466308593,2.7557261108398436,1.9656395629882812,-15.389312977099237,29.19083969465649,-0.22900763358778625,-8.836998327636719,1.5945383056640625,-1.1851298217773436,-8.01526717557252,-11.557251908396946,-2.2748091603053435,1.0
10.040000915527344,-10.417171423339843,2.5378537597656248,2.4109610717773435,-18.213740458015266,28.580152671755727,0.13740458015267176,-9.744400756835937,-0.7565677246093749,0.5147533569335937,-0.732824427480916,-8.076335877862595,0.7938931297709924,1.0
10.050000667572021,-9.935936889648437,0.062249243164062495,1.656787548828125,-11.725190839694656,32.25954198473283,0.6870229007633588,-10.512939489746094,-0.22266075439453123,0.7733271362304687,15.419847328244275,-11.236641221374045,-2.519083969465649,1.0
10.060000658035278,-8.980650427246093,0.076614453125,1.7357962036132812,-6.1679389312977095,32.01526717557252,-1.4198473282442747,-9.198522778320312,-0.6512228515624999,-0.20829554443359374,25.374045801526716,-18.091603053435115,-6.67175572519084,1.0
10.070000410079956,-11.312602844238281,1.4915876342773438,2.7916391357421872,-12.106870229007633,29.16030534351145,-5.038167938931298,-9.473855969238281,1.1947066284179686,-0.46208092041015625,31.72519083969466,-20.137404580152673,-10.854961832061068,1.0
10.080000400543213,-10.383652600097655,2.0566192260742184,2.1164742675781247,-14.67175572519084,25.46564885496183,-5.114503816793893,-9.100360510253905,3.5889082885742187,-1.6998831787109374,13.755725190839694,-18.48854961832061,-14.122137404580153,1.0
10.090000629425049,-10.352527978515624,3.438073583984375,2.39420166015625,-28.702290076335878,21.068702290076335,-6.351145038167939,-8.190563879394531,4.067748620605468,-0.6392518432617187,-6.0458015267175576,-10.427480916030534,-12.091603053435115,1.0
10.100000619888306,-9.995791931152343,2.389413256835937,1.8626888916015625,-34.2442748091603,18.916030534351144,-3.9083969465648853,-8.487444885253906,3.864241479492187,-1.0007762939453124,-16.53435114503817,-8.580152671755725,-9.129770992366412,1.0
10.110000610351562,-9.327809667968749,1.3407529296874998,1.2761094848632812,-29.541984732824428,19.282442748091604,-1.8931297709923665,-10.098742602539062,1.6352397338867186,0.15322890625,-16.9618320610687,-6.6106870229007635,-5.603053435114504,1.0
10.120000839233398,-9.643844287109374,1.35990654296875,0.9528922607421875,-27.14503816793893,19.16030534351145,-2.1526717557251906,-9.33978067626953,1.5658078857421873,0.4477157104492187,-12.442748091603054,-7.694656488549619,-7.00763358778626,1.0
10.130000829696655,-9.605537060546874,1.120486376953125,1.0342951171875,-19.64885496183206,19.52671755725191,-0.5648854961832062,-10.55364091796875,0.430956298828125,1.4221557861328125,3.068702290076336,-10.366412213740459,-5.648854961832061,1.0
10.140000581741333,-9.931148486328125,1.3144167114257812,1.426944189453125,-12.549618320610687,20.16793893129771,-0.8244274809160306,-10.184933862304687,0.5674257934570313,1.2401964599609374,16.412213740458014,-18.47328244274809,-5.282442748091603,1.0
10.150000810623169,-9.287108239746093,0.7350199096679687,1.0414777221679687,-6.67175572519084,20.015267175572518,-0.8396946564885496,-10.474632263183594,1.9393033447265624,0.8906430175781249,24.0,-25.14503816793893,-7.00763358778626,1.0
10.160000562667847,-9.210493786621093,0.7350199096679687,1.1156979736328125,2.564885496183206,22.732824427480917,-1.83206106870229,-8.568847741699217,3.8690298828125,0.11252747802734374,4.427480916030534,-24.671755725190838,-9.206106870229007,1.0
10.170000791549683,-10.520122094726561,4.151545678710937,2.786850732421875,-4.595419847328245,24.12213740458015,-5.9541984732824424,-7.601590270996093,3.2609026611328122,0.1867477294921875,-16.702290076335878,-19.374045801526716,-6.137404580152672,1.0
10.18000054359436,-11.1474029296875,5.635950708007812,2.43250888671875,-28.33587786259542,15.526717557251908,-5.251908396946565,-9.888052856445311,1.678335363769531,1.0702081420898437,-19.053435114503817,-13.923664122137405,-1.83206106870229,1.0
10.190000534057617,-9.871293444824218,2.834734765625,1.2808978881835937,-32.58015267175573,14.458015267175572,1.0229007633587786,-9.907206469726562,0.718260498046875,1.5610194824218748,-19.84732824427481,-14.580152671755725,-2.946564885496183,1.0
10.200000524520874,-9.911994873046874,1.5179238525390624,1.6352397338867186,-33.38931297709924,15.236641221374045,2.2290076335877864,-11.511321582031249,-0.06464344482421874,1.3742717529296875,-5.435114503816794,-18.625954198473284,-4.091603053435114,1.0
10.210000276565552,-9.229647399902344,0.009576806640625,0.6919242797851562,-29.480916030534353,14.473282442748092,1.083969465648855,-10.32379755859375,-0.40940848388671874,0.6392518432617187,3.312977099236641,-27.801526717557252,-7.3893129770992365,0.0
10.220000505447388,-8.858546142578124,-0.4477157104492187,0.6153098266601562,-18.580152671755727,17.557251908396946,-0.366412213740458,-9.260772021484375,1.5873557006835937,0.74699091796875,2.9770992366412212,-29.419847328244273,-8.687022900763358,0.0
10.230000495910645,-11.192892761230468,2.3487118286132813,1.6831237670898436,-16.106870229007633,19.17557251908397,-4.641221374045801,-9.770736975097655,2.5809493896484375,0.5889736083984375,-9.221374045801527,-27.236641221374047,-7.984732824427481,0.0
10.240000486373901,-12.265495104980468,4.129997863769531,2.863465185546875,-21.770992366412212,20.244274809160306,-6.213740458015267,-8.104372619628906,2.070984436035156,0.430956298828125,-19.66412213740458,-24.641221374045802,-7.083969465648855,0.0
10.250000476837158,-10.594342346191405,2.518700146484375,1.5227122558593749,-32.656488549618324,13.49618320610687,-2.9770992366412212,-9.591171850585937,0.9074024291992187,1.0510545288085937,-11.022900763358779,-25.740458015267176,-5.694656488549619,0.0
10.260000944137573,-9.459490759277344,-0.7110778930664062,0.5458779785156249,-20.53435114503817,14.396946564885496,2.198473282442748,-10.64222637939453,-0.1292868896484375,1.2713210815429687,1.6641221374045803,-31.6793893129771,-5.3893129770992365,0.0
10.270000696182251,-9.777919580078125,-1.5155296508789062,1.24498486328125,-3.3740458015267176,22.38167938931298,-2.5343511450381677,-10.12507882080078,-0.28969840087890625,1.1228805786132812,15.86259541984733,-37.89312977099237,-7.969465648854962,0.0
10.280000686645508,-10.462661254882812,0.3280056274414062,1.6472107421875,3.801526717557252,25.267175572519083,-10.183206106870228,-8.420407238769531,1.47482822265625,0.7134720947265625,10.610687022900763,-40.36641221374046,-12.51908396946565,0.0
10.290000677108765,-10.601524951171875,2.8802245971679685,1.6639701538085936,2.1374045801526718,24.33587786259542,-12.931297709923664,-9.97903251953125,1.388636962890625,1.37906015625,-0.4732824427480916,-32.0,-9.465648854961833,0.0
10.300000667572021,-9.081206896972656,2.0374656127929685,0.3495534423828125,-1.7709923664122138,20.80916030534351,-9.038167938931299,-11.044452258300781,0.7350199096679687,1.180341418457031,0.6717557251908397,-34.76335877862596,-8.992366412213741,0.0
10.3100004196167,-9.801861596679688,1.8435352783203125,1.3120225097656248,-0.6106870229007634,22.15267175572519,-7.480916030534351,-10.108319409179687,0.8164227661132812,1.2473790649414063,7.969465648854962,-37.221374045801525,-10.412213740458014,0.0
10.320000648498535,-11.125855114746093,1.6232687255859375,1.944091748046875,-0.5190839694656488,24.625954198473284,-9.969465648854962,-9.45470235595703,2.2074539306640624,1.1061211669921875,4.244274809160306,-37.57251908396947,-12.290076335877863,0.0
10.330000638961792,-11.121066711425781,2.5713725830078125,1.5705962890624998,-5.816793893129771,19.64885496183206,-9.98473282442748,-9.093177905273437,2.059013427734375,1.7884686401367187,-9.84732824427481,-28.83969465648855,-10.16793893129771,0.0
10.340000629425049,-9.852139831542969,2.4947581298828125,1.0702081420898437,-13.969465648854962,15.17557251908397,-9.312977099236642,-11.118672509765624,0.8834604125976562,1.5179238525390624,-11.786259541984732,-29.099236641221374,-8.351145038167939,0.0
10.350000619888306,-10.005368737792969,2.4684219116210935,0.7565677246093749,-21.282442748091604,9.511450381679388,-6.519083969465649,-9.497797985839844,0.23223756103515625,1.3958195678710936,-7.267175572519084,-30.290076335877863,-9.587786259541986,0.0
10.360000610351562,-10.704475622558594,1.8842367065429686,1.369483349609375,-14.625954198473282,14.885496183206106,-5.435114503816794,-10.491391674804687,0.2705447875976562,1.8028338500976562,7.7251908396946565,-32.61068702290076,-9.358778625954198,0.0
10.37000036239624,-9.368511096191405,-0.11013327636718749,0.35194764404296874,-12.82442748091603,12.030534351145038,-6.030534351145038,-9.756371765136718,0.5291185668945312,2.35589443359375,16.412213740458014,-35.98473282442748,-8.51908396946565,0.0
10.380000591278076,-10.625466967773438,2.1811177124023438,1.5753846923828123,-10.458015267175572,13.84732824427481,-9.297709923664122,-9.018957653808593,2.2290017456054687,1.3910311645507811,11.786259541984732,-36.18320610687023,-9.19083969465649,0.0
10.390000820159912,-9.421183532714844,0.928950244140625,0.46686932373046874,-12.916030534351146,9.48091603053435,-9.541984732824428,-9.315838659667968,3.5482068603515624,1.68551796875,-5.862595419847328,-28.610687022900763,-7.648854961832061,0.0
10.40000057220459,-9.897629663085937,2.2457611572265623,1.2306196533203124,-11.603053435114504,10.534351145038167,-8.366412213740459,-10.129867224121092,2.1547814941406247,1.6639701538085936,-15.98473282442748,-22.885496183206108,-4.99236641221374,0.0
10.410000801086426,-10.259154113769531,2.061407629394531,1.3862427612304686,-12.351145038167939,8.51908396946565,-8.961832061068701,-8.82263311767578,1.6065093139648436,1.5562310791015623,-20.671755725190838,-19.64885496183206,-5.3893129770992365,0.0
10.420000553131104,-9.885658654785155,1.3215993164062498,1.199495031738281,-9.16030534351145,6.534351145038168,-5.633587786259542,-8.74601866455078,0.46686932373046874,1.0199299072265624,-8.0,-22.870229007633586,-4.702290076335878,0.0
10.43000054359436,-9.516951599121093,0.7422025146484375,0.7924807495117187,0.061068702290076333,7.175572519083969,-4.534351145038168,-11.281478222656249,-0.6200982299804687,2.5641899780273434,9.49618320610687,-20.778625954198475,-1.5419847328244274,0.0
10.440000534057617,-9.275137231445312,0.488417138671875,0.584185205078125,2.4580152671755724,7.114503816793893,-6.183206106870229,-10.01015714111328,0.40462008056640625,1.3527239379882812,25.46564885496183,-28.610687022900763,-4.259541984732825,0.0
10.450000524520874,-9.37808790283203,0.8738836059570312,0.7158662963867187,8.473282442748092,8.16793893129771,-7.984732824427481,-8.465897070312499,1.8818425048828125,0.7206546997070312,23.16030534351145,-30.458015267175572,-6.259541984732825,0.0
10.46000051498413,-9.394847314453125,1.8842367065429686,1.1276689819335937,7.770992366412214,8.213740458015268,-10.335877862595419,-7.101202124023437,2.9975404785156248,0.48123453369140623,7.923664122137405,-24.38167938931298,-6.977099236641221,0.0
10.470000505447388,-9.715670336914062,2.7724855224609373,1.426944189453125,3.6030534351145036,7.0534351145038165,-10.335877862595419,-6.641515405273437,4.841075756835937,-0.1005564697265625,-19.603053435114504,-8.763358778625955,-5.343511450381679,0.0
10.480000495910645,-10.019733947753906,2.9041666137695312,1.3335703247070312,-4.290076335877862,5.251908396946565,-7.404580152671755,-9.97903251953125,1.8052280517578123,0.7996633544921875,-15.358778625954198,-6.33587786259542,2.213740458015267,0.0
10.490000486373901,-9.6917283203125,1.7310078002929687,1.0319009155273438,-4.0458015267175576,4.748091603053435,-5.145038167938932,-8.40125362548828,2.3223756103515623,0.4860229370117187,-16.732824427480917,-4.8396946564885495,0.4122137404580153,0.0
10.500000476837158,-8.99501563720703,0.8188169677734375,0.6823474731445313,-1.1297709923664123,6.320610687022901,-3.267175572519084,-9.361328491210937,0.8259995727539062,0.9983820922851562,-16.38167938931298,-4.320610687022901,1.4198473282442747,0.0
10.510000705718994,-9.184157568359375,0.6200982299804687,0.51714755859375,-3.267175572519084,6.442748091603053,-6.732824427480916,-9.246406811523437,0.41898529052734373,0.9504980590820312,-15.801526717557252,-3.5877862595419847,-0.549618320610687,0.0
10.52000093460083,-9.260772021484375,1.1563994018554686,0.5506663818359374,-4.213740458015267,7.4961832061068705,-9.816793893129772,-9.495403784179686,0.40222587890625,1.0630255371093749,-13.465648854961833,-3.2519083969465647,-1.8778625954198473,0.0
10.530000686645508,-9.72285294189453,2.0566192260742184,0.6488286499023437,-7.587786259541985,8.0,-11.404580152671755,-9.871293444824218,0.09816226806640624,1.429338391113281,-9.34351145038168,-3.49618320610687,-2.351145038167939,0.0
10.540000915527344,-9.950302099609374,2.3630770385742186,0.6081272216796875,-10.259541984732824,8.702290076335878,-11.419847328244275,-9.78031378173828,0.12449848632812499,1.4030021728515625,-10.335877862595419,-4.183206106870229,-4.305343511450381,0.0
10.550000667572021,-9.911994873046874,2.3032219970703123,0.6943184814453125,-13.572519083969466,8.778625954198473,-10.961832061068701,-9.311050256347656,1.3838485595703125,1.6519991455078125,-7.541984732824427,-4.198473282442748,-5.6183206106870225,0.0
10.560000658035278,-9.744400756835937,2.1068974609374997,0.7350199096679687,-17.297709923664122,8.351145038167939,-10.442748091603054,-9.74200655517578,1.4149731811523436,2.5330653564453125,-8.80916030534351,-1.9236641221374047,-5.038167938931298,0.0
10.570000648498535,-9.344569079589844,1.0007762939453124,0.47644613037109373,-15.465648854961833,8.381679389312977,-9.587786259541986,-9.93354268798828,1.4604630126953124,2.7581203125,-7.938931297709924,-1.4198473282442747,-5.312977099236641,0.0
10.580000638961792,-9.512163195800781,-0.0047884033203125,1.0199299072265624,-0.7175572519083969,16.18320610687023,-11.221374045801527,-9.643844287109374,1.1851298217773436,2.916137622070312,-7.32824427480916,-1.3740458015267176,-5.267175572519084,0.0
10.590000629425049,-8.298302954101562,0.4429273071289062,0.07900865478515624,5.557251908396947,14.259541984732824,-15.17557251908397,-9.557653027343749,0.45968671875,2.7198130859375,-5.022900763358779,-1.9694656488549618,-5.679389312977099,0.0
10.600000381469727,-10.364498986816406,1.8363526733398436,1.2904746948242187,4.916030534351145,18.412213740458014,-19.022900763358777,-9.777919580078125,-0.29927520751953124,2.5617957763671875,-1.5114503816793894,-2.8244274809160306,-6.122137404580153,0.0
10.610000610351562,-10.000580334472655,2.1499930908203124,0.93852705078125,7.00763358778626,18.213740458015266,-17.740458015267176,-9.368511096191405,-0.5123591552734374,2.2649147705078123,2.549618320610687,-2.946564885496183,-8.030534351145038,0.0
10.62000060081482,-8.844180932617187,2.4444798950195312,0.39983167724609375,6.702290076335878,14.442748091603054,-15.526717557251908,-9.093177905273437,-0.5339069702148437,1.9967641845703124,6.549618320610687,-2.5343511450381677,-10.549618320610687,0.0
10.630000829696655,-9.701305126953125,1.4891934326171874,0.45968671875,4.366412213740458,13.83206106870229,-15.17557251908397,-8.623914379882812,-0.411802685546875,1.6256629272460936,9.49618320610687,-1.5572519083969465,-12.992366412213741,0.0
10.640000581741333,-10.314220751953124,0.6464344482421874,1.5083470458984374,4.961832061068702,17.801526717557252,-16.198473282442748,-8.365340600585936,-0.7062894897460937,1.2234370483398436,15.587786259541986,0.2595419847328244,-15.297709923664122,0.0
10.650000810623169,-8.609549169921875,0.4644751220703125,0.852335791015625,5.419847328244275,14.290076335877863,-17.66412213740458,-7.694964135742187,-0.5865794067382812,0.9337386474609375,20.259541984732824,3.7709923664122136,-17.96946564885496,0.0
10.660000324249268,-9.069235888671875,0.97683427734375,1.1731588134765625,6.5038167938931295,9.98473282442748,-18.900763358778626,-7.199364392089843,0.3854664672851562,0.28730419921875,21.419847328244273,8.992366412213741,-20.885496183206108,0.0
10.670000791549683,-10.223241088867187,0.7134720947265625,2.940079638671875,5.923664122137405,10.13740458015267,-20.717557251908396,-7.149086157226562,0.928950244140625,-0.4644751220703125,28.03053435114504,11.17557251908397,-21.083969465648856,0.0
10.68000054359436,-10.673351000976561,-0.948103857421875,3.3710359375,19.358778625954198,7.633587786259542,-20.061068702290076,-8.353369592285155,0.8714894042968749,0.4165910888671875,36.19847328244275,18.763358778625953,-20.50381679389313,0.0
10.690000534057617,-8.652644799804687,-1.7693150268554687,3.1220389648437497,43.89312977099237,1.6641221374045803,-20.366412213740457,-7.592013464355468,0.5865794067382812,-0.22744915771484372,38.412213740458014,21.740458015267176,-19.6793893129771,0.0
10.700000524520874,-11.52329259033203,-0.12449848632812499,5.66946953125,52.778625954198475,-3.435114503816794,-25.557251908396946,-6.217741711425781,1.5945383056640625,-2.085349645996094,33.45038167938932,28.198473282442748,-19.755725190839694,0.0
10.71000051498413,-11.93270107421875,2.3415292236328122,6.768408093261718,52.87022900763359,-19.34351145038168,-25.954198473282442,-6.418854650878906,2.27927998046875,-2.1883003173828124,30.061068702290076,41.343511450381676,-16.015267175572518,0.0
10.720000505447388,-12.389993591308594,2.4899697265625,7.635109094238281,61.83206106870229,-33.80152671755725,-21.236641221374047,-8.355763793945313,2.01112939453125,-1.1611878051757811,30.82442748091603,47.17557251908397,-12.381679389312977,0.0
10.730000257492065,-11.54244620361328,0.7230489013671875,7.105990527343749,86.06106870229007,-47.51145038167939,-12.15267175572519,-11.25514200439453,1.618480322265625,1.0199299072265624,25.16030534351145,50.6412213740458,-13.557251908396946,0.0
10.740000486373901,-12.033257543945313,1.707065783691406,7.809885815429687,108.65648854961832,-57.19083969465649,-6.519083969465649,-11.877634436035155,2.0254946044921875,1.9895815795898437,6.442748091603053,55.725190839694655,-15.786259541984732,0.0
10.750000238418579,-13.242329382324218,4.546588952636719,9.734823950195311,99.16030534351145,-80.94656488549619,-3.6030534351145036,-13.881581225585936,-1.6041151123046875,3.394977954101562,6.916030534351145,58.732824427480914,-11.34351145038168,0.0
10.760000944137573,-16.749834814453123,4.747701892089843,11.901576452636718,83.81679389312977,-111.0381679389313,5.648854961832061,-14.286201306152343,-1.3718775512695311,3.0166940917968748,27.16030534351145,45.587786259541986,-8.427480916030534,0.0
10.770000696182251,-19.704279663085938,4.199429711914062,14.006079711914062,111.3587786259542,-124.97709923664122,24.702290076335878,-13.005303417968749,-0.469263525390625,2.6216508178710938,37.465648854961835,38.99236641221374,-6.198473282442748,0.0
10.780000925064087,-20.06101571044922,2.844311572265625,16.314090112304687,97.83206106870229,-155.16030534351145,34.06106870229008,-11.422736120605467,-0.5482721801757812,1.5825672973632812,58.42748091603053,27.46564885496183,-2.8091603053435112,0.0
10.790000677108765,-21.102493432617187,3.306392492675781,14.68363878173828,82.12213740458016,-200.03053435114504,39.404580152671755,-10.002974536132811,1.0079588989257813,0.6536170532226562,57.16030534351145,20.931297709923665,-3.9389312977099236,0.0
10.800000667572021,-20.56379805908203,5.95677373046875,7.299920861816406,62.16793893129771,-225.80152671755727,50.19847328244275,-7.857769848632812,2.152387292480469,-0.28730419921875,31.84732824427481,24.061068702290076,-7.6183206106870225,0.0
10.8100004196167,-15.531186169433592,2.844311572265625,-0.023942016601562498,14.763358778625955,-240.93129770992365,59.83206106870229,-8.01818135986328,0.584185205078125,-0.1149216796875,15.450381679389313,26.65648854961832,-6.748091603053435,0.0
10.820000410079956,-11.621454858398437,-5.951985327148437,-3.3399113159179685,-19.954198473282442,-236.93129770992365,57.93893129770992,-9.390058911132812,-1.2904746948242187,1.2689268798828124,16.12213740458015,23.022900763358777,-4.778625954198473,0.0
10.830000638961792,-6.222530114746093,-16.61815372314453,-4.695029455566406,8.15267175572519,-218.44274809160305,51.603053435114504,-10.053252770996092,-1.3263877197265623,1.139639990234375,12.83969465648855,15.83206106870229,-8.885496183206106,0.0
10.840000629425049,-4.110844250488281,-14.429853405761717,-6.155492468261718,16.12213740458015,-207.4198473282443,25.786259541984734,-10.081983190917969,-1.1180921752929687,0.9217676391601562,11.419847328244275,10.717557251908397,-12.412213740458014,0.0
10.850000381469727,-5.633556506347656,-8.2360537109375,-9.885658654785155,53.099236641221374,-175.23664122137404,10.030534351145038,-10.575188732910156,-1.5658078857421873,0.6177040283203125,-3.2519083969465647,12.702290076335878,-12.16793893129771,0.0
10.860000371932983,-5.791573815917968,-2.834734765625,-10.256759912109374,72.54961832061069,-137.7709923664122,2.6717557251908395,-10.275913525390624,-2.1787235107421874,0.3495534423828125,-3.6030534351145036,14.320610687022901,-9.938931297709924,0.0
10.87000060081482,-5.568913061523437,0.16759411621093748,-8.085219006347655,61.49618320610687,-106.53435114503817,-4.717557251908397,-10.43871923828125,-3.383006945800781,0.0143652099609375,-1.2213740458015268,15.740458015267176,-5.374045801526718,0.0
10.880000591278076,-6.282385156249999,1.1755530151367186,-4.46279189453125,56.13740458015267,-78.87022900763358,-8.961832061068701,-10.450690246582031,-4.534617944335937,0.0430956298828125,8.274809160305344,17.72519083969466,-2.5801526717557253,0.0
10.890000820159912,-7.302315063476562,3.0550013183593747,-2.1691467041015624,43.038167938931295,-57.87786259541985,-12.290076335877863,-10.070012182617187,-4.673481640625,-0.028730419921875,21.282442748091604,19.206106870229007,-2.9618320610687023,0.0
10.90000057220459,-9.004592443847656,5.310339282226562,-0.6631938598632812,23.114503816793892,-46.595419847328245,-8.992366412213741,-9.488221179199218,-3.687070556640625,0.09576806640624999,34.58015267175573,20.18320610687023,-3.7251908396946565,0.0
10.910000562667847,-8.073247998046874,3.4835634155273434,-1.3575123413085937,4.366412213740458,-43.00763358778626,2.8396946564885495,-9.095572106933593,-1.8555062866210936,0.40940848388671874,42.01526717557252,20.717557251908396,-3.4656488549618323,0.0
10.920000553131104,-6.900089184570312,2.2577321655273437,-1.1827356201171875,3.8931297709923665,-23.221374045801525,11.877862595419847,-8.827421520996094,-0.4070142822265625,0.5865794067382812,43.61832061068702,22.396946564885496,-2.687022900763359,0.0
10.93000054359436,-8.63827958984375,3.1794998046874996,0.00718260498046875,-18.595419847328245,-21.893129770992367,8.198473282442748,-7.8529814453124995,1.9321207397460936,-0.105344873046875,40.656488549618324,21.34351145038168,-2.4732824427480917,0.0
10.940000534057617,-7.208941198730468,2.1068974609374997,0.316034619140625,-35.93893129770992,-17.6793893129771,11.465648854961833,-8.075642199707032,4.458003491210937,0.3806780639648437,14.16793893129771,32.01526717557252,-0.6259541984732825,0.0
10.950000286102295,-5.5090580200195305,1.189918225097656,0.21308394775390624,-45.17557251908397,-11.053435114503817,13.419847328244275,-5.391742138671875,5.418078356933593,-1.9105729248046874,-23.34351145038168,36.6412213740458,0.22900763358778625,0.0
10.96000051498413,-4.754884497070313,-0.5291185668945312,0.9457096557617187,-50.94656488549618,-4.717557251908397,13.557251908396946,-6.682216833496093,6.9910688476562495,0.32561142578124996,-72.97709923664122,71.37404580152672,8.717557251908397,0.0
10.970000267028809,-3.1555577880859373,-3.201047619628906,0.9744400756835937,-41.16030534351145,8.366412213740459,14.01526717557252,-4.714183068847656,6.801926916503906,-5.523423229980469,-96.82442748091603,73.86259541984732,14.793893129770993,0.0
10.980000495910645,-2.703053674316406,-3.4644098022460934,2.2170307373046874,-36.87022900763359,14.488549618320612,3.4656488549618323,-10.151415039062499,1.838746875,-0.7781155395507812,-98.82442748091603,80.06106870229007,26.671755725190838,0.0
10.990000486373901,-5.951985327148437,-1.5275006591796874,5.1690813842773435,-45.86259541984733,12.396946564885496,-2.9160305343511452,-13.342885852050781,-4.220977526855468,1.9129671264648436,-80.33587786259542,78.41221374045801,34.213740458015266,0.0
11.000000476837158,-3.9935283691406247,-3.5386300537109374,4.587290380859375,-12.091603053435115,19.16030534351145,4.641221374045801,-13.24711778564453,-6.452373474121093,2.8371289672851563,-49.63358778625954,70.13740458015268,33.31297709923664,0.0
11.010000705718994,-4.680664245605469,-3.787627026367187,4.965574243164062,19.083969465648856,27.954198473282442,-0.7480916030534351,-12.950236779785156,-9.686939916992188,4.055777612304687,19.328244274809162,42.79389312977099,32.2442748091603,0.0
11.02000093460083,-6.129156249999999,-2.664746447753906,5.425260961914062,38.82442748091603,34.396946564885496,-7.297709923664122,-12.071564770507813,-6.586448767089843,2.3223756103515623,62.13740458015267,22.65648854961832,25.19083969465649,0.0
11.030000448226929,-6.983886242675781,0.9504980590820312,5.786785412597656,43.20610687022901,33.32824427480916,-11.49618320610687,-9.983820922851562,-2.5139117431640625,1.9991583862304687,59.64885496183206,23.389312977099237,15.236641221374045,0.0
11.040000677108765,-8.200140686035155,3.5434184570312497,6.306327172851562,28.03053435114504,32.50381679389313,-9.374045801526718,-9.782707983398437,-2.0973206542968748,2.233790148925781,80.61068702290076,11.557251908396946,17.251908396946565,0.0
11.050000667572021,-9.181763366699219,4.285620971679688,6.828263134765624,15.893129770992367,31.083969465648856,-3.66412213740458,-10.426748229980468,-0.9935936889648437,1.6208745239257811,84.67175572519083,4.564885496183206,17.221374045801525,0.0
11.0600004196167,-8.528146313476562,4.560954162597656,6.964732629394531,3.572519083969466,28.85496183206107,2.9618320610687023,-8.307879760742187,2.463633508300781,-0.8547299926757812,60.56488549618321,3.816793893129771,10.916030534351146,0.0
11.070000648498535,-8.63827958984375,4.448426684570312,8.511386901855468,1.099236641221374,33.93893129770992,11.129770992366412,-6.988674645996094,3.3542765258789062,-0.8858546142578124,25.17557251908397,15.618320610687023,11.068702290076336,0.0
11.080000638961792,-8.367734802246094,4.568136767578125,8.923189587402343,-16.290076335877863,26.50381679389313,15.16030534351145,-8.595183959960938,1.3551181396484375,0.0,10.15267175572519,23.52671755725191,16.85496183206107,0.0
11.090000629425049,-7.570465649414062,2.731784094238281,9.552864624023437,-3.5572519083969465,26.99236641221374,24.916030534351144,-9.253589416503905,0.13168109130859373,0.009576806640625,-0.16793893129770993,23.893129770992367,21.587786259541986,0.0
11.100000619888306,-6.988674645996094,3.689464758300781,7.790732202148437,29.66412213740458,33.87786259541985,34.534351145038165,-10.996568225097656,-1.4053963745117186,1.0223241088867188,-8.427480916030534,31.068702290076335,22.717557251908396,0.0
11.110000610351562,-5.365405920410156,3.5673604736328124,3.27526787109375,29.129770992366414,36.900763358778626,40.48854961832061,-8.927977990722656,-2.2840683837890623,-0.0430956298828125,-13.786259541984732,25.450381679389313,20.885496183206108,0.0
11.12000060081482,-5.980715747070312,2.770091320800781,1.7405846069335937,16.076335877862597,44.396946564885496,38.61068702290076,-9.521740002441407,-2.7461493041992187,0.8858546142578124,-13.007633587786259,24.702290076335878,19.770992366412212,0.0
11.130000829696655,-7.635109094238281,1.6543933471679686,1.5035586425781249,-12.01526717557252,49.00763358778626,28.763358778625953,-9.9981861328125,-2.7629087158203123,0.28730419921875,-8.106870229007633,18.076335877862597,18.015267175572518,0.0
11.140000581741333,-9.823409411621093,0.19393033447265623,4.99909306640625,-15.541984732824428,58.68702290076336,25.419847328244273,-12.100295190429687,-2.8754361938476563,1.0869675537109373,-6.183206106870229,17.893129770992367,18.763358778625953,0.0
11.15000057220459,-11.93270107421875,-0.39983167724609375,7.156268762207031,-15.312977099236642,57.06870229007634,23.19083969465649,-10.462661254882812,-1.1420341918945311,-0.1580173095703125,-17.053435114503817,12.305343511450381,12.213740458015268,0.0
11.160000562667847,-12.959813586425781,2.8610709838867185,6.543353137207031,-27.389312977099237,46.18320610687023,18.931297709923665,-8.726865051269531,1.0175357055664063,-1.369483349609375,-30.65648854961832,7.770992366412214,5.175572519083969,0.0
11.170000553131104,-11.631031665039062,2.8371289672851563,5.547365246582031,-33.69465648854962,41.12977099236641,23.404580152671755,-7.510610607910156,2.923320227050781,-1.4221557861328125,-43.06870229007634,8.534351145038167,1.8473282442748091,0.0
11.18000054359436,-11.106701501464842,2.9185318237304685,4.9416322265625,-47.3587786259542,38.961832061068705,24.229007633587788,-8.89924757080078,4.355052819824219,-0.7757213378906249,-58.76335877862596,17.740458015267176,5.083969465648855,0.0
11.190000534057617,-11.609483850097655,3.208230224609375,3.0430303100585934,-60.732824427480914,31.52671755725191,25.022900763358777,-9.296685046386719,4.429273071289062,-1.22583125,-79.08396946564885,20.3206106870229,9.038167938931299,0.0
11.200000286102295,-10.254365710449218,-1.3048399047851562,1.1276689819335937,-67.31297709923665,30.3206106870229,30.82442748091603,-12.291831323242187,2.559401574707031,0.15562310791015624,-77.20610687022901,19.755725190839694,19.022900763358777,0.0
11.21000051498413,-8.257601525878906,-6.272808349609375,0.4429273071289062,-50.396946564885496,35.32824427480916,27.61832061068702,-15.643713647460936,1.438915197753906,0.7445967163085937,-66.41221374045801,12.305343511450381,23.587786259541986,0.0
11.220000505447388,-8.590395556640624,-5.95677373046875,0.1771709228515625,-23.740458015267176,43.61832061068702,15.84732824427481,-15.598223815917969,-0.040701428222656245,0.8738836059570312,-53.49618320610687,-1.1603053435114503,22.137404580152673,0.0
11.230000495910645,-7.407659936523437,-4.029441394042968,-1.4149731811523436,-2.854961832061069,49.038167938931295,6.580152671755725,-13.936647863769531,1.8459294799804686,0.19153613281249998,-56.82442748091603,-8.641221374045802,15.618320610687023,0.0
11.240000486373901,-8.963891015625,-0.8595183959960937,-0.5674257934570313,4.549618320610687,52.58015267175573,-0.4732824427480916,-13.235146777343749,2.24097275390625,-0.36391865234375,-58.25954198473283,-10.641221374045802,13.32824427480916,0.0
11.250000476837158,-9.591171850585937,1.0534487304687499,-0.2442085693359375,5.557251908396947,54.916030534351144,-3.1908396946564888,-13.309367028808593,1.599326708984375,0.05985504150390625,-45.17557251908397,-13.419847328244275,17.16030534351145,0.0
11.260000944137573,-10.01733974609375,1.9943699829101562,-0.0047884033203125,3.1603053435114505,55.37404580152672,-5.190839694656488,-13.453019128417967,1.66636435546875,0.05985504150390625,-32.70229007633588,-15.633587786259541,17.87786259541985,0.0
11.270000696182251,-11.575965026855467,3.787627026367187,0.023942016601562498,-3.969465648854962,53.9236641221374,-5.404580152671755,-11.777077966308592,0.9169792358398436,-0.5530605834960938,-27.755725190839694,-15.86259541984733,15.053435114503817,0.0
11.280000925064087,-11.413159313964844,2.844311572265625,-0.023942016601562498,-10.320610687022901,51.282442748091604,-2.7480916030534353,-11.200075366210937,-1.3455413330078123,0.3758896606445312,-7.4961832061068705,-15.312977099236642,15.358778625954198,0.0
11.290000677108765,-10.536881506347656,1.8435352783203125,-0.5123591552734374,-8.030534351145038,49.41984732824427,-0.1984732824427481,-10.465055456542968,-0.11731588134765625,-0.6655880615234374,11.541984732824428,-20.65648854961832,10.351145038167939,0.0
11.3000009059906,-10.54645831298828,1.2593500732421874,-0.5386953735351562,-5.175572519083969,48.3206106870229,0.6412213740458015,-10.079588989257813,-1.695094775390625,0.42377369384765623,11.786259541984732,-20.610687022900763,7.450381679389313,0.0
11.3100004196167,-9.756371765136718,0.33758243408203126,-0.45010991210937495,-1.2213740458015268,47.61832061068702,0.15267175572519084,-11.3006318359375,-1.2856862915039062,0.9720458740234375,34.94656488549618,-24.015267175572518,2.7480916030534353,0.0
11.320000410079956,-10.817003100585938,0.8044517578125,0.86191259765625,5.038167938931298,49.38931297709924,-3.404580152671756,-9.56962403564453,-0.46686932373046874,0.5003881469726562,32.045801526717554,-32.44274809160305,-5.0534351145038165,0.0
11.330000638961792,-9.873687646484374,1.2114660400390624,0.5410895751953124,4.931297709923665,46.229007633587784,-5.755725190839694,-9.543287817382812,0.0909796630859375,-0.7493851196289062,38.01526717557252,-31.17557251908397,-7.038167938931298,0.0
11.34000039100647,-10.24718310546875,0.8547299926757812,1.4125789794921875,3.145038167938931,46.030534351145036,-8.717557251908397,-8.513781103515624,2.6767174560546874,-0.8355763793945312,41.603053435114504,-33.00763358778626,-9.374045801526718,0.0
11.350000619888306,-10.812214697265624,1.1324573852539062,2.1547814941406247,1.1450381679389312,42.74809160305343,-10.16793893129771,-8.43956085205078,4.984727856445312,-1.216254443359375,26.931297709923665,-30.931297709923665,-12.381679389312977,0.0
11.360000610351562,-10.242394702148436,0.01915361328125,2.214636535644531,-0.916030534351145,40.85496183206107,-12.335877862595419,-6.979097839355468,5.341463903808593,-2.710236279296875,5.816793893129771,-27.984732824427482,-10.641221374045802,0.0
11.37000060081482,-10.414777221679687,-0.12449848632812499,2.6982652709960937,2.0916030534351147,41.70992366412214,-15.297709923664122,-8.588001354980468,3.6559459350585937,-1.886630908203125,-2.6412213740458017,-18.519083969465647,-3.786259541984733,0.0
11.380000352859497,-8.808267907714843,-0.3806780639648437,0.9888052856445312,4.549618320610687,39.37404580152672,-18.091603053435115,-8.152256652832031,3.1507693847656246,-1.4245499877929686,-9.435114503816793,-15.099236641221374,-1.9541984732824427,0.0
11.390000820159912,-8.726865051269531,-0.00718260498046875,1.1563994018554686,13.709923664122137,41.16030534351145,-18.83969465648855,-8.348581188964843,2.6719290527343746,-1.5705962890624998,-9.435114503816793,-16.213740458015266,-1.6641221374045803,0.0
11.40000057220459,-10.081983190917969,1.917755529785156,2.1978771240234374,10.488549618320612,41.3587786259542,-21.66412213740458,-8.537723120117187,2.499546533203125,-1.6711527587890624,-9.694656488549619,-15.099236641221374,0.7175572519083969,0.0
11.410000801086426,-10.548852514648438,1.7956512451171873,1.8004396484374998,7.6183206106870225,41.038167938931295,-21.0381679389313,-8.465897070312499,2.7844565307617186,-1.4867992309570313,-12.351145038167939,-13.32824427480916,2.717557251908397,0.0
11.420000553131104,-9.119514123535156,1.0726023437499999,1.189918225097656,9.648854961832061,41.69465648854962,-20.38167938931298,-8.398859423828124,3.0789433349609374,-1.8243816650390623,-18.3206106870229,-11.083969465648854,2.015267175572519,0.0
11.43000054359436,-10.089165795898436,2.1356278808593747,1.5346832641601562,6.213740458015267,42.29007633587786,-22.290076335877863,-8.94473740234375,2.2361843505859373,-1.8722656982421875,-22.83969465648855,-8.15267175572519,1.2366412213740459,0.0
11.440000534057617,-9.483432775878907,3.1483751831054687,1.24498486328125,4.244274809160306,41.45038167938932,-21.206106870229007,-9.289502441406249,1.8650830932617186,-1.8076222534179687,-26.68702290076336,-7.587786259541985,-0.183206106870229,0.0
11.450000524520874,-9.840168823242188,3.816357446289062,1.0917559570312498,-3.4656488549618323,41.221374045801525,-19.81679389312977,-9.342174877929686,1.7908628417968748,-1.4413093994140624,-28.0,-6.9465648854961835,-0.7175572519083969,0.0
11.46000051498413,-8.992621435546875,2.233790148925781,0.3758896606445312,-2.717557251908397,43.465648854961835,-16.229007633587788,-9.459490759277344,1.5514426757812498,-1.0773907470703123,-28.53435114503817,-6.99236641221374,-0.42748091603053434,0.0
11.470000505447388,-8.908824377441405,3.0645781249999997,0.612915625,-4.244274809160306,46.01526717557252,-16.900763358778626,-9.686939916992188,0.8068459594726562,-0.4333505004882812,-26.16793893129771,-7.7251908396946565,-0.48854961832061067,0.0
11.480000257492065,-9.988609326171874,3.7804444213867185,0.9576806640625,-15.114503816793894,43.786259541984734,-17.17557251908397,-10.261548315429687,0.13168109130859373,-0.5051765502929687,-11.465648854961833,-16.061068702290076,-0.9007633587786259,0.0
11.490000486373901,-9.057264880371093,2.9376854370117185,-0.06943184814453125,-18.717557251908396,40.48854961832061,-13.251908396946565,-9.507374792480467,0.23702596435546874,0.47165772705078124,-4.030534351145038,-17.81679389312977,-1.9694656488549618,0.0
11.500000238418579,-8.990227233886719,1.3072341064453123,0.469263525390625,-18.366412213740457,42.778625954198475,-10.67175572519084,-9.725247143554688,0.39264907226562495,0.9792284790039062,3.984732824427481,-24.12213740458015,-3.145038167938931,0.0
11.510000705718994,-9.746794958496093,2.310404602050781,0.9840168823242187,-17.450381679389313,43.3587786259542,-11.603053435114504,-10.232817895507813,0.10773907470703124,0.5434837768554687,15.541984732824428,-30.580152671755727,-3.66412213740458,0.0
11.520000696182251,-9.873687646484374,2.7844565307617186,1.0941501586914062,-22.229007633587788,38.97709923664122,-12.412213740458014,-9.193734375,2.961627453613281,-0.09337386474609374,10.67175572519084,-34.0763358778626,-8.564885496183207,0.0
11.530000686645508,-12.066776367187499,4.240131140136718,2.27927998046875,-31.740458015267176,37.41984732824427,-11.053435114503817,-8.1594392578125,3.5817256835937497,0.373495458984375,-10.763358778625955,-28.38167938931298,-6.961832061068702,0.0
11.540000677108765,-10.972626208496093,4.568136767578125,1.5059528442382812,-52.51908396946565,26.15267175572519,-8.763358778625955,-9.694122521972655,1.2114660400390624,-0.023942016601562498,-19.083969465648856,-26.0,-2.4122137404580153,0.0
11.550000667572021,-10.85291612548828,2.9472622436523435,1.1611878051757811,-54.74809160305343,26.35114503816794,-4.9465648854961835,-10.66856259765625,0.35673604736328124,1.7405846069335937,-8.198473282442748,-22.12213740458015,-2.4122137404580153,0.0
11.5600004196167,-9.251195214843749,0.7829039428710937,-0.28490999755859375,-58.06106870229008,20.595419847328245,-0.8244274809160306,-9.758765966796874,0.35194764404296874,1.1635820068359375,5.435114503816794,-28.900763358778626,-6.106870229007634,0.0
11.570000648498535,-9.014169250488282,0.11013327636718749,-0.82360537109375,-47.725190839694655,22.625954198473284,0.33587786259541985,-9.665392102050781,0.086191259765625,0.4860229370117187,12.641221374045802,-34.06106870229008,-9.221374045801527,0.0
11.580000638961792,-8.717288244628906,0.3591302490234375,0.4070142822265625,-38.44274809160305,24.717557251908396,-0.3969465648854962,-7.800309008789062,1.8148048583984373,0.40222587890625,5.465648854961832,-32.30534351145038,-10.595419847328245,0.0
11.590000629425049,-10.424354028320312,2.262520568847656,2.473210314941406,-38.961832061068705,23.16030534351145,-1.2366412213740459,-7.941566906738281,2.04943662109375,-0.27293898925781246,-5.236641221374046,-28.213740458015266,-6.870229007633588,0.0
11.600000619888306,-10.0748005859375,1.4341267944335936,2.3535002319335936,-35.38931297709924,19.49618320610687,1.8931297709923665,-10.304643945312499,1.1252747802734375,0.6057330200195312,2.7480916030534353,-25.114503816793892,-3.7099236641221376,0.0
11.610000610351562,-10.237606298828124,-0.04548983154296875,2.3151930053710936,-20.045801526717558,18.045801526717558,5.969465648854962,-10.024522351074218,0.05985504150390625,0.689530078125,14.50381679389313,-31.49618320610687,-4.916030534351145,0.0
11.62000036239624,-11.221623181152344,-0.06943184814453125,3.337517114257812,-13.511450381679388,17.786259541984734,2.5343511450381677,-9.701305126953125,0.5195417602539062,0.6296750366210937,21.129770992366414,-37.64885496183206,-8.412213740458014,0.0
11.630000829696655,-11.389217297363281,0.6081272216796875,3.1364041748046874,-10.15267175572519,12.65648854961832,-0.9465648854961832,-8.51617530517578,1.6927005737304686,0.5578489868164063,7.022900763358779,-36.6412213740458,-11.664122137404581,0.0
11.640000343322754,-9.82580361328125,-0.07422025146484375,1.8148048583984373,-2.381679389312977,11.083969465648854,-1.0687022900763359,-8.444349255371094,1.177947216796875,0.8978256225585937,-8.702290076335878,-31.893129770992367,-9.725190839694656,0.0
11.650000810623169,-11.6070896484375,3.402160559082031,2.6599580444335937,-8.15267175572519,6.717557251908397,-3.145038167938931,-10.043675964355469,0.22026655273437498,0.6584054565429687,-8.854961832061068,-33.52671755725191,-9.145038167938932,0.0
11.660000562667847,-11.06360587158203,2.806004345703125,1.6831237670898436,-9.740458015267176,2.7938931297709924,0.183206106870229,-10.189722265624999,-0.373495458984375,1.4628572143554686,2.1374045801526718,-36.18320610687023,-10.030534351145038,0.0
11.670000791549683,-9.888052856445311,1.5011644409179687,0.9576806640625,-5.145038167938932,1.7099236641221374,4.778625954198473,-9.931148486328125,0.7685387329101562,0.737414111328125,11.022900763358779,-40.67175572519084,-12.396946564885496,0.0
11.68000054359436,-9.361328491210937,1.005564697265625,1.1659762084960936,0.3969465648854962,3.267175572519084,6.305343511450381,-8.662221606445312,2.308010400390625,0.4070142822265625,3.3435114503816794,-37.847328244274806,-12.610687022900763,0.0
11.690000534057617,-9.052476477050782,1.7980454467773437,0.6057330200195312,-2.9160305343511452,2.2290076335877864,5.511450381679389,-10.749965454101561,1.0869675537109373,1.3192051147460937,0.0,-29.297709923664122,-7.343511450381679,0.0
11.700000524520874,-9.279925634765624,2.607285607910156,0.33518823242187495,-6.564885496183206,1.3893129770992367,4.687022900763359,-10.290278735351562,0.5985504150390625,1.7286135986328124,4.641221374045801,-32.0,-7.740458015267175,0.0
11.71000075340271,-9.332598071289063,1.429338391113281,-0.23702596435546874,-8.549618320610687,0.9618320610687023,6.488549618320611,-10.704475622558594,0.47884033203125,1.7334020019531249,14.458015267175572,-33.41984732824427,-8.610687022900763,0.0
11.720000267028809,-9.203311181640624,0.09576806640624999,-0.10773907470703124,-5.297709923664122,2.9770992366412212,5.740458015267175,-10.704475622558594,0.7110778930664062,1.209071838378906,18.15267175572519,-37.70992366412214,-9.17557251908397,0.0
11.730000495910645,-9.176974963378905,0.0047884033203125,-0.17238251953125,-4.106870229007634,4.290076335877862,2.7480916030534353,-9.085995300292968,2.789244934082031,1.0869675537109373,11.358778625954198,-35.37404580152672,-10.061068702290076,0.0
11.740000247955322,-9.868899243164062,1.0414777221679687,-0.009576806640625,-6.763358778625954,5.572519083969466,-1.3435114503816794,-9.112331518554686,3.6391865234374996,0.37828386230468747,-7.526717557251908,-31.480916030534353,-9.053435114503817,0.0
11.750000238418579,-10.275913525390624,1.915361328125,0.00718260498046875,-12.641221374045802,5.145038167938932,-3.282442748091603,-9.406818322753905,3.1794998046874996,1.4700398193359374,-26.625954198473284,-22.091603053435115,-7.801526717557252,0.0
11.760000944137573,-10.182539660644531,1.4604630126953124,-0.5889736083984375,-15.557251908396946,6.534351145038168,-2.4885496183206106,-9.708487731933593,2.291250988769531,1.235408056640625,-28.99236641221374,-21.84732824427481,-6.763358778625954,0.0
11.77000093460083,-10.17056865234375,0.7278373046875,-0.9217676391601562,-14.061068702290076,8.381679389312977,-1.9389312977099236,-10.78348427734375,0.2657563842773437,2.310404602050781,-21.908396946564885,-21.17557251908397,-3.7251908396946565,0.0
11.780000925064087,-8.032546569824218,-2.346317626953125,-1.8052280517578123,-0.15267175572519084,14.366412213740459,-2.366412213740458,-11.631031665039062,-0.37828386230468747,2.3965958618164063,-4.366412213740458,-27.83206106870229,-4.488549618320611,0.0
11.790000438690186,-7.517793212890624,-2.7629087158203123,-1.5490484741210937,9.358778625954198,18.702290076335878,-7.572519083969466,-10.874463940429687,-0.9911994873046874,2.0829554443359375,17.129770992366414,-39.41984732824427,-5.282442748091603,0.0
11.800000667572021,-9.0021982421875,-0.33758243408203126,-0.09576806640624999,12.366412213740459,23.87786259541985,-15.114503816793894,-9.890447058105469,0.9337386474609375,1.0917559570312498,22.778625954198475,-46.38167938931298,-8.473282442748092,0.0
11.810000658035278,-9.72285294189453,1.9201497314453124,0.1867477294921875,6.824427480916031,24.519083969465647,-17.557251908396946,-8.224082702636718,3.782838623046875,0.612915625,-0.5648854961832062,-39.43511450381679,-9.312977099236642,0.0
11.820000886917114,-10.589553942871094,4.469974499511719,0.41898529052734373,-16.16793893129771,17.801526717557252,-16.33587786259542,-9.603142858886718,1.5298948608398437,0.967257470703125,-14.274809160305344,-31.541984732824428,-5.938931297709924,0.0
11.830000638961792,-9.792284790039062,2.099714855957031,-0.6679822631835937,-23.099236641221374,17.358778625954198,-11.114503816793894,-9.720458740234374,1.1516109985351561,1.0175357055664063,-10.793893129770993,-30.27480916030534,-5.816793893129771,0.0
11.840000629425049,-9.909600671386718,2.39420166015625,0.28969840087890625,-28.427480916030536,17.908396946564885,-11.709923664122137,-9.311050256347656,0.7158662963867187,0.6057330200195312,-8.091603053435115,-28.3206106870229,-6.106870229007634,0.0
11.850000858306885,-9.543287817382812,1.2497732666015624,-0.26336218261718747,-35.770992366412216,15.053435114503817,-12.702290076335878,-9.567229833984374,1.2401964599609374,1.01514150390625,-13.86259541984733,-22.641221374045802,-5.038167938931298,0.0
11.860000610351562,-9.423577734375,0.9074024291992187,-0.36152445068359373,-30.091603053435115,16.610687022900763,-9.526717557251908,-9.09796630859375,1.2737152832031249,0.45489831542968745,-18.30534351145038,-19.740458015267176,-5.083969465648855,0.0
11.87000060081482,-8.219294299316406,-1.5777788940429687,-1.0893617553710937,-19.00763358778626,18.778625954198475,-8.961832061068701,-8.927977990722656,0.7589619262695312,1.2856862915039062,-23.72519083969466,-10.0,-4.412213740458015,0.0
11.880000591278076,-7.656656909179687,-1.93451494140625,-0.00239420166015625,-2.4885496183206106,25.17557251908397,-11.893129770992367,-9.165003955078124,0.3591302490234375,0.5961562133789062,-13.389312977099237,-10.961832061068701,-5.541984732824427,0.0
11.890000820159912,-8.540117321777343,-0.4525041137695312,-0.258573779296875,10.885496183206106,27.6793893129771,-18.33587786259542,-9.181763366699219,0.1388636962890625,1.1659762084960936,-4.916030534351145,-7.541984732824427,-4.442748091603053,0.0
11.90000057220459,-9.823409411621093,0.9888052856445312,0.4836287353515625,13.755725190839694,30.793893129770993,-21.862595419847327,-9.445125549316407,0.39264907226562495,1.1061211669921875,3.2213740458015265,-7.114503816793893,-5.022900763358779,0.0
11.910001039505005,-11.463437548828125,2.6958710693359373,1.2114660400390624,9.603053435114504,29.69465648854962,-21.83206106870229,-9.004592443847656,1.2018892333984375,0.9935936889648437,6.625954198473282,-5.786259541984733,-5.755725190839694,0.0
11.920000553131104,-10.321403356933594,2.7724855224609373,1.1635820068359375,5.66412213740458,23.81679389312977,-17.923664122137403,-9.22485899658203,1.6160861206054686,0.9648632690429687,9.129770992366412,-3.9083969465648853,-5.450381679389313,0.0
11.93000078201294,-10.977414611816405,2.3415292236328122,1.0271125122070313,8.625954198473282,21.755725190839694,-14.427480916030534,-9.016563452148437,1.7214309936523438,1.3455413330078123,8.259541984732824,-1.0381679389312977,-4.809160305343512,0.0
11.940000534057617,-8.865728747558594,0.9002198242187499,0.05985504150390625,6.534351145038168,16.18320610687023,-13.450381679389313,-9.239224206542968,1.4341267944335936,1.3742717529296875,9.053435114503817,0.6106870229007634,-4.137404580152672,0.0
11.950000762939453,-8.640673791503906,0.5770026000976562,0.5770026000976562,4.931297709923665,12.977099236641221,-14.549618320610687,-9.234435803222656,1.22583125,1.43652099609375,10.381679389312977,1.6030534351145038,-3.1603053435114505,0.0
11.96000051498413,-10.321403356933594,2.29843359375,1.0893617553710937,2.9923664122137406,10.82442748091603,-15.404580152671755,-9.363722692871093,1.1851298217773436,1.687912170410156,10.274809160305344,3.0839694656488548,-3.1603053435114505,0.0
11.970000505447388,-9.469067565917967,0.4261678955078125,0.46208092041015625,9.022900763358779,9.450381679389313,-12.961832061068701,-9.124302526855468,1.16837041015625,1.7549498168945312,9.511450381679388,4.183206106870229,-3.7557251908396947,0.0
11.980000257492065,-10.249577307128906,2.003946789550781,0.7781155395507812,15.17557251908397,13.49618320610687,-13.709923664122137,-9.131485131835937,1.2521674682617188,1.6256629272460936,11.007633587786259,4.366412213740458,-3.83206106870229,0.0
11.990000247955322,-9.926360083007811,0.7829039428710937,0.9193734375,7.32824427480916,8.198473282442748,-16.68702290076336,-9.117119921875,1.4867992309570313,1.6304513305664061,11.16030534351145,5.3893129770992365,-3.5877862595419847,0.0
12.000000476837158,-10.714052429199219,1.9201497314453124,1.7932570434570312,13.84732824427481,10.51908396946565,-16.442748091603054,-9.406818322753905,1.43652099609375,1.484405029296875,12.335877862595419,5.419847328244275,-2.946564885496183,0.0
12.010000705718994,-10.259154113769531,1.8842367065429686,1.3934253662109375,8.458015267175572,4.305343511450381,-15.709923664122137,-9.449913952636718,1.5682020874023437,1.68551796875,10.351145038167939,8.106870229007633,-4.305343511450381,0.0
12.02000093460083,-9.89523546142578,2.118868469238281,0.7733271362304687,14.045801526717558,3.0839694656488548,-11.068702290076336,-9.1554271484375,1.7405846069335937,1.197100830078125,7.816793893129771,9.374045801526718,-4.717557251908397,0.0
12.030000686645508,-9.643844287109374,2.023100402832031,0.6009446166992187,10.870229007633588,0.9007633587786259,-11.633587786259541,-8.815450512695312,1.9847931762695312,0.7709329345703124,5.419847328244275,11.877862595419847,-4.519083969465649,0.0
12.040000677108765,-9.70369932861328,1.6543933471679686,1.2928688964843749,10.916030534351146,-1.6793893129770991,-12.412213740458014,-9.062053283691405,1.426944189453125,0.842758984375,5.648854961832061,15.404580152671755,-4.137404580152672,0.0
12.050000667572021,-9.737218151855469,1.8315642700195311,1.5275006591796874,15.145038167938932,-4.412213740458015,-11.923664122137405,-8.74601866455078,1.43652099609375,0.5578489868164063,6.580152671755725,16.717557251908396,-4.564885496183206,0.0
12.060000658035278,-9.612719665527344,1.9871873779296874,1.5921441040039062,18.519083969465647,-6.717557251908397,-11.007633587786259,-7.467514978027343,2.29843359375,-0.05985504150390625,-1.2061068702290076,20.641221374045802,-6.5038167938931295,0.0
12.070000648498535,-9.76116016845703,2.3918074584960936,2.2601263671875,19.236641221374047,-10.213740458015268,-10.732824427480915,-7.199364392089843,1.2593500732421874,-0.258573779296875,-6.198473282442748,24.15267175572519,-5.786259541984733,0.0
12.080000638961792,-10.0748005859375,2.1691467041015624,3.0526071166992184,20.717557251908396,-15.053435114503817,-10.320610687022901,-10.216058483886718,0.0718260498046875,1.0702081420898437,1.3893129770992367,33.267175572519086,-2.33587786259542,0.0
12.090000867843628,-10.081983190917969,1.5131354492187499,3.7158009765625,25.87786259541985,-21.52671755725191,-9.419847328244275,-7.414842541503906,-0.1771709228515625,0.6631938598632812,6.977099236641221,30.35114503816794,-4.931297709923665,0.0
12.100000619888306,-10.007762939453125,0.7805097412109374,4.496310717773437,32.50381679389313,-28.244274809160306,-7.786259541984733,-8.834604125976561,0.5458779785156249,1.0486603271484374,15.709923664122137,35.05343511450382,-5.526717557251908,0.0
12.110000610351562,-11.994950317382811,2.9640216552734375,6.227318518066406,24.610687022900763,-40.900763358778626,-8.900763358778626,-6.3973068359375,2.0087351928710935,-0.5123591552734374,13.358778625954198,35.89312977099237,-7.480916030534351,0.0
12.12000060081482,-12.717999218749998,3.423708374023437,7.484274389648437,13.969465648854962,-59.64885496183206,-4.290076335877862,-5.892130285644531,2.7533319091796873,-1.158793603515625,1.0381679389312977,44.61068702290076,-5.679389312977099,0.0
12.130000829696655,-13.299790222167967,3.7924154296875,8.621520178222656,14.931297709923664,-76.33587786259542,4.229007633587786,-7.841010437011718,0.5243301635742187,-0.5722141967773438,0.8244274809160306,56.56488549618321,-3.969465648854962,0.0
12.140000343322754,-13.905523242187499,3.2537200561523436,9.143456140136719,15.664122137404581,-97.89312977099236,12.213740458015268,-10.160991845703125,-1.3718775512695311,0.22505495605468748,18.564885496183205,53.587786259541986,-5.603053435114504,0.0
12.150000810623169,-13.998897106933592,1.3934253662109375,8.94473740234375,35.267175572519086,-119.00763358778626,20.870229007633586,-10.453084448242187,0.30406361083984373,0.4429273071289062,22.80916030534351,50.25954198473283,-11.465648854961833,0.0
12.160000562667847,-15.229516760253905,1.35990654296875,9.682151513671874,43.908396946564885,-139.32824427480915,22.442748091603054,-12.299013928222655,0.37828386230468747,2.8850130004882812,11.664122137404581,56.6412213740458,-12.183206106870228,0.0
12.170000791549683,-17.087417248535154,-0.4261678955078125,11.822567797851562,49.06870229007634,-161.46564885496184,20.763358778625953,-15.682020874023436,-0.9217676391601562,5.7149593627929685,22.595419847328245,52.045801526717554,-9.236641221374045,0.0
12.18000078201294,-18.73941639404297,-1.3551181396484375,12.7563064453125,74.25954198473282,-184.9618320610687,22.564885496183205,-16.03157431640625,-1.1827356201171875,5.068524914550781,23.954198473282442,36.152671755725194,-13.34351145038168,0.0
12.190000534057617,-19.29247697753906,-1.936909143066406,12.38520518798828,93.69465648854961,-208.93129770992365,26.83969465648855,-12.85207451171875,0.3136404174804687,2.8323405639648436,22.549618320610687,26.442748091603054,-13.938931297709924,0.0
12.200000762939453,-19.551050756835938,0.0,8.427589843749999,96.73282442748092,-228.29007633587787,34.152671755725194,-10.216058483886718,-1.7381904052734374,3.095702746582031,33.48091603053435,19.17557251908397,-4.961832061068702,0.0
12.21000051498413,-16.646884143066405,-0.5291185668945312,2.195482922363281,76.67175572519083,-242.0,41.16030534351145,-10.220846887207031,-2.001552587890625,2.461239306640625,46.48854961832061,8.763358778625955,-1.099236641221374,0.0
12.220000505447388,-15.385139868164062,-2.442085693359375,-1.0893617553710937,48.656488549618324,-241.26717557251908,45.786259541984734,-7.7787611938476555,-1.5466542724609373,1.16837041015625,48.82442748091603,4.656488549618321,-3.3282442748091605,0.0
12.230000495910645,-12.58392392578125,-5.973533142089844,-2.4109610717773435,41.20610687022901,-237.22137404580153,48.25954198473283,-8.556876733398436,-0.6847416748046875,0.45489831542968745,41.221374045801525,8.213740458015268,-6.33587786259542,0.0
12.240000486373901,-9.387664709472656,-7.721300354003906,-4.486733911132812,46.091603053435115,-220.70229007633588,46.99236641221374,-7.934384301757812,-0.9600748657226562,-0.679953271484375,30.396946564885496,7.3893129770992365,-10.717557251908397,0.0
12.250000476837158,-6.8569935546875,-8.197746484375,-6.263231542968749,52.2442748091603,-200.44274809160305,32.88549618320611,-8.145074047851562,-0.7302315063476562,-0.4213794921875,12.916030534351146,10.045801526717558,-14.122137404580153,0.0
12.260000944137573,-5.748478186035156,-4.594472985839843,-9.279925634765624,54.99236641221374,-175.34351145038167,19.435114503816795,-9.069235888671875,-1.3335703247070312,-0.22266075439453123,5.770992366412214,11.618320610687023,-13.969465648854962,0.0
12.270000696182251,-5.154716174316406,-1.3431471313476562,-10.86009873046875,47.038167938931295,-143.2824427480916,7.206106870229007,-10.436325036621094,-2.616862414550781,0.1292868896484375,-2.6564885496183206,13.114503816793894,-10.595419847328245,0.0
12.280000925064087,-4.522646936035156,-0.8762778076171874,-8.300697155761718,41.17557251908397,-105.93893129770993,0.4732824427480916,-11.202469567871093,-3.5410242553710933,-0.04548983154296875,1.8931297709923665,14.0,-8.900763358778626,0.0
12.290000438690186,-4.043806604003906,0.16041151123046873,-5.662286926269531,37.32824427480916,-74.19847328244275,-3.648854961832061,-10.184933862304687,-2.1308394775390624,-0.6679822631835937,6.931297709923665,13.297709923664122,-10.335877862595419,0.0
12.300000429153442,-4.76924970703125,0.9600748657226562,-2.35589443359375,26.900763358778626,-51.57251908396947,-5.893129770992366,-9.354145886230468,-0.4955997436523437,0.603338818359375,4.8396946564885495,23.0381679389313,-9.038167938931299,0.0
12.310000658035278,-5.106832141113281,0.6943184814453125,-0.5243301635742187,18.85496183206107,-29.46564885496183,-4.717557251908397,-5.298368273925781,2.9089550170898435,-1.3048399047851562,-4.931297709923665,24.458015267175572,-8.366412213740459,0.0
12.320000648498535,-6.6893994384765625,2.521094348144531,0.967257470703125,0.0916030534351145,-21.31297709923664,-5.786259541984733,-7.108384729003906,3.1100679565429687,-1.2713210815429687,-31.251908396946565,46.93129770992366,-0.24427480916030533,0.0
12.330000638961792,-7.838616235351562,3.3111808959960936,1.448492004394531,-23.435114503816795,-17.31297709923664,-2.6717557251908395,-8.379705810546875,1.1923124267578125,-1.8650830932617186,-34.30534351145038,52.44274809160305,9.618320610687023,0.0
12.340000629425049,-6.3973068359375,1.180341418457031,0.10295067138671875,-33.25190839694657,-16.65648854961832,3.0381679389312977,-8.037334973144532,2.748543505859375,-2.85388837890625,-46.458015267175576,60.152671755725194,11.267175572519085,0.0
12.350000381469727,-5.671863732910156,0.02633621826171875,-0.16280571289062498,-30.763358778625953,-7.022900763358779,6.824427480916031,-8.504204296874999,1.1659762084960936,-2.2026655273437497,-44.80916030534351,65.25190839694656,14.625954198473282,0.0
12.360000610351562,-5.734112976074218,-0.1580173095703125,0.7589619262695312,-31.083969465648856,-0.9465648854961832,3.5572519083969465,-10.781090075683593,-1.6615759521484375,0.34715924072265625,-46.93129770992366,75.05343511450381,19.72519083969466,0.0
12.37000060081482,-5.3390697021484375,-1.66636435546875,1.4604630126953124,-35.099236641221374,3.633587786259542,1.1603053435114503,-10.429142431640624,-1.5921441040039062,0.5291185668945312,-16.16793893129771,62.25954198473283,23.267175572519083,0.0
12.380000591278076,-3.564966271972656,-4.101267443847656,1.7669208251953124,-23.297709923664122,9.84732824427481,-3.7557251908396947,-11.214440576171874,-3.086125939941406,0.9121908325195311,-14.15267175572519,60.36641221374046,22.80916030534351,0.0
12.390000820159912,-3.612850305175781,-4.50109912109375,2.463633508300781,-19.923664122137403,15.770992366412214,-13.603053435114504,-12.299013928222655,-4.592078784179687,2.39420166015625,21.938931297709924,49.221374045801525,26.580152671755727,0.0
12.40000033378601,-7.242460021972656,-3.0262708984374997,4.975151049804687,-14.427480916030534,26.549618320610687,-22.946564885496183,-10.594342346191405,-2.7940333374023436,1.4987702392578124,37.17557251908397,39.282442748091604,21.786259541984734,0.0
12.410000801086426,-6.323086584472656,-1.9393033447265624,4.896142395019531,2.33587786259542,33.16030534351145,-21.541984732824428,-8.482656481933594,0.09816226806640624,-0.6631938598632812,23.328244274809162,32.44274809160305,16.625954198473284,0.0
12.420000553131104,-6.888118176269531,0.04548983154296875,6.449979272460937,12.396946564885496,40.30534351145038,-19.801526717557252,-9.710881933593749,0.35673604736328124,0.7781155395507812,14.82442748091603,38.76335877862596,19.801526717557252,0.0
12.43000054359436,-6.924031201171875,1.4796166259765624,7.163451367187499,11.32824427480916,40.35114503816794,-18.3206106870229,-9.138667736816405,-1.618480322265625,0.11013327636718749,13.969465648854962,30.53435114503817,24.229007633587788,0.0
12.440000295639038,-7.113173132324218,1.5825672973632812,7.005434057617187,14.183206106870228,40.091603053435115,-15.129770992366412,-10.398017810058594,-2.5570073730468748,0.6751648681640625,29.17557251908397,23.587786259541986,25.64885496183206,0.0
12.450000524520874,-7.146691955566406,2.157175695800781,7.577648254394531,17.480916030534353,40.30534351145038,-10.076335877862595,-11.44667813720703,-2.6958710693359373,1.0031704956054688,27.129770992366414,24.931297709923665,20.641221374045802,0.0
12.46000075340271,-7.874529260253905,2.1308394775390624,7.972691528320312,18.38167938931298,40.534351145038165,-2.687022900763359,-10.309432348632813,-1.7645266235351562,0.45968671875,24.748091603053435,23.61832061068702,15.251908396946565,0.0
12.470000505447388,-7.137115148925781,1.1635820068359375,8.738836059570312,22.900763358778626,39.23664122137404,4.961832061068702,-8.853757739257812,-0.4165910888671875,0.5698199951171875,14.412213740458014,26.580152671755727,12.15267175572519,0.0
12.480000495910645,-7.256825231933593,1.5490484741210937,9.093177905273437,24.625954198473284,36.213740458015266,7.7251908396946565,-7.716511950683593,-0.05746083984375,0.3280056274414062,13.725190839694656,25.96946564885496,14.091603053435115,0.0
12.490000486373901,-8.425195642089843,2.152387292480469,10.596736547851561,21.954198473282442,29.83206106870229,8.366412213740459,-8.499415893554687,0.016759411621093748,1.2569558715820313,9.84732824427481,28.625954198473284,17.984732824427482,0.0
12.500000238418579,-9.955090502929687,3.699041564941406,11.757924353027343,29.6793893129771,21.389312977099237,14.412213740458014,-9.445125549316407,0.507570751953125,-0.0909796630859375,2.030534351145038,25.908396946564885,18.427480916030536,0.0
12.510000705718994,-7.860164050292968,6.016628771972656,6.306327172851562,37.45038167938932,20.53435114503817,26.18320610687023,-10.196904870605469,-0.2609679809570312,0.01915361328125,-12.992366412213741,31.46564885496183,18.83969465648855,0.0
12.52000093460083,-7.1035963256835934,7.752424975585937,2.770091320800781,11.648854961832061,18.244274809160306,31.34351145038168,-8.578424548339843,0.9552864624023437,-0.7685387329101562,-27.633587786259543,32.656488549618324,18.015267175572518,0.0
12.530000448226929,-4.489128112792969,3.4069489624023435,-1.8722656982421875,-11.251908396946565,22.03053435114504,34.51908396946565,-10.081983190917969,-2.4396914916992185,0.7613561279296874,-36.97709923664122,38.25954198473283,21.81679389312977,0.0
12.540000915527344,-5.2624552490234375,-1.6807295654296874,-0.507570751953125,-31.267175572519083,38.458015267175576,27.938931297709924,-11.180921752929686,-4.431667272949219,0.6967126831054687,-14.381679389312977,30.671755725190838,22.778625954198475,0.0
12.5500009059906,-10.754753857421875,-4.149151477050781,6.193799694824218,-29.770992366412212,47.282442748091604,20.9618320610687,-15.052345837402342,-4.786009118652344,0.7493851196289062,-7.6183206106870225,26.580152671755727,20.9618320610687,0.0
12.560000658035278,-14.343662145996094,-2.806004345703125,9.476250170898437,8.15267175572519,48.87022900763359,18.748091603053435,-16.448165405273436,-4.197035510253906,0.8643067993164062,8.885496183206106,9.251908396946565,15.801526717557252,0.0
12.570000886917114,-15.298948608398437,6.330269189453125,6.074089611816406,41.282442748091604,49.06870229007634,21.17557251908397,-13.43865391845703,-0.1149216796875,0.9504980590820312,0.44274809160305345,9.129770992366412,10.488549618320612,0.0
12.580000638961792,-15.083470458984374,11.865663427734374,3.143586779785156,19.083969465648856,45.19083969465649,32.13740458015267,-12.763489050292968,2.2673089721679687,1.6998831787109374,-11.374045801526718,8.396946564885496,6.0,0.0
12.590000867843628,-11.374852087402344,4.735730883789063,2.6048914062499997,-19.954198473282442,37.603053435114504,40.213740458015266,-11.652579479980469,2.3032219970703123,1.4508862060546874,-28.106870229007633,2.045801526717557,1.5572519083969465,0.0
12.600000619888306,-9.490615380859374,-0.5913678100585937,0.33518823242187495,-38.458015267175576,32.99236641221374,36.152671755725194,-14.080299963378906,2.540247961425781,1.7477672119140624,-30.83969465648855,-3.984732824427481,-0.8396946564885496,0.0
12.610000610351562,-10.149020837402343,-2.365471240234375,-0.08858546142578125,-57.19083969465649,28.916030534351144,21.19083969465649,-17.381904052734374,0.07900865478515624,2.77727392578125,-39.37404580152672,-10.122137404580153,-1.7099236641221374,0.0
12.62000060081482,-7.606378674316406,-3.1316157714843746,-0.689530078125,-49.89312977099237,24.519083969465647,17.49618320610687,-15.60301221923828,3.775656018066406,0.5985504150390625,-35.23664122137404,-25.786259541984734,-8.16793893129771,0.0
12.630000352859497,-6.323086584472656,-2.9927520751953125,-2.1164742675781247,-31.16030534351145,36.76335877862596,15.786259541984732,-14.698003991699219,5.3199160888671875,0.06703764648437499,-53.06870229007634,-29.51145038167939,-9.450381679389313,0.0
12.640000581741333,-6.710947253417968,-2.9759926635742184,-2.446874096679687,-18.15267175572519,49.25190839694657,7.847328244274809,-13.455413330078125,4.7022120605468745,0.6200982299804687,-53.29770992366412,-30.12213740458015,-4.99236641221374,0.0
12.65000057220459,-6.998251452636718,-3.5242648437499997,-3.1962592163085937,-1.8625954198473282,57.099236641221374,-0.9312977099236641,-11.786654772949218,2.9735984619140625,-0.016759411621093748,-33.16030534351145,-38.44274809160305,0.2748091603053435,0.0
12.660000562667847,-8.760383874511719,-1.618480322265625,-2.3535002319335936,16.16793893129771,70.97709923664122,-10.51908396946565,-11.097124694824219,2.961627453613281,-0.12689268798828124,-18.717557251908396,-43.20610687022901,4.763358778625954,0.0
12.670000791549683,-9.97184991455078,0.9600748657226562,-2.042254016113281,16.35114503816794,77.09923664122137,-17.083969465648856,-9.265560424804686,1.70467158203125,-0.38307226562499996,0.6870229007633588,-45.16030534351145,9.541984732824428,0.0
12.68000054359436,-11.954248889160155,2.365471240234375,-0.22266075439453123,8.488549618320612,81.12977099236642,-19.61832061068702,-7.982268334960937,2.6575638427734374,-2.300827795410156,5.282442748091603,-50.732824427480914,9.267175572519085,0.0
12.690000534057617,-12.66053837890625,2.9544448486328125,0.4333505004882812,4.259541984732825,81.95419847328245,-15.465648854961833,-8.365340600585936,1.6519991455078125,-0.5386953735351562,-4.290076335877862,-39.87786259541985,10.16793893129771,0.0
12.700000524520874,-12.028469140624999,2.142810485839844,1.0007762939453124,0.5038167938931297,80.38167938931298,-12.961832061068701,-6.3973068359375,3.6200329101562496,-3.7205893798828122,-30.83969465648855,-39.19083969465649,6.122137404580153,0.0
12.710000276565552,-10.802637890625,1.1085153686523437,1.5945383056640625,-5.938931297709924,76.06106870229007,-12.320610687022901,-9.035717065429687,0.469263525390625,-1.4317325927734375,-43.69465648854962,-27.068702290076335,11.34351145038168,0.0
12.720000505447388,-9.995791931152343,-0.4333505004882812,2.24097275390625,-5.541984732824427,71.83206106870229,-15.664122137404581,-8.813056311035156,0.09337386474609374,-1.8148048583984373,-32.6412213740458,-31.66412213740458,7.587786259541985,0.0
12.730000495910645,-8.681375219726561,-1.2689268798828124,1.3215993164062498,-2.4427480916030535,65.63358778625954,-18.80916030534351,-9.212887988281249,2.0638018310546875,-1.2904746948242187,-36.50381679389313,-28.580152671755727,2.931297709923664,0.0
12.740000486373901,-9.718064538574218,0.622492431640625,2.731784094238281,-1.5419847328244274,63.969465648854964,-22.091603053435115,-8.851363537597656,1.4915876342773438,-2.0254946044921875,-36.88549618320611,-26.82442748091603,0.2748091603053435,0.0
12.750000476837158,-9.574412438964844,1.0773907470703123,2.1404162841796874,-2.045801526717557,58.47328244274809,-23.099236641221374,-10.242394702148436,-1.0917559570312498,-2.6408044311523438,-18.15267175572519,-27.46564885496183,2.0916030534351147,0.0
12.760000944137573,-9.730035546875,1.2904746948242187,1.5059528442382812,-0.6106870229007634,56.0,-21.389312977099237,-10.275913525390624,-2.4133552734375,-1.2880804931640624,10.442748091603054,-34.717557251908396,0.916030534351145,0.0
12.770000457763672,-10.711658227539061,3.076549133300781,2.578555187988281,-3.2977099236641223,53.7557251908397,-19.984732824427482,-8.693346228027343,0.6368576416015624,-3.1100679565429687,26.16793893129771,-43.23664122137404,-6.137404580152672,0.0
12.780000925064087,-10.512939489746094,2.3822306518554686,2.128445275878906,-15.740458015267176,44.76335877862596,-16.0,-2.959233251953125,2.3343466186523436,-4.8889597900390624,30.519083969465647,-60.93129770992366,-12.381679389312977,0.0
12.790000677108765,-10.682927807617187,1.9632453613281249,2.185906115722656,-13.038167938931299,44.58015267175573,-13.664122137404581,-8.645462194824217,2.0566192260742184,-2.2936451904296873,12.320610687022901,-44.091603053435115,-8.900763358778626,0.0
12.800000667572021,-10.216058483886718,2.0661960327148434,2.722207287597656,-19.206106870229007,42.10687022900763,-13.419847328244275,-8.295908752441406,3.881000891113281,-3.0238766967773434,9.038167938931299,-36.12213740458015,-7.480916030534351,0.0
12.8100004196167,-11.384428894042967,3.1220389648437497,2.5043349365234375,-23.34351145038168,37.19083969465649,-12.183206106870228,-7.302315063476562,5.540182641601562,-2.4779987182617185,-6.549618320610687,-24.442748091603054,-5.068702290076335,0.0
12.820000410079956,-10.539275708007812,2.9855694702148434,2.1404162841796874,-32.534351145038165,29.83206106870229,-8.16793893129771,-6.4739212890625,4.948814831542968,-3.6583401367187496,-19.801526717557252,-18.38167938931298,-1.5114503816793894,0.0
12.830000638961792,-11.918335864257811,2.85388837890625,2.3151930053710936,-28.916030534351144,32.12213740458015,-5.9541984732824424,-8.95670841064453,1.6903063720703124,-0.9504980590820312,-20.076335877862597,-6.534351145038168,5.755725190839694,0.0
12.84000039100647,-10.66856259765625,1.1444283935546875,1.9297265380859374,-28.65648854961832,26.595419847328245,-4.229007633587786,-8.20971749267578,2.3870190551757813,-1.3359645263671873,-11.511450381679388,-10.030534351145038,2.4122137404580153,0.0
12.850000619888306,-11.274295617675781,1.0869675537109373,2.4660277099609376,-15.709923664122137,31.923664122137403,-4.412213740458015,-10.216058483886718,1.180341418457031,0.08379705810546874,-7.068702290076335,-7.206106870229007,4.0,0.0
12.860000848770142,-10.328585961914062,1.216254443359375,2.24097275390625,-10.625954198473282,31.389312977099237,-6.6106870229007635,-10.165780249023436,1.0773907470703123,-0.6416460449218749,-3.068702290076336,-12.748091603053435,2.6717557251908395,0.0
12.87000060081482,-11.06360587158203,3.306392492675781,1.9536685546875,-17.49618320610687,25.740458015267176,-7.816793893129771,-10.635043774414061,1.4532804077148436,0.7158662963867187,4.580152671755725,-13.19083969465649,1.3893129770992367,0.0
12.880000591278076,-10.139444030761718,2.592920397949219,0.6584054565429687,-19.66412213740458,23.282442748091604,-4.763358778625954,-9.545682019042967,2.0757728393554684,-0.6296750366210937,0.7786259541984732,-22.396946564885496,-4.427480916030534,0.0
12.890000581741333,-10.137049829101562,2.6527754394531247,1.3144167114257812,-20.03053435114504,24.213740458015266,-2.854961832061069,-7.785943798828124,3.6056677001953124,-1.0797849487304687,-17.954198473282442,-21.587786259541986,-6.809160305343512,0.0
12.90000057220459,-9.885658654785155,2.6719290527343746,2.2170307373046874,-26.30534351145038,23.129770992366414,-3.282442748091603,-9.900023864746093,3.2225954345703123,-0.46208092041015625,-29.419847328244273,-13.587786259541986,-2.2748091603053435,0.0
12.910001039505005,-9.809044201660155,2.3223756103515623,1.7860744384765623,-30.15267175572519,19.66412213740458,-3.145038167938931,-10.266336718749999,0.0047884033203125,-0.02633621826171875,-26.732824427480917,-17.083969465648856,-0.10687022900763359,0.0
12.920000553131104,-10.481814868164061,2.3391350219726563,2.4133552734375,-23.435114503816795,22.82442748091603,-2.16793893129771,-11.712434521484374,-0.5674257934570313,1.2521674682617188,-10.396946564885496,-18.12213740458015,-1.816793893129771,0.0
12.93000078201294,-11.056423266601563,3.1603461914062496,2.3295582153320313,-30.458015267175572,16.99236641221374,-2.1374045801526718,-10.74517705078125,-0.2753331909179687,1.5251064575195312,4.305343511450381,-25.61832061068702,-5.450381679389313,0.0
12.940000534057617,-9.670180505371093,1.8602946899414061,0.9624690673828125,-28.80916030534351,12.564885496183207,2.732824427480916,-9.349357482910156,1.458068811035156,0.507570751953125,5.984732824427481,-30.610687022900763,-9.007633587786259,0.0
12.950000286102295,-9.121908325195312,1.6448165405273436,0.9169792358398436,-19.96946564885496,16.671755725190838,4.564885496183206,-7.991845141601562,1.7262193969726563,0.4908113403320312,-10.076335877862595,-27.31297709923664,-8.931297709923664,0.0
12.96000051498413,-9.579200842285156,2.8467057739257813,1.2713210815429687,-29.801526717557252,15.48091603053435,2.4122137404580153,-10.675745202636719,0.19632453613281248,1.3718775512695311,-10.793893129770993,-23.14503816793893,-3.9236641221374047,0.0
12.970000267028809,-10.541669909667968,3.1172505615234374,1.2808978881835937,-40.0763358778626,10.900763358778626,3.1908396946564888,-10.788272680664061,-0.5099649536132812,2.4013842651367185,3.0839694656488548,-22.27480916030534,-4.106870229007634,0.0
12.980000257492065,-10.053252770996092,0.8283937744140625,1.3359645263671873,-34.97709923664122,11.908396946564885,7.374045801526718,-10.038887561035155,-0.6679822631835937,1.8555062866210936,16.412213740458014,-30.48854961832061,-7.9541984732824424,0.0
12.990000486373901,-9.701305126953125,-0.47884033203125,1.5825672973632812,-28.03053435114504,11.618320610687023,7.893129770992366,-9.33978067626953,1.0175357055664063,0.8930372192382812,17.541984732824428,-34.74809160305343,-12.854961832061068,0.0
13.000000476837158,-9.586383447265625,-0.4213794921875,1.7741034301757812,-24.48854961832061,12.290076335877863,3.9389312977099236,-8.683769421386717,2.319981408691406,-0.1580173095703125,2.4580152671755724,-31.435114503816795,-14.213740458015268,0.0
13.010000705718994,-9.988609326171874,0.8379705810546875,1.5634136840820312,-26.916030534351144,10.717557251908397,0.42748091603053434,-11.200075366210937,0.8834604125976562,1.8267758666992187,-3.404580152671756,-21.801526717557252,-9.465648854961833,0.0
13.02000093460083,-9.528922607421874,0.16519991455078123,0.5147533569335937,-23.236641221374047,10.580152671755725,-0.015267175572519083,-9.567229833984374,0.5674257934570313,1.678335363769531,-0.7022900763358778,-26.259541984732824,-11.34351145038168,0.0
13.030000925064087,-10.43871923828125,0.8834604125976562,0.4333505004882812,-19.221374045801525,7.114503816793893,0.12213740458015267,-10.144232434082031,-0.39743747558593745,2.109291662597656,11.129770992366412,-30.931297709923665,-11.236641221374045,0.0
13.040000915527344,-9.911994873046874,0.12689268798828124,0.8188169677734375,-12.442748091603054,11.954198473282442,-1.9083969465648856,-10.067617980957031,0.6105214233398437,1.7214309936523438,18.18320610687023,-35.52671755725191,-12.320610687022901,0.0
13.050000667572021,-9.751583361816406,1.1037269653320312,0.8355763793945312,-9.908396946564885,11.007633587786259,-2.030534351145038,-8.2743609375,2.6503812377929687,0.948103857421875,6.549618320610687,-34.030534351145036,-13.618320610687023,0.0
13.060000658035278,-9.967061511230469,2.0302830078125,0.9888052856445312,-13.633587786259541,9.419847328244275,-1.6793893129770991,-10.01015714111328,2.6671406494140624,1.3024457031249999,-6.900763358778626,-26.091603053435115,-9.206106870229007,0.0
13.070000648498535,-10.077194787597655,2.3535002319335936,0.8283937744140625,-16.931297709923665,8.106870229007633,-0.3969465648854962,-9.205705383300781,1.5059528442382812,1.1731588134765625,-5.190839694656488,-28.0,-8.091603053435115,0.0
13.080000638961792,-9.87608184814453,1.3766659545898436,0.3136404174804687,-16.53435114503817,7.709923664122138,1.984732824427481,-10.570400329589843,-0.0383072265625,1.6352397338867186,2.885496183206107,-28.290076335877863,-6.656488549618321,0.0
13.090000867843628,-8.437166650390624,-1.0510545288085937,-0.7924807495117187,-6.1679389312977095,10.488549618320612,3.6946564885496183,-10.237606298828124,0.411802685546875,1.3838485595703125,14.900763358778626,-32.50381679389313,-6.702290076335878,0.0
13.100000858306885,-8.91840118408203,-0.29448680419921874,-0.239420166015625,-0.8549618320610687,12.763358778625955,0.42748091603053434,-8.894459167480468,1.9488801513671874,0.7709329345703124,15.969465648854962,-33.038167938931295,-8.274809160305344,0.0
13.110000610351562,-10.907982763671875,1.8339584716796873,1.1516109985351561,-0.5038167938931297,17.129770992366414,-5.282442748091603,-7.809885815429687,2.85388837890625,0.7685387329101562,-0.48854961832061067,-24.900763358778626,-7.4961832061068705,0.0
13.12000036239624,-11.394005700683593,3.5577836669921874,1.438915197753906,-11.419847328244275,14.320610687022901,-7.00763358778626,-8.073247998046874,3.5386300537109374,0.45489831542968745,-20.3206106870229,-15.16030534351145,-6.534351145038168,0.0
13.130000352859497,-10.632649572753905,2.176329309082031,1.0127473022460938,-13.267175572519085,16.99236641221374,-4.977099236641221,-9.919177478027343,1.6136919189453125,0.55545478515625,-18.549618320610687,-16.53435114503817,-4.763358778625954,0.0
13.140000581741333,-9.809044201660155,0.5291185668945312,0.6057330200195312,-8.458015267175572,19.267175572519083,-4.488549618320611,-9.600748657226562,1.4508862060546874,1.3239935180664062,-18.091603053435115,-14.595419847328245,-5.358778625954199,0.0
13.15000057220459,-11.135431921386719,0.7015010864257812,1.695094775390625,-5.0534351145038165,21.297709923664122,-7.816793893129771,-9.641450085449218,0.833182177734375,1.3287819213867187,-16.53435114503817,-15.709923664122137,-5.267175572519084,0.0
13.160000562667847,-11.123460913085937,1.3287819213867187,0.8571241943359375,-5.9541984732824424,15.86259541984733,-10.091603053435115,-9.828197814941406,0.718260498046875,1.455674609375,-13.267175572519085,-15.541984732824428,-5.435114503816794,0.0
13.170000791549683,-11.212046374511718,1.8243816650390623,0.9193734375,-6.030534351145038,13.801526717557252,-10.244274809160306,-9.617508068847656,0.948103857421875,1.2952630981445312,-11.664122137404581,-15.801526717557252,-6.1679389312977095,0.0
13.18000054359436,-11.379640490722656,3.9887399658203124,1.3814543579101561,-14.717557251908397,9.755725190839694,-9.526717557251908,-10.445901843261717,-0.7230489013671875,2.4588451049804685,-3.648854961832061,-15.083969465648854,-4.122137404580153,0.0
13.190000534057617,-10.836156713867187,2.5378537597656248,0.4525041137695312,-22.015267175572518,3.8931297709923665,-3.114503816793893,-11.073182678222656,0.0430956298828125,2.080561242675781,16.015267175572518,-20.99236641221374,-5.709923664122138,0.0
13.200000524520874,-8.966285217285156,-0.37828386230468747,0.0718260498046875,-3.114503816793893,10.274809160305344,1.4045801526717556,-11.156979736328124,-0.63206923828125,2.1930887207031247,32.83969465648855,-28.27480916030534,-5.00763358778626,0.0
13.21000051498413,-8.609549169921875,-0.7757213378906249,0.27293898925781246,0.9923664122137404,10.335877862595419,-3.7251908396946565,-9.813832604980469,1.158793603515625,1.6400281372070311,44.19847328244275,-34.091603053435115,-7.755725190839694,0.0
13.220000505447388,-9.188945971679686,0.3758896606445312,0.47165772705078124,5.114503816793893,11.145038167938932,-9.450381679389313,-7.7763669921875,2.9855694702148434,0.6440402465820312,26.85496183206107,-33.465648854961835,-8.549618320610687,0.0
13.230000495910645,-10.05564697265625,2.01112939453125,0.842758984375,1.4809160305343512,10.625954198473282,-11.877862595419847,-7.659051110839843,3.35188232421875,1.0462661254882812,4.320610687022901,-21.221374045801525,-5.709923664122138,0.0
13.240000486373901,-10.39322940673828,2.8275521606445313,0.842758984375,-5.236641221374046,8.381679389312977,-10.931297709923664,-7.922413293457031,4.067748620605468,0.6105214233398437,-10.65648854961832,-15.068702290076336,-4.687022900763359,0.0
13.250000476837158,-10.570400329589843,2.5713725830078125,0.842758984375,-9.603053435114504,7.206106870229007,-8.473282442748092,-9.198522778320312,1.7597382202148437,1.3455413330078123,-18.702290076335878,-9.16030534351145,-2.0763358778625953,0.0
13.260000944137573,-10.096348400878906,1.4772224243164063,0.7350199096679687,-9.221374045801527,5.816793893129771,-6.229007633587786,-9.655815295410155,0.3327940307617187,1.68551796875,-14.458015267175572,-8.595419847328245,-2.213740458015267,0.0
13.270000696182251,-9.988609326171874,0.7733271362304687,0.8714894042968749,-5.068702290076335,5.801526717557252,-5.0534351145038165,-9.090783703613281,0.2537853759765625,1.5490484741210937,-9.740458015267176,-8.961832061068701,-3.4656488549618323,0.0
13.280000925064087,-9.394847314453125,0.7278373046875,0.011971008300781249,-2.427480916030534,6.519083969465649,-5.587786259541985,-9.514557397460937,-0.11731588134765625,1.6208745239257811,-3.954198473282443,-8.198473282442748,-3.7404580152671754,0.0
13.290000677108765,-9.60793126220703,0.9433154541015625,0.18914193115234373,-3.9389312977099236,6.702290076335878,-7.633587786259542,-9.53131680908203,-0.18435352783203124,1.7501614135742187,3.969465648854962,-8.366412213740459,-3.954198473282443,0.0
13.300000429153442,-9.629479077148437,0.6631938598632812,0.0047884033203125,-3.3282442748091605,6.99236641221374,-8.885496183206106,-9.030928662109375,-0.3280056274414062,1.3072341064453123,18.48854961832061,-13.48091603053435,-6.030534351145038,0.0
13.310000658035278,-9.519345800781249,0.3591302490234375,0.21068974609375,1.1908396946564885,8.549618320610687,-10.412213740458014,-10.211270080566406,0.622492431640625,1.7645266235351562,29.633587786259543,-15.450381679389313,-6.916030534351145,0.0
13.320000648498535,-9.588777648925781,0.5674257934570313,0.28490999755859375,4.763358778625954,9.98473282442748,-12.122137404580153,-9.112331518554686,1.5322890624999999,1.2880804931640624,31.0381679389313,-16.48854961832061,-7.847328244274809,0.0
13.330000638961792,-9.528922607421874,0.93852705078125,0.28730419921875,2.8244274809160306,10.641221374045802,-14.458015267175572,-8.547299926757812,4.074931225585937,0.3806780639648437,20.68702290076336,-14.229007633587786,-8.778625954198473,0.0
13.340000629425049,-9.775525378417969,2.1811177124023438,0.622492431640625,-0.8396946564885496,10.50381679389313,-16.519083969465647,-9.509768994140625,2.1811177124023438,1.7405846069335937,3.068702290076336,-2.2900763358778624,-2.900763358778626,0.0
13.350000619888306,-9.859322436523437,2.2553379638671873,1.0127473022460938,-7.740458015267175,9.969465648854962,-17.358778625954198,-8.365340600585936,3.299209887695312,0.8068459594726562,-1.6030534351145038,-2.6717557251908395,-5.679389312977099,0.0
13.360000848770142,-9.83777462158203,1.8459294799804686,0.9050082275390624,-7.190839694656488,9.236641221374045,-15.221374045801527,-9.622296472167967,1.1659762084960936,1.5418658691406248,-5.465648854961832,2.427480916030534,-2.885496183206107,0.0
13.370001077651978,-9.787496386718749,1.2856862915039062,0.6967126831054687,-3.282442748091603,9.435114503816793,-12.625954198473282,-8.932766394042968,0.8667010009765624,1.3144167114257812,-3.2977099236641223,2.564885496183206,-3.7404580152671754,0.0
13.380000591278076,-8.810662109374999,-0.17238251953125,-0.16041151123046873,3.053435114503817,10.351145038167939,-11.648854961832061,-9.270348828125,0.2920926025390625,1.4341267944335936,0.7786259541984732,3.66412213740458,-3.7099236641221376,0.0
13.390000820159912,-9.464279162597656,0.7422025146484375,0.09816226806640624,9.49618320610687,13.816793893129772,-14.16793893129771,-9.074024291992187,0.2537853759765625,1.3431471313476562,5.32824427480916,5.297709923664122,-4.564885496183206,0.0
13.40000033378601,-8.329427575683594,0.622492431640625,-0.5698199951171875,9.541984732824428,13.83206106870229,-18.091603053435115,-9.0788126953125,0.44532150878906246,1.209071838378906,9.419847328244275,6.564885496183206,-5.679389312977099,0.0
13.410000801086426,-9.526528405761718,1.2689268798828124,1.1228805786132812,11.404580152671755,19.770992366412212,-20.0,-8.748412866210938,0.74699091796875,0.7924807495117187,12.229007633587786,7.893129770992366,-7.175572519083969,0.0
13.420000553131104,-8.609549169921875,1.9776105712890624,0.411802685546875,11.206106870229007,16.870229007633586,-19.96946564885496,-9.145850341796875,0.59376201171875,0.7565677246093749,16.30534351145038,10.305343511450381,-8.244274809160306,0.0
13.43000078201294,-10.002974536132811,2.3822306518554686,1.0079588989257813,5.755725190839694,17.358778625954198,-21.14503816793893,-8.901641772460938,1.1851298217773436,0.7326257080078125,17.31297709923664,13.709923664122137,-10.992366412213741,0.0
13.440000534057617,-8.657433203124999,1.467645617675781,0.9983820922851562,3.2977099236641223,14.16793893129771,-19.66412213740458,-8.743624462890624,1.1611878051757811,0.30885201416015623,17.251908396946565,15.923664122137405,-12.01526717557252,0.0
13.450000762939453,-9.962273107910155,1.956062756347656,2.8323405639648436,5.038167938931298,15.038167938931299,-20.03053435114504,-7.9295958984374995,2.3582886352539063,-0.44532150878906246,12.854961832061068,19.099236641221374,-13.83206106870229,0.0
13.46000051498413,-10.330980163574218,2.195482922363281,3.5098996337890624,5.206106870229007,11.511450381679388,-20.732824427480917,-8.10197841796875,2.1643583007812497,-0.0047884033203125,-1.1603053435114503,31.206106870229007,-10.916030534351146,0.0
13.470000505447388,-9.852139831542969,0.488417138671875,3.8857892944335934,3.480916030534351,-0.5801526717557252,-18.885496183206108,-7.417236743164062,0.7422025146484375,-0.6105214233398437,4.854961832061068,34.091603053435115,-8.977099236641221,0.0
13.480000257492065,-11.865663427734374,2.5522189697265625,5.702988354492187,8.274809160305344,-9.48091603053435,-17.770992366412212,-9.469067565917967,0.689530078125,0.603338818359375,9.786259541984732,35.86259541984733,-7.480916030534351,0.0
13.490000486373901,-10.503362683105468,-0.74699091796875,5.518634826660156,25.66412213740458,-20.229007633587788,-14.717557251908397,-7.223306408691406,0.8355763793945312,-0.1484405029296875,4.442748091603053,34.3206106870229,-11.511450381679388,0.0
13.500000238418579,-10.345345373535155,-0.41419688720703124,6.5601125488281244,48.916030534351144,-28.18320610687023,-11.435114503816793,-7.8170684204101555,1.2689268798828124,-0.565031591796875,-1.9541984732824427,41.61832061068702,-13.587786259541986,0.0
13.510000467300415,-11.027692846679686,0.41898529052734373,7.003039855957031,63.11450381679389,-39.86259541984733,-11.725190839694656,-7.960720520019531,2.0829554443359375,-0.3902548706054687,-14.702290076335878,51.32824427480916,-13.007633587786259,0.0
13.520000696182251,-12.55758770751953,2.923320227050781,8.015787158203125,72.65648854961832,-52.0763358778626,-8.229007633587786,-11.355698474121093,0.17477672119140625,2.291250988769531,-12.793893129770993,57.80152671755725,-9.603053435114504,0.0
13.530000686645508,-14.611812731933593,5.415684155273437,8.769960681152343,67.95419847328245,-72.99236641221374,-2.2290076335877864,-13.570335009765625,-1.0630255371093749,4.6064439941406246,-2.2442748091603053,49.48091603053435,-11.083969465648854,0.0
13.540000677108765,-15.145719702148437,7.062894897460937,8.482656481933594,67.57251908396947,-95.86259541984732,13.908396946564885,-13.82172618408203,0.41898529052734373,4.8698061767578125,-7.877862595419847,43.541984732824424,-16.106870229007633,0.0
13.550000429153442,-14.777012646484375,6.227318518066406,8.097190014648437,54.396946564885496,-116.61068702290076,28.442748091603054,-14.451401220703124,-1.5011644409179687,5.197811804199218,-1.1755725190839694,41.74045801526717,-12.51908396946565,0.0
13.560000658035278,-15.444994909667967,3.0214824951171875,8.947131604003905,40.58015267175573,-138.70229007633588,39.14503816793893,-13.919888452148436,-2.935291235351562,3.6296097167968746,32.045801526717554,24.12213740458015,-4.106870229007634,0.0
13.570000648498535,-16.21592784423828,-0.9888052856445312,9.354145886230468,50.35114503816794,-157.87786259541986,48.10687022900763,-11.353304272460937,-0.8475473876953125,1.7932570434570312,48.778625954198475,8.50381679389313,-1.251908396946565,0.0
13.580000638961792,-17.91341682128906,-2.8036101440429686,10.579977136230468,72.0,-170.45801526717557,52.30534351145038,-8.872911352539061,0.9337386474609375,0.5410895751953124,43.05343511450382,8.442748091603054,-1.3282442748091603,0.0
13.590000629425049,-17.69554447021484,-1.6927005737304686,7.886500268554687,75.57251908396947,-189.61832061068702,52.030534351145036,-8.195352282714843,-0.00718260498046875,-0.09816226806640624,31.6793893129771,14.717557251908397,-2.0763358778625953,0.0
13.600000619888306,-16.941370947265625,-1.2569558715820313,4.73094248046875,64.85496183206106,-198.59541984732823,52.58015267175573,-8.935160595703124,-3.1124621582031247,0.5482721801757812,30.427480916030536,15.099236641221374,-3.9083969465648853,0.0
13.610000610351562,-14.101847778320312,-3.8091748413085935,0.97683427734375,52.54961832061068,-202.27480916030535,51.49618320610687,-8.13310303955078,-2.1308394775390624,-0.3232172241210937,27.81679389312977,10.01526717557252,-13.86259541984733,0.0
13.62000036239624,-11.008539233398437,-6.3709706176757805,-1.235408056640625,32.030534351145036,-197.93893129770993,45.23664122137404,-8.8489693359375,-2.0542250244140625,-0.5267243652343749,28.396946564885496,10.931297709923664,-19.87786259541985,0.0
13.630000829696655,-8.789114294433594,-8.20971749267578,-0.20829554443359374,29.068702290076335,-185.87786259541986,34.33587786259542,-9.22485899658203,-1.3024457031249999,-0.1484405029296875,23.603053435114504,13.374045801526718,-22.396946564885496,0.0
13.640000581741333,-7.168239770507812,-6.5960255737304685,-1.9009961181640624,27.786259541984734,-179.09923664122138,21.923664122137403,-9.65342109375,-0.5027823486328125,-0.15083470458984374,25.572519083969464,11.419847328244275,-22.045801526717558,0.0
13.65000057220459,-6.89530078125,-3.909731311035156,-3.7134067749023436,29.00763358778626,-165.12977099236642,11.236641221374045,-10.577582934570312,0.45489831542968745,0.469263525390625,21.954198473282442,11.511450381679388,-18.35114503816794,0.0
13.660000562667847,-6.37815322265625,-0.7015010864257812,-6.026205578613281,27.358778625954198,-141.22137404580153,5.0534351145038165,-10.781090075683593,1.22583125,0.6584054565429687,16.290076335877863,13.374045801526718,-12.198473282442748,0.0
13.670000553131104,-6.054935998535156,-0.7422025146484375,-6.459556079101562,22.38167938931298,-117.38931297709924,3.2061068702290076,-10.98699141845703,0.9744400756835937,0.40462008056640625,8.885496183206106,16.106870229007633,-5.267175572519084,0.0
13.68000054359436,-5.779602807617187,-1.6711527587890624,-4.848258361816406,27.984732824427482,-90.03053435114504,1.1603053435114503,-10.615890161132812,0.143652099609375,-0.35194764404296874,2.4885496183206106,18.870229007633586,0.16793893129770993,0.0
13.690000534057617,-5.849034655761718,-0.7709329345703124,-3.0142998901367184,28.045801526717558,-68.45801526717557,-2.8091603053435112,-9.919177478027343,-0.9744400756835937,-0.6919242797851562,2.9770992366412212,21.83206106870229,3.1603053435114505,0.0
13.700000524520874,-6.076483813476562,0.15083470458984374,-1.886630908203125,28.53435114503817,-49.63358778625954,-4.763358778625954,-9.368511096191405,-1.9919757812499999,-0.469263525390625,7.450381679389313,24.106870229007633,5.603053435114504,0.0
13.71000051498413,-7.3932947265625,2.4061726684570313,-0.584185205078125,15.572519083969466,-39.93893129770992,-5.740458015267175,-9.167398156738281,-2.157175695800781,-0.296881005859375,15.068702290076336,25.709923664122137,6.396946564885496,0.0
13.720000505447388,-5.494692810058593,0.689530078125,-1.4221557861328125,9.435114503816793,-32.0,0.5648854961832062,-9.205705383300781,-2.042254016113281,0.17238251953125,21.64885496183206,27.49618320610687,6.916030534351145,0.0
13.730000257492065,-6.8976949829101555,1.5610194824218748,0.9121908325195311,1.2213740458015268,-17.557251908396946,-0.6717557251908397,-8.853757739257812,-1.235408056640625,0.028730419921875,27.129770992366414,27.72519083969466,5.099236641221374,0.0
13.740000486373901,-6.873752966308594,2.741360900878906,1.2808978881835937,-16.47328244274809,-18.748091603053435,-1.9083969465648856,-9.382876306152344,1.1085153686523437,0.1580173095703125,15.938931297709924,36.25954198473283,4.198473282442748,0.0
13.750000476837158,-5.209782812499999,1.4053963745117186,1.0175357055664063,-28.229007633587788,-15.312977099236642,1.8778625954198473,-6.701370446777343,3.337517114257812,-1.7477672119140624,-4.412213740458015,37.63358778625954,3.1755725190839694,0.0
13.760000944137573,-5.410895751953125,0.9983820922851562,1.944091748046875,-34.76335877862596,-5.847328244274809,0.3969465648854962,-7.299920861816406,2.9041666137695312,-0.5363011718749999,-36.961832061068705,55.98473282442748,8.106870229007633,0.0
13.770000696182251,-5.042188696289062,-1.0845733520507812,2.2673089721679687,-34.10687022900763,2.7022900763358777,0.44274809160305345,-5.738901379394531,3.4907460205078125,-1.6136919189453125,-43.06870229007634,58.51908396946565,14.580152671755725,0.0
13.780000925064087,-4.841075756835937,-1.0606313354492187,2.9281086303710935,-32.732824427480914,8.67175572519084,-4.458015267175573,-9.7683427734375,1.1851298217773436,-0.062249243164062495,-61.847328244274806,78.3969465648855,21.297709923664122,0.0
13.790000438690186,-8.576030346679687,1.2330138549804688,5.80354482421875,-45.87786259541985,8.305343511450381,-10.274809160305344,-7.223306408691406,1.9297265380859374,-2.6886884643554687,-63.66412213740458,70.59541984732824,21.022900763358777,0.0
13.800000667572021,-6.4475850708007805,-1.0534487304687499,4.2688615600585935,-39.11450381679389,6.442748091603053,-5.6183206106870225,-9.777919580078125,0.9361328491210937,-1.62805712890625,-79.52671755725191,75.12977099236642,23.297709923664122,0.0
13.810000658035278,-3.756502404785156,-3.8762124877929685,3.754108203125,-14.488549618320612,17.14503816793893,-2.351145038167939,-12.820949890136719,-4.144363073730468,1.905784521484375,-65.16030534351145,81.0381679389313,29.083969465648856,0.0
13.820000648498535,-5.063736511230468,-3.725377783203125,4.764461303710937,6.442748091603053,26.870229007633586,-8.50381679389313,-11.812990991210937,-4.84586416015625,2.6791116577148437,-17.34351145038168,60.74809160305343,31.984732824427482,0.0
13.830000638961792,-5.884947680664062,-3.2058360229492187,4.903325,22.35114503816794,30.076335877862597,-14.16793893129771,-14.767435839843749,-10.797849487304687,5.851428857421874,26.198473282442748,49.89312977099237,32.916030534351144,0.0
13.840000629425049,-5.966350537109375,-3.0262708984374997,5.1690813842773435,40.01526717557252,35.770992366412216,-17.129770992366414,-10.417171423339843,-6.519411120605469,1.9297265380859374,88.7175572519084,15.465648854961833,25.236641221374047,0.0
13.850000619888306,-8.180987072753906,1.3910311645507811,6.265625744628906,47.17557251908397,37.3587786259542,-20.15267175572519,-10.675745202636719,-1.01514150390625,0.8044517578125,81.7557251908397,12.946564885496183,11.954198473282442,0.0
13.860000610351562,-8.276755139160155,3.957615344238281,6.402095239257812,37.11450381679389,38.01526717557252,-13.618320610687023,-8.815450512695312,0.9409212524414062,0.08140285644531249,65.74045801526718,14.549618320610687,10.030534351145038,0.0
13.87000060081482,-7.436390356445312,4.735730883789063,6.660669018554687,32.47328244274809,36.534351145038165,-3.49618320610687,-9.327809667968749,0.22505495605468748,1.6112977172851561,55.80152671755725,19.51145038167939,16.16793893129771,0.0
13.880000591278076,-7.3286512817382805,5.130774157714844,6.919242797851562,15.145038167938932,33.267175572519086,1.984732824427481,-7.905653881835937,2.9376854370117185,-0.3902548706054687,43.6793893129771,13.648854961832061,17.755725190839694,0.0
13.890000820159912,-8.576030346679687,5.760449194335937,7.800309008789062,-2.9160305343511452,28.50381679389313,10.274809160305344,-12.100295190429687,0.9457096557617187,-0.7661445312499999,27.572519083969464,12.732824427480915,20.15267175572519,0.0
13.90000057220459,-7.436390356445312,5.195417602539062,7.692569934082031,2.9923664122137406,32.93129770992366,20.50381679389313,-10.211270080566406,0.4165910888671875,1.3742717529296875,-1.9389312977099236,26.65648854961832,21.66412213740458,0.0
13.910000801086426,-5.530605834960937,4.089296435546875,4.800374328613281,11.236641221374045,38.85496183206107,28.396946564885496,-9.478644372558593,-1.139639990234375,2.8107927490234372,-10.732824427480915,31.374045801526716,22.076335877862597,0.0
13.920000553131104,-4.3263223999023435,4.977545251464844,1.2832920898437499,2.6259541984732824,46.94656488549618,27.0381679389313,-10.503362683105468,-1.5825672973632812,2.518700146484375,-13.221374045801527,27.083969465648856,22.916030534351144,0.0
13.93000054359436,-3.4548329956054684,2.463633508300781,0.1388636962890625,-16.778625954198475,51.69465648854962,24.885496183206108,-9.356540087890625,-1.3311761230468748,2.0183119995117185,-17.66412213740458,21.251908396946565,19.31297709923664,0.0
13.940000295639038,-4.728548278808593,0.2059013427734375,1.68551796875,-33.87786259541985,67.17557251908397,21.053435114503817,-8.511386901855468,-0.2705447875976562,0.737414111328125,-29.267175572519083,16.16793893129771,15.297709923664122,0.0
13.950000524520874,-8.504204296874999,-3.0837317382812497,6.981492041015625,-46.50381679389313,72.97709923664122,14.458015267175572,-9.344569079589844,0.47644613037109373,-0.22505495605468748,-54.030534351145036,19.603053435114504,12.778625954198473,0.0
13.960000276565552,-16.589423303222656,-3.4261025756835934,15.509638354492187,-10.229007633587786,74.8854961832061,10.50381679389313,-11.96382569580078,-2.463633508300781,-0.7589619262695312,-57.9236641221374,19.419847328244273,16.977099236641223,0.0
13.970000505447388,-22.04580888671875,3.77326181640625,14.317325927734375,26.50381679389313,62.396946564885496,12.916030534351146,-13.266271398925781,-4.728548278808593,-0.16998831787109375,-44.458015267175576,6.0458015267175576,17.755725190839694,0.0
13.980000257492065,-20.465635791015625,9.473855969238281,7.108384729003906,2.427480916030534,43.38931297709924,21.587786259541986,-12.018892333984374,-2.626439221191406,-0.4429273071289062,-42.18320610687023,-7.419847328244275,6.0,0.0
13.990000486373901,-16.57984649658203,4.604049792480469,5.0757075195312495,-38.06106870229008,28.82442748091603,26.198473282442748,-9.514557397460937,1.0175357055664063,-0.239420166015625,-50.88549618320611,-5.312977099236641,-7.114503816793893,0.0
14.000000476837158,-11.834538806152343,-0.21787235107421873,1.5251064575195312,-70.58015267175573,15.908396946564885,24.870229007633586,-10.965443603515624,2.7461493041992187,0.07422025146484375,-58.62595419847328,-1.83206106870229,-9.86259541984733,0.0
14.010000705718994,-7.654262707519531,-2.779668127441406,-3.303998291015625,-85.45038167938931,3.0381679389312977,17.358778625954198,-16.172832214355466,4.417302062988281,0.928950244140625,-66.4885496183206,-4.473282442748092,-3.1908396946564888,0.0
14.02000093460083,-5.121197351074218,-5.767631799316406,-3.5027170288085934,-57.81679389312977,14.977099236641221,16.076335877862597,-15.255852978515625,5.185840795898438,0.5602431884765625,-85.66412213740458,-9.19083969465649,-0.4122137404580153,0.0
14.030000448226929,-5.331887097167969,-4.7381250854492185,-3.459621398925781,-24.27480916030534,34.79389312977099,9.664122137404581,-17.5830169921875,3.6463691284179687,1.4173673828125,-77.93893129770993,-18.15267175572519,10.885496183206106,0.0
14.040000677108765,-5.817910034179687,-2.109291662597656,-4.11802685546875,-3.8931297709923665,51.465648854961835,4.488549618320611,-17.84877337646484,2.6695348510742187,1.180341418457031,-65.43511450381679,-27.786259541984734,22.702290076335878,0.0
14.050000667572021,-6.804321118164062,-0.201112939453125,-3.1196447631835937,6.793893129770993,66.7175572519084,1.6030534351145038,-15.095441467285156,0.6823474731445313,-0.033518823242187495,-49.282442748091604,-41.87786259541985,25.984732824427482,0.0
14.060000658035278,-9.830592016601562,2.0566192260742184,-0.9121908325195311,1.9083969465648856,74.12213740458016,-4.213740458015267,-13.73314072265625,0.7685387329101562,0.6607996582031249,-21.84732824427481,-50.36641221374046,23.34351145038168,0.0
14.070000648498535,-12.248735693359373,4.824316345214844,1.0007762939453124,-19.633587786259543,73.00763358778626,-6.2748091603053435,-10.587159741210938,1.5801730957031248,-0.16998831787109375,-18.82442748091603,-56.30534351145038,15.954198473282442,0.0
14.080000400543213,-12.145785021972655,2.70065947265625,1.1180921752929687,-35.64885496183206,71.52671755725191,-2.687022900763359,-9.382876306152344,4.115632653808594,-0.3064578125,-17.022900763358777,-54.091603053435115,11.969465648854962,0.0
14.090000629425049,-11.346121667480467,0.1771709228515625,0.6177040283203125,-44.19847328244275,68.79389312977099,-3.5419847328244276,-7.333439685058593,2.6623522460937497,-0.9744400756835937,-25.96946564885496,-51.83206106870229,11.648854961832061,0.0
14.100000619888306,-11.188104357910156,-1.2880804931640624,0.565031591796875,-43.57251908396947,64.10687022900764,-8.900763358778626,-7.671022119140624,0.8595183959960937,-0.1149216796875,-14.366412213740459,-55.87786259541985,12.442748091603054,0.0
14.110000371932983,-9.935936889648437,-3.0310593017578125,-0.17477672119140625,-26.18320610687023,63.786259541984734,-11.16030534351145,-8.154650854492187,3.3327287109375,-0.44532150878906246,-28.50381679389313,-54.534351145038165,7.00763358778626,0.0
14.12000036239624,-10.151415039062499,-1.9129671264648436,0.9265560424804687,-7.083969465648855,65.6030534351145,-14.427480916030534,-6.45476767578125,2.916137622070312,-2.224213342285156,-50.29007633587786,-43.69465648854962,4.091603053435114,0.0
14.130000829696655,-10.268730920410155,0.08379705810546874,1.6711527587890624,-0.15267175572519084,61.343511450381676,-18.885496183206108,-8.231265307617187,0.9145850341796874,-1.8698714965820311,-39.57251908396947,-33.541984732824424,9.557251908396946,0.0
14.140000343322754,-10.194510668945313,0.4333505004882812,1.5418658691406248,10.458015267175572,58.76335877862596,-17.83206106870229,-9.452308154296874,-0.7422025146484375,-1.3096283081054687,-26.38167938931298,-32.99236641221374,8.82442748091603,0.0
14.150000810623169,-10.675745202636719,1.0869675537109373,2.224213342285156,21.14503816793893,57.48091603053435,-17.282442748091604,-9.727641345214844,0.6871358764648438,-1.2114660400390624,-16.03053435114504,-31.16030534351145,3.450381679389313,0.0
14.160000562667847,-10.225635290527343,2.829946362304687,2.5713725830078125,17.297709923664122,48.595419847328245,-15.587786259541986,-7.728482958984374,2.3487118286132813,-2.1404162841796874,-20.763358778625953,-26.366412213740457,-1.8473282442748091,0.0
14.170000791549683,-9.68454571533203,2.9855694702148434,2.6240450195312497,13.709923664122137,42.87022900763359,-12.01526717557252,-8.022969763183593,3.162740393066406,-1.9393033447265624,-30.27480916030534,-16.595419847328245,-1.1450381679389312,0.0
14.180000305175781,-8.985438830566405,3.392583752441406,2.3511060302734372,4.290076335877862,35.81679389312977,-10.259541984732824,-8.947131604003905,1.0486603271484374,-1.946485949707031,-25.557251908396946,-10.625954198473282,2.030534351145038,0.0
14.190000534057617,-8.329427575683594,1.419761584472656,1.9895815795898437,1.7099236641221374,30.30534351145038,-6.687022900763359,-9.421183532714844,0.277727392578125,-2.0302830078125,-5.190839694656488,-12.320610687022901,1.8015267175572518,0.0
14.200000524520874,-7.800309008789062,1.1348515869140625,1.4173673828125,6.183206106870229,28.549618320610687,-4.9465648854961835,-9.1554271484375,0.7900865478515624,-1.0917559570312498,1.984732824427481,-10.01526717557252,-1.1297709923664123,0.0
14.210000276565552,-10.702081420898438,3.6631285400390623,2.9927520751953125,-2.4580152671755724,27.297709923664122,-6.549618320610687,-7.989450939941406,1.4772224243164063,-1.3335703247070312,5.923664122137405,-8.564885496183207,-3.66412213740458,0.0
14.220000505447388,-9.916783276367187,2.1715409057617188,1.5322890624999999,-13.282442748091603,18.580152671755727,-2.9618320610687023,-8.001421948242188,1.3311761230468748,-1.2401964599609374,6.351145038167939,-6.290076335877862,-3.618320610687023,0.0
14.230000257492065,-10.606313354492187,1.7094599853515624,2.6910826660156246,-1.251908396946565,25.603053435114504,-1.8778625954198473,-8.262389929199218,1.5179238525390624,-0.8690952026367187,7.8320610687022905,-5.358778625954199,-3.2977099236641223,0.0
14.24000096321106,-9.883264453125,1.1324573852539062,2.0302830078125,-6.793893129770993,21.221374045801525,-5.022900763358779,-8.568847741699217,2.1619640991210938,-0.46686932373046874,2.33587786259542,-1.1145038167938932,-3.7404580152671754,0.0
14.250000476837158,-9.507374792480467,0.8595183959960937,0.9217676391601562,-11.954198473282442,16.30534351145038,-4.870229007633588,-8.243236315917969,1.3814543579101561,-0.9816226806640624,3.6793893129770994,-4.809160305343512,-3.2061068702290076,0.0
14.260000944137573,-9.176974963378905,0.699106884765625,0.32561142578124996,-2.6259541984732824,19.328244274809162,-4.0458015267175576,-8.877699755859375,1.668758557128906,-0.41419688720703124,-3.3282442748091605,-0.6106870229007634,-4.6106870229007635,0.0
14.270012378692627,-9.660603698730467,2.032677209472656,1.5873557006835937,-5.404580152671755,24.946564885496183,-7.022900763358779,-9.255983618164063,0.7398083129882812,0.033518823242187495,-2.687022900763359,0.5038167938931297,-5.526717557251908,0.0
14.280000925064087,-8.384494213867187,2.808398547363281,0.25139117431640623,-11.49618320610687,18.15267175572519,-5.068702290076335,-8.836998327636719,1.8746598999023436,-0.6440402465820312,-8.427480916030534,-1.5114503816793894,-10.412213740458014,0.0
14.290000438690186,-11.487379565429686,4.611232397460937,2.195482922363281,-21.282442748091604,20.366412213740457,-2.732824427480916,-9.435548742675781,1.5586252807617187,-0.5267243652343749,-10.595419847328245,-0.9465648854961832,-10.931297709923664,0.0
14.300000667572021,-11.142614526367186,3.632003918457031,2.592920397949219,-30.595419847328245,17.786259541984734,0.04580152671755725,-9.296685046386719,2.2002713256835937,-0.7781155395507812,-8.13740458015267,-3.0839694656488548,-11.267175572519085,0.0
14.3100004196167,-8.896853369140624,0.19153613281249998,0.842758984375,-28.793893129770993,14.366412213740459,3.3587786259541983,-11.736376538085937,1.7932570434570312,0.4525041137695312,3.1603053435114505,-2.564885496183206,-8.763358778625955,0.0
14.320000648498535,-9.93354268798828,1.1324573852539062,2.0254946044921875,-23.389312977099237,13.557251908396946,1.3129770992366412,-10.996568225097656,1.0414777221679687,1.3575123413085937,5.893129770992366,-6.8396946564885495,-7.923664122137405,0.0
14.330000638961792,-9.782707983398437,-0.5961562133789062,0.7900865478515624,-15.877862595419847,11.099236641221374,1.8015267175572518,-9.327809667968749,0.6847416748046875,1.9919757812499999,15.587786259541986,-13.740458015267176,-8.732824427480915,0.0
14.340000629425049,-9.358934289550781,-0.5722141967773438,0.4572925170898437,-4.412213740458015,11.16030534351145,1.2671755725190839,-9.445125549316407,0.9552864624023437,1.7262193969726563,25.923664122137403,-21.34351145038168,-10.01526717557252,0.0
14.350000619888306,-10.266336718749999,1.158793603515625,0.6655880615234374,-0.13740458015267176,10.534351145038167,-1.4809160305343512,-9.497797985839844,2.0733786376953125,1.5298948608398437,26.3206106870229,-25.46564885496183,-12.366412213740459,0.0
14.360000371932983,-9.849745629882811,1.7812860351562498,0.7062894897460937,3.0076335877862594,12.717557251908397,-0.9465648854961832,-8.750807067871094,3.9983167724609374,1.5705962890624998,12.641221374045802,-22.03053435114504,-13.145038167938932,0.0
14.37000060081482,-10.474632263183594,3.8091748413085935,1.0893617553710937,-7.465648854961832,10.65648854961832,-1.1450381679389312,-7.484274389648437,3.4859576171874997,0.5889736083984375,-6.366412213740458,-18.916030534351144,-10.396946564885496,0.0
14.380000591278076,-9.775525378417969,3.057395520019531,0.5626373901367188,-14.854961832061068,9.84732824427481,1.251908396946565,-9.409212524414063,1.2042834350585936,1.5370774658203123,-6.351145038167939,-15.297709923664122,-5.557251908396947,0.0
14.390000820159912,-10.165780249023436,2.7198130859375,0.49320554199218747,-19.114503816793892,9.251908396946565,3.1603053435114505,-11.616666455078125,0.16280571289062498,2.6216508178710938,-1.7404580152671756,-13.48091603053435,-4.854961832061068,0.0
14.40000057220459,-9.435548742675781,0.9935936889648437,0.6057330200195312,-16.641221374045802,11.374045801526718,4.931297709923665,-10.014945544433592,-0.42377369384765623,0.9313444458007812,7.435114503816794,-24.85496183206107,-9.206106870229007,0.0
14.410000801086426,-9.181763366699219,0.5698199951171875,0.7805097412109374,-13.206106870229007,11.404580152671755,4.244274809160306,-9.950302099609374,0.9121908325195311,0.5889736083984375,17.14503816793893,-28.99236641221374,-12.320610687022901,0.0
14.420000314712524,-10.029310754394531,1.7501614135742187,1.3263877197265623,-11.969465648854962,10.931297709923664,2.33587786259542,-9.89523546142578,1.8148048583984373,0.181959326171875,10.977099236641221,-29.00763358778626,-14.030534351145038,0.0
14.43000054359436,-10.122684619140625,2.1906945190429687,1.5538368774414062,-15.435114503816793,12.748091603053435,1.1145038167938932,-10.831368310546875,2.2744915771484373,1.3263877197265623,1.282442748091603,-25.0381679389313,-11.618320610687023,0.0
14.440000295639038,-10.520122094726561,2.942473840332031,1.2856862915039062,-24.82442748091603,10.412213740458014,0.7480916030534351,-10.1131078125,2.3487118286132813,0.5267243652343749,-7.770992366412214,-22.793893129770993,-9.267175572519085,0.0
14.450000524520874,-10.812214697265624,2.7437551025390623,0.7230489013671875,-32.01526717557252,8.412213740458014,2.4732824427480917,-9.957484704589843,1.608903515625,1.0869675537109373,-15.34351145038168,-19.450381679389313,-8.412213740458014,0.0
14.460000276565552,-9.631873278808593,0.46686932373046874,-0.023942016601562498,-25.251908396946565,11.801526717557252,5.251908396946565,-10.970232006835937,-0.20829554443359374,0.6416460449218749,0.030534351145038167,-26.80916030534351,-9.221374045801527,0.0
14.470000505447388,-10.594342346191405,0.3495534423828125,0.86191259765625,-31.267175572519083,10.717557251908397,2.687022900763359,-12.382810986328124,-0.6679822631835937,2.001552587890625,16.977099236641223,-29.6793893129771,-10.931297709923664,0.0
14.480000495910645,-10.062829577636718,0.8882488159179687,0.584185205078125,-21.267175572519083,12.290076335877863,3.969465648854962,-11.374852087402344,-1.0366893188476562,1.7788918334960937,31.31297709923664,-39.770992366412216,-13.603053435114504,0.0
14.490000247955322,-9.583989245605467,0.26815058593749996,0.3447650390625,-20.549618320610687,11.465648854961833,2.0,-9.605537060546874,1.9393033447265624,1.1611878051757811,28.091603053435115,-45.908396946564885,-19.206106870229007,0.0
14.500000476837158,-9.3852705078125,0.9337386474609375,0.4213794921875,-19.755725190839694,13.725190839694656,1.083969465648855,-10.189722265624999,1.465251416015625,1.254561669921875,16.3206106870229,-40.3206106870229,-16.610687022900763,0.0
14.510000705718994,-9.423577734375,0.9002198242187499,0.35194764404296874,-23.83206106870229,12.748091603053435,-0.9923664122137404,-10.869675537109375,0.7206546997070312,1.2976572998046874,22.53435114503817,-42.412213740458014,-14.65648854961832,0.0
14.520000696182251,-10.225635290527343,0.7015010864257812,0.6200982299804687,-22.30534351145038,13.145038167938932,-1.83206106870229,-9.550470422363281,2.6719290527343746,0.3591302490234375,22.16793893129771,-49.12977099236641,-19.328244274809162,0.0
14.530000686645508,-9.900023864746093,0.19153613281249998,0.5195417602539062,-16.244274809160306,14.595419847328245,-3.053435114503817,-8.379705810546875,3.4835634155273434,0.105344873046875,1.9236641221374047,-41.49618320610687,-18.580152671755727,0.0
14.540000915527344,-9.811438403320311,0.7134720947265625,0.7326257080078125,-20.458015267175572,13.34351145038168,-4.824427480916031,-9.756371765136718,1.448492004394531,1.218648645019531,0.8244274809160306,-33.64885496183206,-13.48091603053435,0.0
14.550000429153442,-10.376469995117187,0.8643067993164062,0.7517793212890624,-21.022900763358777,12.366412213740459,-6.488549618320611,-10.656591589355468,0.7996633544921875,1.5873557006835937,10.213740458015268,-36.94656488549618,-15.236641221374045,0.0
14.560000896453857,-9.880870251464843,-0.74699091796875,0.0430956298828125,-12.687022900763358,12.51908396946565,-5.66412213740458,-9.655815295410155,1.9680337646484374,1.0558429321289062,11.038167938931299,-40.229007633587784,-15.465648854961833,0.0
14.570000410079956,-10.271125122070313,-0.7206546997070312,0.5602431884765625,6.030534351145038,21.52671755725191,-7.847328244274809,-7.2903440551757805,2.863465185546875,0.07900865478515624,-2.6412213740458017,-37.69465648854962,-14.335877862595419,0.0
14.580000638961792,-12.12423720703125,2.7054478759765623,1.5921441040039062,0.12213740458015267,20.27480916030534,-14.076335877862595,-7.637503295898437,3.5625720703124997,-0.33039982910156246,-16.15267175572519,-29.66412213740458,-11.32824427480916,0.0
14.590000629425049,-12.16254443359375,4.187458703613281,1.4030021728515625,-7.847328244274809,18.702290076335878,-12.15267175572519,-8.772354882812499,2.0302830078125,0.9552864624023437,-27.14503816793893,-17.358778625954198,-6.366412213740458,0.0
14.600000619888306,-11.283872424316405,3.366247534179687,1.3359645263671873,-11.419847328244275,18.80916030534351,-7.755725190839694,-8.219294299316406,2.1883003173828124,-0.35194764404296874,-23.633587786259543,-20.35114503816794,-8.900763358778626,0.0
14.61000108718872,-11.010933435058593,2.6336218261718747,0.948103857421875,-26.748091603053435,10.030534351145038,-4.763358778625954,-10.845733520507812,-0.3902548706054687,1.714248388671875,-16.137404580152673,-12.961832061068701,-4.244274809160306,0.0
14.62000060081482,-9.366116894531249,-0.6775590698242188,0.0047884033203125,-18.671755725190838,12.045801526717558,-2.8091603053435112,-11.29344923095703,-0.41419688720703124,1.3239935180664062,-3.404580152671756,-19.938931297709924,-7.3893129770992365,0.0
14.630000829696655,-8.748412866210938,-1.3766659545898436,-0.01915361328125,-9.404580152671755,14.717557251908397,-5.32824427480916,-11.058817468261719,-0.30885201416015623,2.3415292236328122,11.557251908396946,-17.419847328244273,-8.106870229007633,0.0
14.640000581741333,-9.356540087890625,-0.10295067138671875,0.06464344482421874,-9.83206106870229,15.206106870229007,-13.17557251908397,-9.5384994140625,1.838746875,0.9576806640625,13.267175572519085,-22.0,-10.763358778625955,0.0
14.650000810623169,-9.593566052246093,1.2401964599609374,0.3064578125,-9.786259541984732,16.625954198473284,-15.236641221374045,-8.420407238769531,2.511517541503906,1.7238251953125,-3.3587786259541983,-12.274809160305344,-9.923664122137405,0.0
14.660000324249268,-10.034099157714843,2.6408044311523438,1.0007762939453124,-17.81679389312977,16.061068702290076,-15.648854961832061,-8.037334973144532,3.201047619628906,0.26336218261718747,-11.603053435114504,-11.664122137404581,-8.977099236641221,0.0
14.670000791549683,-10.13226142578125,2.418143676757812,1.13006318359375,-22.946564885496183,14.488549618320612,-13.541984732824428,-9.124302526855468,1.9656395629882812,1.3239935180664062,-16.763358778625953,-4.549618320610687,-4.641221374045801,0.0
14.680000305175781,-9.744400756835937,0.8259995727539062,0.9074024291992187,-19.49618320610687,14.16793893129771,-10.50381679389313,-9.524134204101562,0.9337386474609375,1.47482822265625,-13.16030534351145,-4.580152671755725,-4.458015267175573,0.0
14.690000534057617,-7.754819177246094,-1.867477294921875,0.047884033203124995,1.083969465648855,21.72519083969466,-9.099236641221374,-9.358934289550781,0.11013327636718749,2.013523596191406,-8.67175572519084,-3.2213740458015265,-4.2748091603053435,0.0
14.700000286102295,-9.085995300292968,-1.0965443603515623,0.11252747802734374,6.488549618320611,23.419847328244273,-16.015267175572518,-9.677363110351562,-0.565031591796875,2.138022082519531,3.6030534351145036,-5.114503816793893,-4.137404580152672,0.0
14.71000051498413,-10.060435375976562,0.0047884033203125,0.842758984375,9.145038167938932,27.022900763358777,-21.770992366412212,-8.959102612304687,0.4429273071289062,1.637633935546875,8.748091603053435,-7.00763358778626,-5.404580152671755,0.0
14.720000743865967,-10.606313354492187,1.4820108276367188,1.1228805786132812,12.335877862595419,28.65648854961832,-22.35114503816794,-9.447519750976562,0.5698199951171875,2.4301146850585935,12.580152671755725,-1.7251908396946565,-4.137404580152672,0.0
14.730000257492065,-11.767501159667969,3.6487633300781246,1.6065093139648436,5.038167938931298,27.984732824427482,-22.198473282442748,-9.085995300292968,1.4173673828125,1.3024457031249999,12.82442748091603,-3.8931297709923665,-5.099236641221374,0.0
14.740000247955322,-10.070012182617187,3.21780703125,0.7733271362304687,-6.106870229007634,20.610687022900763,-17.984732824427482,-9.337386474609374,1.2497732666015624,1.7214309936523438,10.290076335877863,-1.5419847328244274,-5.206106870229007,0.0
14.750000476837158,-9.495403784179686,1.369483349609375,1.4173673828125,-4.33587786259542,19.81679389312977,-14.045801526717558,-9.473855969238281,1.2976572998046874,1.6615759521484375,9.297709923664122,-1.0534351145038168,-5.923664122137405,0.0
14.760000944137573,-9.437942944335937,1.180341418457031,0.9744400756835937,-2.366412213740458,19.14503816793893,-12.244274809160306,-9.294290844726563,1.6328455322265625,1.908178723144531,6.0458015267175576,1.3282442748091603,-6.519083969465649,0.0
14.770000696182251,-8.767566479492187,0.5099649536132812,-0.1197100830078125,-6.412213740458015,15.786259541984732,-14.67175572519084,-9.581595043945311,1.656787548828125,1.924938134765625,2.6259541984732824,1.4351145038167938,-6.854961832061068,0.0
14.780000925064087,-9.947907897949218,2.7844565307617186,0.1005564697265625,-9.114503816793894,12.213740458015268,-14.16793893129771,-9.682151513671874,1.3742717529296875,2.061407629394531,-2.900763358778626,2.3969465648854964,-7.221374045801527,0.0
