timestamp,Thigh_L_Acc_X,Thigh_L_Acc_Y,Thigh_L_Acc_Z,Thigh_L_Gyr_X,Thigh_L_Gyr_Y,Thigh_L_Gyr_Z,Thigh_R_Acc_X,Thigh_R_Acc_Y,Thigh_R_Acc_Z,Thigh_R_Gyr_X,Thigh_R_Gyr_Y,Thigh_R_Gyr_Z,gpio_output
10.000000715255737,-22.795194006347653,11.52329259033203,-0.6464344482421874,41.98473282442748,-14.50381679389313,54.47328244274809,-18.758570007324217,-1.4772224243164063,3.2609026611328122,-40.80916030534351,-35.23664122137404,21.786259541984734,0.0
10.010000705718994,-10.769119067382812,3.1675287963867187,-11.413159313964844,-12.076335877862595,-13.740458015267176,72.09160305343511,-12.794613671875,2.001552587890625,0.45968671875,-39.083969465648856,-48.79389312977099,3.648854961832061,1.0
10.020000696182251,-0.19632453613281248,-12.526463085937499,-10.876858142089842,-30.213740458015266,12.83969465648855,61.86259541984733,-15.753846923828124,-1.6472107421875,1.0079588989257813,-17.34351145038168,-51.38931297709924,0.9770992366412213,1.0
10.030000925064087,-4.314351391601562,-15.658078857421874,-4.352658618164062,-14.16793893129771,35.74045801526717,11.022900763358779,-15.5910412109375,0.2537853759765625,-1.7381904052734374,27.893129770992367,-70.45801526717557,7.0534351145038165,1.0
10.040000677108765,-5.628768103027343,-9.636661682128906,-7.343016491699219,32.83969465648855,46.44274809160305,-15.389312977099237,-15.4378123046875,1.5011644409179687,-2.7174188842773437,11.755725190839694,-69.69465648854961,8.061068702290076,1.0
10.050000429153442,-7.920019091796875,-1.6711527587890624,-6.4092778442382805,75.3587786259542,78.27480916030534,-27.69465648854962,-13.342885852050781,2.9448680419921875,-3.9647979492187497,10.106870229007633,-72.97709923664122,1.0381679389312977,1.0
10.060000658035278,-7.615955480957031,1.5729904907226562,-5.916072302246094,84.62595419847328,94.83969465648855,-30.610687022900763,-10.103531005859374,3.4811692138671875,-4.5585599609375,-12.610687022900763,-67.29770992366412,-10.625954198473282,1.0
10.07000184059143,-12.904746948242186,2.7461493041992187,-3.1651345947265623,70.79389312977099,116.2442748091603,-36.80916030534351,-8.698134631347656,0.08858546142578125,-3.4332851806640625,-20.106870229007633,-58.534351145038165,-16.931297709923665,1.0
10.080000877380371,-11.820173596191406,1.7860744384765623,-4.685452648925781,44.091603053435115,110.21374045801527,-43.908396946564885,-8.59997236328125,-1.867477294921875,-2.389413256835937,-3.6793893129770994,-57.908396946564885,-23.72519083969466,1.0
10.090000629425049,-12.15536182861328,0.17238251953125,-2.142810485839844,42.35114503816794,120.87022900763358,-43.9236641221374,-8.214505895996094,0.10295067138671875,-3.859453076171875,8.274809160305344,-56.961832061068705,-32.6412213740458,1.0
10.100000381469727,-9.313444458007812,-2.8131869506835936,-2.990357873535156,36.87022900763359,115.31297709923665,-44.56488549618321,-6.907271789550781,6.155492468261718,-6.083666418457031,-2.9618320610687023,-47.57251908396947,-40.70229007633588,1.0
10.110000610351562,-10.649408984374999,-0.7230489013671875,-0.1484405029296875,44.900763358778626,122.80916030534351,-44.458015267175576,-8.164227661132813,7.620743884277343,-5.801150622558594,-18.03053435114504,-28.076335877862597,-34.42748091603053,1.0
10.12000060081482,-6.974309436035155,-2.7653029174804686,-1.465251416015625,46.778625954198475,117.61832061068702,-45.16030534351145,-9.069235888671875,5.877765075683594,-5.523423229980469,-23.908396946564885,-17.374045801526716,-24.3206106870229,1.0
10.130000829696655,-8.66940421142578,-1.9752163696289062,-1.7262193969726563,67.31297709923665,123.72519083969466,-41.770992366412216,-10.340556970214843,3.2345664428710936,-3.5865140869140624,-11.358778625954198,-12.854961832061068,-13.694656488549619,1.0
10.140000581741333,-9.82580361328125,0.39983167724609375,0.45489831542968745,62.534351145038165,118.29007633587786,-46.80916030534351,-10.137049829101562,3.0693665283203124,-3.77326181640625,13.679389312977099,-16.16793893129771,-7.572519083969466,1.0
10.15000057220459,-11.034875451660156,2.612074011230469,2.114080065917969,54.229007633587784,111.16030534351145,-44.3206106870229,-9.038111267089842,4.472368701171875,-2.959233251953125,11.145038167938932,-12.427480916030534,-6.198473282442748,1.0
10.160000324249268,-12.176909643554687,4.8314989501953125,4.99909306640625,31.419847328244273,96.74809160305344,-44.68702290076336,-8.109161022949218,4.441244079589843,-2.868253588867187,8.82442748091603,-11.48091603053435,-6.473282442748092,1.0
10.170000314712524,-10.749965454101561,4.975151049804687,3.9169139160156248,2.687022900763359,77.49618320610686,-44.18320610687023,-7.41244833984375,4.486733911132812,-2.887407202148437,-3.49618320610687,-10.625954198473282,-7.3893129770992365,1.0
10.18000054359436,-10.122684619140625,5.255272644042968,3.909731311035156,-12.778625954198473,67.81679389312977,-41.12977099236641,-8.046911779785155,2.104503259277344,-1.9943699829101562,-11.145038167938932,-7.175572519083969,-7.603053435114504,1.0
10.190000534057617,-7.874529260253905,4.005499377441406,1.66636435546875,-23.96946564885496,57.3587786259542,-35.267175572519086,-10.225635290527343,-2.0566192260742184,0.0909796630859375,3.0229007633587788,-9.419847328244275,-6.67175572519084,1.0
10.200000286102295,-7.8721350585937495,4.9416322265625,1.8770541015625,-22.793893129770993,59.74045801526717,-29.603053435114504,-9.643844287109374,-1.4604630126953124,-1.47482822265625,23.740458015267176,-23.64885496183206,-12.595419847328245,1.0
10.210000276565552,-8.204929089355469,3.3255461059570313,1.5849614990234373,-29.52671755725191,61.31297709923664,-23.419847328244273,-11.722011328125,-4.292803576660156,-2.8898014038085935,56.47328244274809,-43.954198473282446,-18.091603053435115,0.0
10.220000505447388,-8.55448253173828,3.897760302734375,1.0031704956054688,-13.587786259541986,71.29770992366412,-20.03053435114504,-9.129090930175781,-0.3758896606445312,-1.8650830932617186,52.18320610687023,-46.30534351145038,-24.931297709923665,0.0
10.230000495910645,-8.8872765625,5.252878442382812,2.501940734863281,-31.64885496183206,65.09923664122137,-18.396946564885496,-7.819462622070312,1.905784521484375,-0.32561142578124996,56.396946564885496,-46.48854961832061,-26.47328244274809,0.0
10.240000486373901,-10.692504614257812,6.344634399414062,2.3582886352539063,-47.61832061068702,65.6030534351145,-15.587786259541986,-7.000645654296875,3.6272155151367187,-0.7015010864257812,50.16793893129771,-52.3206106870229,-24.076335877862597,0.0
10.250000476837158,-9.718064538574218,4.735730883789063,2.437297290039062,-65.69465648854961,59.343511450381676,-9.450381679389313,-7.036558679199218,3.749319799804687,0.12210428466796874,33.02290076335878,-53.541984732824424,-20.48854961832061,0.0
10.260000944137573,-10.151415039062499,1.2234370483398436,2.5067291381835934,-58.68702290076336,62.656488549618324,-3.801526717557252,-8.458714465332031,1.9393033447265624,0.8355763793945312,29.00763358778626,-53.49618320610687,-16.99236641221374,0.0
10.270000696182251,-10.105925207519531,-0.9959878906249999,2.863465185546875,-55.57251908396947,59.6793893129771,-6.870229007633588,-7.649474304199218,4.244919543457031,-1.0031704956054688,18.702290076335878,-58.412213740458014,-21.72519083969466,0.0
10.280000925064087,-15.808913562011718,4.548983154296875,6.155492468261718,-67.80152671755725,51.98473282442748,-14.259541984732824,-9.6917283203125,2.7581203125,0.04548983154296875,1.9389312977099236,-48.56488549618321,-22.106870229007633,0.0
10.290000438690186,-12.873622326660156,2.9951462768554684,3.447650390625,-106.83969465648855,21.068702290076335,-15.236641221374045,-11.022904443359375,1.7549498168945312,-0.06464344482421874,17.84732824427481,-59.29770992366412,-25.297709923664122,0.0
10.300000429153442,-11.93270107421875,-0.02154781494140625,0.3136404174804687,-75.38931297709924,28.045801526717558,-5.862595419847328,-10.168174450683592,3.308786694335937,-0.6512228515624999,2.900763358778626,-58.74809160305343,-30.244274809160306,0.0
10.310003519058228,-11.365275280761718,-0.6153098266601562,1.6208745239257811,-64.58015267175573,23.984732824427482,-3.8931297709923665,-12.050016955566406,1.4221557861328125,0.6751648681640625,19.755725190839694,-62.091603053435115,-26.12213740458015,0.0
10.320000410079956,-12.227187878417968,-0.1005564697265625,2.039859814453125,-40.900763358778626,31.893129770992367,-7.129770992366412,-10.09395419921875,3.287238879394531,0.5506663818359374,22.03053435114504,-65.80152671755725,-23.572519083969464,0.0
10.330000638961792,-10.702081420898438,0.26815058593749996,0.7493851196289062,-44.42748091603053,23.251908396946565,-9.19083969465649,-11.10191309814453,3.399766357421875,0.09576806640624999,39.70992366412214,-73.54198473282443,-17.19083969465649,0.0
10.340000629425049,-8.853757739257812,-0.4333505004882812,-2.2649147705078123,-28.65648854961832,20.931297709923665,-5.603053435114504,-9.988609326171874,3.8187516479492185,-1.0486603271484374,18.900763358778626,-67.49618320610686,-14.396946564885496,0.0
10.350000619888306,-8.769960681152343,0.201112939453125,0.08858546142578125,-19.129770992366414,32.732824427480914,-6.854961832061068,-9.035717065429687,4.228160131835938,-1.7693150268554687,10.473282442748092,-65.37404580152672,-14.213740458015268,0.0
10.360000610351562,-11.635820068359374,3.303998291015625,1.6352397338867186,-37.969465648854964,28.48854961832061,-13.526717557251908,-10.137049829101562,2.0446482177734375,-0.38307226562499996,-0.9312977099236641,-57.6793893129771,-12.290076335877863,0.0
10.37000036239624,-10.460267053222656,2.6719290527343746,0.00718260498046875,-47.43511450381679,25.19083969465649,-9.404580152671755,-8.058882788085937,3.6248213134765623,-1.4820108276367188,-23.52671755725191,-57.06870229007634,-17.435114503816795,0.0
10.380000352859497,-10.876858142089842,3.5314474487304683,1.2497732666015624,-52.916030534351144,31.129770992366414,-4.977099236641221,-10.63025537109375,0.354341845703125,1.446097802734375,-24.33587786259542,-49.11450381679389,-13.099236641221374,0.0
10.390000581741333,-9.004592443847656,2.020706201171875,-0.2346317626953125,-62.13740458015267,24.763358778625953,-5.0534351145038165,-10.608707556152343,1.0175357055664063,0.8451531860351562,-20.702290076335878,-58.030534351145036,-14.290076335877863,0.0
10.40000057220459,-9.476250170898437,1.1659762084960936,0.3327940307617187,-44.58015267175573,42.99236641221374,-4.137404580152672,-9.76116016845703,-0.7757213378906249,2.403778466796875,-25.633587786259543,-53.83206106870229,-15.099236641221374,0.0
10.410000801086426,-9.323021264648437,0.9935936889648437,1.484405029296875,-66.22900763358778,36.47328244274809,-14.15267175572519,-10.237606298828124,-0.8786720092773437,1.8291700683593748,-1.1908396946564885,-63.70992366412214,-18.85496183206107,0.0
10.420000314712524,-10.041281762695311,0.7062894897460937,1.1252747802734375,-49.52671755725191,43.41984732824427,-11.114503816793894,-8.252813122558594,-0.24181436767578124,1.4413093994140624,-4.534351145038168,-64.51908396946565,-21.938931297709924,0.0
10.43000054359436,-8.777143286132812,-1.1444283935546875,0.9026140258789062,-36.99236641221374,44.74809160305343,-11.251908396946565,-11.156979736328124,-2.7078420776367187,2.9640216552734375,12.931297709923664,-65.19083969465649,-20.091603053435115,0.0
10.440000534057617,-8.980650427246093,-1.8004396484374998,1.4987702392578124,-21.083969465648856,48.35114503816794,-15.129770992366412,-8.389282617187499,1.1276689819335937,1.2617442749023438,29.0381679389313,-76.76335877862596,-25.69465648854962,0.0
10.450000524520874,-9.143456140136719,-0.8690952026367187,1.3814543579101561,-4.091603053435114,48.656488549618324,-16.03053435114504,-9.564835632324218,-0.6177040283203125,2.6815058593749996,26.412213740458014,-71.81679389312977,-22.015267175572518,0.0
10.46000051498413,-10.098742602539062,1.2832920898437499,1.6519991455078125,2.3206106870229006,44.79389312977099,-16.625954198473284,-10.280701928710936,0.9576806640625,2.2385785522460937,35.3587786259542,-81.49618320610686,-25.541984732824428,0.0
10.470000267028809,-10.728417639160156,2.7269956909179687,0.469263525390625,3.66412213740458,39.19083969465649,-13.694656488549619,-7.345410693359375,1.7166425903320313,1.1635820068359375,16.259541984732824,-72.27480916030534,-26.27480916030534,0.0
10.480000495910645,-10.390835205078124,4.271255761718749,0.3280056274414062,-3.49618320610687,33.02290076335878,-10.15267175572519,-9.76116016845703,1.5873557006835937,0.8283937744140625,23.572519083969464,-72.4885496183206,-23.770992366412212,0.0
10.490000486373901,-11.9518546875,4.819527941894531,1.2210428466796874,-13.541984732824428,28.931297709923665,-7.145038167938932,-7.6614453125,3.4715924072265625,-0.277727392578125,16.442748091603054,-66.27480916030534,-26.229007633587788,0.0
10.500000715255737,-9.521740002441407,0.8499415893554687,0.47884033203125,-9.038167938931299,25.297709923664122,-1.465648854961832,-7.0461354858398435,3.35188232421875,-0.3902548706054687,2.4427480916030535,-52.56488549618321,-21.083969465648856,0.0
10.510000705718994,-9.730035546875,1.0199299072265624,1.1563994018554686,-12.106870229007633,20.80916030534351,-1.251908396946565,-9.627084875488281,0.8188169677734375,0.5961562133789062,9.282442748091603,-45.74045801526717,-14.564885496183207,0.0
10.52000117301941,-9.715670336914062,-0.0383072265625,0.8283937744140625,-6.748091603053435,19.480916030534353,-2.1374045801526718,-7.912836486816405,1.5490484741210937,0.44053310546874996,20.671755725190838,-44.88549618320611,-14.732824427480915,0.0
10.530000448226929,-8.626308581542968,-0.5099649536132812,0.22744915771484372,8.793893129770993,20.946564885496183,-0.4580152671755725,-8.0062103515625,2.6815058593749996,0.7254431030273437,17.6793893129771,-34.80916030534351,-11.725190839694656,0.0
10.540000677108765,-9.34696328125,0.737414111328125,1.1540052001953125,5.236641221374046,19.46564885496183,-5.862595419847328,-5.4707507934570305,4.091690637207031,-1.2737152832031249,2.5343511450381677,-29.206106870229007,-14.412213740458014,0.0
10.550000667572021,-9.871293444824218,1.697488977050781,1.8100164550781248,2.3206106870229006,18.33587786259542,-8.51908396946565,-9.425971936035156,1.687912170410156,1.0271125122070313,-4.015267175572519,-12.488549618320612,-6.99236641221374,0.0
10.5600004196167,-10.675745202636719,2.0470424194335934,2.674323254394531,1.3129770992366412,18.137404580152673,-10.625954198473282,-7.168239770507812,2.5641899780273434,-0.2825157958984375,0.3053435114503817,-15.633587786259541,-10.244274809160306,0.0
10.570000648498535,-9.406818322753905,0.8044517578125,2.288856787109375,13.297709923664122,15.358778625954198,-8.961832061068701,-9.720458740234374,0.6344634399414062,1.7453730102539062,4.519083969465649,-8.091603053435115,-7.221374045801527,0.0
10.580000400543213,-11.195286962890624,3.6296097167968746,4.127603662109375,5.221374045801527,9.664122137404581,-12.961832061068701,-8.17141026611328,0.7948749511718749,1.1276689819335937,3.66412213740458,-6.931297709923665,-8.091603053435115,0.0
10.59000039100647,-10.960655200195312,3.189076611328125,4.2688615600585935,4.076335877862595,1.1450381679389312,-11.572519083969466,-8.413224633789062,0.8643067993164062,1.2138602416992186,6.396946564885496,-4.67175572519084,-7.282442748091603,0.0
10.600000619888306,-11.705251916503906,3.8953661010742184,5.104437939453125,6.977099236641221,-4.213740458015267,-6.702290076335878,-6.586448767089843,1.8626888916015625,0.17956512451171874,4.183206106870229,-2.931297709923664,-8.320610687022901,0.0
10.610000610351562,-9.598354455566406,1.5777788940429687,4.7572786987304685,14.65648854961832,-12.900763358778626,-3.053435114503817,-5.528211633300781,1.8650830932617186,-0.11731588134765625,-5.6183206106870225,5.7251908396946565,-7.511450381679389,0.0
10.62000060081482,-9.694122521972655,1.6735469604492186,6.215347509765625,21.328244274809162,-20.641221374045802,-0.4732824427480916,-6.564900952148437,1.0414777221679687,-0.38786066894531246,-2.717557251908397,12.198473282442748,-5.419847328244275,0.0
10.630000829696655,-10.726023437499999,1.898601916503906,7.673416320800781,28.12213740458015,-30.625954198473284,-2.4122137404580153,-6.718129858398437,-0.25139117431640623,0.02633621826171875,0.6564885496183206,21.603053435114504,-1.633587786259542,0.0
10.640000343322754,-12.715605017089842,3.3446997192382812,9.739612353515625,22.549618320610687,-50.656488549618324,-0.3969465648854962,-5.57370146484375,-0.0143652099609375,-0.9696516723632812,8.13740458015267,23.740458015267176,-3.9083969465648853,0.0
10.650000810623169,-15.145719702148437,5.116408947753906,12.301408129882812,18.99236641221374,-70.80916030534351,5.435114503816794,-4.965574243164062,1.2641384765625,-1.6112977172851561,2.33587786259542,32.6412213740458,-5.419847328244275,0.0
10.660000562667847,-16.33084952392578,5.03740029296875,14.516044665527343,22.702290076335878,-100.56488549618321,17.83206106870229,-6.1267620483398435,1.4508862060546874,-0.42377369384765623,-3.7709923664122136,46.656488549618324,-0.8854961832061069,0.0
10.670000553131104,-18.56703387451172,4.848258361816406,16.84320867919922,23.068702290076335,-133.14503816793894,27.358778625954198,-8.116343627929687,0.8475473876953125,1.139639990234375,7.267175572519084,43.63358778625954,0.183206106870229,0.0
10.680000305175781,-20.360290917968747,3.749319799804687,20.64041251220703,35.51145038167939,-171.05343511450383,33.70992366412214,-8.300697155761718,1.4532804077148436,1.1372457885742187,-0.8396946564885496,43.954198473282446,-4.2748091603053435,0.0
10.690000534057617,-21.258116540527343,4.405331054687499,20.283676464843747,49.05343511450382,-214.3969465648855,39.32824427480916,-11.827356201171874,-3.095702746582031,0.3184288208007812,-6.748091603053435,53.847328244274806,-5.129770992366412,0.0
10.700000524520874,-21.53584393310547,5.267243652343749,12.406753002929687,35.099236641221374,-254.41221374045801,38.50381679389313,-13.618219042968748,-3.42849677734375,-2.4779987182617185,16.625954198473284,51.12977099236641,-12.381679389312977,0.0
10.71000051498413,-21.21980931396484,-1.8770541015625,10.512939489746094,21.572519083969464,-290.0,35.12977099236641,-14.293383911132812,-0.86191259765625,-1.0582371337890624,24.671755725190838,60.29007633587786,-18.366412213740457,0.0
10.720000505447388,-18.825607653808593,-5.370194323730469,3.308786694335937,34.36641221374046,-299.41984732824426,44.70229007633588,-15.528791967773437,0.469263525390625,2.0374656127929685,42.29007633587786,52.56488549618321,-17.603053435114504,0.0
10.730000257492065,-16.958130358886716,-8.777143286132812,-2.5234885498046875,42.030534351145036,-295.3435114503817,49.282442748091604,-13.273454003906249,2.4157494750976563,4.3454760131835934,36.51908396946565,46.19847328244275,-14.106870229007633,0.0
10.740000486373901,-12.66053837890625,-12.682086193847656,-5.729324572753906,89.6793893129771,-281.22137404580155,57.98473282442748,-10.450690246582031,-0.5291185668945312,2.806004345703125,39.9236641221374,32.6412213740458,-5.938931297709924,0.0
10.750000476837158,-9.682151513671874,-8.681375219726561,-12.093112585449218,120.09160305343511,-254.3969465648855,53.93893129770992,-10.429142431640624,0.277727392578125,2.9185318237304685,43.38931297709924,25.31297709923664,0.366412213740458,0.0
10.760000944137573,-9.734823950195311,-4.242525341796875,-15.921441040039062,108.93129770992367,-230.0763358778626,40.01526717557252,-8.226476904296874,0.603338818359375,0.09816226806640624,32.87022900763359,21.740458015267176,4.763358778625954,0.0
10.770000696182251,-9.655815295410155,1.70467158203125,-12.478579052734375,88.62595419847328,-199.25190839694656,28.244274809160306,-9.504980590820312,1.4413093994140624,-3.3710359375,12.061068702290076,26.53435114503817,8.061068702290076,0.0
10.780000925064087,-9.686939916992188,0.4740519287109375,-2.978386865234375,81.98473282442748,-162.38167938931298,28.137404580152673,-8.884882360839843,1.608903515625,-4.438849877929687,-9.312977099236642,34.54961832061068,8.687022900763358,0.0
10.790000438690186,-7.869740856933594,-0.4908113403320312,0.9265560424804687,83.14503816793894,-131.64885496183206,24.427480916030536,-9.7683427734375,-1.2856862915039062,-3.210624426269531,-27.83206106870229,49.55725190839695,6.854961832061068,0.0
10.800000429153442,-6.974309436035155,1.4604630126953124,2.1068974609374997,66.85496183206106,-115.00763358778626,16.137404580152673,-7.805097412109374,-3.4907460205078125,-2.9831752685546875,-17.938931297709924,48.80916030534351,2.3053435114503817,0.0
10.810000658035278,-7.5345526245117185,5.327098693847656,0.1484405029296875,37.37404580152672,-106.68702290076335,12.854961832061068,-7.0269818725585935,-1.3192051147460937,-2.109291662597656,-21.46564885496183,66.22900763358778,-0.8244274809160306,0.0
10.820000648498535,-7.319074475097656,5.9783215454101555,-0.8164227661132812,-12.992366412213741,-102.0,12.641221374045802,-7.522581616210937,-0.5123591552734374,-1.7932570434570312,-20.763358778625953,77.06870229007633,3.83206106870229,0.0
10.830000400543213,-4.867411975097656,2.674323254394531,-2.4349030883789062,-46.595419847328245,-91.48091603053435,15.618320610687023,-7.6279264892578125,2.185906115722656,-1.6735469604492186,-18.946564885496183,83.32824427480917,7.801526717557252,0.0
10.840000629425049,-2.5139117431640625,0.11252747802734374,-3.8091748413085935,-61.41984732824427,-71.83206106870229,16.229007633587788,-7.807491613769531,5.415684155273437,-1.9512743530273435,-22.946564885496183,84.19847328244275,12.091603053435115,0.0
10.850000619888306,-0.7302315063476562,-2.1116858642578125,-4.491522314453125,-68.29007633587786,-52.62595419847328,12.870229007633588,-10.972626208496093,3.287238879394531,0.4429273071289062,-51.099236641221374,103.29770992366412,20.916030534351144,0.0
10.860000610351562,0.13407529296874998,-3.3686417358398435,-2.7198130859375,-65.06870229007633,-27.64885496183206,9.16030534351145,-7.7763669921875,3.9600095458984375,-1.1827356201171875,-65.43511450381679,103.8473282442748,25.786259541984734,0.0
10.870000839233398,-2.231395947265625,-3.0454245117187497,0.15083470458984374,-72.76335877862596,-10.748091603053435,-4.442748091603053,-9.588777648925781,2.9927520751953125,-2.0374656127929685,-88.61068702290076,115.23664122137404,29.404580152671755,0.0
10.880000591278076,-3.383006945800781,-4.065354418945312,2.300827795410156,-76.6412213740458,-7.3893129770992365,-9.740458015267176,-7.987056738281249,-0.7134720947265625,-1.1276689819335937,-79.96946564885496,108.03053435114504,34.30534351145038,0.0
10.890000820159912,-1.62805712890625,-7.4220251464843745,2.7437551025390623,-45.32824427480916,8.65648854961832,-9.129770992366412,-10.038887561035155,0.3399766357421875,-2.6958710693359373,-56.48854961832061,86.18320610687023,35.786259541984734,0.0
10.90000057220459,-1.8363526733398436,-7.117961535644531,4.132392065429687,-10.763358778625955,25.389312977099237,-18.82442748091603,-9.064447485351561,-2.1811177124023438,-3.318363500976562,-64.61068702290076,92.56488549618321,31.297709923664122,0.0
10.910000562667847,-3.375824340820312,-4.050989208984375,5.595249279785156,15.923664122137405,35.17557251908397,-31.786259541984734,-10.326191760253906,-3.842693664550781,-0.25139117431640623,-60.80916030534351,97.78625954198473,30.900763358778626,0.0
10.920000553131104,-0.9050082275390624,-4.299986181640625,3.6918589599609373,44.83969465648855,34.13740458015267,-34.3206106870229,-8.973467822265624,-2.1691467041015624,-0.967257470703125,-25.572519083969464,76.53435114503817,30.16793893129771,0.0
10.93000054359436,-0.4165910888671875,-2.913743420410156,4.630386010742187,75.7557251908397,51.12977099236641,-39.51145038167939,-10.04846436767578,-2.4444798950195312,-0.4908113403320312,-33.41984732824427,84.93129770992367,29.740458015267176,0.0
10.940000534057617,-0.9121908325195311,-1.2018892333984375,4.2688615600585935,79.45038167938931,55.16030534351145,-50.961832061068705,-11.355698474121093,-3.1507693847656246,3.5051112304687497,4.366412213740458,78.76335877862596,32.88549618320611,0.0
10.950000286102295,-3.0071172851562498,2.9735984619140625,5.999869360351562,75.48091603053435,62.13740458015267,-52.13740458015267,-8.913612780761719,0.8810662109374999,-0.3806780639648437,17.801526717557252,69.61832061068702,34.2442748091603,0.0
10.96000051498413,-6.167463476562499,8.078036401367187,8.379705810546875,53.43511450381679,61.083969465648856,-46.732824427480914,-9.311050256347656,-0.00239420166015625,0.5195417602539062,-1.4809160305343512,76.29007633587786,31.557251908396946,0.0
10.970000267028809,-6.418854650878906,9.629479077148437,9.91438907470703,22.33587786259542,52.274809160305345,-33.587786259541986,-10.599130749511717,-1.5514426757812498,1.608903515625,2.9770992366412212,73.1145038167939,33.847328244274806,0.0
10.980000257492065,-7.264007836914062,10.654197387695312,11.750741748046874,22.748091603053435,56.79389312977099,-11.969465648854962,-10.726023437499999,-1.9488801513671874,0.9528922607421875,-20.641221374045802,79.86259541984732,32.97709923664122,0.0
10.990000486373901,-9.349357482910156,13.606248034667967,13.065158459472656,3.282442748091603,48.656488549618324,-0.6259541984732825,-10.536881506347656,-2.7964275390625,1.9512743530273435,-5.038167938931298,69.89312977099236,33.404580152671755,0.0
11.000000715255737,-8.200140686035155,11.262324609375,11.451466540527344,-26.625954198473284,32.97709923664122,10.564885496183207,-11.544840405273437,-5.305550878906249,2.0973206542968748,-9.48091603053435,69.3587786259542,34.97709923664122,0.0
11.010000467300415,-8.662221606445312,7.71890615234375,10.963049401855468,-43.70992366412214,29.099236641221374,21.435114503816795,-10.386046801757812,-5.003881469726562,1.9919757812499999,14.702290076335878,51.19083969465649,34.62595419847328,0.0
11.02000093460083,-10.417171423339843,4.824316345214844,10.970232006835937,-58.79389312977099,17.267175572519083,28.106870229007633,-10.548852514648438,-4.695029455566406,1.3646949462890625,32.25954198473283,37.465648854961835,35.06870229007634,0.0
11.030000686645508,-8.475473876953124,0.12210428466796874,9.423577734375,-38.30534351145038,19.19083969465649,45.83206106870229,-8.010998754882811,0.7541735229492187,-2.6527754394531247,7.801526717557252,31.053435114503817,28.595419847328245,0.0
11.040000915527344,-9.931148486328125,0.6177040283203125,9.208099584960937,-15.022900763358779,12.488549618320612,58.534351145038165,-11.79862578125,0.8714894042968749,-0.34237083740234375,-17.6793893129771,36.47328244274809,26.244274809160306,0.0
11.050000667572021,-9.488221179199218,2.47081611328125,0.3950432739257812,-22.671755725190838,14.946564885496183,74.29007633587786,-12.497732666015624,-0.00718260498046875,0.4070142822265625,-31.938931297709924,30.900763358778626,30.732824427480917,0.0
11.060000658035278,-8.736441857910156,-1.0295067138671874,2.5474305664062498,-41.25190839694657,16.748091603053435,63.465648854961835,-15.394716674804686,0.2442085693359375,0.39264907226562495,-49.31297709923664,32.58015267175573,30.47328244274809,0.0
11.070000648498535,-16.68997977294922,-0.8379705810546875,23.62119357910156,-27.923664122137403,15.603053435114504,45.20610687022901,-18.492813623046874,-2.0446482177734375,2.094926452636719,-32.732824427480914,14.82442748091603,33.52671755725191,0.0
11.080000638961792,-15.655684655761718,-1.9704279663085937,20.49915461425781,26.68702290076336,-6.931297709923665,49.66412213740458,-20.365079321289063,-2.987963671875,3.6487633300781246,-28.641221374045802,4.67175572519084,35.6793893129771,0.0
11.090000629425049,-17.707515478515624,9.220070593261719,1.3311761230468748,28.50381679389313,-21.908396946564885,47.465648854961835,-17.367538842773435,0.5267243652343749,2.8012159423828122,-21.633587786259543,-12.076335877862595,25.938931297709924,0.0
11.100000858306885,-9.253589416503905,3.105279553222656,-12.196063256835936,5.450381679389313,-5.694656488549619,69.08396946564885,-14.61420693359375,2.3487118286132813,3.323151904296875,-33.16030534351145,-7.1603053435114505,17.31297709923664,0.0
11.110000610351562,-2.616862414550781,-10.9941740234375,-7.582436657714843,-17.72519083969466,19.755725190839694,57.80152671755725,-13.184868542480467,5.647921716308593,0.6153098266601562,-40.61068702290076,-8.900763358778626,11.419847328244275,0.0
11.12000036239624,0.4860229370117187,-17.743428503417967,-8.231265307617187,10.564885496183207,33.603053435114504,23.96946564885496,-15.39232247314453,5.425260961914062,-0.23702596435546874,-45.98473282442748,-13.17557251908397,17.64885496183206,0.0
11.130000591278076,-5.305550878906249,-11.40837091064453,-4.809951135253906,89.32824427480917,76.80916030534351,-9.725190839694656,-16.244658264160154,2.664746447753906,-1.66636435546875,-36.50381679389313,-18.137404580152673,32.274809160305345,0.0
11.140000581741333,-6.809109521484374,-4.484339709472656,-8.760383874511719,107.40458015267176,91.32824427480917,-32.19847328244275,-15.440206506347655,0.5602431884765625,-2.1068974609374997,-32.33587786259542,-23.541984732824428,35.786259541984734,0.0
11.150000810623169,-12.7563064453125,3.308786694335937,-4.503493322753906,124.67175572519083,119.90839694656489,-39.43511450381679,-14.14733760986328,-1.5035586425781249,-2.559401574707031,-20.99236641221374,-30.290076335877863,28.702290076335878,0.0
11.160000324249268,-13.512874169921874,6.835445739746094,-4.1754876953124995,112.1526717557252,127.23664122137404,-36.44274809160305,-11.547234606933593,-1.2785036865234374,-3.181894006347656,-8.290076335877863,-35.06870229007634,12.412213740458014,0.0
11.170000553131104,-16.393098767089842,8.602366564941406,-0.39743747558593745,86.1526717557252,130.01526717557252,-32.82442748091603,-9.70369932861328,-1.01514150390625,-3.9169139160156248,-0.5954198473282443,-36.3206106870229,-2.33587786259542,0.0
11.180000305175781,-16.474501623535154,6.931213806152344,1.2904746948242187,21.053435114503817,108.77862595419847,-39.267175572519086,-8.927977990722656,-0.6967126831054687,-4.290409374999999,4.870229007633588,-33.05343511450382,-15.374045801526718,0.0
11.190000534057617,-15.306131213378904,7.196970190429687,0.11252747802734374,-17.954198473282442,94.41221374045801,-37.48091603053435,-9.126696728515624,0.09337386474609374,-2.9089550170898435,10.366412213740459,-31.633587786259543,-23.053435114503817,0.0
11.200000286102295,-13.306972827148437,4.043806604003906,-0.055066638183593745,-49.786259541984734,81.43511450381679,-30.702290076335878,-9.440337145996093,3.2345664428710936,-4.651933825683593,24.015267175572518,-31.84732824427481,-25.00763358778626,0.0
11.21000051498413,-10.781090075683593,0.7709329345703124,-1.2018892333984375,-50.06106870229008,76.68702290076335,-24.732824427480917,-9.196128576660156,4.659116430664063,-5.88015927734375,28.778625954198475,-30.99236641221374,-22.50381679389313,0.0
11.220000505447388,-8.413224633789062,-1.6831237670898436,-1.6831237670898436,-39.81679389312977,76.07633587786259,-20.47328244274809,-10.405200415039062,5.758054992675781,-5.932831713867187,40.82442748091603,-27.72519083969466,-18.091603053435115,0.0
11.230000257492065,-8.21690009765625,-2.528276953125,-0.8882488159179687,-11.969465648854962,84.29007633587786,-18.99236641221374,-9.591171850585937,4.311957189941406,-3.6152445068359373,24.015267175572518,-18.12213740458015,-12.50381679389313,0.0
11.240000486373901,-7.991845141601562,-2.365471240234375,1.0438719238281249,4.885496183206107,89.26717557251908,-23.068702290076335,-8.59997236328125,9.351751684570312,-3.9312791259765625,8.778625954198473,-19.389312977099237,-7.465648854961832,0.0
11.250007629394531,-10.654197387695312,2.868253588867187,4.165910888671875,1.3282442748091603,91.23664122137404,-29.0381679389313,-8.8872765625,7.278373046874999,-1.197100830078125,-17.34351145038168,-6.641221374045801,3.2061068702290076,0.0
11.260000705718994,-10.759542260742187,3.0406361083984375,2.9735984619140625,-22.977099236641223,76.87022900763358,-31.49618320610687,-9.210493786621093,3.1794998046874996,-0.6607996582031249,3.633587786259542,-17.87786259541985,8.717557251908397,0.0
11.270000696182251,-9.421183532714844,-0.1292868896484375,2.4564509033203126,-18.793893129770993,76.04580152671755,-28.229007633587788,-9.78031378173828,2.1116858642578125,-0.22744915771484372,6.366412213740458,-25.51145038167939,7.7251908396946565,0.0
11.280000925064087,-11.726799731445311,2.020706201171875,4.189852905273438,-19.66412213740458,77.41984732824427,-32.717557251908396,-8.14028564453125,1.4437036010742186,-0.4285620971679687,4.106870229007634,-31.61832061068702,-0.6717557251908397,0.0
11.290000677108765,-10.824185705566405,2.7629087158203123,2.8754361938476563,-36.778625954198475,62.88549618320611,-35.43511450381679,-6.270414147949219,3.9743747558593747,-3.4907460205078125,-16.015267175572518,-39.221374045801525,-12.030534351145038,0.0
11.300000429153442,-12.600683337402343,7.656656909179687,4.9416322265625,-54.030534351145036,60.458015267175576,-34.595419847328245,-8.51617530517578,0.9145850341796874,-1.0031704956054688,-39.05343511450382,-30.83969465648855,-12.549618320610687,0.0
11.310000658035278,-9.476250170898437,4.96078583984375,0.7302315063476562,-79.49618320610686,46.68702290076336,-27.64885496183206,-8.070853796386718,-2.0087351928710935,-0.4429273071289062,-20.27480916030534,-42.778625954198475,-14.335877862595419,0.0
11.320000648498535,-8.185775476074218,2.023100402832031,-0.5889736083984375,-73.31297709923665,47.69465648854962,-16.396946564885496,-7.951143713378905,-0.737414111328125,-0.7230489013671875,-9.358778625954198,-56.44274809160305,-16.916030534351144,0.0
11.330000638961792,-8.322244970703125,0.9145850341796874,0.5051765502929687,-67.77099236641222,50.778625954198475,-13.251908396946565,-9.035717065429687,-1.7477672119140624,0.37828386230468747,1.0687022900763359,-60.030534351145036,-19.435114503816795,0.0
11.34000039100647,-8.566453540039062,0.3327940307617187,1.1276689819335937,-66.09160305343511,50.42748091603053,-14.351145038167939,-8.911218579101561,-1.1109095703125,1.20667763671875,15.801526717557252,-66.36641221374046,-20.244274809160306,0.0
11.350000619888306,-10.235212097167969,-0.8571241943359375,2.588131994628906,-46.36641221374046,58.229007633587784,-13.282442748091603,-8.82263311767578,-0.031124621582031248,0.7302315063476562,31.908396946564885,-76.61068702290076,-23.786259541984734,0.0
11.360000371932983,-9.150638745117186,-0.47165772705078124,3.4165257690429685,-34.67175572519084,56.25954198473283,-18.366412213740457,-9.789890588378906,0.11252747802734374,1.13006318359375,31.129770992366414,-74.8854961832061,-25.72519083969466,0.0
11.370000839233398,-10.151415039062499,0.5386953735351562,2.8131869506835936,-39.6793893129771,44.79389312977099,-21.435114503816795,-7.75721337890625,2.4947581298828125,-1.0749965454101562,29.251908396946565,-81.26717557251908,-32.16793893129771,0.0
11.380000591278076,-14.336479541015624,6.260837341308593,6.222530114746093,-45.7557251908397,43.083969465648856,-23.297709923664122,-10.615890161132812,-0.30406361083984373,-0.4572925170898437,26.748091603053435,-75.57251908396947,-31.69465648854962,0.0
11.390000820159912,-11.707646118164062,3.632003918457031,2.767697119140625,-63.55725190839695,22.137404580152673,-16.16793893129771,-8.71489404296875,1.2617442749023438,-1.5945383056640625,27.541984732824428,-76.80916030534351,-37.11450381679389,0.0
11.40000057220459,-11.516109985351562,1.7980454467773437,2.080561242675781,-47.63358778625954,24.091603053435115,-5.282442748091603,-10.819397302246093,-0.19153613281249998,-0.833182177734375,37.64885496183206,-73.58778625954199,-37.32824427480916,0.0
11.410000801086426,-8.427589843749999,-1.2114660400390624,0.3950432739257812,-26.47328244274809,24.35114503816794,-4.824427480916031,-9.478644372558593,1.4796166259765624,-0.5123591552734374,44.48854961832061,-72.74809160305344,-39.57251908396947,0.0
11.420000553131104,-9.442731347656249,0.12449848632812499,0.737414111328125,-19.61832061068702,22.732824427480917,-8.442748091603054,-10.20887587890625,1.3862427612304686,-0.5195417602539062,60.030534351145036,-74.01526717557252,-36.045801526717554,0.0
11.43000054359436,-9.035717065429687,0.5363011718749999,-0.181959326171875,-4.351145038167939,24.610687022900763,-10.65648854961832,-9.414000927734374,2.834734765625,-0.35194764404296874,53.80152671755725,-72.67175572519083,-34.274809160305345,0.0
11.440000534057617,-9.65342109375,1.944091748046875,0.26815058593749996,-0.9007633587786259,24.396946564885496,-8.442748091603054,-10.874463940429687,2.1164742675781247,0.7038952880859375,61.55725190839695,-74.35114503816794,-29.603053435114504,0.0
11.450000286102295,-9.74200655517578,1.9225439331054686,0.19153613281249998,8.458015267175572,26.931297709923665,-5.297709923664122,-9.165003955078124,2.7844565307617186,0.4333505004882812,49.12977099236641,-74.1526717557252,-30.458015267175572,0.0
11.460000276565552,-9.627084875488281,1.7190367919921874,0.47165772705078124,5.8320610687022905,25.450381679389313,-3.7099236641221376,-10.828974108886719,1.7549498168945312,0.9864110839843749,58.85496183206107,-78.21374045801527,-28.595419847328245,0.0
11.470000505447388,-9.588777648925781,1.8698714965820311,0.3016694091796875,10.122137404580153,27.908396946564885,-4.977099236641221,-9.514557397460937,2.0278888061523435,0.9457096557617187,42.44274809160305,-76.04580152671755,-31.954198473282442,0.0
11.480000495910645,-8.757989672851561,0.8044517578125,-0.023942016601562498,5.816793893129771,29.083969465648856,-7.572519083969466,-11.765106958007811,1.3335703247070312,1.3407529296874998,48.213740458015266,-82.65648854961832,-32.83969465648855,0.0
11.490000247955322,-10.244788903808594,2.1499930908203124,0.7757213378906249,6.3816793893129775,33.61832061068702,-13.374045801526718,-10.388441003417968,0.9241618408203125,1.024718310546875,33.954198473282446,-80.35114503816794,-35.603053435114504,0.0
11.500000715255737,-11.077971081542968,3.0502129150390624,1.1444283935546875,-10.290076335877863,30.580152671755727,-17.6793893129771,-10.931924780273437,1.9823989746093749,0.8547299926757812,42.29007633587786,-92.68702290076335,-38.58015267175573,0.0
11.510000467300415,-10.855310327148437,3.0837317382812497,0.612915625,-20.85496183206107,28.748091603053435,-16.30534351145038,-11.291055029296874,0.7948749511718749,1.7669208251953124,28.900763358778626,-87.61832061068702,-36.54961832061068,0.0
11.52000093460083,-10.450690246582031,2.269703173828125,0.9457096557617187,-25.14503816793893,30.717557251908396,-14.091603053435115,-8.738836059570312,4.244919543457031,0.6847416748046875,22.83969465648855,-96.51908396946565,-41.48091603053435,0.0
11.530000448226929,-10.295067138671874,1.2976572998046874,0.5027823486328125,-30.076335877862597,32.0,-13.297709923664122,-11.03248125,2.310404602050781,1.8315642700195311,22.198473282442748,-91.40458015267176,-34.85496183206107,0.0
11.540000677108765,-7.788338000488281,-2.032677209472656,-0.51714755859375,-12.412213740458014,41.343511450381676,-13.49618320610687,-7.491456994628906,3.347093920898437,0.33039982910156246,6.0,-87.25190839694656,-35.37404580152672,0.0
11.550000429153442,-6.763619689941406,-3.1555577880859373,-1.1540052001953125,-1.816793893129771,47.38931297709924,-20.198473282442748,-8.525752111816406,2.741360900878906,-0.49799394531249996,18.778625954198475,-87.74045801526718,-31.87786259541985,0.0
11.5600004196167,-8.252813122558594,-1.3335703247070312,-0.07422025146484375,3.8625954198473282,53.7557251908397,-31.954198473282442,-7.113173132324218,1.7621324218749999,-0.28969840087890625,3.3740458015267176,-72.41221374045801,-28.259541984732824,0.0
11.570000648498535,-9.050082275390624,0.277727392578125,0.5770026000976562,5.236641221374046,55.14503816793893,-36.56488549618321,-7.764395983886718,2.4396914916992185,-0.5889736083984375,3.099236641221374,-70.68702290076335,-30.290076335877863,0.0
11.580000400543213,-10.295067138671874,2.77727392578125,0.679953271484375,6.534351145038168,55.41984732824427,-34.412213740458014,-5.856217260742187,3.517082238769531,-1.218648645019531,-20.0,-56.656488549618324,-28.03053435114504,0.0
11.590000629425049,-9.969455712890625,3.394977954101562,1.0989385620117187,-0.732824427480916,54.80916030534351,-28.931297709923665,-8.774749084472656,2.5761609863281247,-0.08140285644531249,-21.374045801526716,-41.57251908396947,-20.198473282442748,0.0
11.600000619888306,-10.254365710449218,3.1771056030273437,1.2497732666015624,-5.786259541984733,53.7557251908397,-23.435114503816795,-8.17141026611328,0.8930372192382812,-0.1484405029296875,-11.511450381679388,-40.19847328244275,-17.282442748091604,0.0
11.610000371932983,-9.718064538574218,2.461239306640625,1.4796166259765624,-13.816793893129772,50.51908396946565,-22.15267175572519,-7.735665563964844,1.2808978881835937,-0.1292868896484375,-7.633587786259542,-34.38167938931298,-14.320610687022901,0.0
11.62000060081482,-10.793061083984375,1.8842367065429686,2.360682836914062,-18.061068702290076,48.3206106870229,-22.213740458015266,-8.444349255371094,1.6328455322265625,0.07900865478515624,-14.946564885496183,-21.923664122137403,-11.465648854961833,0.0
11.630000829696655,-11.183315954589844,1.6328455322265625,2.750937707519531,-22.244274809160306,44.68702290076336,-20.732824427480917,-8.075642199707032,0.9433154541015625,0.8068459594726562,-19.358778625954198,-8.900763358778626,-10.290076335877863,0.0
11.640000581741333,-10.263942517089843,1.024718310546875,3.4261025756835934,-16.15267175572519,40.732824427480914,-18.9618320610687,-6.940790612792968,0.28490999755859375,0.26336218261718747,-10.854961832061068,-6.1679389312977095,-10.458015267175572,0.0
11.650000810623169,-8.492233288574218,0.7948749511718749,2.8419173706054686,-1.0076335877862594,33.25190839694657,-17.251908396946565,-7.587225061035156,-0.373495458984375,0.737414111328125,-0.6412213740458015,-1.618320610687023,-8.931297709923664,0.0
11.660000324249268,-10.359710583496094,2.138022082519531,4.886565588378906,5.557251908396947,29.862595419847327,-19.87786259541985,-6.777984899902344,-0.3447650390625,0.622492431640625,5.603053435114504,1.251908396946565,-9.145038167938932,0.0
11.670000553131104,-9.9215716796875,2.109291662597656,5.494692810058593,2.213740458015267,11.633587786259541,-18.12213740458015,-7.314286071777343,-0.41898529052734373,0.2442085693359375,17.801526717557252,3.877862595419847,-8.641221374045802,0.0
11.68000054359436,-12.943054174804686,4.139574670410156,8.073247998046874,9.908396946564885,3.312977099236641,-13.526717557251908,-6.694187841796874,0.14125789794921875,0.13168109130859373,23.389312977099237,9.114503816793894,-7.923664122137405,0.0
11.690000534057617,-10.599130749511717,0.3327940307617187,8.190563879394531,28.198473282442748,-10.15267175572519,-6.702290076335878,-7.0102224609374995,-0.507570751953125,0.16280571289062498,31.938931297709924,15.908396946564885,-5.7251908396946565,0.0
11.700000524520874,-10.54645831298828,1.1276689819335937,9.133879333496093,48.82442748091603,-20.83969465648855,-3.435114503816794,-4.338293408203125,1.8100164550781248,-2.224213342285156,36.67175572519084,18.870229007633586,-7.526717557251908,0.0
11.710000276565552,-13.912705847167969,4.848258361816406,11.149797131347656,47.465648854961835,-35.89312977099237,-5.0534351145038165,-5.343858105468749,1.4341267944335936,-1.6136919189453125,22.091603053435115,37.86259541984733,-2.0763358778625953,0.0
11.720000267028809,-13.80257257080078,6.0525417968749995,11.748347546386718,46.56488549618321,-59.98473282442748,3.0229007633587788,-3.9839515624999997,2.5474305664062498,-3.852270471191406,19.923664122137403,45.3587786259542,-1.099236641221374,0.0
11.730000495910645,-14.458583825683593,5.461173986816406,12.66053837890625,51.74045801526717,-84.25954198473282,18.48854961832061,-3.0310593017578125,4.264073156738281,-4.393360046386719,3.7709923664122136,63.11450381679389,1.6793893129770991,0.0
11.740000486373901,-16.002843896484375,5.154716174316406,15.172055920410155,47.847328244274806,-111.6793893129771,29.374045801526716,-6.045359191894531,3.919308117675781,-1.7118541870117185,-3.49618320610687,75.3587786259542,9.17557251908397,0.0
11.750000238418579,-17.207127331542967,3.208230224609375,17.293318591308594,48.12213740458015,-147.0229007633588,36.51908396946565,-9.634267480468749,4.173093493652344,4.611232397460937,-22.33587786259542,82.50381679389314,9.099236641221374,0.0
11.760000944137573,-21.8734263671875,3.4907460205078125,20.118476550292968,54.16793893129771,-186.24427480916032,41.45038167938932,-14.219163659667968,-2.722207287597656,3.4955344238281247,-36.06106870229008,79.48091603053435,6.290076335877862,0.0
11.770000457763672,-23.994689038085937,4.192247106933594,19.129671264648437,60.76335877862596,-226.5801526717557,38.732824427480914,-16.424223388671873,-7.637503295898437,-0.8738836059570312,-21.923664122137403,80.29007633587786,0.7786259541984732,0.0
11.780000925064087,-24.746468359374997,4.122815258789062,13.036428039550781,60.82442748091603,-261.8167938931298,44.12213740458015,-15.713145495605469,-3.3494881225585935,-3.1699229980468746,14.992366412213741,77.16030534351145,-6.396946564885496,0.0
11.790000677108765,-22.898144677734372,-1.1923124267578125,8.473079675292968,68.9618320610687,-287.32824427480915,56.99236641221374,-15.914258435058592,-0.06943184814453125,1.1923124267578125,33.19083969465649,72.85496183206106,-10.732824427480915,0.0
11.800000667572021,-18.38746875,-3.507505432128906,1.1372457885742187,51.908396946564885,-288.90076335877865,64.18320610687023,-14.891934326171874,-1.7549498168945312,2.8203695556640622,39.23664122137404,65.69465648854961,-10.763358778625955,0.0
11.8100004196167,-17.197550524902343,-9.229647399902344,-1.0079588989257813,42.36641221374046,-285.8320610687023,67.41984732824427,-11.106701501464842,-1.68551796875,1.707065783691406,61.23664122137404,53.51145038167939,-3.618320610687023,0.0
11.820000886917114,-13.13219610595703,-9.327809667968749,-6.423643054199219,66.54961832061069,-274.8854961832061,66.4885496183206,-9.052476477050782,-0.5530605834960938,1.24498486328125,64.58015267175573,44.13740458015267,0.5190839694656488,0.0
11.830000638961792,-11.482591162109374,-5.6311623046875,-11.094730493164063,64.94656488549619,-256.8396946564886,56.045801526717554,-8.949525805664061,0.4165910888671875,-0.20829554443359374,55.74045801526717,45.37404580152672,3.4656488549618323,0.0
11.840000629425049,-11.142614526367186,-0.5291185668945312,-13.646949462890625,44.62595419847328,-230.4885496183206,42.030534351145036,-10.714052429199219,1.7597382202148437,-1.199495031738281,51.083969465648856,41.14503816793893,6.549618320610687,0.0
11.850000381469727,-7.922413293457031,-1.4532804077148436,-9.967061511230469,35.19083969465649,-197.6946564885496,32.900763358778626,-12.94065997314453,2.6910826660156246,-0.4525041137695312,33.43511450381679,42.76335877862596,9.511450381679388,0.0
11.860000610351562,-5.3199160888671875,-4.338293408203125,-4.383783239746093,41.93893129770992,-156.01526717557252,19.69465648854962,-9.868899243164062,1.6232687255859375,-1.3958195678710936,6.137404580152672,40.412213740458014,8.259541984732824,0.0
11.870000839233398,-3.967192150878906,-3.4644098022460934,-1.0486603271484374,53.81679389312977,-125.96946564885496,10.381679389312977,-8.935160595703124,-0.5674257934570313,-0.6105214233398437,-11.587786259541986,45.786259541984734,9.618320610687023,0.0
11.880000352859497,-5.269637854003906,0.076614453125,0.622492431640625,53.80152671755725,-103.70992366412214,2.763358778625954,-9.323021264648437,-2.4444798950195312,0.7972691528320313,-5.404580152671755,42.82442748091603,10.381679389312977,0.0
11.890000820159912,-5.504269616699219,1.4939818359375,-0.4955997436523437,40.916030534351144,-91.48091603053435,0.3969465648854962,-8.463502868652343,-0.19153613281249998,2.059013427734375,-9.648854961832061,44.83969465648855,8.335877862595419,0.0
11.90000033378601,-5.762843395996094,3.9887399658203124,-1.1180921752929687,12.534351145038167,-82.1526717557252,-0.44274809160305345,-5.305550878906249,2.7533319091796873,-0.16998831787109375,-22.931297709923665,42.12213740458015,4.473282442748092,0.0
11.910001039505005,-4.283226770019531,5.427655163574219,-2.8227637573242186,-20.68702290076336,-76.93129770992367,3.053435114503817,-0.2753331909179687,4.070142822265625,-3.9983167724609374,-57.51145038167939,46.01526717557252,4.3816793893129775,0.0
11.920000553131104,-3.5625720703124997,4.867411975097656,-3.6272155151367187,-52.152671755725194,-63.11450381679389,11.404580152671755,-3.5673604736328124,6.272808349609375,-4.979939453125,-77.1145038167939,64.74809160305344,11.083969465648854,0.0
11.930000305175781,-2.1404162841796874,3.201047619628906,-2.528276953125,-69.0381679389313,-47.55725190839695,14.854961832061068,-7.819462622070312,1.4317325927734375,-2.559401574707031,-81.70992366412214,80.6412213740458,26.106870229007633,0.0
11.940000534057617,1.0606313354492187,-0.37828386230468747,-4.149151477050781,-73.52671755725191,-33.908396946564885,17.69465648854962,-7.912836486816405,0.06703764648437499,-1.465251416015625,-84.19847328244275,91.23664122137404,29.6793893129771,0.0
11.950000286102295,-1.3168109130859373,-0.8571241943359375,-1.3551181396484375,-74.29007633587786,-9.419847328244275,9.86259541984733,-7.376535314941406,-0.5291185668945312,-3.5338416503906247,-96.51908396946565,99.90839694656489,27.709923664122137,0.0
11.96000051498413,-3.2225954345703123,-0.7900865478515624,-0.055066638183593745,-84.36641221374046,-4.106870229007634,4.656488549618321,-5.032611889648437,0.59376201171875,-5.1331683593749995,-87.37404580152672,99.8473282442748,27.61832061068702,0.0
11.970000505447388,-1.7094599853515624,-4.067748620605468,0.5961562133789062,-69.02290076335878,6.106870229007634,7.00763358778626,-6.861781958007812,-0.0143652099609375,-4.977545251464844,-103.95419847328245,102.4885496183206,25.022900763358777,0.0
11.980000495910645,-1.8746598999023436,-6.749254479980468,2.080561242675781,-45.83206106870229,25.404580152671755,0.3816793893129771,-7.168239770507812,1.8076222534179687,-5.999869360351562,-93.92366412213741,95.81679389312977,23.61832061068702,0.0
11.990000247955322,-2.29843359375,-6.150704064941406,3.84987626953125,-18.549618320610687,39.770992366412216,-8.198473282442748,-11.336544860839844,-1.3120225097656248,-2.6479870361328124,-109.81679389312977,111.12977099236642,25.114503816793892,0.0
12.000000238418579,-1.608903515625,-7.213729602050781,4.2521021484374995,7.572519083969466,48.38167938931298,-16.137404580152673,-12.741941235351561,-2.252943762207031,0.28490999755859375,-83.12977099236642,102.25954198473282,29.374045801526716,0.0
12.010000705718994,-2.916137622070312,-4.546588952636719,6.066907006835937,38.80916030534351,63.38931297709924,-27.450381679389313,-13.096283081054686,-4.814739538574218,2.480392919921875,-68.50381679389314,102.74809160305344,35.69465648854962,0.0
12.02000093460083,-2.7269956909179687,-3.248931652832031,5.95677373046875,53.23664122137404,62.595419847328245,-34.48854961832061,-9.315838659667968,-2.920926025390625,1.6256629272460936,-18.80916030534351,80.79389312977099,39.541984732824424,0.0
12.030000448226929,-4.187458703613281,-0.6272808349609375,7.273584643554687,62.51908396946565,69.87786259541984,-37.00763358778626,-10.321403356933594,-4.620809204101562,2.0781670410156248,13.297709923664122,67.05343511450381,44.06106870229008,0.0
12.040000677108765,-4.525041137695312,0.04548983154296875,8.959102612304687,61.3587786259542,69.63358778625954,-37.61832061068702,-10.797849487304687,-3.5697546752929687,2.5761609863281247,48.44274809160305,56.732824427480914,46.35114503816794,0.0
12.050000667572021,-6.718129858398437,2.3343466186523436,12.741941235351561,58.85496183206107,70.99236641221374,-34.67175572519084,-8.303091357421874,-0.5363011718749999,-1.1707646118164061,33.89312977099237,54.213740458015266,37.86259541984733,0.0
12.0600004196167,-8.621520178222656,7.261613635253906,14.183250634765624,46.13740458015267,60.25954198473283,-30.27480916030534,-11.597512841796874,-5.331887097167969,3.1100679565429687,23.14503816793893,62.79389312977099,35.31297709923664,0.0
12.070000410079956,-10.637437976074217,11.604695446777344,15.682020874023436,27.358778625954198,48.70229007633588,-18.427480916030536,-10.441113439941406,-5.439626171875,3.0119056884765625,60.10687022900763,42.458015267175576,37.32824427480916,0.0
12.080000638961792,-10.079588989257813,12.998120812988281,13.639766857910155,-9.022900763358779,26.671755725190838,-5.236641221374046,-9.629479077148437,-1.9680337646484374,-0.34237083740234375,59.770992366412216,32.42748091603053,31.236641221374047,0.0
12.09000039100647,-10.807426293945312,12.677297790527343,13.005303417968749,-49.20610687022901,13.618320610687023,9.893129770992367,-9.330203869628905,-1.0223241088867188,-1.1635820068359375,27.984732824427482,38.0,24.625954198473284,0.0
12.100000619888306,-9.042899670410156,7.941566906738281,10.800243688964843,-63.541984732824424,7.282442748091603,30.83969465648855,-12.531251489257812,-2.9568390502929685,1.6400281372070311,25.862595419847327,38.70229007633588,27.66412213740458,0.0
12.110000371932983,-6.988674645996094,4.340687609863281,8.394071020507813,-53.06870229007634,7.679389312977099,49.48091603053435,-9.526528405761718,0.3854664672851562,-0.32082302246093747,1.2213740458015268,37.29770992366412,22.732824427480917,0.0
12.12000060081482,-5.832275244140624,2.7150246826171873,7.335833886718749,-44.38167938931298,5.251908396946565,59.70992366412214,-12.897564343261719,-0.4213794921875,1.7190367919921874,-11.541984732824428,37.908396946564885,25.450381679389313,0.0
12.130000591278076,-6.373364819335937,1.1540052001953125,8.932766394042968,-5.038167938931298,13.282442748091603,71.90839694656489,-13.022062829589842,0.8595183959960937,-0.22266075439453123,-26.30534351145038,34.87022900763359,29.6793893129771,0.0
12.140000581741333,-6.83783994140625,4.0988732421875,0.1771709228515625,4.625954198473282,19.96946564885496,80.3206106870229,-15.64131944580078,-0.8379705810546875,0.3232172241210937,-32.717557251908396,33.05343511450382,35.81679389312977,0.0
12.15000057220459,-12.406753002929687,2.032677209472656,5.904101293945312,-45.41984732824427,15.98473282442748,66.74809160305344,-16.13931339111328,-0.18435352783203124,-0.8882488159179687,-30.82442748091603,21.053435114503817,40.25954198473283,0.0
12.160000562667847,-17.76737052001953,-4.120421057128906,21.23417452392578,-40.16793893129771,4.366412213740458,52.48854961832061,-17.69554447021484,-1.5394716674804687,1.39821376953125,-34.19847328244275,12.717557251908397,39.786259541984734,0.0
12.170000314712524,-16.36915675048828,-3.852270471191406,18.267758666992187,38.38167938931298,-10.625954198473282,53.64885496183206,-15.942988854980468,0.35673604736328124,2.262520568847656,-43.14503816793893,-0.07633587786259542,26.977099236641223,0.0
12.180000305175781,-11.906364855957031,3.81156904296875,-2.166752502441406,67.46564885496183,-19.52671755725191,54.54961832061068,-13.350068457031249,3.603273498535156,1.6615759521484375,-56.30534351145038,-4.9465648854961835,10.15267175572519,0.0
12.190000295639038,-9.619902270507811,2.6910826660156246,-7.79552060546875,43.786259541984734,4.977099236641221,62.213740458015266,-11.298237634277344,4.132392065429687,0.5698199951171875,-62.94656488549618,-3.969465648854962,4.99236641221374,0.0
12.200000524520874,-4.575319372558593,-10.070012182617187,-7.46272657470703,2.030534351145038,3.984732824427481,44.274809160305345,-15.030798022460937,4.1946413085937495,-0.4261678955078125,-62.13740458015267,-9.038167938931299,9.007633587786259,0.0
12.210000276565552,-5.236119030761718,-9.33978067626953,-5.159504577636718,38.717557251908396,30.82442748091603,13.34351145038168,-17.386692456054686,1.9967641845703124,-0.031124621582031248,-44.396946564885496,-17.69465648854962,21.022900763358777,0.0
12.220000267028809,-2.9472622436523435,-4.029441394042968,-10.749965454101561,76.79389312977099,54.595419847328245,3.8625954198473282,-16.33084952392578,3.0645781249999997,-2.3032219970703123,-43.847328244274806,-29.66412213740458,25.282442748091604,0.0
12.230000495910645,-6.655880615234374,-1.1228805786132812,-7.6614453125,86.25954198473282,89.66412213740458,-6.183206106870229,-16.053122131347656,0.3280056274414062,-1.9728221679687499,-52.6412213740458,-33.32824427480916,22.244274809160306,0.0
12.240000247955322,-9.05965908203125,0.5817910034179687,-8.652644799804687,86.10687022900764,110.0,-22.198473282442748,-13.426682910156249,-0.5746083984375,-1.5011644409179687,-38.213740458015266,-42.152671755725194,13.816793893129772,0.0
12.250000476837158,-13.5990654296875,4.295197778320312,-3.737348791503906,81.0381679389313,128.01526717557252,-29.923664122137403,-11.69567510986328,-1.3551181396484375,-1.714248388671875,-28.80916030534351,-47.221374045801525,2.549618320610687,0.0
12.260000944137573,-17.417817077636716,5.889736083984375,-1.2425906616210938,45.98473282442748,122.67175572519083,-32.656488549618324,-10.716446630859375,-3.5122938354492184,-0.3854664672851562,-13.603053435114504,-49.343511450381676,-9.32824427480916,0.0
12.270000696182251,-17.26219396972656,4.2880151733398435,0.18435352783203124,5.8320610687022905,111.86259541984732,-33.29770992366412,-10.046070166015625,-0.4477157104492187,-1.7717092285156248,10.13740458015267,-60.74809160305343,-22.35114503816794,0.0
12.280000925064087,-16.953341955566405,2.5378537597656248,1.7788918334960937,-28.80916030534351,98.01526717557252,-35.05343511450382,-9.433154541015625,0.8954314208984374,-1.9776105712890624,-1.6488549618320612,-62.091603053435115,-35.6793893129771,0.0
12.290000438690186,-14.089876770019531,0.0047884033203125,0.5219359619140624,-50.51908396946565,86.22900763358778,-36.18320610687023,-9.713276135253906,3.840299462890625,-3.7205893798828122,5.022900763358779,-67.80152671755725,-42.732824427480914,0.0
12.300000667572021,-12.84489190673828,0.35673604736328124,0.6536170532226562,-61.969465648854964,74.62595419847328,-37.55725190839695,-13.804966772460936,2.5330653564453125,-1.9512743530273435,16.641221374045802,-61.221374045801525,-39.51145038167939,0.0
12.3100004196167,-9.792284790039062,-1.7573440185546874,-1.35990654296875,-51.770992366412216,73.58778625954199,-35.45038167938932,-9.94072529296875,5.655104321289063,-3.806780639648437,5.129770992366412,-65.78625954198473,-39.954198473282446,0.0
12.320000648498535,-9.70369932861328,-0.6488286499023437,0.15322890625,-40.97709923664122,78.1526717557252,-35.83206106870229,-9.124302526855468,6.969521032714844,-4.278438366699218,10.870229007633588,-65.29770992366412,-36.152671755725194,0.0
12.330000638961792,-9.955090502929687,0.19871873779296872,0.5817910034179687,-37.86259541984733,75.37404580152672,-38.38167938931298,-8.25520732421875,7.4794859863281244,-5.240907434082031,1.3282442748091603,-59.908396946564885,-28.595419847328245,0.0
12.340000629425049,-10.089165795898436,1.024718310546875,0.2561795776367187,-29.984732824427482,77.95419847328245,-35.89312977099237,-10.046070166015625,4.714183068847656,-3.4955344238281247,11.358778625954198,-52.458015267175576,-17.603053435114504,0.0
12.350000619888306,-10.014945544433592,1.1252747802734375,1.6065093139648436,-28.076335877862597,77.52671755725191,-35.43511450381679,-8.188169677734374,6.301538769531249,-4.544194750976562,7.923664122137405,-51.00763358778626,-16.213740458015266,0.0
12.360000610351562,-9.184157568359375,1.3287819213867187,2.0254946044921875,-24.12213740458015,75.89312977099236,-32.62595419847328,-7.199364392089843,4.438849877929687,-4.321533996582031,-12.885496183206106,-42.458015267175576,-16.412213740458014,0.0
12.37000036239624,-10.153809240722655,1.8435352783203125,2.214636535644531,-24.458015267175572,75.20610687022901,-32.50381679389313,-7.486668591308593,2.212242333984375,-4.316745593261719,-2.9770992366412212,-38.47328244274809,-14.67175572519084,0.0
12.380000591278076,-9.986215124511718,1.618480322265625,2.0733786376953125,-19.72519083969466,74.58015267175573,-31.358778625954198,-7.675810522460937,3.768473413085937,-4.371812231445312,-3.5877862595419847,-32.412213740458014,-16.091603053435115,0.0
12.390000820159912,-10.249577307128906,1.9823989746093749,2.817975354003906,-20.80916030534351,73.58778625954199,-31.46564885496183,-6.157886669921875,3.0693665283203124,-3.6439749267578123,-11.557251908396946,-25.267175572519083,-16.15267175572519,0.0
12.40000057220459,-11.724405529785155,4.826710546875,4.474762902832031,-36.29007633587786,64.1526717557252,-32.534351145038165,-8.415618835449218,-0.1484405029296875,-2.35589443359375,2.946564885496183,-25.46564885496183,-11.358778625954198,0.0
12.410000801086426,-12.102689392089843,6.4667386840820305,4.458003491210937,-61.45038167938932,53.25190839694657,-31.236641221374047,-7.448361364746093,0.5674257934570313,-2.5665841796874997,16.83969465648855,-31.557251908396946,-14.16793893129771,0.0
12.420000791549683,-10.335768566894531,4.113238452148437,2.1787235107421874,-64.85496183206106,46.38167938931298,-19.358778625954198,-6.021417175292968,3.0693665283203124,-3.086125939941406,4.198473282442748,-33.038167938931295,-19.740458015267176,0.0
12.43000054359436,-8.726865051269531,1.9823989746093749,2.47081611328125,-55.69465648854962,47.969465648854964,-10.65648854961832,-7.491456994628906,0.239420166015625,-1.5969325073242187,1.3282442748091603,-28.9618320610687,-18.229007633587788,0.0
12.440000534057617,-8.712499841308594,0.5027823486328125,2.4947581298828125,-47.25190839694657,48.35114503816794,-11.816793893129772,-9.404424121093749,-1.8746598999023436,-0.5530605834960938,27.66412213740458,-35.267175572519086,-16.702290076335878,0.0
12.450000524520874,-9.390058911132812,1.5945383056640625,2.2026655273437497,-46.48854961832061,42.29007633587786,-14.50381679389313,-8.013392956542969,1.8818425048828125,-0.6560112548828124,41.64885496183206,-44.3206106870229,-21.709923664122137,0.0
12.460000276565552,-10.096348400878906,1.8531120849609375,1.8267758666992187,-44.88549618320611,36.916030534351144,-9.206106870229007,-9.131485131835937,1.0654197387695312,0.6847416748046875,44.70229007633588,-44.25954198473283,-19.267175572519083,0.0
12.470000505447388,-9.471461767578125,0.41419688720703124,1.5083470458984374,-34.778625954198475,36.93129770992366,-6.824427480916031,-8.56166513671875,2.480392919921875,0.076614453125,45.587786259541986,-52.36641221374046,-22.30534351145038,0.0
12.480000495910645,-11.468225952148437,2.3415292236328122,2.6815058593749996,-30.366412213740457,36.38167938931298,-7.282442748091603,-10.244788903808594,1.608903515625,1.3048399047851562,41.20610687022901,-48.152671755725194,-21.450381679389313,0.0
12.490000486373901,-9.433154541015625,-0.5578489868164063,0.9600748657226562,-25.81679389312977,29.129770992366414,-6.396946564885496,-9.718064538574218,2.3127988037109373,0.5865794067382812,45.12977099236641,-58.916030534351144,-24.045801526717558,0.0
12.500000715255737,-10.824185705566405,1.5801730957031248,1.1731588134765625,-10.870229007633588,30.3206106870229,-5.572519083969466,-10.527304699707031,1.1755530151367186,2.2960393920898436,34.0763358778626,-54.458015267175576,-20.732824427480917,0.0
12.510000705718994,-10.01015714111328,0.8738836059570312,1.1659762084960936,-8.946564885496183,29.603053435114504,-8.244274809160306,-10.014945544433592,1.9225439331054686,1.01514150390625,42.70229007633588,-67.40458015267176,-22.045801526717558,0.0
12.52000093460083,-10.551246716308594,2.0183119995117185,0.8403647827148437,-7.083969465648855,26.229007633587788,-7.32824427480916,-10.012551342773437,1.848323681640625,2.061407629394531,28.610687022900763,-65.5114503816794,-22.076335877862597,0.0
12.530000686645508,-8.987833032226561,1.0869675537109373,0.430956298828125,-1.0229007633587786,29.068702290076335,-6.152671755725191,-11.049240661621093,1.39821376953125,1.5298948608398437,33.81679389312977,-74.35114503816794,-23.297709923664122,0.0
12.540000677108765,-11.329362255859374,3.3255461059570313,0.8379705810546875,-2.7022900763358777,33.05343511450382,-8.0,-10.20887587890625,0.8786720092773437,2.5330653564453125,22.732824427480917,-71.61832061068702,-24.732824427480917,0.0
12.550000429153442,-10.465055456542968,4.103661645507812,1.1252747802734375,-24.33587786259542,26.16793893129771,-8.885496183206106,-11.688492504882811,0.2825157958984375,2.142810485839844,32.01526717557252,-84.09160305343511,-27.587786259541986,0.0
12.560000658035278,-10.50815108642578,3.385401147460937,0.8882488159179687,-32.25954198473283,24.30534351145038,-5.862595419847328,-10.486603271484375,0.20350714111328125,2.4899697265625,18.946564885496183,-81.2824427480916,-29.49618320610687,0.0
12.570000648498535,-9.873687646484374,1.6352397338867186,0.8499415893554687,-33.80152671755725,25.49618320610687,-2.1068702290076335,-11.891999645996092,0.38786066894531246,1.5658078857421873,26.106870229007633,-92.33587786259542,-33.282442748091604,0.0
12.580000638961792,-7.915230688476562,-1.8818425048828125,-0.7110778930664062,-19.114503816793892,27.740458015267176,-0.9618320610687023,-11.156979736328124,-0.7493851196289062,1.4532804077148436,19.572519083969464,-87.32824427480917,-32.76335877862596,0.0
12.59000039100647,-6.667851623535156,-3.2632968627929686,-0.19871873779296872,-8.045801526717558,34.67175572519084,-7.969465648854962,-10.067617980957031,0.6967126831054687,-0.076614453125,29.0381679389313,-98.27480916030534,-39.23664122137404,0.0
12.600000381469727,-8.578424548339843,-1.93451494140625,0.14125789794921875,5.603053435114504,34.778625954198475,-15.48091603053435,-11.757924353027343,-0.39743747558593745,0.842758984375,35.25190839694657,-91.23664122137404,-35.221374045801525,0.0
12.610007047653198,-9.253589416503905,-0.8906430175781249,1.1037269653320312,13.236641221374045,34.900763358778626,-20.763358778625953,-8.128314636230469,2.77727392578125,-0.0143652099609375,32.94656488549618,-95.90839694656489,-40.58015267175573,0.0
12.62000060081482,-10.740388647460938,0.6631938598632812,1.7429788085937499,17.328244274809162,36.35114503816794,-20.35114503816794,-10.658985791015624,2.070984436035156,0.9552864624023437,39.66412213740458,-93.57251908396947,-34.38167938931298,0.0
12.630000591278076,-9.866505041503906,1.6998831787109374,1.5466542724609373,16.763358778625953,32.50381679389313,-18.885496183206108,-6.5385647338867185,4.144363073730468,-0.031124621582031248,14.0,-83.61832061068702,-34.88549618320611,0.0
12.640000343322754,-11.990161914062499,4.369418029785156,2.674323254394531,2.854961832061069,27.923664122137403,-15.664122137404581,-7.532158422851562,3.517082238769531,-1.1013327636718748,16.793893129770993,-82.07633587786259,-30.47328244274809,0.0
12.650000810623169,-10.534487304687499,3.438073583984375,1.0486603271484374,-13.053435114503817,18.53435114503817,-9.694656488549619,-6.011840368652344,2.8945898071289062,-1.6352397338867186,-1.2213740458015268,-65.81679389312977,-26.076335877862597,0.0
12.660000562667847,-8.382100012207031,0.40222587890625,0.3064578125,-8.564885496183207,25.17557251908397,-4.061068702290076,-6.4475850708007805,2.8419173706054686,-2.2553379638671873,7.862595419847328,-62.50381679389313,-22.99236641221374,0.0
12.670000553131104,-8.590395556640624,1.189918225097656,0.4908113403320312,-8.854961832061068,27.19083969465649,-7.374045801526718,-5.6574985229492185,2.896984008789062,-1.8339584716796873,-5.938931297709924,-44.79389312977099,-19.114503816793892,0.0
12.68000054359436,-9.485826977539062,1.659181750488281,0.8259995727539062,-23.603053435114504,27.31297709923664,-11.450381679389313,-7.240065820312499,1.2689268798828124,-1.0893617553710937,-9.221374045801527,-36.152671755725194,-14.961832061068701,0.0
12.690000772476196,-9.497797985839844,0.8259995727539062,0.8834604125976562,-23.84732824427481,29.14503816793893,-11.32824427480916,-8.762778076171875,0.36391865234375,-0.5961562133789062,0.030534351145038167,-29.00763358778626,-9.419847328244275,0.0
12.700000524520874,-8.291120349121094,-1.9488801513671874,0.3280056274414062,-14.15267175572519,31.557251908396946,-10.80916030534351,-9.289502441406249,0.19871873779296872,0.031124621582031248,11.221374045801527,-25.862595419847327,-7.923664122137405,0.0
12.71000051498413,-6.732495068359374,-2.8658593872070313,0.28730419921875,5.66412213740458,36.961832061068705,-16.53435114503817,-9.102754711914063,-0.16519991455078123,0.9409212524414062,18.85496183206107,-21.17557251908397,-7.740458015267175,0.0
12.720000267028809,-9.241618408203124,-1.3766659545898436,2.499546533203125,10.50381679389313,43.43511450381679,-28.702290076335878,-6.423643054199219,2.2194249389648437,0.03591302490234375,8.977099236641221,-16.35114503816794,-9.648854961832061,0.0
12.730000495910645,-9.246406811523437,1.448492004394531,3.1842882080078123,10.717557251908397,41.954198473282446,-34.68702290076336,-8.724470849609375,0.9624690673828125,1.5897499023437498,-1.1603053435114503,-1.4809160305343512,-5.32824427480916,0.0
12.740000247955322,-10.460267053222656,4.244919543457031,4.7955859252929685,5.8320610687022905,37.969465648854964,-34.94656488549618,-6.361393811035156,1.3144167114257812,0.7134720947265625,0.12213740458015267,-3.3587786259541983,-7.358778625954199,0.0
12.750000476837158,-10.690110412597656,4.6447512207031245,5.652710119628906,-2.2442748091603053,30.671755725190838,-30.580152671755727,-9.5001921875,-0.7613561279296874,1.9919757812499999,10.80916030534351,-0.015267175572519083,-3.83206106870229,0.0
12.760000944137573,-12.627019555664061,5.307945080566406,7.400477331542969,-6.412213740458015,23.00763358778626,-24.076335877862597,-7.560888842773437,-0.411802685546875,1.7980454467773437,12.67175572519084,1.3435114503816794,-7.236641221374046,0.0
12.770000696182251,-10.419565624999999,4.546588952636719,6.734889270019531,-9.358778625954198,8.625954198473282,-14.870229007633588,-8.042123376464843,-0.5339069702148437,1.7669208251953124,20.580152671755727,4.183206106870229,-8.259541984732824,0.0
12.780000925064087,-12.167332836914062,5.8083332275390624,7.326257080078125,-14.748091603053435,-7.786259541984733,-6.3816793893129775,-6.299144567871093,1.0821791503906248,0.82360537109375,20.549618320610687,5.038167938931298,-9.816793893129772,0.0
12.790000438690186,-10.012551342773437,1.9895815795898437,5.468356591796875,3.2061068702290076,-17.61832061068702,5.419847328244275,-4.910507604980468,1.915361328125,0.5626373901367188,4.106870229007634,20.229007633587788,-8.381679389312977,0.0
12.800000667572021,-10.254365710449218,1.9871873779296874,6.6271501953125,19.984732824427482,-22.091603053435115,9.297709923664122,-5.006275671386718,1.0175357055664063,-0.8882488159179687,4.854961832061068,22.427480916030536,-8.442748091603054,0.0
12.8100004196167,-12.799402075195312,4.417302062988281,7.740453967285156,14.732824427480915,-36.458015267175576,6.137404580152672,-4.8650177734375,1.695094775390625,-1.1731588134765625,5.358778625954199,34.091603053435115,-5.145038167938932,0.0
12.820000648498535,-12.708422412109375,4.333505004882812,7.800309008789062,7.4961832061068705,-57.969465648854964,11.969465648854962,-3.4261025756835934,4.237736938476562,-2.6527754394531247,-6.3816793893129775,46.778625954198475,-4.122137404580153,0.0
12.830000638961792,-12.389993591308594,2.085349645996094,8.722076647949219,10.412213740458014,-76.04580152671755,22.732824427480917,-4.707000463867187,3.8690298828125,-1.0941501586914062,-24.793893129770993,67.49618320610686,4.33587786259542,0.0
12.840000629425049,-13.254300390625,1.3072341064453123,11.200075366210937,13.083969465648854,-94.10687022900764,24.778625954198475,-7.024587670898437,3.9360675292968748,0.3687070556640625,-19.14503816793893,64.12213740458016,7.267175572519084,0.0
12.850000381469727,-15.397110876464843,1.4939818359375,11.901576452636718,18.946564885496183,-118.56488549618321,26.625954198473284,-9.809044201660155,-0.6200982299804687,2.7174188842773437,-39.954198473282446,75.7557251908397,10.290076335877863,0.0
12.860000610351562,-16.65646094970703,-0.05746083984375,14.449007019042968,33.87786259541985,-141.40458015267177,25.603053435114504,-11.343727465820312,-3.6272155151367187,-0.3112462158203125,-43.847328244274806,73.1145038167939,3.816793893129771,0.0
12.870000839233398,-19.512743530273436,-0.1149216796875,15.452177514648437,60.29007633587786,-174.0,22.65648854961832,-15.100229870605467,-4.6639048339843745,-0.7661445312499999,-24.442748091603054,77.38931297709924,-0.10687022900763359,0.0
12.880000352859497,-21.327548388671875,1.1540052001953125,14.674061975097656,83.74045801526718,-195.55725190839695,25.83206106870229,-18.18396160888672,-2.224213342285156,2.4013842651367185,-9.053435114503817,77.89312977099236,-3.1297709923664123,0.0
12.890000581741333,-20.834342846679686,0.3112462158203125,9.179369165039063,89.86259541984732,-213.81679389312978,34.045801526717554,-17.2765591796875,-2.3535002319335936,3.785232824707031,-1.8778625954198473,67.83206106870229,-11.022900763358779,0.0
12.90000057220459,-20.549432849121093,-0.06464344482421874,8.372523205566406,97.2824427480916,-225.58778625954199,46.961832061068705,-15.045163232421874,-6.909665991210937,3.8474820678710935,25.17557251908397,46.778625954198475,-9.236641221374045,0.0
12.910000801086426,-17.827225561523438,0.07422025146484375,0.4740519287109375,78.67175572519083,-224.68702290076337,60.091603053435115,-9.777919580078125,-5.528211633300781,1.1061211669921875,60.38167938931298,28.50381679389313,-4.0,0.0
12.920000553131104,-15.011644409179686,-3.038241906738281,-1.5059528442382812,38.900763358778626,-218.9770992366412,65.98473282442748,-8.164227661132813,-3.4165257690429685,0.19871873779296872,71.63358778625954,29.740458015267176,-3.7557251908396947,0.0
12.93000054359436,-11.259930407714844,-7.264007836914062,-3.7708676147460936,17.083969465648856,-217.4198473282443,60.87022900763359,-10.13226142578125,-2.2864625854492187,-0.8906430175781249,85.96946564885496,27.801526717557252,-2.7938931297709924,0.0
12.940000772476196,-7.9846625366210935,-7.630320690917968,-4.946420629882812,14.198473282442748,-204.87022900763358,45.00763358778626,-10.848127722167968,0.7613561279296874,-1.429338391113281,64.27480916030534,29.389312977099237,-10.13740458015267,0.0
12.950000524520874,-8.037334973144532,-3.4332851806640625,-6.452373474121093,10.381679389312977,-184.13740458015266,27.480916030534353,-8.82981572265625,4.165910888671875,-2.8131869506835936,27.541984732824428,35.16030534351145,-12.625954198473282,0.0
12.96000051498413,-7.60398447265625,0.948103857421875,-6.955155822753905,2.2290076335877864,-155.78625954198472,17.633587786259543,-10.939107385253905,0.4740519287109375,-2.1499930908203124,7.435114503816794,45.603053435114504,-5.221374045801527,0.0
12.970000505447388,-5.439626171875,-0.6177040283203125,-5.76523759765625,6.595419847328245,-127.0381679389313,15.236641221374045,-12.258312499999999,-1.879448303222656,-0.28490999755859375,1.3129770992366412,45.93893129770992,0.3053435114503817,0.0
12.980000495910645,-4.704606262207031,-1.6735469604492186,-3.7038299682617186,12.488549618320612,-103.57251908396947,9.98473282442748,-9.619902270507811,1.0366893188476562,-0.9983820922851562,0.5038167938931297,37.786259541984734,-3.1297709923664123,0.0
12.990000486373901,-5.178658190917968,1.0869675537109373,-0.411802685546875,8.351145038167939,-85.63358778625954,3.7557251908396947,-8.418013037109375,2.3774422485351563,0.08379705810546874,-21.61832061068702,51.16030534351145,-2.1068702290076335,0.0
13.000000953674316,-5.413289953613281,2.31758720703125,-0.3758896606445312,-14.198473282442748,-80.6412213740458,3.1755725190839694,-7.694964135742187,3.7205893798828122,-0.02633621826171875,-30.519083969465647,60.93129770992366,5.282442748091603,0.0
13.010011672973633,-4.57771357421875,1.649604943847656,-0.679953271484375,-28.106870229007633,-73.93893129770993,3.7557251908396947,-12.619836950683593,3.1268273681640624,0.5506663818359374,-68.8854961832061,83.95419847328245,13.236641221374045,0.0
13.02000093460083,-4.151545678710937,1.2737152832031249,-2.6288334228515624,-37.87786259541985,-66.99236641221374,7.190839694656488,-8.650250598144531,4.168305090332031,-1.2521674682617188,-74.22900763358778,96.9618320610687,23.00763358778626,0.0
13.030000686645508,-3.4715924072265625,1.0223241088867188,-3.299209887695312,-39.6793893129771,-56.79389312977099,7.511450381679389,-7.398083129882812,2.1595698974609374,-2.288856787109375,-85.41984732824427,112.67175572519083,29.96946564885496,0.0
13.040000677108765,-2.6815058593749996,-0.967257470703125,-3.0430303100585934,-31.740458015267176,-41.74045801526717,9.282442748091603,-4.352658618164062,2.5857377929687497,-4.486733911132812,-88.10687022900764,113.6793893129771,29.480916030534353,0.0
13.050000667572021,-4.039018200683594,1.1659762084960936,-0.8858546142578124,-27.49618320610687,-22.610687022900763,1.3740458015267176,-7.37414111328125,-0.6943184814453125,-2.4253262817382812,-87.52671755725191,129.0229007633588,34.732824427480914,0.0
13.060000896453857,-5.195417602539062,1.6472107421875,0.06464344482421874,-43.05343511450382,-21.938931297709924,-2.5801526717557253,-11.659762084960937,-4.728548278808593,1.886630908203125,-53.87786259541985,125.14503816793894,42.38167938931298,0.0
13.07001280784607,-3.4524387939453125,-1.467645617675781,1.120486376953125,-40.091603053435115,-15.374045801526718,0.5343511450381679,-9.746794958496093,-1.3646949462890625,-2.602497204589844,-39.083969465648856,108.70229007633588,37.20610687022901,0.0
13.080000877380371,-0.8379705810546875,-5.681440539550781,1.0630255371093749,-8.076335877862595,3.114503816793893,-1.1297709923664123,-6.773196496582031,1.886630908203125,-6.426037255859375,-74.73282442748092,122.03053435114504,24.50381679389313,0.0
13.090000629425049,-1.9033903198242186,-5.257666845703125,3.0813375366210938,3.8931297709923665,13.32824427480916,-15.145038167938932,-10.338162768554687,-1.5921441040039062,-0.16280571289062498,-79.06870229007633,136.82442748091603,28.732824427480917,0.0
13.100000619888306,-3.366247534179687,-4.826710546875,4.395754248046875,16.137404580152673,21.022900763358777,-25.450381679389313,-12.873622326660156,-3.725377783203125,3.632003918457031,-40.93129770992366,122.35114503816794,40.030534351145036,0.0
13.110000371932983,-2.003946789550781,-6.809109521484374,4.177881896972656,53.29770992366412,27.786259541984734,-25.572519083969464,-9.648632690429688,-0.201112939453125,0.7541735229492187,0.9465648854961832,98.36641221374046,44.56488549618321,0.0
13.12000060081482,-2.712630480957031,-5.566518859863281,5.214571215820312,101.00763358778626,48.44274809160305,-31.6793893129771,-12.27028350830078,-0.9624690673828125,1.4724340209960938,25.16030534351145,84.74809160305344,47.9236641221374,0.0
13.130000591278076,-4.939238024902344,-2.2673089721679687,6.53138212890625,109.92366412213741,53.80152671755725,-42.83969465648855,-12.169727038574218,-2.272097375488281,2.3487118286132813,42.94656488549618,80.21374045801527,51.465648854961835,0.0
13.140000581741333,-5.255272644042968,-0.09337386474609374,7.141903552246093,109.81679389312977,54.88549618320611,-42.74809160305343,-15.31570802001953,-6.782773303222656,4.534617944335937,85.80152671755725,65.29770992366412,56.152671755725194,0.0
13.15000057220459,-7.017405065917968,2.375048046875,9.991003527832031,99.0381679389313,57.12977099236641,-42.030534351145036,-9.955090502929687,-3.6200329101562496,1.139639990234375,130.06106870229007,33.12977099236641,51.267175572519086,0.0
13.160000324249268,-7.510610607910156,5.398924743652343,11.319785449218749,82.94656488549619,48.47328244274809,-38.717557251908396,-11.319785449218749,-4.00310517578125,0.023942016601562498,95.52671755725191,46.25954198473283,37.587786259541986,0.0
13.170000553131104,-9.248801013183593,11.180921752929686,12.648567370605468,56.900763358778626,45.23664122137404,-29.00763358778626,-7.570465649414062,-0.5363011718749999,-1.7812860351562498,63.37404580152672,47.969465648854964,22.83969465648855,0.0
13.180000305175781,-9.70369932861328,14.736311218261719,11.705251916503906,20.80916030534351,30.931297709923665,-12.687022900763358,-11.152191333007812,-3.4715924072265625,1.3168109130859373,52.47328244274809,44.12213740458015,21.17557251908397,0.0
13.190000534057617,-9.727641345214844,14.501679455566405,11.56159981689453,-17.908396946564885,20.076335877862597,1.9541984732824427,-8.913612780761719,-0.718260498046875,-0.316034619140625,25.251908396946565,40.0763358778626,16.076335877862597,0.0
13.200000524520874,-9.124302526855468,10.941501586914061,10.072406384277343,-49.81679389312977,10.83969465648855,14.0,-11.604695446777344,-1.8100164550781248,1.1109095703125,9.86259541984733,36.06106870229008,13.450381679389313,0.0
13.210000276565552,-7.261613635253906,5.382165332031249,9.023746057128905,-58.87022900763359,5.709923664122138,27.908396946564885,-10.527304699707031,-1.1563994018554686,0.7278373046875,-8.717557251908397,33.05343511450382,10.381679389312977,0.0
13.220000267028809,-8.17859287109375,3.6487633300781246,10.156203442382813,-45.083969465648856,4.229007633587786,41.343511450381676,-12.061987963867187,-2.6479870361328124,2.3487118286132813,-10.13740458015267,25.389312977099237,11.908396946564885,0.0
13.230000495910645,-7.532158422851562,2.310404602050781,6.763619689941406,-8.0,7.0534351145038165,61.00763358778626,-12.665326782226561,-1.9632453613281249,1.9393033447265624,-2.931297709923664,11.557251908396946,12.122137404580153,0.0
13.240000247955322,-7.024587670898437,3.229778039550781,1.3718775512695311,9.603053435114504,18.50381679389313,75.17557251908397,-12.849680310058593,0.7661445312499999,0.01915361328125,-26.213740458015266,6.458015267175573,9.251908396946565,0.0
13.250000476837158,-12.722787622070312,3.787627026367187,8.762778076171875,-16.0,11.786259541984732,61.63358778625954,-13.781024755859374,2.262520568847656,-1.3096283081054687,-54.29007633587786,6.427480916030534,12.900763358778626,0.0
13.260000944137573,-16.17043801269531,4.429273071289062,16.958130358886716,-23.480916030534353,-0.2748091603053435,59.74045801526717,-14.947000964355468,1.7286135986328124,-0.13168109130859373,-80.50381679389314,9.083969465648854,20.16793893129771,0.0
13.270000696182251,-12.926294763183593,3.268085266113281,7.419630944824219,-18.702290076335878,-13.297709923664122,68.83969465648855,-16.105794567871094,-0.4285620971679687,2.4516625,-75.12977099236642,-5.267175572519084,20.946564885496183,0.0
13.280000925064087,-6.030993981933594,-2.5522189697265625,-4.7764323120117185,6.9465648854961835,-1.816793893129771,72.06106870229007,-13.481749548339844,1.5490484741210937,0.16280571289062498,-78.59541984732824,-7.312977099236641,8.82442748091603,0.0
13.290000677108765,-5.398924743652343,-5.286397265624999,-6.5577183471679685,-3.633587786259542,26.0,59.81679389312977,-11.4538607421875,2.9448680419921875,-0.9457096557617187,-77.6030534351145,-2.9160305343511452,-0.1984732824427481,0.0
13.300000667572021,1.917755529785156,-15.313313818359374,-6.332663391113281,-0.4580152671755725,27.374045801526716,38.42748091603053,-12.303802331542968,2.8850130004882812,-0.01915361328125,-80.18320610687023,2.8091603053435112,4.702290076335878,0.0
13.310000658035278,-1.6831237670898436,-11.113884106445312,-4.659116430664063,87.46564885496183,80.65648854961832,12.793893129770993,-12.521674682617187,3.2632968627929686,-2.9664158569335934,-61.70992366412214,-10.51908396946565,10.16793893129771,0.0
13.320000648498535,-6.229712719726562,-7.292738256835937,-3.641580725097656,112.3969465648855,96.12213740458016,-13.419847328244275,-15.040374829101562,0.8810662109374999,-1.687912170410156,-56.48854961832061,-10.961832061068701,19.00763358778626,0.0
13.330000400543213,-13.754688537597655,0.7924807495117187,-2.6408044311523438,119.81679389312977,111.45038167938931,-29.16030534351145,-14.676456176757812,0.4644751220703125,-2.7748797241210936,-33.969465648854964,-23.51145038167939,19.328244274809162,0.0
13.340000629425049,-16.421829187011717,8.67658681640625,-2.0757728393554684,96.42748091603053,112.83969465648855,-30.763358778625953,-14.034810131835936,0.6967126831054687,-2.7174188842773437,-26.045801526717558,-27.709923664122137,11.450381679389313,0.0
13.350000381469727,-18.045097912597654,10.922347973632812,0.7517793212890624,51.083969465648856,104.77862595419847,-21.374045801526716,-11.334150659179686,1.3479355346679687,-3.421314172363281,-28.595419847328245,-29.6793893129771,2.33587786259542,0.0
13.360000371932983,-18.167202197265624,7.321468676757812,0.5027823486328125,-21.221374045801525,77.98473282442748,-22.30534351145038,-10.180145458984374,0.5099649536132812,-3.39018955078125,-29.954198473282442,-27.709923664122137,-6.122137404580153,0.0
13.370000839233398,-16.46492481689453,4.707000463867187,-0.8307879760742187,-67.7557251908397,59.099236641221374,-19.84732824427481,-10.429142431640624,-0.7398083129882812,-2.9568390502929685,-25.541984732824428,-28.748091603053435,-10.549618320610687,0.0
13.380000591278076,-14.815319873046874,1.9991583862304687,-1.1635820068359375,-87.29770992366412,50.01526717557252,-18.396946564885496,-9.253589416503905,1.2761094848632812,-4.144363073730468,-30.38167938931298,-34.38167938931298,-18.442748091603054,0.0
13.390000581741333,-11.664550488281249,-1.2641384765625,-1.8363526733398436,-76.06106870229007,51.16030534351145,-14.793893129770993,-12.038045947265624,1.3910311645507811,-3.0310593017578125,-36.88549618320611,-26.16793893129771,-20.213740458015266,0.0
13.40000033378601,-10.747571252441405,-0.8068459594726562,-1.0319009155273438,-65.14503816793894,52.0763358778626,-16.076335877862597,-12.34689796142578,-0.2561795776367187,-2.252943762207031,-11.893129770992367,-26.564885496183205,-19.66412213740458,0.0
13.410000801086426,-8.01818135986328,-4.309562988281249,-2.887407202148437,-41.55725190839695,56.88549618320611,-13.251908396946565,-11.192892761230468,-4.687846850585937,2.1547814941406247,20.0,-27.358778625954198,-15.022900763358779,0.0
13.420000553131104,-8.188169677734374,-5.2624552490234375,-0.9959878906249999,-5.099236641221374,76.50381679389314,-18.35114503816794,-10.73799444580078,3.373430139160156,-1.7214309936523438,46.396946564885496,-45.9236641221374,-22.076335877862597,0.0
13.43000054359436,-9.141061938476563,-1.917755529785156,0.8810662109374999,9.770992366412214,81.80152671755725,-29.053435114503817,-10.790666882324219,4.661510632324219,-2.4756045166015626,44.35114503816794,-56.83969465648855,-27.282442748091604,0.0
13.440000295639038,-10.46984385986328,2.0877438476562498,2.2768857788085937,8.885496183206106,86.74809160305344,-35.86259541984733,-9.066841687011719,7.060500695800781,-2.932897033691406,21.068702290076335,-55.20610687022901,-25.00763358778626,0.0
13.450000286102295,-10.697293017578124,4.388571643066406,2.1212626708984375,-12.580152671755725,83.00763358778626,-37.083969465648856,-8.566453540039062,6.505045910644531,-3.1459809814453124,9.251908396946565,-49.37404580152672,-19.587786259541986,0.0
13.46000051498413,-10.204087475585936,2.9927520751953125,2.916137622070312,-29.17557251908397,82.16793893129771,-34.68702290076336,-7.572859851074218,7.271190441894531,-3.6439749267578123,-2.015267175572519,-46.99236641221374,-14.381679389312977,0.0
13.470000505447388,-8.870517150878905,2.3415292236328122,2.442085693359375,-38.62595419847328,78.62595419847328,-33.45038167938932,-6.129156249999999,6.854599353027344,-3.7517140014648436,-34.80916030534351,-38.47328244274809,-13.923664122137405,0.0
13.480000495910645,-8.870517150878905,0.9145850341796874,1.4939818359375,-41.786259541984734,77.80152671755725,-33.282442748091604,-6.830657336425781,3.258508459472656,-2.940079638671875,-47.847328244274806,-30.931297709923665,-10.351145038167939,0.0
13.490000486373901,-11.03248125,3.6272155151367187,3.450044592285156,-47.786259541984734,74.61068702290076,-36.33587786259542,-7.920019091796875,0.3591302490234375,-2.070984436035156,-37.87786259541985,-30.931297709923665,-7.083969465648855,0.0
13.500000715255737,-10.417171423339843,4.108450048828125,1.5873557006835937,-60.62595419847328,67.02290076335878,-33.43511450381679,-8.79150849609375,0.028730419921875,-2.214636535644531,-30.50381679389313,-36.595419847328245,-10.106870229007633,0.0
13.510000467300415,-9.18655177001953,2.5617957763671875,0.6751648681640625,-53.7557251908397,68.93129770992367,-25.603053435114504,-7.635109094238281,0.5147533569335937,-3.028665100097656,-37.93893129770992,-39.48091603053435,-15.221374045801527,0.0
13.520000696182251,-12.30859073486328,5.193023400878906,4.139574670410156,-56.79389312977099,72.6412213740458,-25.557251908396946,-9.397241516113281,-0.6823474731445313,-1.5275006591796874,-27.81679389312977,-33.786259541984734,-12.274809160305344,0.0
13.530000686645508,-9.581595043945311,4.489128112792969,1.158793603515625,-83.64885496183206,51.7557251908397,-20.763358778625953,-10.204087475585936,-3.2154128295898436,-0.6105214233398437,3.7099236641221376,-45.20610687022901,-12.045801526717558,0.0
13.540000677108765,-11.947066284179687,4.2329485351562495,1.7693150268554687,-88.73282442748092,49.267175572519086,-11.709923664122137,-10.599130749511717,-0.7900865478515624,-0.45489831542968745,31.068702290076335,-57.51145038167939,-16.580152671755727,0.0
13.550000667572021,-8.67658681640625,-1.66636435546875,-0.6847416748046875,-81.12977099236642,45.725190839694655,-1.984732824427481,-9.97903251953125,0.3064578125,0.3184288208007812,36.30534351145038,-59.41984732824427,-19.34351145038168,0.0
13.560000658035278,-9.591171850585937,-2.6599580444335937,1.22583125,-60.70229007633588,53.23664122137404,-3.236641221374046,-10.50815108642578,0.2657563842773437,0.086191259765625,49.63358778625954,-68.1526717557252,-20.85496183206107,0.0
13.570000648498535,-9.516951599121093,-2.9759926635742184,1.2473790649414063,-47.969465648854964,53.37404580152672,-15.007633587786259,-10.754753857421875,0.48123453369140623,0.30885201416015623,59.41984732824427,-73.40458015267176,-24.30534351145038,0.0
13.580000400543213,-10.390835205078124,-1.9297265380859374,2.1116858642578125,-43.02290076335878,49.954198473282446,-22.977099236641223,-10.034099157714843,1.5346832641601562,0.3495534423828125,50.79389312977099,-71.14503816793894,-27.786259541984734,0.0
13.590000629425049,-10.180145458984374,-1.0342951171875,1.5682020874023437,-33.11450381679389,46.0,-24.702290076335878,-8.683769421386717,2.5546131713867184,-1.3335703247070312,52.412213740458014,-78.3206106870229,-32.2442748091603,0.0
13.600000619888306,-12.129025610351562,1.5825672973632812,1.9201497314453124,-30.396946564885496,41.93893129770992,-26.198473282442748,-10.386046801757812,1.0941501586914062,-0.02633621826171875,51.38931297709924,-69.14503816793894,-26.900763358778626,0.0
13.610000371932983,-8.904035974121093,-0.9409212524414062,-0.373495458984375,-12.442748091603054,44.25954198473283,-21.541984732824428,-8.200140686035155,1.838746875,-0.2920926025390625,48.900763358778626,-71.49618320610686,-26.427480916030536,0.0
13.62000036239624,-9.938331091308592,1.9536685546875,1.3718775512695311,-3.4656488549618323,46.10687022900763,-20.38167938931298,-10.364498986816406,1.9800047729492187,0.5267243652343749,58.94656488549618,-70.44274809160305,-22.03053435114504,0.0
13.630000829696655,-10.747571252441405,2.829946362304687,1.189918225097656,-6.580152671755725,39.64885496183206,-20.48854961832061,-10.237606298828124,0.7733271362304687,1.7645266235351562,47.954198473282446,-65.26717557251908,-21.6793893129771,0.0
13.640000581741333,-9.835380419921874,1.838746875,0.8810662109374999,3.6030534351145036,38.396946564885496,-11.83206106870229,-8.267178332519531,2.5546131713867184,0.14604630126953125,42.80916030534351,-71.80152671755725,-26.427480916030536,0.0
13.650000810623169,-7.785943798828124,0.4572925170898437,0.0047884033203125,20.870229007633586,41.603053435114504,-8.13740458015267,-9.811438403320311,0.8164227661132812,1.3814543579101561,31.709923664122137,-62.33587786259542,-20.30534351145038,0.0
13.660000324249268,-9.418789331054686,0.00718260498046875,2.1883003173828124,20.625954198473284,44.916030534351144,-14.351145038167939,-7.297526660156249,2.530671154785156,-0.040701428222656245,34.29007633587786,-71.29770992366412,-24.564885496183205,0.0
13.670000553131104,-10.151415039062499,0.9313444458007812,2.3678654418945313,21.19083969465649,42.732824427480914,-19.96946564885496,-7.71890615234375,1.9488801513671874,1.0223241088867188,17.31297709923664,-62.97709923664122,-21.557251908396946,0.0
13.68000054359436,-10.036493359375,1.2641384765625,1.7884686401367187,18.763358778625953,39.221374045801525,-21.52671755725191,-8.8872765625,0.7852981445312499,1.4508862060546874,16.916030534351144,-68.99236641221374,-22.091603053435115,0.0
13.690000534057617,-9.562441430664062,1.9823989746093749,1.197100830078125,21.69465648854962,38.213740458015266,-19.801526717557252,-6.667851623535156,2.291250988769531,0.8379705810546875,1.465648854961832,-70.9618320610687,-24.946564885496183,0.0
13.700000524520874,-10.172962854003906,3.928884924316406,1.714248388671875,12.045801526717558,38.0763358778626,-18.748091603053435,-9.804255798339844,1.3024457031249999,1.5227122558593749,-5.221374045801527,-65.32824427480917,-22.290076335877863,0.0
13.71000051498413,-9.945513696289062,3.687070556640625,1.1228805786132812,2.595419847328244,34.83969465648855,-17.114503816793892,-9.926360083007811,-0.17956512451171874,1.5298948608398437,4.33587786259542,-67.2824427480916,-21.862595419847327,0.0
13.720000505447388,-9.397241516113281,2.0374656127929685,0.7900865478515624,4.259541984732825,35.603053435114504,-12.610687022900763,-8.109161022949218,2.0733786376953125,-0.18914193115234373,10.01526717557252,-72.4885496183206,-23.66412213740458,0.0
13.730000257492065,-9.363722692871093,0.6296750366210937,1.0366893188476562,6.763358778625954,35.89312977099237,-12.641221374045802,-10.302249743652343,0.7709329345703124,0.3902548706054687,-2.122137404580153,-61.20610687022901,-17.83206106870229,0.0
13.740000247955322,-10.084377392578125,1.1109095703125,1.9919757812499999,8.122137404580153,36.50381679389313,-14.732824427480915,-8.463502868652343,2.2864625854492187,-1.5275006591796874,5.099236641221374,-63.7557251908397,-19.19083969465649,0.0
13.750000476837158,-11.513715783691406,1.446097802734375,2.224213342285156,7.190839694656488,31.00763358778626,-13.267175572519085,-13.01727442626953,0.6967126831054687,0.6344634399414062,8.381679389312977,-52.44274809160305,-6.6106870229007635,0.0
13.760000944137573,-10.192116467285155,2.3774422485351563,1.2473790649414063,4.396946564885496,23.053435114503817,-11.267175572519085,-5.762843395996094,3.689464758300781,-2.3918074584960936,-12.15267175572519,-47.6793893129771,-13.022900763358779,0.0
13.770000696182251,-10.304643945312499,3.7205893798828122,2.789244934082031,-6.366412213740458,23.236641221374047,-8.931297709923664,-9.009380847167968,0.8906430175781249,-1.0869675537109373,-17.00763358778626,-30.595419847328245,-7.00763358778626,0.0
13.780000686645508,-9.576806640625,2.2577321655273437,2.0973206542968748,-14.030534351145038,17.419847328244273,-7.3893129770992365,-4.771643908691406,1.35990654296875,-2.7174188842773437,-11.679389312977099,-26.732824427480917,-10.610687022900763,0.0
13.790000677108765,-8.633491186523438,0.277727392578125,2.2074539306640624,2.2442748091603053,23.374045801526716,-3.2977099236641223,-6.83783994140625,-1.1707646118164061,-0.7829039428710937,4.305343511450381,-20.870229007633586,-5.6183206106870225,0.0
13.800000429153442,-8.20971749267578,-1.9129671264648436,2.013523596191406,3.2213740458015265,16.47328244274809,-8.259541984732824,-5.427655163574219,-0.737414111328125,-0.6847416748046875,21.435114503816795,-18.68702290076336,-4.854961832061068,0.0
13.8100004196167,-8.262389929199218,-1.5873557006835937,3.687070556640625,15.83206106870229,18.27480916030534,-13.755725190839694,-6.402095239257812,0.17238251953125,0.3184288208007812,29.053435114503817,-13.206106870229007,-6.351145038167939,0.0
13.820000648498535,-10.309432348632813,0.13168109130859373,5.810727429199218,18.137404580152673,14.488549618320612,-21.206106870229007,-6.2584431396484375,1.3335703247070312,1.0821791503906248,12.65648854961832,0.8702290076335878,-5.709923664122138,0.0
13.830000400543213,-12.04762275390625,2.1595698974609374,8.022969763183593,14.473282442748092,3.1603053435114505,-22.412213740458014,-7.419630944824219,1.0462661254882812,0.3591302490234375,16.65648854961832,-3.2977099236641223,-4.488549618320611,0.0
13.840000629425049,-14.044386938476562,5.087678527832031,10.220846887207031,17.00763358778626,-6.763358778625954,-21.81679389312977,-5.039794494628906,1.8938135131835936,-0.1197100830078125,7.190839694656488,0.3969465648854962,-5.267175572519084,0.0
13.850000619888306,-11.092336291503905,1.407790576171875,8.805873706054687,15.526717557251908,-33.31297709923664,-12.16793893129771,-4.283226770019531,2.3319524169921872,-0.016759411621093748,-5.923664122137405,7.206106870229007,-4.320610687022901,0.0
13.860000371932983,-10.819397302246093,0.35194764404296874,10.402806213378906,46.68702290076336,-38.33587786259542,-3.618320610687023,-5.798756420898437,2.080561242675781,0.6679822631835937,-20.061068702290076,14.763358778625955,-4.183206106870229,0.0
13.870000839233398,-12.284648718261717,2.4971523315429685,13.814543579101562,42.94656488549618,-62.70229007633588,-6.106870229007634,-5.904101293945312,1.6448165405273436,3.6248213134765623,-32.29007633587786,20.702290076335878,-2.7786259541984735,0.0
13.880000591278076,-14.884751721191405,3.881000891113281,16.716315991210937,46.44274809160305,-93.83206106870229,0.5190839694656488,-9.567229833984374,-2.205059729003906,7.048529687499999,-44.152671755725194,23.267175572519083,0.5190839694656488,0.0
13.890000581741333,-17.78652413330078,5.9591679321289055,18.87828009033203,58.717557251908396,-126.51908396946565,11.938931297709924,-9.028534460449219,-7.5465236328125,1.2138602416992186,-32.2442748091603,11.557251908396946,-8.900763358778626,0.0
13.90000057220459,-19.50556092529297,6.1650692749023435,16.455348010253907,56.56488549618321,-172.1679389312977,22.580152671755727,-9.145850341796875,-6.1650692749023435,-4.582501977539062,-13.16030534351145,13.98473282442748,-19.267175572519083,0.0
13.910000801086426,-20.274099658203124,3.842693664550781,12.66053837890625,49.86259541984733,-210.9618320610687,29.435114503816795,-10.805032092285156,-2.8131869506835936,-5.6024318847656245,-6.259541984732825,35.954198473282446,-31.419847328244273,0.0
13.920000553131104,-20.83673704833984,-0.5147533569335937,9.950302099609374,65.93893129770993,-236.59541984732823,40.412213740458014,-14.556746093749998,-1.0917559570312498,-0.086191259765625,12.854961832061068,42.656488549618324,-42.6412213740458,0.0
13.93000054359436,-18.837578662109372,-0.8116343627929687,1.618480322265625,95.52671755725191,-240.24427480916032,59.17557251908397,-13.081917871093749,-1.3263877197265623,2.4851813232421875,18.12213740458015,38.62595419847328,-42.152671755725194,0.0
13.940000534057617,-16.438588598632812,-2.1787235107421874,-2.2290017456054687,71.6030534351145,-240.13740458015266,65.93893129770993,-12.31577333984375,-3.854664672851562,3.0047230834960934,21.419847328244273,34.534351145038165,-25.34351145038168,0.0
13.950000286102295,-16.122553979492185,-5.121197351074218,-7.206546997070312,59.43511450381679,-233.86259541984734,70.10687022900764,-12.04762275390625,-1.3527239379882812,-0.4860229370117187,58.2442748091603,19.450381679389313,-11.633587786259541,0.0
13.96000051498413,-17.195156323242188,-5.0206408813476555,-5.202600207519531,47.41984732824427,-212.77862595419847,65.34351145038168,-10.402806213378906,0.4572925170898437,-3.88818349609375,76.09160305343511,17.221374045801525,-5.282442748091603,0.0
13.970000505447388,-17.8128603515625,-4.525041137695312,-6.794744311523437,25.46564885496183,-207.38931297709922,52.62595419847328,-10.83376251220703,2.042254016113281,-5.6958057495117185,71.17557251908397,28.641221374045802,-3.7557251908396947,0.0
13.980000495910645,-10.565611926269531,-4.853046765136718,-3.5482068603515624,32.0763358778626,-185.49618320610688,48.19847328244275,-10.66856259765625,2.645592834472656,-5.748478186035156,51.847328244274806,38.35114503816794,-2.1526717557251906,0.0
13.990000486373901,-7.113173132324218,-4.048595007324218,-2.4564509033203126,37.37404580152672,-155.86259541984734,34.94656488549618,-9.220070593261719,0.1867477294921875,-5.252878442382812,36.54961832061068,50.30534351145038,2.8091603053435112,0.0
14.000000715255737,-5.272032055664062,-1.01514150390625,-0.316034619140625,41.45038167938932,-126.77862595419847,20.519083969465647,-7.675810522460937,0.0718260498046875,-4.723759875488281,38.13740458015267,57.847328244274806,2.7022900763358777,0.0
14.010000467300415,-3.7325603881835936,1.0821791503906248,0.45489831542968745,40.396946564885496,-109.14503816793894,13.236641221374045,-9.888052856445311,-1.3383587280273437,-2.0302830078125,36.16793893129771,73.78625954198473,6.748091603053435,0.0
14.02000093460083,-4.2880151733398435,1.5059528442382812,1.1013327636718748,34.48854961832061,-92.59541984732824,9.587786259541986,-6.586448767089843,2.602497204589844,-3.7205893798828122,29.083969465648856,72.77862595419847,5.603053435114504,0.0
14.030000686645508,-4.422090466308593,1.5466542724609373,0.5027823486328125,22.396946564885496,-81.46564885496183,9.83206106870229,-5.087678527832031,5.303156677246093,1.3263877197265623,3.053435114503817,101.63358778625954,14.106870229007633,0.0
14.040000677108765,-4.900930798339844,1.8267758666992187,0.11731588134765625,3.9236641221374047,-69.6793893129771,11.19083969465649,-5.221753820800781,6.438008264160156,-4.0988732421875,-31.908396946564885,99.90839694656489,20.213740458015266,0.0
14.050000429153442,-5.80354482421875,2.2170307373046874,0.2705447875976562,-11.83206106870229,-59.343511450381676,10.687022900763358,-7.125144140624999,6.7803791015625,-2.7246014892578123,-56.94656488549618,120.9618320610687,32.458015267175576,0.0
14.060000658035278,-5.166687182617188,1.6639701538085936,-0.12689268798828124,-31.083969465648856,-55.51145038167939,10.15267175572519,-7.316680273437499,5.664681127929687,-1.9895815795898437,-61.267175572519086,120.03053435114504,42.36641221374046,0.0
14.070000410079956,-4.192247106933594,1.3215993164062498,0.2059013427734375,-43.14503816793893,-48.87022900763359,10.82442748091603,-9.176974963378905,1.3024457031249999,-0.5099649536132812,-67.05343511450381,118.85496183206106,47.11450381679389,0.0
14.080000638961792,-1.668758557128906,-1.5849614990234373,-0.44532150878906246,-46.56488549618321,-44.656488549618324,14.305343511450381,-7.089231115722656,1.9536685546875,-1.1923124267578125,-64.83969465648855,111.43511450381679,41.87786259541985,0.0
14.090000629425049,-3.3351229125976563,-0.34237083740234375,2.5378537597656248,-36.58015267175573,-25.755725190839694,10.396946564885496,-8.678981018066406,0.09337386474609374,-1.47482822265625,-87.72519083969466,116.94656488549619,35.14503816793893,0.0
14.100000619888306,-2.674323254394531,-1.3431471313476562,1.905784521484375,-34.80916030534351,-24.65648854961832,5.099236641221374,-4.872200378417968,-0.316034619140625,-2.2481553588867187,-81.74045801526718,110.06106870229007,34.58015267175573,0.0
14.110000610351562,-3.9743747558593747,-0.3591302490234375,3.708618371582031,-33.969465648854964,-20.85496183206107,1.6488549618320612,-6.5505357421875,-0.44532150878906246,-2.319981408691406,-89.22137404580153,99.69465648854961,31.404580152671755,0.0
14.12000036239624,-2.932897033691406,-1.3192051147460937,3.5314474487304683,-17.251908396946565,-16.16793893129771,2.6259541984732824,-7.551312036132812,0.3854664672851562,-2.91134921875,-76.36641221374046,84.97709923664122,32.01526717557252,0.0
14.130000591278076,-4.314351391601562,-0.4070142822265625,4.917690209960937,-7.938931297709924,-10.13740458015267,-1.2213740458015268,-11.161768139648437,-3.0933085449218747,-0.33518823242187495,-73.49618320610686,84.09160305343511,32.56488549618321,0.0
14.140000581741333,-2.7844565307617186,-2.446874096679687,3.0262708984374997,13.419847328244275,-4.625954198473282,1.6488549618320612,-10.50815108642578,-3.1172505615234374,0.7230489013671875,-58.54961832061068,78.93129770992367,33.06870229007634,0.0
14.150000810623169,-3.4620156005859375,-1.2808978881835937,3.6343981201171873,26.366412213740457,4.076335877862595,-0.5648854961832062,-11.889605444335936,-4.572925170898437,2.1835119140624997,-22.717557251908396,64.82442748091603,34.56488549618321,0.0
14.160000324249268,-4.9823336547851556,-0.4572925170898437,4.350264416503906,32.79389312977099,15.267175572519085,-2.595419847328244,-9.289502441406249,-0.076614453125,-1.1731588134765625,-7.862595419847328,52.42748091603053,30.564885496183205,0.0
14.170000553131104,-5.413289953613281,1.5227122558593749,6.004657763671875,31.267175572519083,22.9618320610687,-2.045801526717557,-10.575188732910156,-0.9840168823242187,-0.4955997436523437,-25.49618320610687,61.81679389312977,27.419847328244273,0.0
14.18000054359436,-4.829104748535156,2.023100402832031,6.624755993652343,7.923664122137405,18.625954198473284,-2.885496183206107,-10.579977136230468,-2.461239306640625,1.3670891479492187,0.549618320610687,56.36641221374046,31.236641221374047,0.0
14.190000534057617,-5.374982727050781,1.66636435546875,9.423577734375,-8.442748091603054,23.00763358778626,-2.4122137404580153,-9.600748657226562,-1.0366893188476562,-0.22505495605468748,12.83969465648855,48.61068702290076,30.885496183206108,0.0
14.200000524520874,-5.674257934570313,2.7653029174804686,10.644620581054687,-21.236641221374047,18.53435114503817,-3.1603053435114505,-9.327809667968749,-0.009576806640625,-1.22583125,-17.267175572519083,62.61068702290076,23.87786259541985,0.0
14.21000051498413,-6.337451794433593,4.292803576660156,11.334150659179686,-30.03053435114504,18.213740458015266,0.42748091603053434,-9.859322436523437,-3.0166940917968748,0.3327940307617187,-12.580152671755725,61.93893129770992,24.137404580152673,0.0
14.220000267028809,-5.892130285644531,4.280832568359375,11.027692846679686,-31.389312977099237,14.427480916030534,3.404580152671756,-10.71884083251953,-3.373430139160156,0.37828386230468747,3.3282442748091605,54.656488549618324,26.85496183206107,0.0
14.230000495910645,-5.504269616699219,3.679887951660156,10.139444030761718,-27.938931297709924,11.86259541984733,5.206106870229007,-8.2743609375,1.467645617675781,-3.227383837890625,-14.351145038167939,52.16793893129771,21.61832061068702,0.0
14.240000486373901,-6.102820031738281,3.6152445068359373,8.990227233886719,-27.358778625954198,11.419847328244275,6.2748091603053435,-12.502521069335936,-2.090138049316406,0.181959326171875,-46.94656488549618,67.32824427480917,21.206106870229007,0.0
14.250000238418579,-5.109226342773437,2.9472622436523435,6.823474731445312,-21.053435114503817,12.213740458015268,13.86259541984733,-12.421118212890624,-2.5139117431640625,2.8754361938476563,-15.007633587786259,49.38931297709924,28.702290076335878,0.0
14.260000944137573,-8.262389929199218,3.469198205566406,8.55448253173828,-4.854961832061068,15.679389312977099,23.419847328244273,-14.470554833984375,-3.507505432128906,3.2130186279296873,0.9923664122137404,32.74809160305343,33.725190839694655,0.0
14.270000696182251,-7.936778503417968,4.402936853027343,7.730877160644531,21.96946564885496,18.778625954198475,41.80152671755725,-12.950236779785156,0.4333505004882812,0.01915361328125,-10.351145038167939,27.87786259541985,31.603053435114504,0.0
14.280000925064087,-6.775590698242187,7.4579381713867186,3.2225954345703123,33.00763358778626,25.64885496183206,58.61068702290076,-14.705186596679686,0.8355763793945312,1.7453730102539062,-30.48854961832061,32.2442748091603,30.717557251908396,0.0
14.290000677108765,-11.326968054199218,9.909600671386718,4.414907861328125,-17.923664122137403,16.30534351145038,55.19083969465649,-14.166491223144531,1.7884686401367187,0.5434837768554687,-42.74809160305343,26.03053435114504,35.541984732824424,0.0
14.300000667572021,-17.049110021972655,-1.2521674682617188,17.922993627929685,-31.19083969465649,12.534351145038167,62.70229007633588,-17.369933044433594,-1.0917559570312498,1.5777788940429687,-35.00763358778626,13.664122137404581,45.80152671755725,0.0
14.310000658035278,-20.24536923828125,-1.0654197387695312,22.972364929199216,22.595419847328245,-6.412213740458015,58.94656488549618,-17.214309936523435,-3.1411925781249996,3.143586779785156,-29.0381679389313,2.2748091603053435,50.0,0.0
14.320000648498535,-21.78244670410156,11.415553515625,6.572083557128906,1.4809160305343512,-28.625954198473284,51.51145038167939,-16.654066748046873,-2.2864625854492187,3.938461730957031,-30.870229007633586,-7.312977099236641,38.25954198473283,0.0
14.330000400543213,-17.003620190429686,5.863399865722656,-5.432443566894531,0.015267175572519083,-14.610687022900763,73.61832061068702,-13.153743920898437,0.201112939453125,3.5721488769531247,-24.53435114503817,-18.106870229007633,22.48854961832061,0.0
14.340000629425049,-6.426037255859375,-7.319074475097656,-8.226476904296874,-34.35114503816794,-0.0,67.20610687022901,-13.199233752441405,3.574543078613281,1.6328455322265625,-34.47328244274809,-20.3206106870229,11.435114503816793,0.0
14.350000619888306,-5.025429284667968,-10.065223779296874,-4.57771357421875,-28.50381679389313,18.702290076335878,34.656488549618324,-13.78341895751953,5.351040710449219,-1.668758557128906,-42.80916030534351,-28.50381679389313,10.51908396946565,0.0
14.360000610351562,-2.24097275390625,-11.872846032714843,-5.197811804199218,21.31297709923664,35.16030534351145,18.442748091603054,-15.50724415283203,5.202600207519531,-1.5586252807617187,-55.06870229007634,-31.908396946564885,16.977099236641223,0.0
14.370000839233398,-4.774038110351563,-6.2584431396484375,-6.4739212890625,66.7175572519084,67.40458015267176,-1.5267175572519085,-16.57984649658203,1.8626888916015625,-2.243366955566406,-50.412213740458014,-41.05343511450382,21.984732824427482,0.0
14.380000591278076,-7.716511950683593,-2.1930887207031247,-7.704540942382812,68.27480916030534,83.87786259541984,-22.717557251908396,-15.265429785156249,-2.7653029174804686,-1.9752163696289062,-45.603053435114504,-54.900763358778626,15.404580152671755,0.0
14.390000820159912,-11.911153259277343,1.2114660400390624,-2.3295582153320313,74.97709923664122,104.4885496183206,-33.19083969465649,-14.585476513671875,-6.062118603515625,-1.5466542724609373,-20.47328244274809,-63.038167938931295,-4.076335877862595,0.0
14.40000033378601,-14.188039038085936,3.6942531616210936,-0.842758984375,57.83206106870229,105.32824427480917,-40.33587786259542,-11.595118640136718,-2.77727392578125,-2.4396914916992185,9.007633587786259,-76.27480916030534,-22.15267175572519,0.0
14.410000801086426,-14.698003991699219,5.494692810058593,1.0175357055664063,21.358778625954198,99.29770992366412,-40.47328244274809,-8.698134631347656,1.6639701538085936,-3.399766357421875,9.450381679389313,-74.80916030534351,-31.083969465648856,0.0
14.420000553131104,-13.160926525878905,2.1260510742187497,-1.7525556152343749,2.030534351145038,92.27480916030534,-34.33587786259542,-8.834604125976561,1.1875240234375,-2.6719290527343746,28.38167938931298,-73.55725190839695,-30.47328244274809,0.0
14.430007934570312,-11.784260571289062,-1.7549498168945312,-1.0630255371093749,11.19083969465649,100.22900763358778,-29.374045801526716,-8.238447912597655,4.745307690429687,-3.7110125732421873,31.64885496183206,-75.29770992366412,-31.450381679389313,0.0
14.440000534057617,-8.741230261230468,-4.218583325195312,-3.028665100097656,23.31297709923664,99.22137404580153,-32.30534351145038,-7.766790185546874,6.433219860839843,-4.613626599121093,14.961832061068701,-64.90076335877863,-27.908396946564885,0.0
14.450000524520874,-9.3086560546875,-3.1555577880859373,-1.4437036010742186,46.54961832061068,112.56488549618321,-37.465648854961835,-7.029376074218749,5.159504577636718,-4.541800549316406,13.099236641221374,-49.87786259541985,-21.755725190839694,0.0
14.460000276565552,-9.054870678710937,-2.568978381347656,-2.607285607910156,57.603053435114504,111.19083969465649,-42.213740458015266,-6.112396838378906,3.4620156005859375,-7.419630944824219,27.0381679389313,-52.85496183206107,-16.946564885496183,0.0
14.470000267028809,-11.322179650878905,0.40462008056640625,-0.3854664672851562,79.3587786259542,122.3206106870229,-42.50381679389313,-8.927977990722656,3.9504327392578125,-6.864176159667968,9.526717557251908,-33.51145038167939,-16.519083969465647,0.0
14.480000495910645,-10.721235034179687,2.612074011230469,0.9576806640625,72.38167938931298,119.22137404580153,-45.55725190839695,-9.435548742675781,1.675941162109375,-4.141968872070312,-5.404580152671755,-16.9618320610687,-15.450381679389313,0.0
14.490000247955322,-10.89122335205078,4.034229797363281,1.7764976318359373,55.7557251908397,115.40458015267176,-46.29007633587786,-7.678204724121093,1.024718310546875,-4.955997436523437,5.786259541984733,-18.091603053435115,-16.717557251908396,0.0
14.500000715255737,-10.87925234375,4.900930798339844,1.2210428466796874,31.541984732824428,103.48091603053435,-46.94656488549618,-9.323021264648437,2.1547814941406247,-3.545812658691406,13.786259541984732,-13.83206106870229,-14.50381679389313,0.0
14.510000705718994,-10.491391674804687,4.975151049804687,1.7334020019531249,14.061068702290076,98.82442748091603,-40.94656488549618,-7.6470801025390625,3.1507693847656246,-4.129997863769531,13.145038167938932,-12.473282442748092,-17.419847328244273,0.0
14.52000093460083,-11.173739147949219,5.856217260742187,3.299209887695312,-11.312977099236642,90.27480916030534,-39.55725190839695,-8.690952026367187,3.0142998901367184,-3.679887951660156,12.80916030534351,-9.541984732824428,-18.610687022900763,0.0
14.530000686645508,-9.5384994140625,5.092466931152344,2.722207287597656,-32.38167938931298,81.29770992366412,-35.43511450381679,-7.513004809570312,3.8091748413085935,-4.903325,4.3816793893129775,-12.992366412213741,-20.748091603053435,0.0
14.540000677108765,-10.189722265624999,3.8570588745117185,3.0406361083984375,-43.404580152671755,75.96946564885496,-30.0,-9.718064538574218,-0.5602431884765625,-1.8698714965820311,13.84732824427481,-5.66412213740458,-14.335877862595419,0.0
14.550000667572021,-7.7763669921875,0.97683427734375,1.70467158203125,-36.06106870229008,76.09160305343511,-25.297709923664122,-7.153874560546875,-0.4477157104492187,-2.770091320800781,37.847328244274806,-21.221374045801525,-15.725190839694656,0.0
14.560000658035278,-8.793902697753905,1.0606313354492187,1.8411410766601561,-29.297709923664122,73.26717557251908,-25.801526717557252,-7.216123803710937,-2.104503259277344,-0.833182177734375,99.6030534351145,-42.06106870229008,-17.022900763358777,0.0
14.570000648498535,-10.66137999267578,2.1930887207031247,2.1260510742187497,-29.14503816793893,72.35114503816794,-29.328244274809162,-7.673416320800781,1.5825672973632812,-1.6112977172851561,88.41221374045801,-49.66412213740458,-24.15267175572519,0.0
14.580000638961792,-11.219228979492186,2.013523596191406,2.4157494750976563,-39.74045801526717,66.91603053435115,-27.328244274809162,-8.573636145019531,3.88818349609375,0.2059013427734375,77.83206106870229,-46.0,-25.49618320610687,0.0
14.59000039100647,-8.908824377441405,0.5363011718749999,1.2808978881835937,-40.58015267175573,64.87022900763358,-27.068702290076335,-7.237671618652343,5.889736083984375,-0.3136404174804687,56.68702290076336,-49.603053435114504,-25.862595419847327,0.0
14.600000619888306,-11.743559143066406,3.574543078613281,4.613626599121093,-51.969465648854964,61.541984732824424,-29.923664122137403,-8.372523205566406,4.747701892089843,0.20350714111328125,40.82442748091603,-48.900763358778626,-22.763358778625953,0.0
14.610000610351562,-8.027758166503906,0.7972691528320313,0.8116343627929687,-70.4885496183206,45.89312977099237,-27.282442748091604,-7.915230688476562,5.65031591796875,-0.55545478515625,26.366412213740457,-55.17557251908397,-22.671755725190838,0.0
14.62000060081482,-12.437877624511717,3.8283284545898435,2.4947581298828125,-69.80152671755725,47.06870229007634,-23.16030534351145,-10.04846436767578,2.1308394775390624,0.93852705078125,12.427480916030534,-48.778625954198475,-16.412213740458014,0.0
14.630000591278076,-9.100360510253905,-0.48123453369140623,1.0821791503906248,-70.85496183206106,38.54961832061068,-16.198473282442748,-8.690952026367187,2.916137622070312,-0.6871358764648438,21.068702290076335,-60.3206106870229,-18.85496183206107,0.0
14.640000581741333,-10.69968721923828,1.4125789794921875,0.93852705078125,-53.00763358778626,38.58015267175573,-11.32824427480916,-10.436325036621094,0.507570751953125,1.7238251953125,11.206106870229007,-54.97709923664122,-15.358778625954198,0.0
14.650000810623169,-9.014169250488282,-0.9816226806640624,0.06703764648437499,-59.48091603053435,28.68702290076336,-11.86259541984733,-9.215282189941405,1.6735469604492186,-0.3687070556640625,27.49618320610687,-69.6030534351145,-19.083969465648856,0.0
14.660000562667847,-13.718775512695311,2.89219560546875,3.248931652832031,-45.83206106870229,35.81679389312977,-12.229007633587786,-10.824185705566405,-0.28490999755859375,1.7884686401367187,21.068702290076335,-66.83969465648855,-16.33587786259542,0.0
14.670000553131104,-12.152967626953124,1.7286135986328124,3.3877953491210935,-64.74809160305344,17.14503816793893,-14.854961832061068,-8.930372192382812,1.924938134765625,0.7709329345703124,23.34351145038168,-75.92366412213741,-22.198473282442748,0.0
14.680000305175781,-13.488932153320311,2.2457611572265623,2.6671406494140624,-52.29007633587786,11.664122137404581,-7.465648854961832,-11.298237634277344,0.6943184814453125,1.4915876342773438,20.9618320610687,-79.12977099236642,-18.564885496183205,0.0
14.690000534057617,-11.549628808593749,0.6392518432617187,2.6479870361328124,-43.43511450381679,4.99236641221374,-4.748091603053435,-9.883264453125,1.7238251953125,1.1851298217773436,10.900763358778626,-80.51908396946565,-17.770992366412212,0.0
14.700000524520874,-9.91438907470703,-1.2713210815429687,1.714248388671875,-24.198473282442748,5.541984732824427,1.4198473282442747,-8.0828248046875,2.1883003173828124,0.41419688720703124,6.519083969465649,-86.59541984732824,-18.366412213740457,0.0
14.71000051498413,-8.147468249511718,-1.8770541015625,0.00718260498046875,-6.33587786259542,6.0,2.7786259541984735,-9.710881933593749,0.8571241943359375,0.8092401611328125,12.259541984732824,-85.90839694656489,-15.16030534351145,0.0
14.720000743865967,-5.647921716308593,-2.559401574707031,-1.2808978881835937,15.908396946564885,16.091603053435115,-1.6030534351145038,-8.300697155761718,-1.1827356201171875,1.0558429321289062,5.877862595419847,-79.09923664122137,-14.916030534351146,0.0
14.730000495910645,-7.0844427124023435,-0.7948749511718749,-0.55545478515625,19.236641221374047,27.84732824427481,-12.274809160305344,-7.024587670898437,0.9864110839843749,-0.5626373901367188,15.450381679389313,-83.72519083969466,-19.66412213740458,0.0
14.74000096321106,-9.591171850585937,3.845087866210937,-0.4070142822265625,5.358778625954199,25.84732824427481,-17.419847328244273,-6.153098266601562,-1.1013327636718748,-0.19393033447265623,5.0534351145038165,-73.16030534351145,-16.0,0.0
14.750000476837158,-8.82263311767578,3.5386300537109374,-1.2617442749023438,-3.7709923664122136,28.47328244274809,-15.450381679389313,-7.898471276855468,1.7621324218749999,-1.2401964599609374,17.984732824427482,-82.29007633587786,-24.396946564885496,0.0
14.760000944137573,-9.545682019042967,3.0023288818359375,-0.8978256225585937,-6.091603053435114,36.412213740458014,-8.106870229007633,-8.279149340820313,1.3192051147460937,-1.3862427612304686,4.793893129770993,-66.62595419847328,-19.282442748091604,0.0
14.770000696182251,-9.277531433105468,1.467645617675781,-0.5123591552734374,-12.717557251908397,39.81679389312977,-8.80916030534351,-11.180921752929686,-0.2346317626953125,-0.4644751220703125,17.16030534351145,-63.06870229007634,-19.31297709923664,0.0
14.780001163482666,-8.796296899414061,-0.033518823242187495,-0.6009446166992187,-7.1603053435114505,43.83206106870229,-10.396946564885496,-11.080365283203124,0.4955997436523437,-0.20829554443359374,32.67175572519084,-62.030534351145036,-21.374045801526716,0.0
14.790000438690186,-9.090783703613281,-0.8475473876953125,0.08379705810546874,3.5114503816793894,46.10687022900763,-15.068702290076336,-8.48505068359375,1.3527239379882812,-0.3232172241210937,27.068702290076335,-61.86259541984733,-24.15267175572519,0.0
