timestamp,Thigh_L_Acc_X,Thigh_L_Acc_Y,Thigh_L_Acc_Z,Thigh_L_Gyr_X,Thigh_L_Gyr_Y,Thigh_L_Gyr_Z,Thigh_R_Acc_X,Thigh_R_Acc_Y,Thigh_R_Acc_Z,Thigh_R_Gyr_X,Thigh_R_Gyr_Y,Thigh_R_Gyr_Z,gpio_output
10.000000476837158,-10.747571252441405,0.44053310546874996,4.551377355957031,-8.534351145038167,74.21374045801527,-23.450381679389313,-8.054094384765625,5.947196923828125,-0.9935936889648437,6.366412213740458,-27.053435114503817,-23.587786259541986,0.0
10.010000467300415,-9.744400756835937,-1.2737152832031249,2.3678654418945313,-14.564885496183207,63.93893129770992,-27.236641221374047,-9.1554271484375,4.1946413085937495,0.6536170532226562,1.2061068702290076,-26.641221374045802,-18.015267175572518,1.0
10.02000093460083,-10.184933862304687,-0.229843359375,2.3415292236328122,-5.32824427480916,63.7557251908397,-29.938931297709924,-9.196128576660156,4.489128112792969,0.18435352783203124,-4.076335877862595,-31.34351145038168,-17.83206106870229,1.0
10.030000686645508,-10.43871923828125,1.8555062866210936,1.7477672119140624,-10.320610687022901,58.67175572519084,-31.404580152671755,-9.045293872070312,3.5506010620117183,0.02154781494140625,-2.8244274809160306,-36.83969465648855,-15.84732824427481,1.0
10.040000677108765,-10.31661495361328,2.6886884643554687,1.0031704956054688,-9.877862595419847,61.49618320610687,-30.53435114503817,-8.386888415527343,3.7924154296875,-0.6512228515624999,-5.709923664122138,-40.44274809160305,-14.763358778625955,1.0
10.050000667572021,-9.117119921875,3.670311145019531,1.3024457031249999,-18.80916030534351,57.541984732824424,-28.137404580152673,-5.1882349975585935,2.9951462768554684,-3.4332851806640625,5.129770992366412,-57.98473282442748,-14.977099236641221,1.0
10.060000658035278,-12.136208215332031,5.681440539550781,2.4349030883789062,-28.137404580152673,57.11450381679389,-27.61832061068702,-8.834604125976561,3.047818713378906,-1.9201497314453124,-19.96946564885496,-42.778625954198475,-12.992366412213741,1.0
10.070000648498535,-11.03248125,4.3071687866210935,2.281674182128906,-45.70992366412214,49.465648854961835,-23.52671755725191,-10.036493359375,2.138022082519531,-0.8355763793945312,-16.65648854961832,-39.282442748091604,-9.435114503816793,1.0
10.080000638961792,-10.524910498046875,4.805162731933594,2.8730419921875,-46.47328244274809,46.38167938931298,-19.84732824427481,-9.588777648925781,2.868253588867187,-1.6328455322265625,-25.66412213740458,-37.05343511450382,-8.549618320610687,1.0
10.090000629425049,-8.52335791015625,2.1619640991210938,1.218648645019531,-62.35114503816794,36.99236641221374,-16.80916030534351,-9.160215551757812,4.412513659667969,-1.9105729248046874,-43.00763358778626,-30.931297709923665,-9.526717557251908,1.0
10.100000619888306,-10.127473022460936,4.659116430664063,3.086125939941406,-58.87022900763359,39.404580152671755,-15.374045801526718,-8.743624462890624,0.9241618408203125,-1.0606313354492187,-47.541984732824424,-26.15267175572519,-6.977099236641221,1.0
10.110000610351562,-9.629479077148437,2.133233679199219,1.599326708984375,-69.40458015267176,31.83206106870229,-14.0,-10.165780249023436,-0.6009446166992187,-0.41419688720703124,-21.435114503816795,-31.66412213740458,-5.083969465648855,1.0
10.12000060081482,-11.003750830078124,1.0007762939453124,1.9393033447265624,-55.43511450381679,32.85496183206107,-9.038167938931299,-10.194510668945313,-0.4477157104492187,0.4070142822265625,2.6106870229007635,-37.282442748091604,-4.99236641221374,1.0
10.130000591278076,-9.557653027343749,-0.5003881469726562,1.9991583862304687,-43.221374045801525,34.35114503816794,-9.267175572519085,-7.805097412109374,1.927332336425781,-1.0319009155273438,1.297709923664122,-42.717557251908396,-11.374045801526718,1.0
10.140000343322754,-9.325415466308593,0.679953271484375,2.384624853515625,-39.06870229007634,29.6793893129771,-12.091603053435115,-9.13627353515625,0.7637503295898437,0.181959326171875,-2.9770992366412212,-34.412213740458014,-9.572519083969466,1.0
10.150000810623169,-9.80665,1.6831237670898436,2.2002713256835937,-40.30534351145038,26.946564885496183,-15.114503816793894,-9.828197814941406,-1.4030021728515625,0.814028564453125,16.625954198473284,-36.83969465648855,-7.282442748091603,1.0
10.160000562667847,-11.96382569580078,3.191470812988281,2.767697119140625,-43.32824427480916,22.625954198473284,-16.610687022900763,-8.657433203124999,1.7429788085937499,-0.430956298828125,26.80916030534351,-44.045801526717554,-10.748091603053435,1.0
10.170000791549683,-8.458714465332031,0.5482721801757812,0.22266075439453123,-47.954198473282446,13.053435114503817,-12.045801526717558,-8.238447912597655,2.422932080078125,0.3016694091796875,13.007633587786259,-36.274809160305345,-11.923664122137405,1.0
10.18000054359436,-9.13627353515625,0.45489831542968745,0.8307879760742187,-37.00763358778626,16.244274809160306,-8.916030534351146,-9.162609753417968,0.23223756103515625,0.5051765502929687,16.16793893129771,-36.10687022900763,-9.16030534351145,1.0
10.190000772476196,-9.878476049804688,0.03591302490234375,1.2497732666015624,-22.27480916030534,22.18320610687023,-9.389312977099237,-8.79150849609375,2.0638018310546875,0.35194764404296874,21.984732824427482,-40.229007633587784,-11.007633587786259,1.0
10.200000524520874,-10.539275708007812,2.492363928222656,2.528276953125,-20.061068702290076,20.85496183206107,-11.32824427480916,-7.7787611938476555,2.152387292480469,0.7948749511718749,8.610687022900763,-33.282442748091604,-9.114503816793894,1.0
10.21000051498413,-10.160991845703125,2.906560815429687,1.2378022583007813,-39.725190839694655,7.099236641221374,-11.114503816793894,-10.500968481445312,-0.4165910888671875,1.9488801513671874,15.740458015267176,-31.480916030534353,-3.4198473282442747,0.0
10.220000505447388,-11.781866369628906,4.690241052246093,1.93451494140625,-47.45038167938932,1.0534351145038168,-7.32824427480916,-10.084377392578125,1.1444283935546875,1.209071838378906,25.068702290076335,-40.25954198473283,-5.66412213740458,0.0
10.230000257492065,-10.050858569335936,2.5474305664062498,0.8188169677734375,-55.80152671755725,-5.908396946564886,-0.6259541984732825,-8.295908752441406,2.9927520751953125,1.1109095703125,13.587786259541986,-39.63358778625954,-9.251908396946565,0.0
10.240000247955322,-9.866505041503906,1.4437036010742186,1.0821791503906248,-46.12213740458015,-2.519083969465649,5.847328244274809,-9.94072529296875,1.1851298217773436,1.2737152832031249,1.5877862595419847,-34.50381679389313,-3.954198473282443,0.0
10.250000476837158,-8.992621435546875,0.03591302490234375,0.6488286499023437,-39.48091603053435,-2.2748091603053435,5.816793893129771,-10.831368310546875,0.16041151123046873,1.8938135131835936,14.763358778625955,-39.89312977099237,-3.6793893129770994,0.0
10.260000944137573,-7.903259680175781,-0.82360537109375,-0.2537853759765625,-21.083969465648856,1.5114503816793894,3.5114503816793894,-8.602366564941406,2.427720483398437,0.7924807495117187,14.916030534351146,-46.79389312977099,-8.198473282442748,0.0
10.270000696182251,-8.070853796386718,-0.7685387329101562,-0.42377369384765623,-11.664122137404581,5.236641221374046,-0.366412213740458,-9.543287817382812,0.5219359619140624,1.8004396484374998,5.9541984732824424,-41.41984732824427,-4.427480916030534,0.0
10.280000925064087,-8.066065393066406,-0.2753331909179687,0.14604630126953125,-6.137404580152672,11.664122137404581,-5.175572519083969,-11.0707884765625,-0.2753331909179687,2.128445275878906,16.99236641221374,-45.083969465648856,-4.213740458015267,0.0
10.290000915527344,-8.712499841308594,0.27293898925781246,0.16998831787109375,6.793893129770993,16.977099236641223,-6.106870229007634,-8.719682446289061,2.2481553588867187,1.0678139404296874,18.061068702290076,-50.458015267175576,-10.030534351145038,0.0
10.3000009059906,-10.424354028320312,3.1387983764648437,2.224213342285156,3.8931297709923665,20.65648854961832,-10.244274809160306,-9.26316622314453,0.8547299926757812,1.678335363769531,5.862595419847328,-44.0763358778626,-7.282442748091603,0.0
10.3100004196167,-12.279860314941406,5.051765502929687,2.1978771240234374,-11.114503816793894,12.80916030534351,-9.83206106870229,-10.647014782714843,-0.24181436767578124,2.128445275878906,11.679389312977099,-47.969465648854964,-7.923664122137405,0.0
10.320000648498535,-10.749965454101561,3.725377783203125,0.70868369140625,-18.85496183206107,9.801526717557252,-3.480916030534351,-9.871293444824218,1.944091748046875,1.1731588134765625,12.13740458015267,-51.38931297709924,-12.15267175572519,0.0
10.330000638961792,-9.354145886230468,1.4891934326171874,0.2346317626953125,-18.99236641221374,10.335877862595419,1.83206106870229,-8.453926062011718,2.6312276245117188,0.9888052856445312,-0.8396946564885496,-47.6793893129771,-12.549618320610687,0.0
10.340000629425049,-9.267954626464844,1.2617442749023438,0.30885201416015623,-19.740458015267176,12.198473282442748,0.061068702290076333,-9.667786303710937,0.9074024291992187,1.3838485595703125,-3.5572519083969465,-43.86259541984733,-8.351145038167939,0.0
10.350000619888306,-8.872911352539061,0.5267243652343749,-0.26336218261718747,-21.66412213740458,11.877862595419847,-3.145038167938931,-10.536881506347656,-0.46686932373046874,1.656787548828125,10.274809160305344,-44.33587786259542,-9.908396946564885,0.0
10.360000610351562,-8.777143286132812,-1.0223241088867188,-0.06703764648437499,-0.9312977099236641,22.50381679389313,-5.572519083969466,-8.808267907714843,1.4532804077148436,0.93852705078125,16.137404580152673,-51.32824427480916,-14.274809160305344,0.0
10.370001077651978,-10.237606298828124,-0.24181436767578124,0.6272808349609375,6.732824427480916,27.31297709923664,-11.236641221374045,-8.33182177734375,2.4013842651367185,1.0702081420898437,6.122137404580153,-42.97709923664122,-13.221374045801527,0.0
10.380000591278076,-8.870517150878905,0.30406361083984373,0.3184288208007812,6.137404580152672,27.083969465648856,-15.374045801526718,-10.467449658203124,0.9600748657226562,1.0510545288085937,0.4732824427480916,-36.229007633587784,-12.977099236641221,0.0
10.390000820159912,-9.732429748535155,0.8212111694335937,0.6560112548828124,10.442748091603054,27.84732824427481,-15.908396946564885,-11.247959399414063,0.507570751953125,1.6807295654296874,7.419847328244275,-29.46564885496183,-14.305343511450381,0.0
10.40000033378601,-10.01733974609375,1.0941501586914062,0.6536170532226562,13.877862595419847,29.17557251908397,-16.85496183206107,-10.764330664062498,0.14604630126953125,1.5490484741210937,16.793893129770993,-31.297709923664122,-17.374045801526716,0.0
10.410000801086426,-10.568006127929687,1.889025109863281,1.1635820068359375,16.16793893129771,29.709923664122137,-18.3206106870229,-8.609549169921875,1.8076222534179687,0.8930372192382812,19.404580152671755,-36.67175572519084,-22.091603053435115,0.0
10.420000553131104,-12.07874737548828,3.976768957519531,2.3056161987304686,9.007633587786259,27.46564885496183,-19.69465648854962,-7.331045483398437,3.3446997192382812,0.7326257080078125,5.648854961832061,-28.748091603053435,-20.045801526717558,0.0
10.43000078201294,-10.551246716308594,4.223371728515625,0.7302315063476562,-9.114503816793894,14.885496183206106,-14.396946564885496,-7.781155395507812,3.287238879394531,1.0390835205078124,-13.923664122137405,-14.213740458015268,-17.114503816793892,0.0
10.440000295639038,-10.414777221679687,3.737348791503906,0.9600748657226562,-18.763358778625953,11.954198473282442,-9.816793893129772,-7.548917834472656,2.5043349365234375,0.05985504150390625,-12.977099236641221,-16.076335877862597,-16.748091603053435,0.0
10.450000286102295,-8.40843623046875,0.07422025146484375,-0.21787235107421873,-5.083969465648855,12.580152671755725,-3.435114503816794,-9.591171850585937,0.6057330200195312,1.6831237670898436,-6.641221374045801,-9.648854961832061,-11.129770992366412,0.0
10.46000051498413,-8.180987072753906,-0.8714894042968749,-0.5027823486328125,-0.366412213740458,13.221374045801527,-5.648854961832061,-8.281543542480469,1.0797849487304687,1.6160861206054686,-0.5038167938931297,-9.099236641221374,-11.206106870229007,0.0
10.470000505447388,-10.022128149414062,0.718260498046875,0.4955997436523437,2.595419847328244,17.236641221374047,-11.740458015267176,-8.283937744140625,0.8571241943359375,1.6136919189453125,3.114503816793893,-9.618320610687023,-9.603053435114504,0.0
10.480000495910645,-9.169792358398437,-0.0143652099609375,-0.086191259765625,5.969465648854962,18.916030534351144,-14.274809160305344,-8.427589843749999,1.2641384765625,1.3000515014648437,8.01526717557252,-8.977099236641221,-8.564885496183207,0.0
10.490000486373901,-8.40125362548828,0.12449848632812499,-0.45010991210937495,9.267175572519085,20.549618320610687,-15.34351145038168,-8.894459167480468,1.62805712890625,1.2306196533203124,8.198473282442748,-6.549618320610687,-7.4961832061068705,0.0
10.500000476837158,-8.813056311035156,0.9409212524414062,-0.4572925170898437,7.022900763358779,20.595419847328245,-16.33587786259542,-8.382100012207031,2.3391350219726563,0.8116343627929687,3.5572519083969465,-5.816793893129771,-7.480916030534351,0.0
10.510000705718994,-9.694122521972655,2.1691467041015624,-0.2561795776367187,-6.412213740458015,16.412213740458014,-17.206106870229007,-9.789890588378906,1.8124106567382812,1.3215993164062498,0.9923664122137404,-3.5877862595419847,-6.183206106870229,0.0
10.52000093460083,-10.151415039062499,2.104503259277344,0.17956512451171874,-1.2366412213740459,21.541984732824428,-15.83206106870229,-9.804255798339844,1.649604943847656,1.8004396484374998,-4.900763358778626,-0.8396946564885496,-6.488549618320611,0.0
10.530000686645508,-9.689334118652344,2.1164742675781247,0.2442085693359375,-16.85496183206107,18.0,-17.267175572519083,-9.227253198242186,1.9728221679687499,1.5682020874023437,-5.3893129770992365,-4.442748091603053,-8.045801526717558,0.0
10.540000915527344,-9.81862100830078,1.7836802368164062,0.08379705810546874,-18.38167938931298,18.213740458015266,-17.14503816793893,-9.011775048828124,2.310404602050781,1.2808978881835937,-11.32824427480916,-4.99236641221374,-8.045801526717558,0.0
10.550000667572021,-9.466673364257812,1.7621324218749999,-0.10773907470703124,-18.595419847328245,19.984732824427482,-16.564885496183205,-9.713276135253906,1.43652099609375,2.0374656127929685,-17.709923664122137,-2.122137404580153,-6.641221374045801,0.0
10.560000658035278,-9.325415466308593,0.9457096557617187,-0.3711012573242187,-19.053435114503817,20.916030534351144,-16.82442748091603,-9.423577734375,1.1252747802734375,2.6048914062499997,-20.47328244274809,-0.030534351145038167,-6.778625954198473,0.0
10.570000410079956,-9.512163195800781,0.5027823486328125,-0.1149216796875,-9.664122137404581,25.893129770992367,-16.900763358778626,-9.241618408203124,0.86191259765625,2.7246014892578123,-20.229007633587788,-0.48854961832061067,-7.099236641221374,0.0
10.580000638961792,-8.695740429687499,0.6344634399414062,-0.00718260498046875,-8.702290076335878,30.870229007633586,-21.633587786259543,-9.409212524414063,0.5410895751953124,2.901772412109375,-18.213740458015266,-0.4732824427480916,-6.900763358778626,0.0
10.590000629425049,-8.698134631347656,1.5849614990234373,-0.689530078125,-12.061068702290076,27.786259541984734,-23.129770992366414,-9.528922607421874,0.5722141967773438,2.825157958984375,-16.244274809160306,-1.5114503816793894,-7.404580152671755,0.0
10.600000619888306,-10.845733520507812,1.9393033447265624,0.34237083740234375,-15.908396946564885,29.786259541984734,-22.80916030534351,-9.392453112792968,0.6751648681640625,2.549824768066406,-17.099236641221374,-1.2366412213740459,-8.67175572519084,0.0
10.610000371932983,-10.510545288085936,1.0175357055664063,0.6560112548828124,-11.572519083969466,33.20610687022901,-21.17557251908397,-9.198522778320312,0.3495534423828125,2.2768857788085937,-16.48854961832061,-0.7633587786259542,-9.374045801526718,0.0
10.62000060081482,-9.734823950195311,0.8954314208984374,0.4333505004882812,-9.84732824427481,33.83206106870229,-23.69465648854962,-8.769960681152343,0.06943184814453125,1.956062756347656,-15.679389312977099,1.2671755725190839,-11.007633587786259,0.0
10.630000591278076,-9.605537060546874,0.6727706665039062,0.7493851196289062,-11.49618320610687,31.389312977099237,-27.709923664122137,-8.832209924316405,-0.38307226562499996,1.7812860351562498,-11.664122137404581,1.9083969465648856,-12.274809160305344,0.0
10.640000581741333,-9.406818322753905,1.7693150268554687,0.9433154541015625,-11.709923664122137,29.251908396946565,-29.709923664122137,-8.008604553222655,-0.062249243164062495,1.216254443359375,-12.045801526717558,2.351145038167939,-15.068702290076336,0.0
10.650000810623169,-11.908759057617187,2.166752502441406,2.882618798828125,-17.66412213740458,26.9618320610687,-31.52671755725191,-9.842563024902343,-0.8499415893554687,1.697488977050781,-5.083969465648855,4.0458015267175576,-15.587786259541986,0.0
10.660000562667847,-12.389993591308594,2.4157494750976563,3.5434184570312497,-13.709923664122137,22.290076335877863,-31.099236641221374,-8.003816149902343,0.8786720092773437,1.5777788940429687,-6.580152671755725,6.152671755725191,-17.938931297709924,0.0
10.670000791549683,-10.187328063964843,-0.4429273071289062,2.770091320800781,-12.412213740458014,13.358778625954198,-29.267175572519083,-9.299079248046874,0.17477672119140625,1.8698714965820311,-4.473282442748092,8.641221374045802,-17.14503816793893,0.0
10.68000054359436,-10.656591589355468,0.3591302490234375,3.768473413085937,4.717557251908397,12.198473282442748,-31.129770992366414,-6.842628344726562,2.925714428710937,0.19632453613281248,-8.870229007633588,8.549618320610687,-20.50381679389313,0.0
10.690000772476196,-10.012551342773437,0.16519991455078123,3.0502129150390624,6.625954198473282,4.534351145038168,-33.19083969465649,-8.391676818847655,1.197100830078125,0.8690952026367187,-13.267175572519085,16.564885496183205,-14.946564885496183,0.0
10.700000286102295,-9.710881933593749,1.7310078002929687,3.19865341796875,17.755725190839694,0.8854961832061069,-31.51145038167939,-9.548076220703125,-1.4101847778320311,2.250549560546875,-1.8473282442748091,24.885496183206108,-11.98473282442748,0.0
10.710000276565552,-9.689334118652344,2.5713725830078125,3.124433166503906,24.061068702290076,-3.145038167938931,-29.068702290076335,-5.755660791015624,1.2497732666015624,-0.49320554199218747,10.900763358778626,15.938931297709924,-17.69465648854962,0.0
10.720000505447388,-10.081983190917969,3.8379052612304685,3.1268273681640624,26.15267175572519,-8.16793893129771,-25.6793893129771,-7.1035963256835934,2.839523168945312,0.062249243164062495,2.6106870229007635,28.12213740458015,-14.213740458015268,0.0
10.730000495910645,-10.649408984374999,4.967968444824218,3.9839515624999997,21.72519083969466,-13.267175572519085,-23.114503816793892,-6.995857250976562,3.67749375,0.04548983154296875,-28.50381679389313,45.29770992366412,-17.16030534351145,0.0
10.740000486373901,-11.724405529785155,5.111620544433594,4.987122058105468,13.48091603053435,-21.862595419847327,-17.87786259541985,-6.323086584472656,4.010287780761718,-1.6543933471679686,-57.083969465648856,63.541984732824424,-15.083969465648854,0.0
10.750000476837158,-11.212046374511718,4.376600634765625,5.834669445800781,13.83206106870229,-31.923664122137403,-11.664122137404581,-6.505045910644531,3.2154128295898436,-2.6096798095703124,-53.099236641221374,73.05343511450381,-8.870229007633588,0.0
10.760000944137573,-11.487379565429686,3.21780703125,5.877765075683594,20.83969465648855,-42.229007633587784,-5.4961832061068705,-10.211270080566406,-0.4572925170898437,0.4477157104492187,-34.47328244274809,84.74809160305344,2.5801526717557253,0.0
10.770000457763672,-11.204863769531249,1.2737152832031249,6.406883642578125,34.36641221374046,-51.9236641221374,0.030534351145038167,-7.668627917480468,2.9568390502929685,-0.32561142578124996,-13.740458015267176,79.45038167938931,3.312977099236641,0.0
10.780000925064087,-13.73314072265625,2.5234885498046875,7.979874133300781,34.25954198473283,-64.74809160305344,4.030534351145038,-11.267113012695312,-0.6607996582031249,3.4356793823242184,-5.450381679389313,76.0,9.633587786259541,0.0
10.790000677108765,-13.939042065429687,2.5378537597656248,8.075642199707032,32.25954198473283,-83.22137404580153,6.687022900763359,-7.8553756469726554,2.3247698120117186,0.4333505004882812,-25.66412213740458,69.89312977099236,-0.061068702290076333,0.0
10.8000009059906,-14.844050292968749,2.9927520751953125,8.020575561523437,31.66412213740458,-103.87786259541984,19.557251908396946,-11.77228956298828,-1.1180921752929687,3.859453076171875,-46.88549618320611,77.90839694656489,3.2519083969465647,0.0
10.810000658035278,-16.61815372314453,2.693476867675781,9.248801013183593,23.221374045801525,-125.14503816793894,26.732824427480917,-14.101847778320312,-1.3144167114257812,5.310339282226562,-49.603053435114504,69.5114503816794,5.374045801526718,0.0
10.820000648498535,-17.693150268554685,0.22026655273437498,11.219228979492186,31.236641221374047,-148.74809160305344,39.81679389312977,-12.86404552001953,0.9983820922851562,2.0159177978515626,-41.55725190839695,45.23664122137404,3.801526717557252,0.0
10.830000877380371,-20.1879083984375,-1.1276689819335937,12.770671655273437,46.47328244274809,-170.38167938931298,49.70992366412214,-12.9861498046875,-0.2442085693359375,1.5179238525390624,-74.50381679389314,57.587786259541986,2.549618320610687,0.0
10.840000629425049,-21.61724678955078,-1.7453730102539062,13.670891479492187,46.6412213740458,-200.12213740458014,52.76335877862596,-13.141772912597656,-5.370194323730469,1.838746875,-42.396946564885496,44.51908396946565,9.114503816793894,0.0
10.850000381469727,-21.128829650878906,-1.6017209106445311,8.497021691894531,29.022900763358777,-220.6259541984733,49.43511450381679,-10.919953771972656,-6.260837341308593,-0.842758984375,-17.00763358778626,30.442748091603054,7.938931297709924,0.0
10.860000371932983,-19.28050596923828,-4.503493322753906,6.078878015136718,25.282442748091604,-235.22137404580153,51.465648854961835,-7.043741284179687,-4.522646936035156,-2.710236279296875,7.969465648854962,23.96946564885496,1.2061068702290076,0.0
10.87000036239624,-15.842432385253906,-5.968744738769531,0.7206546997070312,27.282442748091604,-235.61832061068702,53.63358778625954,-6.294356164550781,-2.300827795410156,-3.4093431640625,-7.572519083969466,34.44274809160305,-8.366412213740459,0.0
10.880000352859497,-12.85207451171875,-8.257601525878906,-4.560954162597656,22.717557251908396,-231.87786259541986,50.85496183206107,-4.299986181640625,-0.19632453613281248,-3.845087866210937,-22.641221374045802,37.9236641221374,-14.396946564885496,0.0
10.890000343322754,-10.158597644042969,-9.619902270507811,-3.9647979492187497,32.213740458015266,-215.45038167938932,43.49618320610687,-7.184999182128906,-1.0941501586914062,-1.927332336425781,-31.358778625954198,48.74809160305343,-13.17557251908397,0.0
10.90000057220459,-8.312668164062499,-8.176198669433592,-4.618415002441406,46.19847328244275,-198.4732824427481,28.53435114503817,-10.532093103027343,-1.9919757812499999,-0.2609679809570312,-39.87786259541985,60.54961832061068,-10.961832061068701,0.0
10.910000801086426,-8.125920434570313,-3.840299462890625,-6.6702458251953125,61.45038167938932,-174.44274809160305,21.435114503816795,-13.68765089111328,-5.442020373535156,1.9871873779296874,-8.564885496183207,52.2442748091603,-4.656488549618321,0.0
10.920000553131104,-6.880935571289062,-2.300827795410156,-5.312733483886719,63.55725190839695,-152.03053435114504,17.17557251908397,-12.777854260253905,-2.923320227050781,0.30885201416015623,23.633587786259543,36.35114503816794,0.5801526717557252,0.0
10.93000078201294,-7.426813549804687,-1.5610194824218748,-1.9943699829101562,67.05343511450381,-129.9236641221374,13.038167938931299,-13.048399047851563,-0.8547299926757812,-0.4740519287109375,23.801526717557252,36.2442748091603,4.687022900763359,0.0
10.940000534057617,-7.8721350585937495,-2.31758720703125,0.44053310546874996,66.36641221374046,-118.10687022900764,9.022900763358779,-14.020444921874999,-1.6903063720703124,1.0845733520507812,51.786259541984734,28.244274809160306,14.961832061068701,0.0
10.950000524520874,-7.551312036132812,-2.446874096679687,1.3910311645507811,76.50381679389314,-109.32824427480917,7.4961832061068705,-12.203245861816406,-0.7852981445312499,0.59376201171875,61.221374045801525,22.244274809160306,20.549618320610687,0.0
10.96000051498413,-8.228871105957031,-0.9193734375,1.216254443359375,79.12977099236642,-103.38931297709924,6.519083969465649,-9.200916979980468,2.224213342285156,-0.612915625,56.3206106870229,21.419847328244273,19.81679389312977,0.0
10.970000505447388,-8.796296899414061,1.5059528442382812,1.8004396484374998,67.57251908396947,-102.0,5.877862595419847,-5.908889697265625,4.668693237304687,-2.5258827514648434,17.129770992366414,29.64885496183206,16.732824427480917,0.0
10.980000257492065,-8.37012900390625,2.9759926635742184,1.3646949462890625,47.404580152671755,-104.6412213740458,9.267175572519085,-9.79946739501953,1.0390835205078124,-0.2059013427734375,-6.778625954198473,43.16030534351145,21.87786259541985,0.0
10.990000486373901,-7.800309008789062,3.1028853515624997,1.6256629272460936,25.709923664122137,-99.86259541984732,14.15267175572519,-11.214440576171874,0.086191259765625,0.1484405029296875,3.6946564885496183,36.656488549618324,30.045801526717558,0.0
11.000000476837158,-7.022193469238281,2.473210314941406,1.3168109130859373,7.801526717557252,-99.22137404580153,15.633587786259541,-10.848127722167968,-1.6735469604492186,-0.6368576416015624,-3.801526717557252,42.94656488549618,28.793893129770993,0.0
11.010000467300415,-6.801926916503906,2.3535002319335936,2.300827795410156,0.9465648854961832,-90.53435114503817,19.6793893129771,-10.886434948730468,-2.7174188842773437,0.296881005859375,-1.282442748091603,44.091603053435115,27.954198473282442,0.0
11.02000093460083,-5.913678100585937,1.407790576171875,1.1851298217773436,-3.0076335877862594,-83.43511450381679,21.87786259541985,-10.594342346191405,-6.842628344726562,1.6543933471679686,23.49618320610687,36.44274809160305,28.732824427480917,0.0
11.030000448226929,-4.819527941894531,1.13006318359375,0.8930372192382812,2.4122137404580153,-67.89312977099236,25.206106870229007,-10.225635290527343,-5.724536169433593,1.5442600708007812,52.70229007633588,28.641221374045802,29.435114503816795,0.0
11.040000677108765,-4.276044165039062,1.1228805786132812,2.1021090576171875,3.6793893129770994,-57.52671755725191,25.053435114503817,-9.428366137695312,-2.224213342285156,-0.3232172241210937,59.86259541984733,21.053435114503817,24.519083969465647,0.0
11.050000667572021,-3.785232824707031,0.8738836059570312,3.2824504760742186,7.068702290076335,-44.396946564885496,23.221374045801525,-9.265560424804686,-1.5921441040039062,-0.7110778930664062,44.70229007633588,20.916030534351144,19.0381679389313,0.0
11.060000658035278,-4.106055847167968,1.1827356201171875,4.7955859252929685,1.4351145038167938,-34.54961832061068,18.458015267175572,-11.757924353027343,-2.1691467041015624,1.7477672119140624,45.66412213740458,22.50381679389313,19.297709923664122,0.0
11.070000648498535,-2.365471240234375,0.6344634399414062,3.9504327392578125,0.7633587786259542,-30.793893129770993,20.12213740458015,-11.413159313964844,-1.369483349609375,1.2378022583007813,34.56488549618321,21.236641221374047,17.64885496183206,0.0
11.080000638961792,-3.842693664550781,2.042254016113281,5.6191912963867185,-1.6488549618320612,-21.954198473282442,20.85496183206107,-10.558429321289061,-1.4413093994140624,1.0773907470703123,32.19847328244275,18.18320610687023,16.900763358778626,0.0
11.090000629425049,-4.903325,3.593696691894531,7.0269818725585935,-3.572519083969466,-14.83969465648855,23.221374045801525,-11.494562170410155,-1.5298948608398437,1.7669208251953124,31.17557251908397,14.15267175572519,17.358778625954198,0.0
11.100000619888306,-5.786785412597656,4.4196962646484375,7.364564306640625,-26.18320610687023,-23.61832061068702,23.419847328244273,-12.00213292236328,-0.8475473876953125,2.384624853515625,29.022900763358777,8.82442748091603,16.015267175572518,0.0
11.110000610351562,-4.3454760131835934,2.616862414550781,6.6702458251953125,-39.267175572519086,-27.61832061068702,28.931297709923665,-10.551246716308594,-0.8834604125976562,1.5921441040039062,16.916030534351144,8.778625954198473,14.854961832061068,0.0
11.12000060081482,-4.295197778320312,1.8411410766601561,6.58884296875,-40.396946564885496,-25.633587786259543,30.9618320610687,-9.49300958251953,-0.33518823242187495,0.9552864624023437,9.435114503816793,7.557251908396947,12.320610687022901,0.0
11.130000352859497,-6.272808349609375,1.7429788085937499,7.50821640625,-39.038167938931295,-22.671755725190838,32.83969465648855,-9.93354268798828,-0.5315127685546874,0.17956512451171874,7.312977099236641,6.8396946564885495,11.83206106870229,0.0
11.140000581741333,-4.726154077148437,0.93852705078125,6.6510922119140625,-34.0763358778626,-23.587786259541986,35.6793893129771,-10.503362683105468,-1.4820108276367188,0.5434837768554687,7.511450381679389,7.32824427480916,13.053435114503817,0.0
11.150000810623169,-5.9376201171875,0.6943184814453125,6.639121203613281,-27.51145038167939,-16.35114503816794,38.61068702290076,-9.066841687011719,-0.8643067993164062,0.14125789794921875,9.84732824427481,6.0,14.564885496183207,0.0
11.160000562667847,-3.4069489624023435,-0.40940848388671874,2.4516625,-18.717557251908396,-7.312977099236641,41.603053435114504,-11.475408557128906,-2.7557261108398436,0.9600748657226562,24.778625954198475,4.885496183206107,19.587786259541986,0.0
11.170000791549683,-1.3862427612304686,-0.8906430175781249,-2.4516625,-14.183206106870228,15.84732824427481,36.94656488549618,-10.884040747070312,-0.1149216796875,-0.7948749511718749,41.81679389312977,-1.6946564885496183,21.328244274809162,0.0
11.18000054359436,0.30406361083984373,-4.979939453125,-5.91846650390625,-30.564885496183205,35.908396946564885,26.595419847328245,-8.779537487792968,3.3159692993164063,-4.42448466796875,4.656488549618321,3.1908396946564888,12.412213740458014,0.0
11.190000772476196,-1.9800047729492187,-7.960720520019531,1.7238251953125,-27.6793893129771,61.14503816793893,16.549618320610687,-12.998120812988281,0.6679822631835937,-0.12210428466796874,-4.396946564885496,19.419847328244273,21.389312977099237,0.0
11.200000524520874,-5.5545478515625,-6.4643444824218745,11.410765112304686,43.9236641221374,75.78625954198473,14.198473282442748,-13.680468286132811,1.0342951171875,0.1867477294921875,3.7709923664122136,19.358778625954198,28.12213740458015,0.0
11.21000051498413,-5.408501550292969,-0.7038952880859375,6.064512805175781,104.03053435114504,89.43511450381679,11.16030534351145,-13.160926525878905,0.21787235107421873,-0.10295067138671875,-3.267175572519084,13.526717557251908,28.18320610687023,0.0
11.220000505447388,-14.39633458251953,7.242460021972656,8.923189587402343,84.62595419847328,88.67175572519083,-1.5877862595419847,-13.998897106933592,-0.20829554443359374,0.6512228515624999,0.4122137404580153,12.717557251908397,28.12213740458015,0.0
11.230000495910645,-13.218387365722656,6.457161877441406,4.465186096191406,56.13740458015267,71.45038167938931,8.396946564885496,-13.804966772460936,-0.9145850341796874,0.8810662109374999,-1.618320610687023,7.938931297709924,27.938931297709924,0.0
11.240000486373901,-10.330980163574218,4.328716601562499,-0.0526724365234375,24.38167938931298,74.85496183206106,11.099236641221374,-12.921506359863281,-0.40462008056640625,2.176329309082031,-13.83206106870229,5.694656488549619,20.68702290076336,0.0
11.250000476837158,-11.465831750488281,4.264073156738281,2.767697119140625,8.213740458015268,79.40458015267176,7.465648854961832,-13.09388887939453,0.11252747802734374,1.8914193115234375,-4.809160305343512,-3.3740458015267176,15.709923664122137,0.0
11.260000467300415,-9.119514123535156,2.2864625854492187,1.1444283935546875,-1.9083969465648856,77.40458015267176,7.984732824427481,-14.161702819824217,1.0845733520507812,1.62805712890625,-0.9007633587786259,-8.106870229007633,14.564885496183207,0.0
11.270000696182251,-9.70369932861328,2.04943662109375,1.429338391113281,-4.076335877862595,83.6030534351145,6.641221374045801,-13.919888452148436,2.8419173706054686,-0.1484405029296875,-12.870229007633588,-9.48091603053435,11.053435114503817,0.0
11.280000686645508,-6.098031628417968,-2.3965958618164063,-1.2593500732421874,10.15267175572519,89.06870229007633,8.870229007633588,-14.77940684814453,3.3782185424804685,-0.0430956298828125,-11.541984732824428,-12.717557251908397,13.282442748091603,0.0
11.290000438690186,-7.536946826171874,-4.031835595703125,-0.09576806640624999,40.18320610687023,107.87786259541984,2.1374045801526718,-14.085088366699217,3.4668040039062498,-0.7422025146484375,-25.267175572519083,-15.801526717557252,15.98473282442748,0.0
11.300000667572021,-9.275137231445312,-0.08379705810546874,0.7876923461914062,51.45038167938932,114.9618320610687,-8.183206106870228,-14.051569543457031,3.418919970703125,-0.21308394775390624,-23.114503816793892,-15.740458015267176,19.297709923664122,0.0
11.310000658035278,-12.188880651855468,3.7804444213867185,2.3367408203125,49.98473282442748,122.25954198473282,-13.786259541984732,-13.227964172363281,2.8754361938476563,-0.06943184814453125,-25.022900763358777,-19.14503816793893,20.03053435114504,0.0
11.320000648498535,-8.889670764160156,1.1085153686523437,0.28730419921875,41.17557251908397,122.45801526717557,-13.053435114503817,-11.820173596191406,2.789244934082031,-0.354341845703125,-23.770992366412212,-23.099236641221374,18.33587786259542,0.0
11.330000638961792,-10.924742175292968,1.5083470458984374,1.905784521484375,45.61832061068702,130.65648854961833,-17.251908396946565,-10.364498986816406,1.37906015625,0.5626373901367188,-26.366412213740457,-22.931297709923665,17.61832061068702,0.0
11.340000629425049,-9.854534033203125,2.023100402832031,1.4628572143554686,32.152671755725194,123.80152671755725,-22.30534351145038,-8.346186987304687,2.3415292236328122,-0.32082302246093747,-22.38167938931298,-27.450381679389313,15.251908396946565,0.0
11.350000381469727,-12.950236779785156,3.4715924072265625,3.19865341796875,13.664122137404581,115.80152671755725,-24.580152671755727,-8.973467822265624,1.1276689819335937,-0.7398083129882812,-23.52671755725191,-34.82442748091603,13.099236641221374,0.0
11.360000610351562,-9.945513696289062,1.1228805786132812,2.9664158569335934,-3.2213740458015265,101.90839694656489,-23.603053435114504,-10.697293017578124,-1.4604630126953124,1.7166425903320313,-21.389312977099237,-33.06870229007634,12.65648854961832,0.0
11.37000036239624,-8.975862023925782,-1.0726023437499999,2.9496564453125,5.557251908396947,102.03053435114504,-26.244274809160306,-9.399635717773437,-2.2936451904296873,1.4891934326171874,-8.0,-45.099236641221374,5.770992366412214,0.0
11.380000352859497,-9.119514123535156,0.488417138671875,2.990357873535156,3.2519083969465647,93.22137404580153,-32.67175572519084,-10.663774194335938,-1.656787548828125,2.5043349365234375,5.099236641221374,-52.50381679389313,-2.564885496183206,0.0
11.390000343322754,-9.591171850585937,2.1643583007812497,2.327164013671875,3.66412213740458,88.35114503816794,-33.969465648854964,-8.683769421386717,0.9720458740234375,0.1771709228515625,2.717557251908397,-62.19847328244275,-12.274809160305344,0.0
11.40000057220459,-10.04846436767578,4.6064439941406246,2.4947581298828125,-10.778625954198473,80.59541984732824,-35.20610687022901,-8.166621862792969,2.2385785522460937,-0.4572925170898437,-25.251908396946565,-54.68702290076336,-18.0,0.0
11.410000801086426,-10.678139404296875,3.9719805541992184,1.350329736328125,-21.022900763358777,78.2442748091603,-31.96946564885496,-8.104372619628906,0.5530605834960938,-1.235408056640625,-8.702290076335878,-57.908396946564885,-12.65648854961832,0.0
11.420000314712524,-11.592724438476562,5.228936425781249,2.655169641113281,-30.580152671755727,75.6793893129771,-31.49618320610687,-8.346186987304687,0.6871358764648438,-2.5617957763671875,-6.824427480916031,-57.52671755725191,-16.442748091603054,0.0
11.43000054359436,-9.33978067626953,2.89219560546875,0.9696516723632812,-42.732824427480914,67.0381679389313,-24.946564885496183,-7.505822204589843,2.3870190551757813,-3.31357509765625,-23.31297709923664,-48.778625954198475,-21.114503816793892,0.0
11.440000295639038,-9.682151513671874,2.825157958984375,1.8315642700195311,-37.52671755725191,70.22900763358778,-20.12213740458015,-8.489839086914062,-0.10295067138671875,-1.7932570434570312,-13.816793893129772,-38.97709923664122,-14.106870229007633,0.0
11.450000286102295,-9.356540087890625,1.4101847778320311,1.8100164550781248,-40.74809160305343,66.33587786259542,-18.946564885496183,-9.179369165039063,-0.7278373046875,-0.30885201416015623,14.931297709923664,-43.16030534351145,-10.549618320610687,0.0
11.46000051498413,-10.211270080566406,2.020706201171875,3.303998291015625,-31.755725190839694,66.87022900763358,-16.38167938931298,-7.826645227050781,2.094926452636719,-0.9983820922851562,11.541984732824428,-45.847328244274806,-14.83969465648855,0.0
11.470000505447388,-10.350133776855468,1.6424223388671875,3.7325603881835936,-40.01526717557252,57.61832061068702,-14.488549618320612,-6.117185241699218,5.722141967773437,-1.3479355346679687,-7.7251908396946565,-35.00763358778626,-16.38167938931298,0.0
11.480000495910645,-10.141838232421874,2.233790148925781,3.392583752441406,-49.603053435114504,46.51908396946565,-14.335877862595419,-5.91846650390625,3.9624037475585934,-2.300827795410156,-20.793893129770993,-27.69465648854962,-10.595419847328245,0.0
11.490000486373901,-10.340556970214843,1.1037269653320312,3.2130186279296873,-56.06106870229008,42.778625954198475,-16.35114503816794,-7.924807495117187,1.8914193115234375,-0.6200982299804687,-20.061068702290076,-22.244274809160306,-8.335877862595419,0.0
11.500000238418579,-11.79144317626953,0.28730419921875,5.121197351074218,-42.16793893129771,44.0,-16.870229007633586,-9.196128576660156,0.9744400756835937,-0.5386953735351562,-12.427480916030534,-27.587786259541986,-8.106870229007633,0.0
11.510000705718994,-9.643844287109374,-1.458068811035156,2.8610709838867185,-25.435114503816795,41.89312977099237,-16.946564885496183,-8.628702783203124,1.2737152832031249,0.0383072265625,-0.44274809160305345,-30.946564885496183,-10.122137404580153,0.0
11.52000093460083,-11.382034692382812,2.786850732421875,3.1555577880859373,-22.091603053435115,36.534351145038165,-21.00763358778626,-9.524134204101562,3.4548329956054684,-0.6751648681640625,-9.34351145038168,-30.244274809160306,-12.549618320610687,0.0
11.530000686645508,-9.68454571533203,2.5737667846679684,2.3343466186523436,-22.916030534351144,31.709923664122137,-19.450381679389313,-8.207323291015625,2.81558115234375,-0.699106884765625,-24.99236641221374,-26.12213740458015,-10.320610687022901,0.0
11.540000915527344,-12.46181964111328,5.906495495605468,3.9264907226562498,-37.86259541984733,26.198473282442748,-20.99236641221374,-9.907206469726562,1.2593500732421874,0.6607996582031249,-13.297709923664122,-22.641221374045802,-4.152671755725191,0.0
11.550000667572021,-10.105925207519531,2.4253262817382812,0.7422025146484375,-41.083969465648856,24.80916030534351,-15.053435114503817,-9.816226806640625,1.1827356201171875,0.6967126831054687,4.152671755725191,-32.54961832061068,-2.122137404580153,0.0
11.560000658035278,-9.97184991455078,2.398990063476562,1.7022773803710936,-31.46564885496183,26.595419847328245,-9.740458015267176,-7.637503295898437,3.1579519897460937,-0.2442085693359375,-9.908396946564885,-33.02290076335878,-8.106870229007633,0.0
11.570000648498535,-8.978256225585938,1.8411410766601561,1.6041151123046875,-23.129770992366414,33.221374045801525,-9.419847328244275,-8.738836059570312,1.22583125,0.74699091796875,-16.27480916030534,-24.47328244274809,-3.114503816793893,0.0
11.580000638961792,-11.319785449218749,5.753266589355468,3.4548329956054684,-37.7557251908397,27.221374045801525,-12.351145038167939,-9.636661682128906,-1.2234370483398436,1.3766659545898436,-0.21374045801526717,-29.17557251908397,0.9618320610687023,0.0
11.590000629425049,-10.395623608398436,4.970362646484375,1.2593500732421874,-64.8854961832061,13.541984732824428,-8.82442748091603,-9.018957653808593,1.1180921752929687,0.622492431640625,7.206106870229007,-34.80916030534351,-3.267175572519084,0.0
11.600000619888306,-10.043675964355469,3.1387983764648437,1.22583125,-59.86259541984733,10.183206106870228,1.282442748091603,-8.341398583984375,2.693476867675781,1.0366893188476562,-9.618320610687023,-28.763358778625953,-7.206106870229007,0.0
11.610000371932983,-9.392453112792968,1.927332336425781,1.656787548828125,-59.603053435114504,8.946564885496183,3.0076335877862594,-9.878476049804688,-0.24181436767578124,1.3383587280273437,-14.351145038167939,-24.045801526717558,-4.33587786259542,0.0
11.620000839233398,-9.402029919433593,1.936909143066406,1.2378022583007813,-56.229007633587784,10.076335877862595,2.366412213740458,-10.747571252441405,-1.8650830932617186,1.9584569580078124,-0.366412213740458,-29.221374045801525,-2.900763358778626,0.0
11.630000591278076,-10.27830772705078,0.5267243652343749,0.5770026000976562,-43.83206106870229,11.16030534351145,3.786259541984733,-9.488221179199218,-0.3447650390625,1.8148048583984373,17.954198473282442,-37.70992366412214,-7.755725190839694,0.0
11.640000581741333,-9.430760339355468,0.51714755859375,1.177947216796875,-31.419847328244273,13.435114503816793,3.801526717557252,-8.271966735839843,1.2952630981445312,1.4221557861328125,13.221374045801527,-37.98473282442748,-12.366412213740459,0.0
11.650000810623169,-10.824185705566405,2.059013427734375,2.597708801269531,-39.52671755725191,8.442748091603054,1.251908396946565,-8.987833032226561,-0.679953271484375,1.7956512451171873,11.618320610687023,-36.48854961832061,-11.145038167938932,0.0
11.660000562667847,-9.854534033203125,1.8698714965820311,2.281674182128906,-33.89312977099237,8.183206106870228,3.984732824427481,-11.183315954589844,-0.38786066894531246,2.3391350219726563,23.328244274809162,-42.3206106870229,-12.870229007633588,0.0
11.670000553131104,-10.172962854003906,0.2609679809570312,2.114080065917969,-20.198473282442748,8.396946564885496,7.893129770992366,-8.985438830566405,2.568978381347656,1.4101847778320311,22.671755725190838,-45.31297709923664,-17.61832061068702,0.0
11.68000054359436,-9.196128576660156,-0.23702596435546874,1.7764976318359373,-10.610687022900763,8.83969465648855,5.984732824427481,-9.325415466308593,0.5099649536132812,2.5234885498046875,12.900763358778626,-39.969465648854964,-14.305343511450381,0.0
11.690000772476196,-8.413224633789062,-0.5195417602539062,1.0893617553710937,0.8396946564885496,15.267175572519085,1.4809160305343512,-10.256759912109374,-0.02633621826171875,2.5665841796874997,25.206106870229007,-43.725190839694655,-12.900763358778626,0.0
11.700000286102295,-9.93354268798828,2.3511060302734372,1.5466542724609373,-5.3893129770992365,11.86259541984733,-1.5572519083969465,-7.941566906738281,1.4724340209960938,1.7286135986328124,27.862595419847327,-49.63358778625954,-16.015267175572518,0.0
11.71000051498413,-9.885658654785155,2.540247961425781,1.1516109985351561,-6.259541984732825,12.381679389312977,0.7786259541984732,-7.180210778808593,1.7334020019531249,1.7094599853515624,10.748091603053435,-44.48854961832061,-15.312977099236642,0.0
11.720000267028809,-9.543287817382812,2.291250988769531,1.1037269653320312,-13.251908396946565,10.412213740458014,2.8702290076335877,-9.265560424804686,-0.5051765502929687,2.1260510742187497,6.809160305343512,-40.36641221374046,-14.290076335877863,0.0
11.730000495910645,-9.624690673828125,1.5921441040039062,1.0941501586914062,-12.045801526717558,12.50381679389313,2.6106870229007635,-9.97903251953125,-1.24498486328125,1.70467158203125,18.18320610687023,-44.51908396946565,-18.27480916030534,0.0
11.740000247955322,-9.91438907470703,0.8188169677734375,1.7860744384765623,-12.198473282442748,11.022900763358779,0.7175572519083969,-8.487444885253906,1.1109095703125,1.5514426757812498,17.022900763358777,-45.19083969465649,-21.954198473282442,0.0
11.750000476837158,-9.91438907470703,0.17238251953125,1.9800047729492187,-7.7251908396946565,9.786259541984732,-0.5343511450381679,-9.124302526855468,1.5825672973632812,1.8052280517578123,5.312977099236641,-40.412213740458014,-20.045801526717558,0.0
11.760000944137573,-10.218452685546874,0.8020575561523438,1.9680337646484374,-7.557251908396947,7.770992366412214,-3.053435114503817,-9.952696301269532,1.5083470458984374,1.8052280517578123,5.8320610687022905,-37.93893129770992,-19.84732824427481,0.0
11.770000696182251,-10.070012182617187,0.16041151123046873,1.1420341918945311,-4.732824427480916,5.786259541984733,-3.7709923664122136,-11.06360587158203,0.4165910888671875,2.4875755249023435,16.03053435114504,-39.954198473282446,-19.14503816793893,0.0
11.780001163482666,-9.397241516113281,-1.1420341918945311,0.5099649536132812,7.3893129770992365,6.687022900763359,-4.427480916030534,-9.560047229003906,1.898601916503906,1.407790576171875,22.396946564885496,-47.45038167938932,-21.0381679389313,0.0
11.790000438690186,-8.796296899414061,-0.5315127685546874,0.0718260498046875,18.580152671755727,9.374045801526718,-7.709923664122138,-8.465897070312499,2.916137622070312,1.8100164550781248,7.404580152671755,-39.98473282442748,-19.954198473282442,0.0
11.800000667572021,-9.457096557617186,1.7429788085937499,0.70868369140625,17.16030534351145,10.580152671755725,-11.618320610687023,-10.196904870605469,1.1540052001953125,1.8004396484374998,1.9694656488549618,-34.900763358778626,-18.458015267175572,0.0
11.810000896453857,-9.888052856445311,2.9640216552734375,0.3758896606445312,10.961832061068701,9.694656488549619,-11.603053435114504,-10.426748229980468,0.4525041137695312,1.5873557006835937,10.183206106870228,-35.06870229007634,-19.572519083969464,0.0
11.820000648498535,-10.211270080566406,2.602497204589844,0.5698199951171875,8.65648854961832,10.488549618320612,-10.030534351145038,-9.447519750976562,1.1468225952148436,1.3527239379882812,18.458015267175572,-38.0763358778626,-19.389312977099237,0.0
11.830000638961792,-9.710881933593749,1.8171990600585937,0.411802685546875,9.877862595419847,12.244274809160306,-8.396946564885496,-8.396465222167969,2.4349030883789062,1.7357962036132812,11.48091603053435,-30.15267175572519,-17.083969465648856,0.0
11.840000629425049,-9.758765966796874,2.300827795410156,1.1420341918945311,4.900763358778626,12.320610687022901,-9.404580152671755,-7.098807922363281,2.77727392578125,0.46686932373046874,-1.9389312977099236,-24.442748091603054,-16.106870229007633,0.0
11.850000619888306,-9.97903251953125,2.518700146484375,1.1563994018554686,-0.2748091603053435,11.251908396946565,-9.572519083969466,-9.720458740234374,1.369483349609375,0.9888052856445312,3.053435114503817,-18.580152671755727,-13.709923664122137,0.0
11.860000610351562,-9.689334118652344,0.8164227661132812,0.6368576416015624,5.4961832061068705,12.13740458015267,-7.847328244274809,-9.466673364257812,1.5897499023437498,1.5011644409179687,8.366412213740459,-16.16793893129771,-13.755725190839694,0.0
11.87000036239624,-10.160991845703125,0.9121908325195311,0.842758984375,17.633587786259543,17.022900763358777,-10.65648854961832,-11.034875451660156,-0.3064578125,2.602497204589844,18.290076335877863,-14.854961832061068,-10.320610687022901,0.0
11.880000591278076,-10.50815108642578,1.5203180541992187,0.8547299926757812,19.51145038167939,20.85496183206107,-16.519083969465647,-10.1131078125,1.678335363769531,2.81558115234375,28.916030534351144,-16.03053435114504,-11.679389312977099,0.0
11.890000820159912,-9.70369932861328,2.051830822753906,0.5530605834960938,19.923664122137403,23.52671755725191,-18.35114503816794,-9.030928662109375,2.501940734863281,3.0645781249999997,25.419847328244273,-15.679389312977099,-10.67175572519084,0.0
11.90000057220459,-10.450690246582031,3.6200329101562496,0.39743747558593745,7.297709923664122,19.022900763358777,-17.87786259541985,-7.730877160644531,4.556165759277343,1.1420341918945311,6.137404580152672,-16.106870229007633,-11.526717557251908,0.0
11.910000801086426,-9.260772021484375,2.3439234252929686,-0.5674257934570313,3.6030534351145036,20.259541984732824,-14.061068702290076,-9.325415466308593,2.7269956909179687,2.588131994628906,-14.549618320610687,-1.5114503816793894,-5.526717557251908,0.0
11.920000791549683,-10.43153663330078,3.5984850952148437,0.6392518432617187,-7.648854961832061,21.480916030534353,-16.045801526717558,-8.532934716796875,2.463633508300781,1.6160861206054686,-12.320610687022901,-4.961832061068702,-5.877862595419847,0.0
11.93000078201294,-9.89523546142578,1.7932570434570312,-0.34715924072265625,-14.793893129770993,20.580152671755727,-14.80916030534351,-9.540893615722656,1.3215993164062498,2.7629087158203123,-11.541984732824428,-0.732824427480916,-2.900763358778626,0.0
11.940000772476196,-10.184933862304687,1.0342951171875,-0.023942016601562498,-5.862595419847328,29.00763358778626,-13.954198473282442,-8.963891015625,1.3766659545898436,2.360682836914062,-14.335877862595419,-0.9923664122137404,-3.3740458015267176,0.0
11.950000286102295,-10.448296044921875,0.22266075439453123,0.5243301635742187,-5.603053435114504,35.14503816793893,-20.137404580152673,-9.160215551757812,1.0773907470703123,2.418143676757812,-12.335877862595419,-0.0916030534351145,-2.6106870229007635,0.0
11.96000051498413,-8.559270935058594,0.5674257934570313,-0.5434837768554687,-6.458015267175573,34.458015267175576,-24.38167938931298,-8.75320126953125,1.2569558715820313,2.389413256835937,-13.511450381679388,0.6259541984732825,-3.099236641221374,0.0
11.970000505447388,-9.53131680908203,1.1923124267578125,-0.16280571289062498,-9.801526717557252,35.45038167938932,-26.778625954198475,-9.526528405761718,0.9337386474609375,2.626439221191406,-15.48091603053435,0.9312977099236641,-3.068702290076336,0.0
11.980000495910645,-10.122684619140625,0.9696516723632812,0.507570751953125,-7.450381679389313,39.587786259541986,-26.412213740458014,-8.805873706054687,1.0821791503906248,2.4301146850585935,-19.709923664122137,1.1450381679389312,-4.809160305343512,0.0
11.990000486373901,-9.749189160156249,1.2234370483398436,0.49799394531249996,-8.870229007633588,41.16030534351145,-27.740458015267176,-9.119514123535156,0.46208092041015625,2.454056701660156,-19.755725190839694,1.6030534351145038,-4.961832061068702,0.0
12.000000238418579,-9.373299499511718,2.427720483398437,0.5889736083984375,-16.68702290076336,38.25954198473283,-30.259541984732824,-8.990227233886719,0.1197100830078125,2.5354595581054684,-18.610687022900763,2.3206106870229006,-5.282442748091603,0.0
12.010000705718994,-11.350910070800781,2.0638018310546875,1.4915876342773438,-23.19083969465649,39.404580152671755,-30.16793893129771,-8.571241943359375,-0.023942016601562498,1.8914193115234375,-15.526717557251908,0.10687022900763359,-7.175572519083969,0.0
12.02000093460083,-8.820238916015624,1.0869675537109373,0.15562310791015624,-13.587786259541986,38.25954198473283,-25.770992366412212,-8.262389929199218,-0.37828386230468747,1.6400281372070311,-12.778625954198473,2.198473282442748,-7.816793893129771,0.0
12.030000686645508,-8.858546142578124,0.5482721801757812,0.47165772705078124,-11.267175572519085,40.38167938931298,-27.755725190839694,-8.422801440429687,-0.7038952880859375,2.0446482177734375,-8.778625954198473,8.885496183206106,-8.244274809160306,0.0
12.040000915527344,-9.65342109375,0.8188169677734375,1.4341267944335936,-11.679389312977099,39.57251908396947,-30.35114503816794,-7.302315063476562,-0.0047884033203125,1.199495031738281,-2.0916030534351147,9.740458015267176,-10.67175572519084,0.0
12.050000667572021,-9.138667736816405,1.1851298217773436,1.3814543579101561,-7.9541984732824424,38.44274809160305,-31.603053435114504,-8.092401611328125,-0.33518823242187495,1.3838485595703125,4.625954198473282,14.15267175572519,-9.83206106870229,0.0
12.0600004196167,-9.526528405761718,2.1906945190429687,2.176329309082031,-5.312977099236641,36.274809160305345,-31.96946564885496,-7.0461354858398435,0.5099649536132812,0.5363011718749999,9.541984732824428,19.068702290076335,-11.068702290076336,0.0
12.070000648498535,-11.207257971191405,2.6599580444335937,3.6391865234374996,-9.664122137404581,29.221374045801525,-31.282442748091604,-6.459556079101562,1.1563994018554686,-0.6536170532226562,11.633587786259541,24.870229007633586,-10.564885496183207,0.0
12.080000638961792,-9.81862100830078,2.4899697265625,4.3454760131835934,-6.809160305343512,20.18320610687023,-26.946564885496183,-7.1395093505859375,-0.9433154541015625,-0.07422025146484375,12.183206106870228,30.091603053435115,-6.687022900763359,0.0
12.09000039100647,-9.437942944335937,1.0606313354492187,5.662286926269531,4.427480916030534,12.045801526717558,-22.33587786259542,-7.580042456054687,0.0526724365234375,0.9552864624023437,26.53435114503817,32.030534351145036,-6.732824427480916,0.0
12.100000381469727,-11.044452258300781,2.6910826660156246,6.8976949829101555,10.122137404580153,-0.732824427480916,-20.610687022900763,-7.182604980468749,1.7764976318359373,0.32561142578124996,26.35114503816794,35.25190839694657,-5.312977099236641,0.0
12.110000610351562,-11.267113012695312,1.9680337646484374,7.513004809570312,22.610687022900763,-15.374045801526718,-18.442748091603054,-7.771578588867187,2.437297290039062,0.26336218261718747,15.648854961832061,44.68702290076336,-3.5877862595419847,0.0
12.12000060081482,-11.204863769531249,1.9728221679687499,8.508992700195313,44.54961832061068,-23.49618320610687,-13.755725190839694,-9.421183532714844,1.8722656982421875,0.488417138671875,5.358778625954199,56.36641221374046,-4.473282442748092,0.0
12.130000352859497,-11.786654772949218,2.5570073730468748,9.121908325195312,60.51908396946565,-39.7557251908397,-11.038167938931299,-10.620678564453124,1.3646949462890625,1.2425906616210938,-7.3893129770992365,63.25190839694657,-6.213740458015267,0.0
12.140000343322754,-13.82172618408203,5.829881042480468,10.769119067382812,70.94656488549619,-54.48854961832061,-6.33587786259542,-12.325350146484375,-0.5530605834960938,3.39018955078125,-31.297709923664122,74.1526717557252,-6.396946564885496,0.0
12.150000810623169,-15.87116280517578,8.192958081054687,12.174515441894531,51.02290076335878,-83.54198473282443,3.2977099236641223,-14.123395593261717,-2.3535002319335936,5.7317187744140625,-23.64885496183206,67.23664122137404,-4.488549618320611,0.0
12.160000324249268,-15.674838269042969,5.928043310546875,12.112266198730469,51.41984732824427,-114.25954198473282,25.923664122137403,-12.34689796142578,-0.39743747558593745,6.89530078125,-20.50381679389313,57.52671755725191,-2.6564885496183206,0.0
12.170000553131104,-15.595829614257811,2.925714428710937,11.973402502441406,60.717557251908396,-137.54198473282443,48.33587786259542,-12.222399475097655,-1.0989385620117187,6.081272216796875,7.587786259541985,37.786259541984734,6.900763358778626,0.0
12.18000054359436,-16.809689855957032,0.7158662963867187,13.352462658691405,66.41221374045801,-163.55725190839695,61.587786259541986,-8.798691101074219,-0.7445967163085937,3.411737365722656,17.17557251908397,24.198473282442748,8.65648854961832,0.0
12.190000772476196,-19.869479577636717,0.6153098266601562,14.446612817382812,72.74809160305344,-190.35114503816794,72.27480916030534,-9.576806640625,-1.4987702392578124,2.4660277099609376,22.549618320610687,22.900763358778626,8.320610687022901,0.0
12.200000286102295,-22.369026110839844,2.104503259277344,12.794613671875,73.69465648854961,-215.26717557251908,76.70229007633588,-7.7787611938476555,-2.710236279296875,0.45010991210937495,14.67175572519084,17.236641221374047,2.3053435114503817,0.0
12.21000051498413,-22.033837878417966,2.6336218261718747,7.577648254394531,42.82442748091603,-233.66412213740458,77.95419847328245,-11.159373937988281,-2.114080065917969,0.5363011718749999,20.061068702290076,20.977099236641223,-2.0916030534351147,0.0
12.220000505447388,-18.473660009765624,-1.2832920898437499,0.5339069702148437,2.5801526717557253,-247.48091603053436,71.66412213740458,-6.476315490722656,-0.6368576416015624,-1.39821376953125,-4.366412213740458,15.236641221374045,-10.687022900763358,0.0
12.230000495910645,-15.95495986328125,-5.767631799316406,-4.936843823242187,-30.015267175572518,-245.31297709923663,67.6793893129771,-7.019799267578125,-1.4987702392578124,-2.1811177124023438,-13.435114503816793,16.259541984732824,-12.0,0.0
12.24000072479248,-10.912771166992187,-9.995791931152343,-6.387730029296875,-19.801526717557252,-227.06870229007635,66.85496183206106,-7.735665563964844,-0.6584054565429687,-2.152387292480469,-20.793893129770993,19.19083969465649,-12.396946564885496,0.0
12.250000238418579,-7.8912886718749995,-8.281543542480469,-5.607220288085937,6.488549618320611,-201.3740458015267,51.099236641221374,-8.846575134277343,0.7661445312499999,-1.35990654296875,-38.83969465648855,29.14503816793893,-12.183206106870228,0.0
12.260000944137573,-5.875370874023437,-3.6631285400390623,-7.170633972167968,17.740458015267176,-175.4198473282443,40.396946564885496,-7.4579381713867186,1.7860744384765623,-2.001552587890625,-58.900763358778626,39.48091603053435,-7.572519083969466,0.0
12.270000696182251,-6.9527616210937495,-0.24660277099609373,-4.6830584472656245,22.18320610687023,-143.70992366412213,33.98473282442748,-9.253589416503905,0.8355763793945312,-2.1547814941406247,-71.29770992366412,53.25190839694657,0.5648854961832062,0.0
12.280000925064087,-6.567295153808593,-2.645592834472656,-2.499546533203125,23.404580152671755,-121.86259541984732,27.908396946564885,-8.169016064453125,0.8595183959960937,-4.376600634765625,-59.37404580152672,55.02290076335878,9.908396946564885,0.0
12.290000677108765,-7.278373046874999,-2.4660277099609376,-0.4165910888671875,31.389312977099237,-99.87786259541984,18.045801526717558,-11.329362255859374,-0.6009446166992187,-1.9800047729492187,-74.03053435114504,79.19083969465649,14.702290076335878,0.0
12.3000009059906,-7.8529814453124995,-2.001552587890625,-0.01915361328125,25.87786259541985,-94.03053435114504,10.564885496183207,-6.770802294921874,1.6017209106445311,-5.078101721191406,-73.69465648854961,77.6793893129771,14.763358778625955,0.0
12.310000658035278,-8.99501563720703,-2.068590234375,0.46208092041015625,26.549618320610687,-89.12977099236642,9.49618320610687,-6.959944226074218,1.6639701538085936,-4.165910888671875,-94.16793893129771,93.90839694656489,15.755725190839694,0.0
12.320000886917114,-8.710105639648438,-3.246537451171875,1.5538368774414062,25.206106870229007,-81.02290076335878,11.17557251908397,-4.290409374999999,4.575319372558593,-6.138733056640625,-87.6030534351145,83.70992366412214,18.442748091603054,0.0
12.330000638961792,-8.240842114257813,-2.6791116577148437,2.3726538452148436,31.709923664122137,-78.85496183206106,10.01526717557252,-8.518569506835936,2.482787121582031,-3.1364041748046874,-114.85496183206106,102.18320610687023,21.862595419847327,0.0
12.34000039100647,-7.675810522460937,-1.6448165405273436,3.2441432495117186,27.709923664122137,-80.6412213740458,8.687022900763358,-8.786720092773438,-0.4285620971679687,0.15322890625,-82.87022900763358,88.79389312977099,31.435114503816795,0.0
12.350000619888306,-8.391676818847655,0.12449848632812499,4.046200805664062,26.977099236641223,-80.03053435114504,6.824427480916031,-12.291831323242187,-4.314351391601562,2.04943662109375,-50.76335877862596,82.93129770992367,39.23664122137404,0.0
12.360000610351562,-7.070077502441406,0.00239420166015625,3.438073583984375,22.717557251908396,-84.99236641221374,6.458015267175573,-14.623783740234375,-10.098742602539062,5.501875415039062,10.82442748091603,68.83969465648855,46.274809160305345,0.0
12.37000060081482,-5.870582470703124,-1.369483349609375,3.380612744140625,24.48854961832061,-82.87022900763358,5.557251908396947,-10.421959826660157,-6.177040283203125,2.664746447753906,81.5114503816794,34.656488549618324,44.900763358778626,0.0
12.380000352859497,-5.434837768554687,-1.0989385620117187,3.861847277832031,31.954198473282442,-77.66412213740458,-1.3740458015267176,-13.503297363281249,-7.082048510742187,4.273649963378906,87.00763358778626,34.916030534351144,37.05343511450382,0.0
12.390000343322754,-6.004657763671875,0.11013327636718749,4.091690637207031,30.625954198473284,-73.31297709923665,-5.221374045801527,-7.793126403808594,0.9193734375,-0.3447650390625,71.78625954198473,24.519083969465647,23.64885496183206,0.0
12.40000057220459,-4.441244079589843,0.10295067138671875,2.923320227050781,38.25954198473283,-64.67175572519083,-3.145038167938931,-11.3389390625,-1.3407529296874998,2.77727392578125,58.732824427480914,26.885496183206108,21.786259541984734,0.0
12.410000801086426,-4.735730883789063,2.085349645996094,4.110844250488281,36.29007633587786,-51.20610687022901,-4.519083969465649,-11.422736120605467,-1.4628572143554686,2.051830822753906,67.09923664122137,11.206106870229007,23.46564885496183,0.0
12.420000314712524,-5.65031591796875,4.723759875488281,4.450820886230469,19.69465648854962,-48.18320610687023,-4.290076335877862,-13.814543579101562,-5.813121630859374,5.248090039062499,75.2824427480916,14.946564885496183,28.290076335877863,0.0
12.43000078201294,-5.4707507934570305,4.383783239746093,3.8762124877929685,6.687022900763359,-43.465648854961835,1.8778625954198473,-11.827356201171874,-4.965574243164062,4.050989208984375,129.2824427480916,-17.83206106870229,29.954198473282442,0.0
12.440000534057617,-4.364629626464843,4.46279189453125,3.892971899414062,2.6106870229007635,-35.20610687022901,6.320610687022901,-11.631031665039062,-2.379836450195312,0.39264907226562495,97.7557251908397,-11.801526717557252,15.48091603053435,0.0
12.450000524520874,-4.426878869628906,5.216965417480468,3.9839515624999997,-11.664122137404581,-31.022900763358777,10.0,-9.399635717773437,-0.967257470703125,1.5562310791015623,94.27480916030534,-19.236641221374047,8.931297709923664,0.0
12.46000051498413,-3.555389465332031,4.984727856445312,3.708618371582031,-26.33587786259542,-26.885496183206108,13.450381679389313,-10.575188732910156,-1.0606313354492187,2.0446482177734375,71.64885496183206,-11.541984732824428,7.206106870229007,0.0
12.470000505447388,-3.0238766967773434,4.170699291992188,3.4524387939453125,-24.931297709923665,-17.419847328244273,23.251908396946565,-9.399635717773437,-0.8283937744140625,1.8411410766601561,71.46564885496183,-23.480916030534353,6.809160305343512,0.0
12.480000495910645,-0.9911994873046874,3.337517114257812,0.9816226806640624,-18.091603053435115,-0.8854961832061069,33.282442748091604,-9.018957653808593,1.2976572998046874,1.1013327636718748,44.70229007633588,-19.96946564885496,3.5114503816793894,0.0
12.490000486373901,1.3718775512695311,1.2832920898437499,-1.886630908203125,-19.267175572519083,17.297709923664122,36.0,-9.028534460449219,2.6048914062499997,0.296881005859375,23.770992366412212,-19.893129770992367,3.5114503816793894,0.0
12.500000476837158,0.5746083984375,0.9792284790039062,-3.0741549316406247,-25.0381679389313,44.3206106870229,31.862595419847327,-9.938331091308592,2.269703173828125,1.7501614135742187,-5.435114503816794,-6.366412213740458,8.51908396946565,0.0
12.510000467300415,-5.647921716308593,-0.430956298828125,8.497021691894531,-52.76335877862596,47.48091603053435,27.923664122137403,-7.958326318359375,3.725377783203125,-0.22505495605468748,-32.18320610687023,-4.916030534351145,13.679389312977099,0.0
12.52000117301941,-5.439626171875,-6.751648681640624,11.362881079101562,12.16793893129771,50.213740458015266,37.908396946564885,-8.003816149902343,2.269703173828125,-0.7398083129882812,-65.40458015267176,4.488549618320611,21.083969465648856,0.0
12.530000686645508,-6.335057592773437,2.3774422485351563,-3.782838623046875,25.450381679389313,78.07633587786259,24.229007633587788,-9.375693701171874,-0.5698199951171875,-0.22266075439453123,-66.06106870229007,8.045801526717558,28.671755725190838,0.0
12.540000915527344,-15.076287854003905,5.118803149414062,6.8402341430664055,12.335877862595419,81.61832061068702,22.106870229007633,-11.137826123046874,-2.1739351074218747,0.5458779785156249,-67.6030534351145,11.083969465648854,31.00763358778626,0.0
12.550000667572021,-14.197615844726561,1.5083470458984374,7.857769848632812,55.14503816793893,87.63358778625954,29.61832061068702,-10.658985791015624,-3.758896606445312,-0.44053310546874996,-62.58015267175573,9.755725190839694,30.778625954198475,0.0
12.5600004196167,-14.144943408203124,7.570465649414062,5.365405920410156,24.82442748091603,79.12977099236642,13.419847328244275,-9.153032946777342,-3.4428619873046875,-0.33039982910156246,-36.6412213740458,3.6793893129770994,26.671755725190838,0.0
12.570000648498535,-14.942212561035156,7.68059892578125,4.153939880371094,-14.351145038167939,66.79389312977099,18.793893129770993,-10.94868419189453,-2.971204260253906,0.22026655273437498,-22.80916030534351,2.045801526717557,20.18320610687023,0.0
12.580000638961792,-7.5345526245117185,-1.8124106567382812,0.6177040283203125,-21.66412213740458,65.3587786259542,27.236641221374047,-12.320561743164061,-1.4796166259765624,1.7118541870117185,-34.396946564885496,10.992366412213741,10.82442748091603,0.0
12.59000039100647,-6.56968935546875,-3.2561142578125,2.205059729003906,-12.50381679389313,74.42748091603053,20.12213740458015,-11.432312927246093,3.1387983764648437,-0.36391865234375,-36.36641221374046,5.770992366412214,3.6946564885496183,0.0
12.600000619888306,-8.238447912597655,-4.7189714721679685,3.4524387939453125,0.4580152671755725,74.51908396946565,10.946564885496183,-12.617442749023438,5.674257934570313,-1.4221557861328125,-43.908396946564885,4.106870229007634,9.022900763358779,0.0
12.610000610351562,-9.196128576660156,-2.4756045166015626,4.163516687011718,13.435114503816793,75.74045801526718,3.4656488549618323,-14.080299963378906,5.796362219238281,-0.09337386474609374,-47.17557251908397,6.442748091603053,19.419847328244273,0.0
12.62000060081482,-9.167398156738281,-1.7788918334960937,3.5673604736328124,15.923664122137405,71.32824427480917,-4.106870229007634,-13.977349291992187,5.252878442382812,0.14604630126953125,-59.66412213740458,2.732824427480916,24.82442748091603,0.0
12.630000591278076,-9.421183532714844,-0.5123591552734374,2.2457611572265623,21.251908396946565,72.22900763358778,-9.465648854961833,-15.741875915527343,2.214636535644531,1.608903515625,-56.152671755725194,3.7709923664122136,29.46564885496183,0.0
12.640000581741333,-6.648698010253906,-2.7246014892578123,-0.9026140258789062,30.366412213740457,73.54198473282443,-14.65648854961832,-16.692373974609374,-0.6607996582031249,2.602497204589844,-31.755725190839694,-1.5877862595419847,29.31297709923664,0.0
12.650000810623169,-7.620743884277343,-2.6910826660156246,-1.0175357055664063,57.66412213740458,88.53435114503817,-20.366412213740457,-13.663708874511718,-0.0909796630859375,1.2689268798828124,-8.13740458015267,-15.908396946564885,19.908396946564885,0.0
12.660000324249268,-9.789890588378906,1.3551181396484375,-0.9552864624023437,64.87022900763358,89.12977099236642,-29.068702290076335,-12.222399475097655,0.5219359619140624,1.3814543579101561,2.351145038167939,-17.81679389312977,13.526717557251908,0.0
12.670000791549683,-12.452242834472656,7.117961535644531,0.967257470703125,61.14503816793893,92.33587786259542,-28.519083969465647,-9.9215716796875,2.7653029174804686,-0.22744915771484372,1.8625954198473282,-21.51145038167939,10.65648854961832,0.0
12.68000054359436,-12.454637036132812,6.9144543945312495,2.032677209472656,38.80916030534351,86.22900763358778,-23.0381679389313,-10.635043774414061,1.7453730102539062,-0.2609679809570312,0.5648854961832062,-17.96946564885496,12.916030534351146,0.0
12.690000772476196,-13.175291735839844,6.928819604492187,2.224213342285156,22.213740458015266,82.18320610687023,-17.587786259541986,-10.184933862304687,1.4341267944335936,-0.047884033203124995,1.9541984732824427,-17.099236641221374,14.396946564885496,0.0
12.700000286102295,-10.87206973876953,2.913743420410156,-0.2154781494140625,14.702290076335878,80.3969465648855,-11.969465648854962,-9.476250170898437,2.0087351928710935,-0.469263525390625,1.4045801526717556,-18.137404580152673,10.885496183206106,0.0
12.710000276565552,-10.429142431640624,2.4971523315429685,0.7565677246093749,20.671755725190838,82.7175572519084,-12.549618320610687,-9.327809667968749,1.5610194824218748,-0.4213794921875,-2.213740458015267,-16.259541984732824,9.251908396946565,0.0
12.720000505447388,-10.002974536132811,3.1196447631835937,1.13006318359375,20.671755725190838,83.1145038167939,-15.786259541984732,-9.425971936035156,1.448492004394531,0.062249243164062495,-3.5572519083969465,-15.297709923664122,7.557251908396947,0.0
12.730000495910645,-9.974244116210937,3.4069489624023435,1.5059528442382812,12.244274809160306,79.6793893129771,-16.27480916030534,-9.643844287109374,1.4508862060546874,-0.03591302490234375,-9.801526717557252,-16.15267175572519,4.473282442748092,0.0
12.740000486373901,-9.765948571777344,2.3439234252929686,1.9632453613281249,5.709923664122138,77.69465648854961,-16.885496183206108,-9.93354268798828,1.6735469604492186,-0.34715924072265625,-13.526717557251908,-17.34351145038168,2.4732824427480917,0.0
12.750000238418579,-9.514557397460937,1.2306196533203124,2.4492682983398435,-4.717557251908397,72.30534351145039,-19.770992366412212,-10.326191760253906,1.618480322265625,-0.6823474731445313,-18.091603053435115,-16.65648854961832,-0.42748091603053434,0.0
12.760000467300415,-9.763554370117188,0.814028564453125,2.360682836914062,-6.366412213740458,70.80916030534351,-23.297709923664122,-10.639832177734375,1.956062756347656,-0.9816226806640624,-19.72519083969466,-15.664122137404581,-3.3587786259541983,0.0
12.770000696182251,-11.192892761230468,2.094926452636719,3.7325603881835936,-13.648854961832061,69.41984732824427,-27.66412213740458,-10.268730920410155,2.8227637573242186,-0.74699091796875,-21.083969465648856,-15.068702290076336,-6.900763358778626,0.0
12.780000686645508,-10.156203442382813,0.47165772705078124,2.042254016113281,-15.755725190839694,67.0381679389313,-28.27480916030534,-10.235212097167969,2.8514941772460936,-0.2154781494140625,-20.946564885496183,-15.282442748091603,-7.312977099236641,0.0
12.790000677108765,-9.801861596679688,0.47644613037109373,1.3072341064453123,-12.977099236641221,66.42748091603053,-30.763358778625953,-9.835380419921874,2.042254016113281,0.37828386230468747,-17.099236641221374,-16.48854961832061,-6.106870229007634,0.0
12.8000009059906,-9.94072529296875,1.0941501586914062,2.0542250244140625,-12.977099236641221,66.09160305343511,-32.732824427480914,-8.449137658691406,1.3910311645507811,-0.16041151123046873,0.8091603053435115,-26.702290076335878,-5.404580152671755,0.0
12.810000658035278,-9.327809667968749,0.3064578125,0.8092401611328125,-5.66412213740458,69.80152671755725,-32.83969465648855,-9.840168823242188,4.5968671875,0.7038952880859375,-9.221374045801527,-23.267175572519083,-5.8320610687022905,0.0
12.820000410079956,-10.89122335205078,3.459621398925781,2.9089550170898435,-8.641221374045802,69.77099236641222,-35.98473282442748,-9.528922607421874,3.6535517333984373,0.105344873046875,-19.17557251908397,-18.015267175572518,-2.4122137404580153,0.0
12.830000638961792,-10.709264025878905,2.877830395507812,1.5370774658203123,-24.65648854961832,63.49618320610687,-36.48854961832061,-10.426748229980468,1.867477294921875,0.39983167724609375,-14.427480916030534,-19.083969465648856,-0.15267175572519084,0.0
12.840000629425049,-12.80658468017578,4.6830584472656245,2.480392919921875,-25.068702290076335,65.06870229007633,-35.06870229007634,-9.138667736816405,0.9074024291992187,0.24181436767578124,-11.648854961832061,-22.290076335877863,-0.7175572519083969,0.0
12.850000619888306,-9.935936889648437,4.273649963378906,0.6703764648437499,-41.74045801526717,55.43511450381679,-32.42748091603053,-10.156203442382813,-0.1771709228515625,0.9217676391601562,0.732824427480916,-24.977099236641223,-1.816793893129771,0.0
12.860000610351562,-12.361263171386717,8.219294299316406,3.373430139160156,-55.038167938931295,52.80916030534351,-28.48854961832061,-10.216058483886718,1.8076222534179687,0.8786720092773437,-1.816793893129771,-24.53435114503817,-4.67175572519084,0.0
12.87000036239624,-11.3389390625,6.45476767578125,1.898601916503906,-71.77099236641222,46.534351145038165,-21.6793893129771,-9.8449572265625,4.211400720214844,-0.05985504150390625,-21.099236641221374,-21.52671755725191,-6.732824427480916,0.0
12.880000591278076,-9.279925634765624,3.6296097167968746,1.1540052001953125,-69.48091603053435,49.70992366412214,-14.091603053435115,-7.46272657470703,4.453215087890625,-0.7613561279296874,-39.31297709923664,-18.53435114503817,-3.984732824427481,0.0
12.890000820159912,-8.418013037109375,1.4149731811523436,-0.8020575561523438,-73.37404580152672,44.900763358778626,-9.694656488549619,-8.762778076171875,1.6136919189453125,0.033518823242187495,-42.80916030534351,-11.49618320610687,3.786259541984733,0.0
12.90000057220459,-10.788272680664061,2.578555187988281,0.8451531860351562,-55.43511450381679,56.51908396946565,-8.091603053435115,-8.777143286132812,-0.13646949462890623,0.32082302246093747,-31.6793893129771,-11.435114503816793,6.290076335877862,0.0
12.910000801086426,-12.598289135742187,2.5043349365234375,2.262520568847656,-61.969465648854964,56.38167938931298,-8.778625954198473,-8.298302954101562,0.4333505004882812,0.93852705078125,-22.748091603053435,-12.885496183206106,1.5419847328244274,0.0
12.920000553131104,-11.118672509765624,2.8658593872070313,2.7198130859375,-66.73282442748092,49.282442748091604,-4.854961832061068,-8.528146313476562,-1.2234370483398436,1.3910311645507811,-19.022900763358777,-12.580152671755725,-1.1145038167938932,0.0
12.93000078201294,-9.916783276367187,1.4221557861328125,1.2042834350585936,-85.61832061068702,33.587786259541986,-4.549618320610687,-7.7596075805664055,-2.269703173828125,0.9337386474609375,4.458015267175573,-24.38167938931298,-4.519083969465649,0.0
12.940000295639038,-9.095572106933593,-1.2042834350585936,-0.15562310791015624,-72.76335877862596,35.00763358778626,-1.9389312977099236,-8.741230261230468,-1.867477294921875,1.3431471313476562,16.412213740458014,-32.68702290076336,-7.114503816793893,0.0
12.950000524520874,-8.86094034423828,-2.923320227050781,0.7398083129882812,-52.10687022900763,38.88549618320611,-4.183206106870229,-9.655815295410155,-1.6065093139648436,1.7405846069335937,39.66412213740458,-42.595419847328245,-10.641221374045802,0.0
12.96000051498413,-10.39322940673828,-0.7709329345703124,1.62805712890625,-43.7557251908397,37.86259541984733,-9.282442748091603,-7.800309008789062,1.618480322265625,0.49799394531249996,33.23664122137404,-49.17557251908397,-16.47328244274809,0.0
12.970000505447388,-9.471461767578125,-0.928950244140625,1.2234370483398436,-28.977099236641223,43.55725190839695,-10.274809160305344,-8.418013037109375,1.0941501586914062,0.7924807495117187,28.458015267175572,-49.465648854961835,-16.748091603053435,0.0
12.980000495910645,-9.320627062988281,0.7996633544921875,1.2880804931640624,-30.65648854961832,37.19083969465649,-14.061068702290076,-7.773972790527344,2.7748797241210936,0.2059013427734375,24.442748091603054,-52.229007633587784,-17.328244274809162,0.0
12.990000486373901,-10.307038146972655,2.3247698120117186,2.023100402832031,-32.01526717557252,36.38167938931298,-13.770992366412214,-8.741230261230468,1.2210428466796874,0.699106884765625,20.137404580152673,-49.74045801526717,-14.80916030534351,0.0
13.000000476837158,-9.897629663085937,1.9871873779296874,1.2210428466796874,-38.54961832061068,32.274809160305345,-12.183206106870228,-8.556876733398436,2.2385785522460937,0.33039982910156246,21.114503816793892,-51.87786259541985,-14.381679389312977,0.0
13.010000705718994,-9.528922607421874,1.1180921752929687,0.82360537109375,-34.85496183206107,34.62595419847328,-9.267175572519085,-7.987056738281249,1.139639990234375,0.6631938598632812,10.610687022900763,-46.18320610687023,-13.770992366412214,0.0
13.02000093460083,-9.904812268066406,1.6543933471679686,0.5458779785156249,-42.3206106870229,30.519083969465647,-11.404580152671755,-9.830592016601562,0.0718260498046875,1.2904746948242187,21.908396946564885,-43.98473282442748,-11.587786259541986,0.0
13.030000448226929,-10.120290417480469,1.177947216796875,0.3232172241210937,-39.14503816793893,31.419847328244273,-10.793893129770993,-7.656656909179687,3.239354846191406,0.3950432739257812,14.259541984732824,-43.70992366412214,-15.419847328244275,0.0
13.040000677108765,-8.793902697753905,-1.2330138549804688,-1.0989385620117187,-32.656488549618324,31.770992366412212,-8.274809160305344,-8.295908752441406,1.5610194824218748,0.8307879760742187,2.9618320610687023,-32.35114503816794,-11.465648854961833,0.0
13.050000667572021,-11.480196960449218,1.7693150268554687,1.6304513305664061,-32.06106870229008,35.38931297709924,-13.755725190839694,-10.36210478515625,0.7110778930664062,1.3335703247070312,8.80916030534351,-29.87786259541985,-10.091603053435115,0.0
13.060000658035278,-10.843339318847656,0.9528922607421875,0.07900865478515624,-40.458015267175576,28.015267175572518,-15.099236641221374,-9.962273107910155,0.584185205078125,2.288856787109375,16.38167938931298,-34.0,-12.198473282442748,0.0
13.070000648498535,-9.038111267089842,-1.4149731811523436,-1.3431471313476562,-12.15267175572519,36.778625954198475,-8.900763358778626,-10.266336718749999,1.7764976318359373,1.927332336425781,20.885496183206108,-36.76335877862596,-13.938931297709924,0.0
13.080000638961792,-8.566453540039062,-1.8842367065429686,-0.8714894042968749,6.183206106870229,43.282442748091604,-13.954198473282442,-8.2743609375,2.8730419921875,1.1228805786132812,11.954198473282442,-36.6412213740458,-15.435114503816793,0.0
13.090000629425049,-8.894459167480468,0.28012159423828126,0.21308394775390624,10.80916030534351,46.961832061068705,-21.14503816793893,-9.696516723632811,1.2138602416992186,1.4604630126953124,2.8396946564885495,-31.236641221374047,-10.992366412213741,0.0
13.100000619888306,-9.686939916992188,1.5586252807617187,0.3711012573242187,13.709923664122137,47.267175572519086,-24.366412213740457,-10.448296044921875,0.6009446166992187,1.6711527587890624,10.13740458015267,-35.847328244274806,-11.221374045801527,0.0
13.110000371932983,-9.423577734375,1.4772224243164063,0.5099649536132812,22.458015267175572,47.86259541984733,-22.396946564885496,-10.488997473144531,0.9433154541015625,2.0278888061523435,17.81679389312977,-38.56488549618321,-14.580152671755725,0.0
13.12000036239624,-9.770736975097655,2.473210314941406,0.6823474731445313,24.38167938931298,46.79389312977099,-21.16030534351145,-8.643067993164061,1.608903515625,1.005564697265625,8.473282442748092,-42.36641221374046,-17.709923664122137,0.0
13.130001068115234,-10.666168395996094,4.017470385742187,1.4987702392578124,9.877862595419847,41.404580152671755,-21.0381679389313,-9.509768994140625,0.603338818359375,2.0446482177734375,2.854961832061069,-33.38931297709924,-15.129770992366412,0.0
13.140000343322754,-9.87608184814453,3.9504327392578125,0.7852981445312499,-2.5801526717557253,36.38167938931298,-18.519083969465647,-11.252747802734374,-0.7326257080078125,2.2936451904296873,14.290076335877863,-35.38931297709924,-15.603053435114504,0.0
13.150000810623169,-10.40041201171875,2.1715409057617188,0.19871873779296872,-5.099236641221374,29.81679389312977,-13.633587786259541,-10.007762939453125,-0.47884033203125,2.607285607910156,27.16030534351145,-43.05343511450382,-19.6793893129771,0.0
13.160000562667847,-8.353369592285155,0.5410895751953124,-0.55545478515625,-0.030534351145038167,28.80916030534351,-12.320610687022901,-8.75320126953125,1.908178723144531,1.4796166259765624,21.435114503816795,-45.93893129770992,-23.49618320610687,0.0
13.170000553131104,-9.502586389160156,1.0965443603515623,-0.009576806640625,-12.122137404580153,23.770992366412212,-15.938931297709924,-9.229647399902344,1.4030021728515625,2.511517541503906,15.801526717557252,-36.76335877862596,-19.541984732824428,0.0
13.18000054359436,-10.75714805908203,2.2481553588867187,0.7350199096679687,-7.343511450381679,27.633587786259543,-16.610687022900763,-9.313444458007812,1.0510545288085937,2.233790148925781,20.03053435114504,-40.01526717557252,-20.045801526717558,0.0
13.190000534057617,-10.04846436767578,1.7956512451171873,-0.2442085693359375,-20.458015267175572,20.793893129770993,-15.267175572519085,-8.240842114257813,1.8076222534179687,1.448492004394531,22.30534351145038,-43.83206106870229,-22.442748091603054,0.0
13.200000524520874,-9.868899243164062,1.1875240234375,-0.507570751953125,-9.557251908396946,22.30534351145038,-11.83206106870229,-7.594407666015624,2.952050646972656,1.1420341918945311,4.290076335877862,-36.534351145038165,-20.03053435114504,0.0
13.21000051498413,-9.457096557617186,0.7493851196289062,-0.016759411621093748,-11.709923664122137,23.251908396946565,-13.419847328244275,-9.184157568359375,0.8164227661132812,1.5514426757812498,4.778625954198473,-30.946564885496183,-16.702290076335878,0.0
13.220000505447388,-10.105925207519531,1.1156979736328125,0.4908113403320312,-14.122137404580153,20.85496183206107,-15.877862595419847,-8.904035974121093,0.7398083129882812,1.6304513305664061,13.633587786259541,-32.213740458015266,-19.00763358778626,0.0
13.230000495910645,-9.665392102050781,0.584185205078125,0.3064578125,-4.702290076335878,21.236641221374047,-15.129770992366412,-8.413224633789062,1.0702081420898437,1.8914193115234375,14.15267175572519,-32.091603053435115,-18.16793893129771,0.0
13.240000486373901,-9.943119494628906,1.0941501586914062,0.7757213378906249,-1.0381679389312977,18.732824427480917,-15.679389312977099,-7.42441934814453,3.0142998901367184,1.3144167114257812,0.5190839694656488,-24.549618320610687,-18.137404580152673,0.0
13.250000476837158,-10.01015714111328,1.177947216796875,1.5298948608398437,1.3893129770992367,16.85496183206107,-15.022900763358779,-7.340622290039062,1.898601916503906,1.2425906616210938,-10.992366412213741,-15.282442748091603,-15.664122137404581,0.0
13.260000944137573,-10.479420666503906,1.47482822265625,1.5753846923828123,0.2900763358778626,12.732824427480915,-13.83206106870229,-8.468291271972657,0.39743747558593745,1.0630255371093749,-0.10687022900763359,-17.450381679389313,-13.954198473282442,0.0
13.270000696182251,-10.46984385986328,0.8858546142578124,1.3575123413085937,11.114503816793894,10.305343511450381,-10.0,-9.655815295410155,-0.6631938598632812,3.3111808959960936,14.122137404580153,-11.007633587786259,-10.106870229007633,0.0
13.280000925064087,-10.340556970214843,0.5626373901367188,1.2138602416992186,15.923664122137405,8.183206106870228,-8.01526717557252,-7.857769848632812,0.38307226562499996,1.8914193115234375,28.091603053435115,-21.114503816793892,-13.633587786259541,0.0
13.290000677108765,-10.007762939453125,0.6847416748046875,1.0702081420898437,21.893129770992367,5.969465648854962,-8.687022900763358,-8.453926062011718,0.7517793212890624,2.47081611328125,28.47328244274809,-16.778625954198475,-12.290076335877863,0.0
13.300000667572021,-10.1131078125,1.678335363769531,1.5035586425781249,20.519083969465647,4.748091603053435,-9.816793893129772,-6.643909606933593,2.422932080078125,1.254561669921875,14.488549618320612,-13.358778625954198,-16.0,0.0
13.310000658035278,-9.993397729492187,2.114080065917969,1.0989385620117187,17.893129770992367,3.5114503816793894,-10.366412213740459,-7.3861121215820305,3.5697546752929687,0.9361328491210937,4.916030534351145,-7.557251908396947,-14.625954198473282,0.0
13.320000648498535,-10.376469995117187,3.0645781249999997,0.8092401611328125,12.51908396946565,1.3740458015267176,-9.49618320610687,-9.859322436523437,1.6711527587890624,2.750937707519531,-1.4961832061068703,1.786259541984733,-8.549618320610687,0.0
13.330000400543213,-9.655815295410155,2.1116858642578125,0.4836287353515625,11.34351145038168,1.0687022900763359,-7.404580152671755,-8.705317236328124,2.4061726684570313,2.4109610717773435,0.3816793893129771,0.5190839694656488,-9.267175572519085,0.0
13.340000629425049,-9.5001921875,1.350329736328125,0.24660277099609373,12.061068702290076,0.44274809160305345,-5.709923664122138,-9.289502441406249,1.7525556152343749,2.906560815429687,-0.6717557251908397,1.7404580152671756,-8.076335877862595,0.0
13.350000619888306,-9.157821350097656,0.93852705078125,-0.033518823242187495,10.335877862595419,0.9923664122137404,-8.122137404580153,-9.198522778320312,1.7477672119140624,2.8323405639648436,-2.1526717557251906,2.4885496183206106,-7.816793893129771,0.0
13.360000610351562,-9.593566052246093,1.1635820068359375,0.3064578125,8.51908396946565,0.8244274809160306,-10.335877862595419,-9.026140258789061,1.5777788940429687,2.9568390502929685,-5.679389312977099,4.931297709923665,-7.190839694656488,0.0
13.37000036239624,-9.648632690429688,1.438915197753906,0.33518823242187495,9.022900763358779,1.0229007633587786,-10.916030534351146,-8.93755479736328,1.649604943847656,2.8227637573242186,-6.67175572519084,5.694656488549619,-6.809160305343512,0.0
13.380000591278076,-9.765948571777344,1.8507178833007811,0.6153098266601562,8.412213740458014,0.7175572519083969,-10.50381679389313,-8.659827404785156,1.4532804077148436,2.877830395507812,-9.312977099236642,7.740458015267175,-5.786259541984733,0.0
13.390000820159912,-9.641450085449218,1.4796166259765624,1.0103531005859374,7.938931297709924,-0.9465648854961832,-10.748091603053435,-8.95670841064453,1.0510545288085937,2.786850732421875,-9.068702290076336,9.099236641221374,-4.916030534351145,0.0
13.40000057220459,-9.89523546142578,1.4125789794921875,1.5705962890624998,8.625954198473282,-2.2290076335877864,-11.84732824427481,-8.559270935058594,0.8810662109374999,2.5522189697265625,-8.625954198473282,10.854961832061068,-4.687022900763359,0.0
13.410000801086426,-10.896011755371093,3.67749375,3.2920272827148436,-1.6488549618320612,-6.656488549618321,-15.587786259541986,-9.014169250488282,0.05746083984375,2.5426421630859375,-5.801526717557252,13.038167938931299,-4.412213740458015,0.0
13.420000553131104,-12.246341491699217,3.699041564941406,3.603273498535156,-10.80916030534351,-14.564885496183207,-14.106870229007633,-8.090007409667969,0.4572925170898437,1.8818425048828125,-3.6030534351145036,14.65648854961832,-6.061068702290076,0.0
13.43000078201294,-9.813832604980469,2.511517541503906,2.1595698974609374,-5.740458015267175,-23.61832061068702,-6.213740458015267,-7.364564306640625,1.3455413330078123,1.0678139404296874,-4.900763358778626,18.549618320610687,-7.435114503816794,0.0
13.440000534057617,-10.570400329589843,2.3870190551757813,3.402160559082031,-4.977099236641221,-26.045801526717558,-4.641221374045801,-7.275978845214843,0.612915625,0.8068459594726562,-10.595419847328245,27.83206106870229,-5.572519083969466,0.0
13.450000524520874,-10.824185705566405,2.0973206542968748,4.2880151733398435,-7.282442748091603,-36.47328244274809,-2.7480916030534353,-6.959944226074218,-0.181959326171875,1.1563994018554686,-3.0229007633587788,34.38167938931298,-4.442748091603053,0.0
13.460000276565552,-10.338162768554687,0.565031591796875,4.1754876953124995,3.49618320610687,-42.85496183206107,0.48854961832061067,-6.4667386840820305,-0.6057330200195312,0.8020575561523438,2.854961832061069,34.48854961832061,-5.740458015267175,0.0
13.470000505447388,-10.632649572753905,-0.040701428222656245,5.015852478027344,18.396946564885496,-47.87786259541985,1.251908396946565,-7.082048510742187,0.5698199951171875,1.1563994018554686,7.709923664122138,41.282442748091604,-6.396946564885496,0.0
13.480000495910645,-11.978190905761718,1.5897499023437498,6.643909606933593,25.0381679389313,-60.091603053435115,1.2366412213740459,-5.748478186035156,2.3870190551757813,0.3280056274414062,1.1297709923664123,50.0,-5.068702290076335,0.0
13.490000486373901,-12.797007873535156,2.7533319091796873,7.9655089233398435,27.221374045801525,-75.17557251908397,5.877862595419847,-8.288726147460936,1.4030021728515625,0.9504980590820312,-2.0610687022900764,61.81679389312977,0.2748091603053435,0.0
13.500000476837158,-14.010868115234373,1.8722656982421875,8.870517150878905,33.038167938931295,-93.26717557251908,13.053435114503817,-11.499350573730467,-1.0773907470703123,1.917755529785156,6.687022900763359,62.900763358778626,0.183206106870229,0.0
13.510000705718994,-13.860033410644531,0.8810662109374999,9.287108239746093,54.76335877862596,-112.29007633587786,19.81679389312977,-11.396399902343749,-0.143652099609375,2.7629087158203123,1.465648854961832,62.82442748091603,-10.106870229007633,0.0
13.52000093460083,-15.844826586914062,2.1404162841796874,11.003750830078124,66.50381679389314,-135.58778625954199,24.396946564885496,-14.580688110351561,-3.8091748413085935,5.05655390625,0.0916030534351145,66.8854961832061,-11.511450381679388,0.0
13.530000686645508,-17.09220565185547,1.6400281372070311,11.585541833496093,81.23664122137404,-160.70229007633588,30.091603053435115,-14.669273571777342,-4.127603662109375,4.963180041503906,10.992366412213741,54.778625954198475,-16.50381679389313,0.0
13.540000915527344,-19.14643067626953,1.8243816650390623,12.332532751464843,95.77099236641222,-186.18320610687022,38.97709923664122,-12.943054174804686,-3.5984850952148437,4.455609289550781,24.549618320610687,47.41984732824427,-14.595419847328245,0.0
13.5500009059906,-21.70822645263672,1.8028338500976562,12.095506787109374,96.09160305343511,-218.53435114503816,48.091603053435115,-11.918335864257811,-3.801992236328125,3.318363500976562,49.83206106870229,31.862595419847327,-10.748091603053435,0.0
13.560000658035278,-22.342689892578125,2.5426421630859375,9.411606726074218,76.53435114503817,-244.3969465648855,53.51145038167939,-9.962273107910155,-1.7381904052734374,1.7693150268554687,61.083969465648856,24.748091603053435,-12.900763358778626,0.0
13.570000410079956,-23.022643164062497,0.51714755859375,8.43956085205078,57.49618320610687,-268.82442748091603,61.221374045801525,-6.9527616210937495,-1.0127473022460938,-0.277727392578125,56.0,21.251908396946565,-16.916030534351144,0.0
13.580000638961792,-21.581333764648438,1.0175357055664063,3.768473413085937,51.00763358778626,-278.7175572519084,78.01526717557252,-5.7700260009765625,2.1499930908203124,-2.3918074584960936,42.152671755725194,24.977099236641223,-20.15267175572519,0.0
13.590000629425049,-17.243040356445313,-2.987963671875,-0.2920926025390625,33.32824427480916,-278.68702290076334,86.06106870229007,-7.129932543945312,2.7916391357421872,-1.9009961181640624,18.015267175572518,38.19847328244275,-16.549618320610687,0.0
13.600000619888306,-10.635043774414061,-7.7763669921875,-4.429273071289062,17.450381679389313,-271.2519083969466,82.7175572519084,-4.192247106933594,7.433996154785156,-6.663063220214843,-16.12213740458015,38.595419847328245,-18.83969465648855,0.0
13.610000610351562,-7.182604980468749,-11.365275280761718,-6.605602380371093,21.404580152671755,-250.3206106870229,68.73282442748092,-8.281543542480469,7.630320690917968,-3.1172505615234374,-61.31297709923664,72.91603053435115,-7.022900763358779,0.0
13.62000060081482,-3.737348791503906,-9.95987890625,-6.763619689941406,21.221374045801525,-232.12213740458014,43.267175572519086,-9.052476477050782,4.57771357421875,-3.2417490478515623,-84.18320610687023,87.34351145038168,11.938931297709924,0.0
13.630000591278076,-4.690241052246093,-4.96078583984375,-7.79552060546875,35.41984732824427,-196.04580152671755,28.68702290076336,-15.349226843261718,1.4963760375976562,1.9680337646484374,-105.57251908396947,106.6412213740458,23.633587786259543,0.0
13.640000581741333,-5.276820458984375,-6.385335827636719,-5.592855078125,64.97709923664122,-156.53435114503816,26.198473282442748,-14.099453576660155,-1.3287819213867187,-0.011971008300781249,-113.41984732824427,94.54961832061069,27.84732824427481,0.0
13.650000810623169,-7.017405065917968,-4.642357019042969,-2.7653029174804686,100.7175572519084,-119.26717557251908,18.977099236641223,-14.58787071533203,-4.036623999023437,0.59376201171875,-115.09923664122137,95.92366412213741,29.221374045801525,0.0
13.660000562667847,-7.958326318359375,-2.300827795410156,-0.7996633544921875,107.34351145038168,-101.89312977099236,9.297709923664122,-10.283096130371094,-2.703053674316406,-1.3335703247070312,-79.09923664122137,74.97709923664122,27.52671755725191,0.0
13.670000791549683,-8.834604125976561,2.24097275390625,0.21787235107421873,107.54198473282443,-89.46564885496183,7.66412213740458,-11.863269226074218,-5.231330627441406,-0.23223756103515625,-73.58778625954199,81.5114503816794,27.49618320610687,0.0
13.68000054359436,-9.160215551757812,3.919308117675781,0.7278373046875,80.6412213740458,-84.85496183206106,12.580152671755725,-9.670180505371093,-6.76122548828125,0.9504980590820312,-34.54961832061068,70.09160305343511,30.38167938931298,0.0
13.690000534057617,-8.377311608886718,6.315903979492187,1.1348515869140625,54.58015267175573,-83.3587786259542,20.015267175572518,-8.283937744140625,-5.363011718749999,0.15083470458984374,-4.549618320610687,60.091603053435115,27.83206106870229,0.0
13.700000286102295,-7.738059765625,4.7189714721679685,0.19871873779296872,13.725190839694656,-89.3587786259542,25.66412213740458,-11.235988391113281,-7.1586629638671875,2.616862414550781,30.396946564885496,51.908396946564885,28.53435114503817,0.0
13.71000051498413,-6.7037646484375,2.501940734863281,1.5873557006835937,-10.65648854961832,-82.13740458015268,29.129770992366414,-11.997344519042969,-5.813121630859374,3.2441432495117186,78.35114503816794,31.69465648854962,29.419847328244273,0.0
13.720000505447388,-5.6215854980468745,2.0661960327148434,1.5969325073242187,-23.81679389312977,-80.74809160305344,28.671755725190838,-12.284648718261717,-0.4429273071289062,1.599326708984375,70.44274809160305,27.96946564885496,19.587786259541986,0.0
13.730000495910645,-3.1747114013671873,0.2059013427734375,1.944091748046875,-34.091603053435115,-72.74809160305344,28.229007633587788,-10.931924780273437,1.5682020874023437,1.2569558715820313,46.961832061068705,30.290076335877863,14.442748091603054,0.0
13.740000486373901,-5.767631799316406,2.6479870361328124,4.994304663085937,-43.37404580152672,-58.42748091603053,16.564885496183205,-10.390835205078124,0.9576806640625,1.47482822265625,40.68702290076336,26.763358778625953,16.061068702290076,0.0
13.750000238418579,-1.66636435546875,-0.852335791015625,3.076549133300781,-43.7557251908397,-58.732824427480914,14.854961832061068,-11.149797131347656,-0.0383072265625,0.45489831542968745,36.36641221374046,20.259541984732824,19.83206106870229,0.0
13.760000944137573,0.9792284790039062,-3.239354846191406,3.3016040893554686,-18.412213740458014,-38.030534351145036,12.763358778625955,-10.967837805175781,-1.6112977172851561,1.20667763671875,28.885496183206108,22.702290076335878,20.16793893129771,0.0
13.770000696182251,-0.8762778076171874,-1.1013327636718748,5.255272644042968,4.702290076335878,-17.908396946564885,6.809160305343512,-9.442731347656249,-1.1444283935546875,-0.15322890625,25.557251908396946,22.9618320610687,18.18320610687023,0.0
13.780000925064087,-2.93050283203125,2.4660277099609376,6.76122548828125,7.969465648854962,-9.938931297709924,5.32824427480916,-12.65335577392578,-7.580042456054687,4.450820886230469,39.00763358778626,24.015267175572518,21.419847328244273,0.0
13.790000438690186,-5.183446594238281,5.209782812499999,8.015787158203125,-4.67175572519084,-9.572519083969466,6.793893129770993,-10.149020837402343,-4.508281726074219,0.9337386474609375,88.06106870229007,-4.99236641221374,22.33587786259542,0.0
13.800000667572021,-4.659116430664063,3.744531396484375,7.544129431152343,-11.587786259541986,-9.038167938931299,14.274809160305344,-10.04846436767578,-1.1468225952148436,-0.4908113403320312,67.31297709923665,2.595419847328244,11.801526717557252,0.0
13.810000896453857,-3.2225954345703123,1.917755529785156,6.58884296875,-0.916030534351145,-2.045801526717557,18.549618320610687,-9.212887988281249,1.659181750488281,0.28730419921875,57.587786259541986,-0.12213740458015267,8.732824427480915,0.0
13.820000410079956,-4.283226770019531,3.1028853515624997,6.086060620117187,-2.0916030534351147,0.7480916030534351,17.923664122137403,-10.807426293945312,-1.2401964599609374,2.1787235107421874,53.32824427480916,4.595419847328245,12.442748091603054,0.0
13.830000400543213,-6.830657336425781,5.389347937011719,6.505045910644531,-20.137404580152673,2.4732824427480917,20.045801526717558,-9.279925634765624,1.898601916503906,-0.45489831542968745,53.404580152671755,-7.297709923664122,11.465648854961833,0.0
13.840000629425049,-6.023811376953125,3.9695863525390624,5.049371301269531,-34.33587786259542,1.633587786259542,27.19083969465649,-9.983820922851562,2.8419173706054686,-0.20829554443359374,11.557251908396946,7.816793893129771,10.198473282442748,0.0
13.850000619888306,-4.601655590820312,1.5801730957031248,4.034229797363281,-47.80152671755725,10.106870229007633,28.946564885496183,-9.536105212402344,2.070984436035156,0.25139117431640623,5.129770992366412,8.396946564885496,15.236641221374045,0.0
13.860000610351562,-3.0238766967773434,-1.905784521484375,2.0877438476562498,-50.534351145038165,18.27480916030534,26.748091603053435,-10.407594616699217,1.6639701538085936,0.023942016601562498,-9.083969465648854,8.748091603053435,21.083969465648856,0.0
13.87000036239624,-4.3813890380859375,-6.562506750488281,-0.5123591552734374,-23.954198473282442,44.82442748091603,24.870229007633586,-10.68053360595703,2.1835119140624997,-0.47165772705078124,-36.61068702290076,15.541984732824428,22.564885496183205,0.0
13.880000591278076,-7.884106066894531,-1.3000515014648437,1.5562310791015623,-11.923664122137405,62.0763358778626,14.320610687022901,-11.034875451660156,0.0047884033203125,0.7805097412109374,-47.51145038167939,24.045801526717558,33.099236641221374,0.0
13.890000820159912,-12.07874737548828,2.9041666137695312,7.058106494140625,12.717557251908397,65.29770992366412,17.419847328244273,-11.489773767089844,-2.43250888671875,0.7613561279296874,-54.85496183206107,20.16793893129771,37.770992366412216,0.0
13.90000033378601,-9.651026892089844,-1.2761094848632812,9.220070593261719,48.01526717557252,68.16793893129771,22.091603053435115,-13.256694592285156,-3.318363500976562,2.2385785522460937,-45.7557251908397,18.595419847328245,36.778625954198475,0.0
13.910000801086426,-14.003685510253906,6.706158850097656,5.887341882324218,36.961832061068705,76.8854961832061,7.648854961832061,-12.409147204589843,-4.000710974121094,2.5761609863281247,-41.404580152671755,10.320610687022901,26.916030534351144,0.0
13.920000553131104,-6.768408093261718,2.35589443359375,-2.01112939453125,26.442748091603054,72.68702290076335,10.793893129770993,-12.871228125,-3.8283284545898435,3.318363500976562,-38.18320610687023,6.091603053435114,17.419847328244273,0.0
13.93000078201294,-10.141838232421874,3.2154128295898436,2.0374656127929685,8.885496183206106,83.19083969465649,1.1450381679389312,-11.532869396972655,-0.2657563842773437,3.6631285400390623,-42.48854961832061,4.534351145038168,4.534351145038168,0.0
13.940000534057617,-9.409212524414063,2.592920397949219,1.8722656982421875,4.0,83.09923664122137,4.732824427480916,-12.57674132080078,2.233790148925781,3.337517114257812,-46.030534351145036,-3.3435114503816794,3.0381679389312977,0.0
13.950000524520874,-9.476250170898437,1.1348515869140625,3.8091748413085935,-0.07633587786259542,85.22137404580153,5.145038167938932,-14.911087939453123,3.308786694335937,2.844311572265625,-43.69465648854962,-12.13740458015267,9.206106870229007,0.0
13.96000051498413,-9.050082275390624,-0.9193734375,3.450044592285156,5.404580152671755,84.68702290076335,1.9083969465648856,-17.037139013671872,3.7301661865234372,2.6336218261718747,-25.893129770992367,-28.580152671755727,16.80916030534351,0.0
13.970000505447388,-10.838550915527343,0.12210428466796874,3.0502129150390624,13.86259541984733,89.08396946564885,-3.312977099236641,-15.66047305908203,5.216965417480468,1.7908628417968748,-43.17557251908397,-32.29007633587786,17.61832061068702,0.0
13.980000734329224,-7.517793212890624,-2.061407629394531,0.49799394531249996,19.435114503816795,87.93893129770993,-7.32824427480916,-14.865598107910156,4.211400720214844,1.6831237670898436,-49.14503816793893,-37.221374045801525,15.404580152671755,0.0
13.990000247955322,-7.781155395507812,-2.3511060302734372,1.2832920898437499,39.725190839694655,103.34351145038168,-15.572519083969466,-13.441048120117186,2.123656872558594,0.9026140258789062,-47.06870229007634,-36.61068702290076,13.801526717557252,0.0
14.000000476837158,-11.264718811035156,1.927332336425781,0.9433154541015625,31.068702290076335,102.61068702290076,-29.16030534351145,-12.310984936523436,0.40222587890625,1.3910311645507811,-30.16793893129771,-38.396946564885496,10.259541984732824,0.0
14.010000705718994,-8.513781103515624,-0.9433154541015625,0.031124621582031248,33.847328244274806,99.46564885496183,-23.87786259541985,-10.388441003417968,-0.3016694091796875,0.3495534423828125,-7.145038167938932,-45.31297709923664,7.633587786259542,0.0
14.020000457763672,-8.736441857910156,-1.7980454467773437,0.7613561279296874,59.16030534351145,113.8473282442748,-24.80916030534351,-9.545682019042967,1.2928688964843749,-0.8451531860351562,11.435114503816793,-52.12213740458015,2.9618320610687023,0.0
14.030000448226929,-12.363657373046875,3.5194764404296874,3.0837317382812497,53.587786259541986,113.40458015267176,-36.030534351145036,-9.083601098632812,2.990357873535156,-1.22583125,15.877862595419847,-48.6412213740458,0.366412213740458,0.0
14.040000915527344,-8.621520178222656,-0.22505495605468748,-1.4101847778320311,52.36641221374046,103.45038167938931,-31.908396946564885,-6.610390783691406,2.9927520751953125,-2.205059729003906,-0.6870229007633588,-45.14503816793893,-1.083969465648855,0.0
14.050000667572021,-9.9215716796875,-0.07900865478515624,1.120486376953125,78.70229007633588,120.4885496183206,-33.343511450381676,-8.264784130859374,1.4245499877929686,-1.1659762084960936,-6.244274809160306,-36.458015267175576,1.816793893129771,0.0
14.060000658035278,-12.679691992187498,5.8226984375,3.497928625488281,61.87786259541985,114.1526717557252,-45.02290076335878,-7.484274389648437,1.9129671264648436,-0.9911994873046874,-17.297709923664122,-30.931297709923665,-1.8625954198473282,0.0
14.070000648498535,-11.975796704101562,5.224148022460938,1.2330138549804688,31.099236641221374,96.30534351145039,-40.67175572519084,-9.588777648925781,0.488417138671875,-0.8810662109374999,-17.14503816793893,-28.580152671755727,-2.885496183206107,0.0
14.080000638961792,-9.763554370117188,3.438073583984375,1.0821791503906248,25.862595419847327,95.45038167938931,-34.51908396946565,-9.188945971679686,1.4149731811523436,-2.2026655273437497,-19.84732824427481,-27.16030534351145,-6.595419847328245,0.0
14.090000629425049,-12.045228552246092,5.252878442382812,2.422932080078125,9.007633587786259,88.8854961832061,-34.595419847328245,-9.011775048828124,1.4796166259765624,-3.574543078613281,-18.580152671755727,-23.557251908396946,-10.961832061068701,0.0
14.100000619888306,-11.982979309082031,5.628768103027343,2.29843359375,-10.67175572519084,81.77099236641222,-32.458015267175576,-10.058041174316406,0.08140285644531249,-2.9831752685546875,-12.488549618320612,-19.267175572519083,-11.114503816793894,0.0
14.110000610351562,-10.828974108886719,4.493916516113281,2.080561242675781,-34.80916030534351,68.1526717557252,-28.3206106870229,-9.993397729492187,0.4644751220703125,-2.5426421630859375,-3.4656488549618323,-19.862595419847327,-12.412213740458014,0.0
14.12000060081482,-9.629479077148437,0.7996633544921875,1.1276689819335937,-31.17557251908397,71.38931297709924,-24.38167938931298,-9.210493786621093,1.8602946899414061,-2.0829554443359375,1.1603053435114503,-18.33587786259542,-12.15267175572519,0.0
14.130000352859497,-8.736441857910156,0.3447650390625,1.5442600708007812,-23.221374045801525,71.45038167938931,-24.9618320610687,-8.741230261230468,2.8467057739257813,-1.4987702392578124,3.9389312977099236,-15.587786259541986,-10.244274809160306,0.0
14.140000343322754,-8.686163623046875,0.1580173095703125,0.9935936889648437,-14.076335877862595,73.08396946564885,-26.106870229007633,-8.240842114257813,3.39018955078125,-1.1324573852539062,1.7404580152671756,-13.297709923664122,-8.290076335877863,0.0
14.15000033378601,-9.370905297851563,0.93852705078125,1.7549498168945312,-3.9236641221374047,77.54198473282443,-25.923664122137403,-8.042123376464843,2.5570073730468748,-0.6248866333007812,-1.0229007633587786,-10.01526717557252,-7.236641221374046,0.0
14.160000324249268,-10.702081420898438,3.2225954345703123,1.924938134765625,-9.725190839694656,74.10687022900764,-27.17557251908397,-9.490615380859374,0.6057330200195312,-0.086191259765625,11.465648854961833,-11.007633587786259,-5.969465648854962,0.0
14.170000791549683,-10.46984385986328,1.5921441040039062,1.6160861206054686,-11.083969465648854,73.2824427480916,-24.778625954198475,-7.8912886718749995,0.1197100830078125,-0.0430956298828125,17.64885496183206,-17.603053435114504,-8.229007633587786,0.0
14.18000054359436,-10.412383020019531,1.5777788940429687,1.5394716674804687,-8.381679389312977,73.7557251908397,-24.015267175572518,-8.243236315917969,0.9433154541015625,0.1005564697265625,23.297709923664122,-18.458015267175572,-10.778625954198473,0.0
14.190000534057617,-13.383587280273437,5.360617517089843,3.220201232910156,-22.03053435114504,68.22900763358778,-26.778625954198475,-8.8872765625,2.808398547363281,-0.3687070556640625,18.48854961832061,-17.572519083969464,-12.961832061068701,0.0
14.200000286102295,-13.266271398925781,6.739677673339843,3.191470812988281,-53.6793893129771,53.343511450381676,-25.419847328244273,-9.356540087890625,4.333505004882812,0.08858546142578125,-2.1374045801526718,-13.86259541984733,-12.83969465648855,0.0
14.21000051498413,-10.685322009277343,4.350264416503906,2.3247698120117186,-77.43511450381679,36.0763358778626,-19.34351145038168,-8.188169677734374,4.73094248046875,-1.5873557006835937,-16.80916030534351,-12.0,-9.541984732824428,0.0
14.220000505447388,-9.926360083007811,0.9624690673828125,1.4604630126953124,-75.26717557251908,32.97709923664122,-14.854961832061068,-9.370905297851563,3.0550013183593747,0.5506663818359374,-28.16793893129771,-0.42748091603053434,-2.427480916030534,0.0
14.230000495910645,-7.941566906738281,-0.7326257080078125,1.1180921752929687,-57.20610687022901,35.37404580152672,-12.13740458015267,-9.093177905273437,2.365471240234375,0.51714755859375,-21.31297709923664,-1.0076335877862594,-0.07633587786259542,0.0
14.240000486373901,-8.473079675292968,-0.09576806640624999,0.9457096557617187,-39.43511450381679,35.45038167938932,-11.938931297709924,-10.963049401855468,-0.20350714111328125,1.6615759521484375,-3.9389312977099236,-3.7099236641221376,1.2061068702290076,0.0
14.250000476837158,-11.899182250976562,2.142810485839844,1.8028338500976562,-28.061068702290076,35.93893129770992,-11.435114503816793,-9.507374792480467,-1.2713210815429687,2.1643583007812497,10.580152671755725,-12.65648854961832,-2.50381679389313,0.0
14.260000467300415,-11.394005700683593,2.655169641113281,2.4444798950195312,-24.106870229007633,33.70992366412214,-10.305343511450381,-9.643844287109374,-1.4628572143554686,2.480392919921875,29.770992366412212,-20.885496183206108,-7.480916030534351,0.0
14.270000696182251,-8.91840118408203,0.36152445068359373,0.9983820922851562,-18.549618320610687,29.801526717557252,-8.229007633587786,-9.5001921875,0.7805097412109374,1.13006318359375,40.97709923664122,-31.52671755725191,-11.83206106870229,0.0
14.280000925064087,-9.13627353515625,1.0606313354492187,1.0199299072265624,-5.1603053435114505,33.541984732824424,-9.32824427480916,-8.202534887695313,3.1555577880859373,1.2330138549804688,18.48854961832061,-30.0,-16.610687022900763,0.0
14.290000677108765,-13.922282653808592,7.802703210449218,4.65432802734375,-27.358778625954198,28.229007633587788,-14.992366412213741,-9.665392102050781,0.7709329345703124,2.1164742675781247,16.27480916030534,-25.282442748091604,-12.16793893129771,0.0
14.3000009059906,-11.355698474121093,6.763619689941406,1.8818425048828125,-71.06870229007633,6.748091603053435,-11.725190839694656,-9.746794958496093,0.8930372192382812,1.1875240234375,26.15267175572519,-36.595419847328245,-9.282442748091603,0.0
14.310000658035278,-9.390058911132812,2.9472622436523435,0.4955997436523437,-71.6793893129771,5.129770992366412,-1.1297709923664123,-8.525752111816406,3.4572271972656248,0.469263525390625,3.572519083969466,-36.85496183206107,-13.404580152671755,0.0
14.320000648498535,-12.600683337402343,4.53940634765625,5.05655390625,-74.93129770992367,8.687022900763358,1.1450381679389312,-9.964667309570311,0.469263525390625,2.4157494750976563,1.3740458015267176,-29.480916030534353,-10.305343511450381,0.0
14.330000638961792,-10.690110412597656,2.8945898071289062,2.272097375488281,-92.58015267175573,-10.244274809160306,2.564885496183206,-10.625466967773438,-0.41419688720703124,1.9201497314453124,18.12213740458015,-42.13740458015267,-9.48091603053435,0.0
14.34000039100647,-9.686939916992188,0.239420166015625,1.209071838378906,-66.4885496183206,-4.961832061068702,11.740458015267176,-9.380482104492186,1.656787548828125,1.8291700683593748,12.259541984732824,-47.74045801526717,-13.633587786259541,0.0
14.350000619888306,-8.480262280273436,-2.422932080078125,1.2378022583007813,-51.89312977099237,-2.7022900763358777,10.580152671755725,-10.596736547851561,-0.33518823242187495,2.7461493041992187,19.587786259541986,-47.52671755725191,-11.969465648854962,0.0
14.360000610351562,-8.813056311035156,-2.3439234252929686,1.5945383056640625,-32.229007633587784,3.7251908396946565,2.9618320610687023,-9.813832604980469,1.177947216796875,1.9871873779296874,29.64885496183206,-57.81679389312977,-13.664122137404581,0.0
14.37000060081482,-7.094019519042968,-2.616862414550781,-0.5123591552734374,-13.099236641221374,7.099236641221374,-4.076335877862595,-9.593566052246093,0.8643067993164062,2.779668127441406,28.717557251908396,-56.396946564885496,-14.259541984732824,0.0
14.380000352859497,-8.269572534179687,-0.3447650390625,0.5219359619140624,0.16793893129770993,15.679389312977099,-10.763358778625955,-8.901641772460938,1.9680337646484374,1.5753846923828123,27.297709923664122,-61.9236641221374,-15.618320610687023,0.0
14.390000820159912,-9.811438403320311,2.3247698120117186,0.86191259765625,-7.221374045801527,15.679389312977099,-14.412213740458014,-9.042899670410156,1.4604630126953124,2.5665841796874997,17.786259541984734,-53.786259541984734,-14.83969465648855,0.0
14.40000033378601,-10.453084448242187,3.77326181640625,1.199495031738281,-10.0,20.47328244274809,-11.511450381679388,-9.330203869628905,1.4125789794921875,1.62805712890625,13.358778625954198,-58.56488549618321,-15.511450381679388,0.0
14.410001039505005,-8.525752111816406,1.618480322265625,-0.10773907470703124,-12.091603053435115,21.480916030534353,-7.068702290076335,-7.539341027832031,3.0071172851562498,1.407790576171875,-4.748091603053435,-50.25954198473283,-16.53435114503817,0.0
14.420000553131104,-7.800309008789062,0.8355763793945312,0.833182177734375,-13.145038167938932,26.290076335877863,-6.534351145038168,-10.070012182617187,0.10295067138671875,1.8339584716796873,-6.885496183206107,-43.86259541984733,-9.312977099236642,0.0
14.43000054359436,-8.695740429687499,0.33039982910156246,0.18914193115234373,-9.48091603053435,28.702290076335878,-10.183206106870228,-9.627084875488281,0.41419688720703124,1.6017209106445311,3.801526717557252,-48.152671755725194,-12.290076335877863,0.0
14.440000295639038,-8.90643017578125,-0.08379705810546874,0.4836287353515625,0.32061068702290074,33.404580152671755,-12.229007633587786,-8.36294639892578,2.0183119995117185,1.0749965454101562,-2.549618320610687,-44.93129770992366,-13.618320610687023,0.0
14.450000524520874,-9.80665,1.2473790649414063,1.197100830078125,0.4580152671755725,33.48091603053435,-15.84732824427481,-8.195352282714843,1.2904746948242187,0.33518823242187495,-14.83969465648855,-38.6412213740458,-11.709923664122137,0.0
14.46000051498413,-9.981426721191406,2.540247961425781,1.199495031738281,-2.6564885496183206,30.885496183206108,-16.3206106870229,-8.149862451171874,1.3168109130859373,0.4165910888671875,-16.748091603053435,-31.938931297709924,-13.404580152671755,0.0
14.470000505447388,-10.577582934570312,3.21780703125,1.3646949462890625,-6.625954198473282,27.72519083969466,-13.587786259541986,-9.892841259765625,0.17477672119140625,0.9050082275390624,-5.893129770992366,-29.480916030534353,-12.320610687022901,0.0
14.480000495910645,-10.606313354492187,2.070984436035156,0.9121908325195311,-5.679389312977099,25.908396946564885,-11.34351145038168,-8.947131604003905,0.24181436767578124,1.6831237670898436,5.633587786259542,-30.259541984732824,-12.01526717557252,0.0
14.490000486373901,-9.6151138671875,0.23223756103515625,0.6296750366210937,1.5419847328244274,24.916030534351144,-10.076335877862595,-10.117896215820313,-0.3687070556640625,2.080561242675781,14.381679389312977,-32.916030534351144,-10.641221374045802,0.0
14.500000476837158,-11.049240661621093,0.8379705810546875,1.2593500732421874,8.366412213740459,25.64885496183206,-11.312977099236642,-9.967061511230469,1.6448165405273436,2.094926452636719,22.702290076335878,-36.25954198473283,-11.419847328244275,0.0
14.510000705718994,-9.622296472167967,0.82360537109375,0.5339069702148437,3.6030534351145036,18.65648854961832,-12.564885496183207,-7.963114721679687,4.034229797363281,1.1659762084960936,7.480916030534351,-36.595419847328245,-11.770992366412214,0.0
14.520000457763672,-10.043675964355469,2.2960393920898436,1.218648645019531,9.083969465648854,22.213740458015266,-13.053435114503817,-7.644685900878906,3.3973721557617185,1.1252747802734375,-12.65648854961832,-27.6793893129771,-8.122137404580153,0.0
14.530000686645508,-9.909600671386718,3.517082238769531,1.0031704956054688,-6.0,16.85496183206107,-13.877862595419847,-9.670180505371093,1.4245499877929686,2.5426421630859375,-18.03053435114504,-16.99236641221374,-4.885496183206107,0.0
14.540000915527344,-9.770736975097655,3.047818713378906,0.12689268798828124,-12.091603053435115,16.38167938931298,-10.244274809160306,-9.45470235595703,0.9935936889648437,0.8738836059570312,-8.427480916030534,-24.702290076335878,-5.9541984732824424,0.0
14.550000667572021,-9.361328491210937,1.889025109863281,-0.4477157104492187,-7.419847328244275,17.908396946564885,-6.702290076335878,-10.488997473144531,0.45489831542968745,2.3726538452148436,4.427480916030534,-20.9618320610687,-3.66412213740458,0.0
14.560000658035278,-9.169792358398437,0.4644751220703125,-0.2825157958984375,-11.816793893129772,18.885496183206108,-8.961832061068701,-9.763554370117188,-0.2825157958984375,2.023100402832031,13.297709923664122,-24.15267175572519,-5.312977099236641,0.0
14.570000648498535,-8.997409838867187,0.20829554443359374,0.26336218261718747,2.519083969465649,28.671755725190838,-11.587786259541986,-8.568847741699217,1.3479355346679687,1.66636435546875,15.435114503816793,-23.389312977099237,-5.8320610687022905,0.0
14.580000638961792,-10.16338604736328,1.637633935546875,1.8148048583984373,-1.7404580152671756,29.633587786259543,-17.801526717557252,-6.45476767578125,3.7110125732421873,0.08140285644531249,-2.564885496183206,-16.65648854961832,-8.091603053435115,0.0
14.59000039100647,-12.299013928222655,4.019864587402344,2.5330653564453125,-12.01526717557252,27.14503816793893,-19.541984732824428,-10.156203442382813,0.2657563842773437,2.2170307373046874,-11.419847328244275,-1.1145038167938932,-2.122137404580153,0.0
14.600000619888306,-12.717999218749998,4.527435339355469,2.288856787109375,-19.61832061068702,22.519083969465647,-16.106870229007633,-7.896077075195312,1.9919757812499999,0.3112462158203125,-5.862595419847328,-8.229007633587786,-7.877862595419847,0.0
14.610000848770142,-11.777077966308592,4.46279189453125,1.5155296508789062,-24.03053435114504,19.236641221374047,-10.931297709923664,-10.067617980957031,0.06943184814453125,2.5163059448242184,-1.3435114503816794,-1.786259541984733,-4.580152671755725,0.0
14.620000839233398,-10.263942517089843,1.848323681640625,0.4429273071289062,-31.053435114503817,12.305343511450381,-7.694656488549619,-8.425195642089843,1.4173673828125,1.908178723144531,-2.7938931297709924,-2.381679389312977,-6.809160305343512,0.0
14.630000591278076,-9.121908325195312,0.08140285644531249,0.36631285400390623,-18.213740458015266,17.587786259541986,-4.931297709923665,-9.028534460449219,1.1755530151367186,2.5450363647460934,-2.2442748091603053,-1.3587786259541985,-5.435114503816794,0.0
14.640000581741333,-9.215282189941405,-0.3447650390625,0.40222587890625,-20.061068702290076,16.427480916030536,-10.305343511450381,-8.224082702636718,1.9009961181640624,2.7629087158203123,-3.404580152671756,0.061068702290076333,-4.748091603053435,0.0
14.65000033378601,-9.962273107910155,0.29448680419921874,0.45010991210937495,-15.34351145038168,15.908396946564885,-13.633587786259541,-8.892064965820312,1.7405846069335937,2.913743420410156,-6.213740458015267,0.6259541984732825,-2.4732824427480917,0.0
14.660000562667847,-9.907206469726562,0.4860229370117187,0.06943184814453125,-9.603053435114504,16.259541984732824,-13.679389312977099,-8.341398583984375,1.8602946899414061,2.89219560546875,-11.312977099236642,1.3740458015267176,-0.8244274809160306,0.0
14.670000791549683,-9.861716638183593,0.7158662963867187,0.19871873779296872,-7.908396946564886,16.763358778625953,-14.13740458015267,-8.765172277832031,1.2904746948242187,2.7461493041992187,-12.641221374045802,0.9312977099236641,0.10687022900763359,0.0
14.68000054359436,-9.885658654785155,0.9433154541015625,0.1197100830078125,-7.9541984732824424,16.259541984732824,-14.488549618320612,-8.89924757080078,0.6105214233398437,3.0310593017578125,-12.091603053435115,1.2213740458015268,0.6412213740458015,0.0
14.690000534057617,-9.813832604980469,1.2785036865234374,0.055066638183593745,-7.633587786259542,16.702290076335878,-15.267175572519085,-8.973467822265624,0.4213794921875,2.6240450195312497,-12.961832061068701,1.4198473282442747,0.5801526717557252,0.0
14.700000524520874,-10.041281762695311,1.66636435546875,0.37828386230468747,-9.816793893129772,16.580152671755727,-16.732824427480917,-8.348581188964843,0.7326257080078125,2.3535002319335936,-13.267175572519085,2.7938931297709924,-0.9465648854961832,0.0
14.71000051498413,-9.627084875488281,1.7932570434570312,0.7565677246093749,-10.977099236641221,16.15267175572519,-16.12213740458015,-8.872911352539061,0.5147533569335937,2.195482922363281,-13.725190839694656,4.366412213740458,-0.6106870229007634,0.0
14.720000505447388,-10.007762939453125,1.5969325073242187,0.8451531860351562,-10.977099236641221,15.648854961832061,-15.526717557251908,-8.911218579101561,0.45010991210937495,2.114080065917969,-11.969465648854962,5.9541984732824424,-1.2213740458015268,0.0
14.730000257492065,-9.660603698730467,1.2832920898437499,0.7230489013671875,-8.473282442748092,15.526717557251908,-15.923664122137405,-9.006986645507812,0.4477157104492187,2.0757728393554684,-10.183206106870228,7.236641221374046,-1.2671755725190839,0.0
14.74000072479248,-9.792284790039062,1.0486603271484374,0.8379705810546875,-7.00763358778626,15.450381679389313,-16.99236641221374,-8.975862023925782,0.3447650390625,1.936909143066406,-7.8320610687022905,8.183206106870228,-2.4580152671755724,0.0
14.750000476837158,-9.437942944335937,0.38786066894531246,0.9313444458007812,-3.786259541984733,13.282442748091603,-18.458015267175572,-9.076418493652342,0.16759411621093748,1.8004396484374998,-5.572519083969466,9.19083969465649,-2.8702290076335877,0.0
14.760000467300415,-9.464279162597656,0.09337386474609374,1.908178723144531,13.648854961832061,19.221374045801525,-19.69465648854962,-8.997409838867187,-0.28490999755859375,1.7453730102539062,-1.8625954198473282,11.526717557251908,-4.1679389312977095,0.0
14.770000696182251,-10.87206973876953,1.3551181396484375,3.0693665283203124,17.053435114503817,19.389312977099237,-24.244274809160306,-8.801085302734375,-0.45010991210937495,1.5298948608398437,5.816793893129771,13.221374045801527,-6.702290076335878,0.0
14.780000925064087,-11.571176623535155,2.5713725830078125,2.8514941772460936,18.259541984732824,12.763358778625955,-25.709923664122137,-8.959102612304687,-0.4525041137695312,1.5011644409179687,13.206106870229007,15.068702290076336,-8.13740458015267,0.0
