timestamp,Thigh_L_Acc_X,Thigh_L_Acc_Y,Thigh_L_Acc_Z,Thigh_L_Gyr_X,Thigh_L_Gyr_Y,Thigh_L_Gyr_Z,Thigh_R_Acc_X,Thigh_R_Acc_Y,Thigh_R_Acc_Z,Thigh_R_Gyr_X,Thigh_R_Gyr_Y,Thigh_R_Gyr_Z,gpio_output
10.000000476837158,-9.68454571533203,0.5746083984375,1.4245499877929686,-8.931297709923664,17.053435114503817,-4.549618320610687,-9.588777648925781,1.1659762084960936,0.1197100830078125,-7.251908396946565,3.6793893129770994,9.938931297709924,0.0
10.010000944137573,-9.634267480468749,1.3646949462890625,1.599326708984375,-1.3587786259541985,15.603053435114504,-3.572519083969466,-9.275137231445312,1.4963760375976562,-0.040701428222656245,-8.50381679389313,2.6564885496183206,9.114503816793894,1.0
10.020000457763672,-9.564835632324218,1.9752163696289062,1.3910311645507811,2.8244274809160306,15.007633587786259,-1.8931297709923665,-9.34696328125,1.177947216796875,-0.01915361328125,-7.862595419847328,2.7022900763358777,9.725190839694656,1.0
10.030000925064087,-9.442731347656249,1.8195932617187498,1.1444283935546875,6.0458015267175576,14.381679389312977,0.015267175572519083,-9.375693701171874,0.5506663818359374,0.00239420166015625,-3.8473282442748094,2.9923664122137406,9.725190839694656,1.0
10.040000677108765,-9.411606726074218,1.5298948608398437,0.718260498046875,8.122137404580153,13.312977099236642,0.7938931297709924,-10.967837805175781,-0.9313444458007812,-0.4836287353515625,12.946564885496183,1.0381679389312977,9.267175572519085,1.0
10.050000667572021,-9.679757312011718,1.9752163696289062,0.7015010864257812,9.068702290076336,13.129770992366412,0.0916030534351145,-8.59278975830078,0.181959326171875,0.33518823242187495,23.633587786259543,-6.091603053435114,2.885496183206107,1.0
10.060000658035278,-9.56962403564453,2.152387292480469,0.5123591552734374,7.32824427480916,13.312977099236642,-0.015267175572519083,-8.537723120117187,0.4955997436523437,-0.7589619262695312,24.27480916030534,-5.923664122137405,2.3206106870229006,1.0
10.070000648498535,-9.404424121093749,2.3247698120117186,0.4955997436523437,3.068702290076336,13.267175572519085,-0.16793893129770993,-9.478644372558593,3.0310593017578125,-1.5035586425781249,22.18320610687023,-1.0076335877862594,1.2366412213740459,1.0
10.080000638961792,-9.6917283203125,2.3630770385742186,0.3854664672851562,-3.2519083969465647,13.236641221374045,-0.22900763358778625,-10.0748005859375,2.3487118286132813,-1.1468225952148436,14.80916030534351,5.32824427480916,3.0381679389312977,1.0
10.090000867843628,-9.402029919433593,2.205059729003906,0.3184288208007812,-6.870229007633588,13.938931297709924,-0.10687022900763359,-8.971073620605468,2.906560815429687,-0.14125789794921875,0.7175572519083969,12.0,3.5114503816793894,1.0
10.100000381469727,-10.32379755859375,3.0142998901367184,1.1707646118164061,-11.557251908396946,15.48091603053435,-0.4732824427480916,-10.089165795898436,1.5346832641601562,-0.7876923461914062,4.900763358778626,11.083969465648854,5.1603053435114505,1.0
10.110000610351562,-10.333374365234375,2.085349645996094,0.7230489013671875,-16.916030534351144,12.580152671755725,0.3511450381679389,-9.832986218261718,1.2521674682617188,-0.02154781494140625,4.534351145038168,12.396946564885496,4.519083969465649,1.0
10.12000060081482,-9.662997900390625,0.948103857421875,0.5147533569335937,-12.305343511450381,13.419847328244275,1.8931297709923665,-9.873687646484374,1.4101847778320311,-0.29927520751953124,6.977099236641221,12.793893129770993,5.221374045801527,1.0
10.130000591278076,-9.993397729492187,1.5682020874023437,0.9193734375,-11.557251908396946,14.091603053435115,0.6259541984732825,-9.770736975097655,1.68551796875,-0.239420166015625,7.648854961832061,11.86259541984733,6.1679389312977095,1.0
10.140000343322754,-10.151415039062499,1.5538368774414062,0.814028564453125,-11.145038167938932,12.748091603053435,1.297709923664122,-9.689334118652344,1.9393033447265624,-0.19153613281249998,6.748091603053435,11.740458015267176,7.480916030534351,1.0
10.15000057220459,-9.974244116210937,1.429338391113281,0.44532150878906246,-9.755725190839694,13.19083969465649,2.5801526717557253,-9.701305126953125,1.7190367919921874,-0.06703764648437499,4.625954198473282,11.129770992366412,7.526717557251908,1.0
10.160000562667847,-9.380482104492186,1.35990654296875,0.08140285644531249,-9.282442748091603,14.030534351145038,2.2900763358778624,-9.624690673828125,1.66636435546875,0.09337386474609374,2.0,10.641221374045802,6.900763358778626,1.0
10.170000314712524,-9.181763366699219,1.2018892333984375,0.06943184814453125,-10.702290076335878,14.351145038167939,1.9541984732824427,-9.679757312011718,1.5801730957031248,0.5147533569335937,0.3816793893129771,9.282442748091603,6.6106870229007635,1.0
10.180000305175781,-9.13627353515625,1.1420341918945311,0.0526724365234375,-12.51908396946565,14.67175572519084,1.1145038167938932,-9.576806640625,1.5514426757812498,0.5099649536132812,-1.4351145038167938,7.969465648854962,6.580152671755725,1.0
10.190000534057617,-9.035717065429687,0.9935936889648437,0.1292868896484375,-13.83206106870229,14.687022900763358,0.07633587786259542,-9.490615380859374,1.6065093139648436,0.6871358764648438,-2.9923664122137406,6.580152671755725,6.5038167938931295,1.0
10.200000524520874,-9.267954626464844,1.0654197387695312,0.39983167724609375,-14.641221374045802,14.854961832061068,-0.7022900763358778,-9.294290844726563,1.5251064575195312,0.5291185668945312,-4.641221374045801,4.412213740458015,6.854961832061068,1.0
10.21000051498413,-9.639055883789062,1.0271125122070313,0.5482721801757812,-12.977099236641221,15.068702290076336,-0.7938931297709924,-9.114725720214842,1.426944189453125,0.7757213378906249,-6.67175572519084,2.183206106870229,7.282442748091603,0.0
10.220000505447388,-10.12507882080078,1.5011644409179687,0.5291185668945312,-13.694656488549619,14.687022900763358,0.183206106870229,-8.968679418945312,1.5418658691406248,1.0079588989257813,-9.038167938931299,0.549618320610687,7.4961832061068705,0.0
10.230000734329224,-10.175357055664062,1.908178723144531,0.5410895751953124,-14.213740458015268,14.473282442748092,1.251908396946565,-8.930372192382812,1.8028338500976562,0.8116343627929687,-12.458015267175572,-0.6870229007633588,7.099236641221374,0.0
10.240000247955322,-10.192116467285155,2.157175695800781,0.2753331909179687,-18.671755725190838,13.511450381679388,1.450381679389313,-8.8872765625,1.6160861206054686,0.7685387329101562,-17.083969465648856,-1.5419847328244274,6.717557251908397,0.0
10.250000476837158,-9.888052856445311,1.697488977050781,0.18914193115234373,-21.129770992366414,13.770992366412214,1.251908396946565,-9.368511096191405,1.47482822265625,0.6584054565429687,-19.46564885496183,-1.7709923664122138,6.473282442748092,0.0
10.260000467300415,-9.686939916992188,1.4149731811523436,0.19871873779296872,-24.091603053435115,13.16030534351145,0.0916030534351145,-9.406818322753905,1.3383587280273437,0.33039982910156246,-22.442748091603054,-2.7786259541984735,5.129770992366412,0.0
10.27000093460083,-9.457096557617186,0.9744400756835937,0.18435352783203124,-23.954198473282442,12.549618320610687,0.061068702290076333,-9.809044201660155,1.3072341064453123,0.5363011718749999,-24.717557251908396,-3.5419847328244276,4.229007633587786,0.0
10.280000686645508,-9.651026892089844,1.0103531005859374,0.33518823242187495,-21.221374045801525,12.702290076335878,-0.5954198473282443,-9.7683427734375,1.2330138549804688,0.23702596435546874,-26.80916030534351,-3.7099236641221376,2.7786259541984735,0.0
10.290000915527344,-9.617508068847656,0.8020575561523438,0.181959326171875,-18.3206106870229,12.030534351145038,-0.366412213740458,-9.763554370117188,1.0678139404296874,0.13168109130859373,-26.82442748091603,-3.053435114503817,1.7404580152671756,0.0
10.300000429153442,-9.648632690429688,0.3687070556640625,-0.07900865478515624,-12.900763358778626,12.458015267175572,-0.04580152671755725,-9.536105212402344,1.6472107421875,-0.507570751953125,-25.66412213740458,-1.8778625954198473,0.3816793893129771,0.0
10.3100004196167,-8.420407238769531,-0.8475473876953125,-0.5027823486328125,1.6030534351145038,17.603053435114504,-0.6412213740458015,-9.95987890625,0.9528922607421875,-0.19393033447265623,-23.862595419847327,0.3511450381679389,-0.8244274809160306,0.0
10.320000648498535,-9.30147344970703,1.2713210815429687,-0.22266075439453123,5.221374045801527,20.35114503816794,-4.412213740458015,-9.97903251953125,0.8858546142578124,-0.10773907470703124,-21.267175572519083,0.24427480916030533,-3.1755725190839694,0.0
10.330000638961792,-9.267954626464844,1.5849614990234373,-0.5985504150390625,3.312977099236641,23.389312977099237,-6.870229007633588,-10.326191760253906,0.948103857421875,0.09816226806640624,-18.15267175572519,-0.5801526717557252,-4.2748091603053435,0.0
10.340000629425049,-11.33175645751953,3.0837317382812497,0.0526724365234375,-2.519083969465649,24.83969465648855,-9.083969465648854,-10.249577307128906,1.0989385620117187,0.28490999755859375,-17.206106870229007,-1.1297709923664123,-5.9541984732824424,0.0
10.350000619888306,-11.441889733886718,2.81558115234375,-0.0909796630859375,-11.435114503816793,23.00763358778626,-10.01526717557252,-10.54645831298828,1.0773907470703123,0.5817910034179687,-16.137404580152673,-2.1526717557251906,-7.770992366412214,0.0
10.360000371932983,-11.595118640136718,2.932897033691406,0.5363011718749999,-16.9618320610687,21.374045801526716,-10.473282442748092,-10.220846887207031,1.4532804077148436,0.7134720947265625,-17.52671755725191,-2.9160305343511452,-9.648854961832061,0.0
10.37000036239624,-9.387664709472656,0.05746083984375,-0.63206923828125,-17.66412213740458,17.46564885496183,-8.061068702290076,-10.060435375976562,1.4508862060546874,0.6655880615234374,-18.549618320610687,-3.312977099236641,-10.916030534351146,0.0
10.380000829696655,-9.87608184814453,1.4963760375976562,-0.4429273071289062,-17.251908396946565,17.450381679389313,-9.297709923664122,-9.672574707031249,1.4173673828125,0.8571241943359375,-21.450381679389313,-5.114503816793893,-12.381679389312977,0.0
10.390000343322754,-9.890447058105469,2.032677209472656,-0.40222587890625,-14.106870229007633,19.587786259541986,-10.702290076335878,-10.218452685546874,0.8307879760742187,1.388636962890625,-19.923664122137403,-4.885496183206107,-12.122137404580153,0.0
10.400001049041748,-9.490615380859374,1.2713210815429687,-0.9528922607421875,-18.12213740458015,15.86259541984733,-7.679389312977099,-9.81862100830078,1.1851298217773436,1.3287819213867187,-19.297709923664122,-7.709923664122138,-13.83206106870229,0.0
10.410000562667847,-9.93354268798828,0.5817910034179687,-0.8643067993164062,-10.0,20.549618320610687,-8.0,-10.977414611816405,-0.3327940307617187,1.9919757812499999,-12.045801526717558,-9.267175572519085,-13.129770992366412,0.0
10.420000791549683,-9.081206896972656,0.00718260498046875,-1.0989385620117187,-4.564885496183206,19.099236641221374,-9.801526717557252,-9.715670336914062,0.40940848388671874,2.185906115722656,-4.488549618320611,-13.938931297709924,-16.366412213740457,0.0
10.43000054359436,-8.616731774902343,0.6607996582031249,-0.44532150878906246,-2.198473282442748,21.083969465648856,-12.198473282442748,-10.40041201171875,0.3016694091796875,2.1811177124023438,-1.5267175572519085,-16.27480916030534,-16.396946564885496,0.0
10.440000295639038,-10.05564697265625,1.678335363769531,0.5626373901367188,-4.290076335877862,21.908396946564885,-13.84732824427481,-8.027758166503906,1.3838485595703125,1.3383587280273437,-5.251908396946565,-21.00763358778626,-19.87786259541985,0.0
10.450000524520874,-10.905588562011719,1.9656395629882812,0.8834604125976562,-6.137404580152672,19.801526717557252,-13.251908396946565,-10.70686982421875,0.7852981445312499,1.8243816650390623,1.6030534351145038,-21.34351145038168,-19.00763358778626,0.0
10.46000051498413,-9.210493786621093,-0.25139117431640623,-0.23223756103515625,-3.648854961832061,13.526717557251908,-9.83206106870229,-9.641450085449218,1.5275006591796874,0.9911994873046874,5.1603053435114505,-24.885496183206108,-21.31297709923664,0.0
10.470000267028809,-9.593566052246093,0.18914193115234373,-0.19632453613281248,3.816793893129771,12.641221374045802,-10.259541984732824,-10.014945544433592,0.7852981445312499,1.6519991455078125,19.96946564885496,-31.450381679389313,-22.3206106870229,0.0
10.480000495910645,-9.911994873046874,1.1061211669921875,0.45489831542968745,16.16793893129771,15.526717557251908,-13.633587786259541,-9.196128576660156,1.1348515869140625,1.1228805786132812,9.419847328244275,-29.282442748091604,-24.16793893129771,0.0
10.490000486373901,-9.842563024902343,1.8555062866210936,0.3758896606445312,12.091603053435115,10.580152671755725,-12.290076335877863,-8.339004382324218,2.272097375488281,0.7757213378906249,-1.0381679389312977,-25.6793893129771,-24.198473282442748,0.0
10.500000238418579,-9.430760339355468,1.659181750488281,0.20350714111328125,19.923664122137403,11.84732824427481,-10.091603053435115,-9.375693701171874,0.7685387329101562,0.40462008056640625,-4.198473282442748,-23.69465648854962,-22.106870229007633,0.0
10.510000944137573,-8.99501563720703,1.5921441040039062,-0.062249243164062495,18.778625954198475,10.030534351145038,-8.213740458015268,-9.734823950195311,-0.16998831787109375,1.7549498168945312,5.0534351145038165,-20.33587786259542,-21.740458015267176,0.0
10.52000093460083,-10.177751257324218,2.6048914062499997,0.3184288208007812,10.15267175572519,5.068702290076335,-7.32824427480916,-9.749189160156249,-0.8882488159179687,1.956062756347656,17.541984732824428,-26.12213740458015,-22.900763358778626,0.0
10.530000925064087,-9.006986645507812,0.43574470214843747,-0.19632453613281248,16.946564885496183,5.114503816793893,-5.312977099236641,-9.358934289550781,0.11731588134765625,1.6160861206054686,23.984732824427482,-29.129770992366414,-24.213740458015266,0.0
10.540000438690186,-9.943119494628906,2.1811177124023438,0.5530605834960938,10.549618320610687,4.183206106870229,-6.67175572519084,-8.497021691894531,1.1947066284179686,0.9097966308593749,19.068702290076335,-29.328244274809162,-26.076335877862597,0.0
10.550000667572021,-9.753977563476562,1.7190367919921874,0.14125789794921875,6.427480916030534,1.465648854961832,-7.206106870229007,-9.437942944335937,2.099714855957031,0.47644613037109373,10.458015267175572,-25.404580152671755,-24.732824427480917,0.0
10.560000896453857,-9.157821350097656,1.1133037719726562,0.15083470458984374,4.290076335877862,0.5648854961832062,-5.877862595419847,-9.311050256347656,1.8171990600585937,0.9026140258789062,8.458015267175572,-24.03053435114504,-24.045801526717558,0.0
10.570000648498535,-9.3086560546875,1.2018892333984375,0.26336218261718747,5.480916030534351,-0.16793893129770993,-7.297709923664122,-8.434772448730468,1.7357962036132812,0.8858546142578124,8.290076335877863,-25.572519083969464,-22.549618320610687,0.0
10.580000400543213,-9.399635717773437,1.1827356201171875,0.5626373901367188,7.6183206106870225,-0.4580152671755725,-8.076335877862595,-8.350975390624999,0.6296750366210937,1.5682020874023437,6.152671755725191,-22.412213740458014,-20.671755725190838,0.0
10.590000629425049,-9.476250170898437,0.9217676391601562,0.7326257080078125,10.610687022900763,-2.015267175572519,-7.9541984732824424,-9.2320416015625,-0.1388636962890625,1.4053963745117186,15.98473282442748,-26.748091603053435,-19.786259541984734,0.0
10.600000619888306,-9.545682019042967,0.8044517578125,1.1085153686523437,16.213740458015266,-3.9236641221374047,-6.8396946564885495,-8.693346228027343,-0.26336218261718747,1.43652099609375,19.603053435114504,-28.610687022900763,-20.244274809160306,0.0
10.610000610351562,-9.524134204101562,1.0366893188476562,1.24498486328125,22.778625954198475,-5.862595419847328,-5.358778625954199,-9.868899243164062,-0.6512228515624999,1.7166425903320313,21.389312977099237,-25.19083969465649,-20.045801526717558,0.0
10.62000060081482,-9.356540087890625,1.4963760375976562,1.5203180541992187,27.022900763358777,-7.557251908396947,-3.9083969465648853,-7.996633544921875,0.6416460449218749,1.1133037719726562,20.549618320610687,-25.541984732824428,-21.923664122137403,0.0
10.630000591278076,-9.459490759277344,1.5801730957031248,1.9488801513671874,27.389312977099237,-10.320610687022901,-2.7938931297709924,-8.039729174804688,0.24660277099609373,0.3854664672851562,20.50381679389313,-26.412213740458014,-21.69465648854962,0.0
10.640000820159912,-9.641450085449218,1.618480322265625,2.4349030883789062,28.85496183206107,-14.549618320610687,-2.564885496183206,-9.035717065429687,0.016759411621093748,1.6424223388671875,24.16793893129771,-21.282442748091604,-21.419847328244273,0.0
10.65000057220459,-9.662997900390625,1.199495031738281,2.971204260253906,31.984732824427482,-18.870229007633586,-2.2595419847328246,-8.604760766601562,0.23702596435546874,1.7477672119140624,24.061068702290076,-20.916030534351144,-23.099236641221374,0.0
10.660000801086426,-9.636661682128906,0.8355763793945312,3.7205893798828122,38.916030534351144,-25.61832061068702,-0.9007633587786259,-10.168174450683592,-1.16837041015625,2.6479870361328124,29.404580152671755,-18.290076335877863,-22.015267175572518,0.0
10.670000314712524,-9.557653027343749,0.63206923828125,4.2521021484374995,55.55725190839695,-31.129770992366414,3.236641221374046,-7.058106494140625,0.7589619262695312,1.8411410766601561,30.916030534351144,-21.221374045801525,-26.27480916030534,0.0
10.680000305175781,-9.576806640625,1.6543933471679686,4.903325,70.77862595419847,-34.61068702290076,8.717557251908397,-8.432378247070313,0.14604630126953125,2.1404162841796874,26.015267175572518,-15.633587786259541,-23.297709923664122,0.0
10.690000534057617,-11.504138977050781,6.150704064941406,5.123591552734375,64.19847328244275,-44.3206106870229,11.603053435114504,-7.972691528320312,-0.086191259765625,2.2744915771484373,18.061068702290076,-11.572519083969466,-23.603053435114504,0.0
10.700000524520874,-10.68053360595703,7.6087728759765625,3.9312791259765625,41.37404580152672,-58.534351145038165,17.129770992366414,-8.135497241210937,-0.8475473876953125,1.9393033447265624,22.977099236641223,-14.076335877862595,-23.908396946564885,0.0
10.71000051498413,-10.041281762695311,6.004657763671875,3.6176387084960937,19.52671755725191,-71.74045801526718,23.908396946564885,-6.555324145507812,0.7852981445312499,1.438915197753906,21.297709923664122,-13.679389312977099,-23.740458015267176,0.0
10.720000743865967,-9.107543115234375,1.8818425048828125,3.8379052612304685,11.908396946564885,-78.70229007633588,28.12213740458015,-7.127538342285156,-0.19632453613281248,1.1540052001953125,26.48854961832061,-12.977099236641221,-19.83206106870229,0.0
10.730000495910645,-9.478644372558593,-1.5394716674804687,4.546588952636719,17.541984732824428,-85.57251908396947,25.022900763358777,-7.129932543945312,-0.5027823486328125,1.3623007446289062,30.076335877862597,-11.267175572519085,-19.83206106870229,0.0
10.740000247955322,-10.002974536132811,-2.786850732421875,5.837063647460937,27.541984732824428,-95.48091603053435,19.221374045801525,-7.175422375488281,-1.5298948608398437,2.1308394775390624,35.37404580152672,-11.511450381679388,-21.236641221374047,0.0
10.750000476837158,-10.982203015136719,-2.6001030029296874,7.611167077636718,46.717557251908396,-103.66412213740458,14.290076335877863,-6.641515405273437,-1.3072341064453123,3.3111808959960936,41.05343511450382,-14.83969465648855,-21.801526717557252,0.0
10.760000944137573,-12.835315100097656,-1.4149731811523436,10.505756884765624,63.12977099236641,-115.8473282442748,10.534351145038167,-6.6151791870117185,-0.24181436767578124,4.572925170898437,39.57251908396947,-14.381679389312977,-24.12213740458015,0.0
10.77000093460083,-15.418658691406248,0.25139117431640623,13.256694592285156,74.18320610687023,-139.89312977099237,9.083969465648854,-8.55448253173828,0.8212111694335937,4.1754876953124995,34.3206106870229,-15.923664122137405,-28.33587786259542,0.0
10.780000686645508,-19.3068421875,4.065354418945312,14.290989709472655,76.33587786259542,-167.2824427480916,6.931297709923665,-13.563152404785155,6.629544396972656,8.32463917236328,15.938931297709924,-14.473282442748092,-32.47328244274809,0.0
10.790000915527344,-21.298817968749997,4.989516259765625,11.587936035156249,53.87786259541985,-204.27480916030535,8.702290076335878,-21.830330737304685,2.6431986328124997,8.63827958984375,-7.740458015267175,-12.992366412213741,-37.221374045801525,0.0
10.800000667572021,-18.66759034423828,1.2210428466796874,5.303156677246093,44.2442748091603,-226.45801526717557,19.61832061068702,-20.975600744628906,-2.109291662597656,3.6822821533203123,-6.656488549618321,-29.19083969465649,-40.732824427480914,0.0
10.810000658035278,-16.026785913085938,1.4053963745117186,-0.316034619140625,32.61068702290076,-231.3587786259542,28.53435114503817,-18.308460095214844,-4.015076184082031,-0.7134720947265625,32.458015267175576,-48.13740458015267,-23.572519083969464,0.0
10.820000410079956,-14.937424157714842,-0.13407529296874998,-2.252943762207031,35.49618320610687,-228.29007633587787,35.847328244274806,-10.524910498046875,-2.0302830078125,-6.53138212890625,37.969465648854964,-49.66412213740458,-14.335877862595419,0.0
10.830000638961792,-12.351686364746094,-1.8650830932617186,-3.265691064453125,38.0763358778626,-220.87022900763358,40.29007633587786,-6.864176159667968,-1.4101847778320311,-7.560888842773437,31.61832061068702,-22.458015267175572,-16.03053435114504,0.0
10.840000629425049,-11.705251916503906,-2.370259643554687,-5.623979699707031,43.16030534351145,-205.45038167938932,34.93129770992366,-6.275202551269531,-0.028730419921875,-5.760449194335937,20.564885496183205,-7.404580152671755,-20.366412213740457,0.0
10.850000619888306,-11.133037719726563,-4.9416322265625,-9.141061938476563,46.61068702290076,-183.66412213740458,24.27480916030534,-6.667851623535156,0.1005564697265625,-4.690241052246093,12.442748091603054,4.885496183206107,-22.458015267175572,0.0
10.860000610351562,-10.333374365234375,-4.900930798339844,-10.340556970214843,50.51908396946565,-149.7709923664122,9.19083969465649,-9.112331518554686,-1.448492004394531,-2.5953145996093747,9.038167938931299,14.045801526717558,-16.48854961832061,0.0
10.87000060081482,-7.575254052734374,-4.218583325195312,-8.367734802246094,62.06106870229008,-110.51908396946565,-0.5343511450381679,-11.384428894042967,-2.808398547363281,-1.9752163696289062,13.557251908396946,19.435114503816795,-8.961832061068701,0.0
10.880000352859497,-6.579266162109374,-2.3535002319335936,-6.545747338867187,73.90839694656489,-76.06106870229007,-6.625954198473282,-12.526463085937499,-3.5817256835937497,-0.9576806640625,28.732824427480917,21.34351145038168,-4.870229007633588,0.0
10.890000581741333,-5.604826086425781,1.3383587280273437,-4.797980126953124,73.96946564885496,-42.82442748091603,-8.595419847328245,-12.567164514160156,-3.4428619873046875,0.08379705810546874,49.343511450381676,20.48854961832061,-2.7786259541984735,0.0
10.900001049041748,-5.413289953613281,4.015076184082031,-2.9927520751953125,47.52671755725191,-20.519083969465647,-7.251908396946565,-11.65736788330078,-2.061407629394531,0.20829554443359374,69.57251908396947,19.34351145038168,-0.6564885496183206,0.0
10.910000562667847,-6.095637426757812,5.542576843261719,-1.6065093139648436,12.213740458015268,-7.740458015267175,-5.297709923664122,-9.215282189941405,1.6352397338867186,-0.6967126831054687,72.16793893129771,20.18320610687023,-0.21374045801526717,0.0
10.920000553131104,-5.178658190917968,3.775656018066406,-1.85790048828125,-21.221374045801525,-2.183206106870229,-2.2290076335877864,-7.800309008789062,4.642357019042969,-1.7022773803710936,59.14503816793893,25.114503816793892,1.633587786259542,0.0
10.93000078201294,-3.8570588745117185,2.1499930908203124,-3.0526071166992184,-39.603053435114504,8.610687022900763,-0.22900763358778625,-5.090072729492187,7.563283044433593,-6.256048937988281,26.16793893129771,27.52671755725191,-0.33587786259541985,0.0
10.940000534057617,-3.0933085449218747,0.7015010864257812,-4.3454760131835934,-50.152671755725194,27.908396946564885,-2.50381679389313,-8.389282617187499,4.7189714721679685,-1.5251064575195312,-6.580152671755725,51.64885496183206,9.022900763358779,0.0
10.950000524520874,-0.36391865234375,-3.5506010620117183,-5.465962390136719,-52.274809160305345,42.51908396946565,-4.213740458015267,-7.548917834472656,4.338293408203125,-1.1611878051757811,-26.15267175572519,55.083969465648856,13.450381679389313,0.0
10.960000276565552,-0.43574470214843747,-4.8314989501953125,-4.623203405761719,-44.97709923664122,73.00763358778626,-14.885496183206106,-9.018957653808593,1.70467158203125,0.0,-33.66412213740458,57.48091603053435,17.893129770992367,0.0
10.970000505447388,-2.6958710693359373,-4.072537023925781,-2.195482922363281,-47.64885496183206,93.52671755725191,-29.31297709923664,-9.65342109375,0.5315127685546874,1.465251416015625,-36.6412213740458,57.57251908396947,19.64885496183206,0.0
10.980000495910645,-4.000710974121094,-1.915361328125,0.4261678955078125,-50.534351145038165,107.19083969465649,-37.404580152671755,-10.24000050048828,-0.6153098266601562,1.4867992309570313,-35.099236641221374,51.404580152671755,18.9618320610687,0.0
10.990000247955322,-6.37815322265625,0.612915625,2.3630770385742186,-44.3206106870229,121.06870229007633,-39.17557251908397,-9.9215716796875,-0.0383072265625,1.5490484741210937,-49.89312977099237,52.42748091603053,17.114503816793892,0.0
11.000000476837158,-7.46272657470703,3.1651345947265623,3.438073583984375,-47.86259541984733,126.85496183206106,-35.9236641221374,-11.633425866699218,-1.8243816650390623,2.655169641113281,-48.18320610687023,49.083969465648856,18.83969465648855,0.0
11.010001182556152,-7.898471276855468,1.8315642700195311,4.180276098632812,-44.19847328244275,129.29770992366412,-29.64885496183206,-10.685322009277343,-1.7812860351562498,2.3343466186523436,-46.19847328244275,40.0,17.908396946564885,0.0
11.020000696182251,-7.886500268554687,-0.5267243652343749,5.102043737792968,-26.442748091603054,129.4351145038168,-25.114503816793892,-10.158597644042969,-2.272097375488281,2.4301146850585935,-41.38931297709924,32.13740458015267,14.763358778625955,0.0
11.030000925064087,-9.76116016845703,-0.21787235107421873,8.305485559082031,-4.061068702290076,126.79389312977099,-24.15267175572519,-9.993397729492187,-1.668758557128906,1.9416975463867185,-38.13740458015267,25.022900763358777,11.923664122137405,0.0
11.040000677108765,-12.222399475097655,2.185906115722656,10.544064111328124,7.297709923664122,111.26717557251908,-18.916030534351144,-8.851363537597656,-1.5873557006835937,1.8459294799804686,-43.954198473282446,20.702290076335878,9.740458015267176,0.0
11.050000667572021,-11.4538607421875,0.6560112548828124,9.919177478027343,30.061068702290076,96.79389312977099,-8.0,-9.445125549316407,-3.143586779785156,3.873818286132812,-35.32824427480916,15.083969465648854,11.419847328244275,0.0
11.060000658035278,-12.291831323242187,3.1364041748046874,9.253589416503905,33.541984732824424,74.44274809160305,-6.259541984732825,-10.611101757812499,-4.256890551757812,4.498704919433593,-18.519083969465647,7.282442748091603,10.67175572519084,0.0
11.070000648498535,-12.54561669921875,4.371812231445312,7.362170104980469,9.374045801526718,47.49618320610687,-1.4045801526717556,-8.698134631347656,-1.0989385620117187,3.3327287109375,-13.389312977099237,-3.1603053435114505,6.534351145038168,0.0
11.080000400543213,-8.796296899414061,2.932897033691406,1.0390835205078124,-24.641221374045802,28.65648854961832,3.1603053435114505,-7.915230688476562,-0.201112939453125,2.7078420776367187,-22.412213740458014,-5.374045801526718,4.519083969465649,0.0
11.090000629425049,-8.999804040527343,3.6535517333984373,-0.612915625,-59.587786259541986,20.427480916030536,2.549618320610687,-8.341398583984375,-0.9313444458007812,3.009511486816406,-30.977099236641223,-3.786259541984733,5.221374045801527,0.0
11.100000619888306,-8.40125362548828,1.0965443603515623,-0.7541735229492187,-56.229007633587784,17.923664122137403,12.16793893129771,-9.129090930175781,-1.8291700683593748,3.1268273681640624,-39.954198473282446,-5.862595419847328,8.412213740458014,0.0
11.110000610351562,-12.720393420410156,-2.887407202148437,8.329427575683594,-13.49618320610687,27.908396946564885,26.061068702290076,-9.593566052246093,-3.095702746582031,2.925714428710937,-46.30534351145038,-10.16793893129771,10.870229007633588,0.0
11.12000060081482,-19.742586889648436,4.891353991699218,11.999738720703125,28.366412213740457,26.717557251908396,38.961832061068705,-10.714052429199219,-4.867411975097656,2.04943662109375,-39.74045801526717,-18.198473282442748,12.992366412213741,0.0
11.130000591278076,-22.809559216308593,11.978190905761718,8.346186987304687,8.305343511450381,7.282442748091603,48.36641221374046,-11.027692846679686,-4.6998178588867185,0.9983820922851562,-31.358778625954198,-24.778625954198475,10.50381679389313,0.0
11.140000820159912,-16.972495568847656,3.0310593017578125,4.819527941894531,-35.16030534351145,-14.900763358778626,52.97709923664122,-11.066000073242186,-3.5218706420898434,-0.30406361083984373,-23.14503816793893,-28.50381679389313,5.450381679389313,0.0
11.15000057220459,-8.552088330078124,-6.746860278320312,0.20350714111328125,-67.5114503816794,-26.885496183206108,34.33587786259542,-11.058817468261719,-2.806004345703125,-1.1611878051757811,-5.770992366412214,-30.763358778625953,-0.6412213740458015,0.0
11.160000801086426,-4.005499377441406,-10.876858142089842,-2.5953145996093747,-46.42748091603053,-15.389312977099237,13.267175572519085,-10.831368310546875,-1.4915876342773438,-1.3024457031249999,8.198473282442748,-33.38931297709924,-5.847328244274809,0.0
11.170000791549683,-4.898536596679687,-7.7596075805664055,-4.9823336547851556,-28.580152671755727,-5.236641221374046,-5.709923664122138,-10.386046801757812,2.50912333984375,-3.402160559082031,19.267175572519083,-35.541984732824424,-11.206106870229007,0.0
11.18000054359436,-5.351040710449219,-6.41646044921875,-6.351817004394531,4.076335877862595,11.679389312977099,-8.778625954198473,-11.267113012695312,4.479551306152343,-4.302380383300781,9.34351145038168,-25.099236641221374,-7.862595419847328,0.0
11.190000534057617,-6.691793640136718,-2.8227637573242186,-5.068524914550781,30.564885496183205,35.52671755725191,-13.893129770992367,-11.990161914062499,4.771643908691406,-3.6655227416992187,11.34351145038168,-18.396946564885496,-1.786259541984733,0.0
11.200000286102295,-9.33978067626953,1.5251064575195312,-3.9983167724609374,36.12213740458015,47.83206106870229,-17.206106870229007,-11.688492504882811,4.242525341796875,-2.91134921875,10.854961832061068,-13.282442748091603,4.442748091603053,0.0
11.21000051498413,-10.881646545410156,4.132392065429687,-2.8012159423828122,29.14503816793893,58.717557251908396,-14.076335877862595,-11.362881079101562,4.158728283691406,-2.655169641113281,2.9618320610687023,-6.8396946564885495,10.854961832061068,0.0
11.220000505447388,-11.858480822753906,5.351040710449219,-1.1156979736328125,8.702290076335878,58.656488549618324,-13.297709923664122,-10.881646545410156,4.747701892089843,-2.2936451904296873,-13.114503816793894,5.633587786259542,17.770992366412212,0.0
11.230000495910645,-11.18571015625,3.5577836669921874,-0.2920926025390625,-8.061068702290076,55.465648854961835,-9.679389312977099,-11.087547888183593,3.42849677734375,-1.687912170410156,-13.923664122137405,14.702290076335878,25.96946564885496,0.0
11.240000247955322,-10.673351000976561,2.6527754394531247,0.0718260498046875,-17.541984732824428,54.2442748091603,-8.65648854961832,-12.571952917480468,2.0733786376953125,-0.6440402465820312,1.3282442748091603,17.96946564885496,30.671755725190838,0.0
11.250000953674316,-10.175357055664062,1.7525556152343749,-0.7948749511718749,-23.69465648854962,45.98473282442748,-8.381679389312977,-9.945513696289062,2.530671154785156,-0.14125789794921875,4.015267175572519,19.755725190839694,30.99236641221374,0.0
11.260000705718994,-9.107543115234375,0.9026140258789062,-0.7541735229492187,-23.938931297709924,42.74809160305343,-7.32824427480916,-9.49300958251953,2.6384102294921874,-1.0630255371093749,10.473282442748092,18.106870229007633,31.267175572519083,0.0
11.27000093460083,-11.166556542968749,2.3678654418945313,-0.507570751953125,-28.68702290076336,38.35114503816794,-8.412213740458014,-9.516951599121093,2.952050646972656,-0.5458779785156249,8.595419847328245,22.0,31.740458015267176,0.0
11.280000686645508,-11.238382592773437,3.6846763549804686,0.8858546142578124,-27.81679389312977,39.14503816793893,-8.931297709923664,-9.45470235595703,2.7174188842773437,-0.22505495605468748,3.877862595419847,25.00763358778626,31.404580152671755,0.0
11.290001153945923,-9.150638745117186,2.2864625854492187,-0.3758896606445312,-31.83206106870229,31.16030534351145,-5.190839694656488,-9.358934289550781,2.3439234252929686,0.02154781494140625,-2.4732824427480917,26.85496183206107,29.84732824427481,0.0
11.300000667572021,-9.270348828125,1.6807295654296874,0.28969840087890625,-22.53435114503817,31.66412213740458,-1.282442748091603,-9.708487731933593,1.8602946899414061,0.41898529052734373,-4.763358778625954,27.374045801526716,29.603053435114504,0.0
11.3100004196167,-8.894459167480468,1.4724340209960938,0.7900865478515624,-14.351145038167939,32.18320610687023,-0.8091603053435115,-9.49300958251953,1.5777788940429687,0.7326257080078125,-6.030534351145038,26.748091603053435,28.885496183206108,0.0
11.320000648498535,-9.430760339355468,2.0446482177734375,0.8954314208984374,-10.870229007633588,29.404580152671755,0.21374045801526717,-9.823409411621093,1.16837041015625,0.8020575561523438,-4.854961832061068,25.69465648854962,28.30534351145038,0.0
11.330000638961792,-9.622296472167967,2.2170307373046874,1.158793603515625,-7.511450381679389,27.83206106870229,2.5343511450381677,-9.598354455566406,0.8930372192382812,0.9265560424804687,-5.450381679389313,23.81679389312977,26.564885496183205,0.0
11.340000629425049,-9.581595043945311,2.327164013671875,1.1635820068359375,-6.625954198473282,25.099236641221374,4.854961832061068,-9.677363110351562,0.6823474731445313,0.9576806640625,-2.7938931297709924,21.755725190839694,24.732824427480917,0.0
11.350000619888306,-9.900023864746093,2.81558115234375,0.8906430175781249,-8.381679389312977,23.221374045801525,6.656488549618321,-9.581595043945311,0.373495458984375,1.120486376953125,-1.4809160305343512,19.66412213740458,23.221374045801525,0.0
11.360000371932983,-9.947907897949218,2.858676782226562,0.2609679809570312,-13.251908396946565,21.923664122137403,7.786259541984733,-9.706093530273437,0.17956512451171874,0.9313444458007812,0.6259541984732825,17.480916030534353,21.374045801526716,0.0
11.37000060081482,-9.969455712890625,2.4205378784179685,0.0430956298828125,-18.53435114503817,22.106870229007633,8.82442748091603,-9.368511096191405,0.15083470458984374,0.565031591796875,0.7938931297709924,15.32824427480916,19.389312977099237,0.0
11.380000829696655,-9.636661682128906,1.455674609375,0.24181436767578124,-23.801526717557252,22.427480916030536,8.473282442748092,-9.30147344970703,0.201112939453125,0.5123591552734374,1.1450381679389312,13.572519083969466,18.213740458015266,0.0
11.390000581741333,-9.904812268066406,0.7948749511718749,0.46208092041015625,-28.82442748091603,21.938931297709924,6.854961832061068,-9.816226806640625,0.26336218261718747,0.7062894897460937,1.5419847328244274,11.954198473282442,16.396946564885496,0.0
11.40000057220459,-10.09395419921875,0.6081272216796875,0.7924807495117187,-30.778625954198475,21.14503816793893,4.1679389312977095,-9.81862100830078,0.28490999755859375,0.8020575561523438,-0.8549618320610687,10.381679389312977,14.65648854961832,0.0
11.410000801086426,-10.512939489746094,0.42377369384765623,1.5131354492187499,-31.31297709923664,20.076335877862597,2.213740458015267,-10.000580334472655,0.5267243652343749,0.5267243652343749,-2.519083969465649,9.282442748091603,12.641221374045802,0.0
11.420000791549683,-10.785878479003905,0.4333505004882812,1.5897499023437498,-30.106870229007633,17.64885496183206,1.465648854961832,-10.62307276611328,0.42377369384765623,0.2537853759765625,-2.9923664122137406,9.404580152671755,11.541984732824428,0.0
11.43000054359436,-10.63025537109375,0.7589619262695312,1.2737152832031249,-25.34351145038168,16.48854961832061,1.7099236641221374,-9.627084875488281,1.3239935180664062,0.622492431640625,-6.213740458015267,8.732824427480915,8.427480916030534,0.0
11.440000534057617,-10.220846887207031,1.0821791503906248,0.679953271484375,-24.748091603053435,14.916030534351146,2.198473282442748,-10.065223779296874,1.1731588134765625,0.4860229370117187,-6.519083969465649,9.587786259541986,8.641221374045802,0.0
11.450000524520874,-9.842563024902343,1.5275006591796874,0.07900865478515624,-22.99236641221374,15.053435114503817,2.595419847328244,-9.72285294189453,1.1563994018554686,0.229843359375,-7.908396946564886,10.122137404580153,8.473282442748092,0.0
11.46000051498413,-9.579200842285156,1.668758557128906,-0.19632453613281248,-21.770992366412212,14.702290076335878,4.137404580152672,-9.763554370117188,1.0773907470703123,0.21308394775390624,-7.984732824427481,11.282442748091603,9.16030534351145,0.0
11.470000505447388,-9.445125549316407,1.4125789794921875,-0.28012159423828126,-20.091603053435115,15.587786259541986,5.404580152671755,-9.715670336914062,1.0295067138671874,0.26815058593749996,-8.01526717557252,11.541984732824428,8.977099236641221,0.0
11.480000495910645,-9.552864624023437,0.9840168823242187,0.06943184814453125,-18.977099236641223,15.923664122137405,5.66412213740458,-10.165780249023436,0.7134720947265625,0.23702596435546874,-5.251908396946565,12.687022900763358,8.702290076335878,0.0
11.490000486373901,-9.706093530273437,0.3758896606445312,0.5889736083984375,-16.061068702290076,15.297709923664122,5.7251908396946565,-10.153809240722655,0.852335791015625,0.0909796630859375,-3.114503816793893,12.793893129770993,8.396946564885496,0.0
11.500000238418579,-9.919177478027343,-0.24660277099609373,0.9600748657226562,-12.870229007633588,13.816793893129772,5.541984732824427,-10.527304699707031,0.7972691528320313,0.105344873046875,2.351145038167939,13.312977099236642,9.816793893129772,0.0
11.510000944137573,-9.694122521972655,-0.5315127685546874,0.6392518432617187,-6.809160305343512,13.954198473282442,4.412213740458015,-10.395623608398436,0.8786720092773437,0.13646949462890623,5.603053435114504,13.007633587786259,10.50381679389313,0.0
11.520000457763672,-9.595960253906249,0.12449848632812499,0.2442085693359375,-3.6030534351145036,14.580152671755725,1.8473282442748091,-10.304643945312499,0.8092401611328125,0.2059013427734375,9.633587786259541,12.549618320610687,11.129770992366412,0.0
11.530001163482666,-9.557653027343749,0.3854664672851562,0.02633621826171875,-1.9236641221374047,14.961832061068701,-0.04580152671755725,-9.904812268066406,1.0295067138671874,0.086191259765625,11.938931297709924,11.297709923664122,11.801526717557252,0.0
11.540000438690186,-9.244012609863281,0.3950432739257812,-0.0526724365234375,1.5725190839694656,17.541984732824428,-1.450381679389313,-9.576806640625,1.2042834350585936,0.24181436767578124,13.603053435114504,10.83969465648855,11.099236641221374,0.0
11.550000667572021,-12.241553088378906,2.6671406494140624,1.177947216796875,-3.1908396946564888,19.740458015267176,-5.099236641221374,-9.507374792480467,1.5322890624999999,0.4070142822265625,13.893129770992367,10.427480916030534,10.870229007633588,0.0
11.5600004196167,-9.622296472167967,1.2832920898437499,0.24660277099609373,-5.343511450381679,16.50381679389313,-3.3282442748091605,-9.167398156738281,1.7932570434570312,0.20350714111328125,9.83206106870229,9.801526717557252,10.702290076335878,0.0
11.570000648498535,-9.830592016601562,1.6065093139648436,0.5889736083984375,-9.068702290076336,15.740458015267176,-2.5343511450381677,-9.334992272949219,2.1643583007812497,0.09576806640624999,5.343511450381679,9.694656488549619,11.19083969465649,0.0
11.580000400543213,-9.935936889648437,1.5562310791015623,0.5985504150390625,-10.748091603053435,13.236641221374045,-1.4198473282442747,-9.423577734375,1.7334020019531249,0.296881005859375,-0.8702290076335878,9.49618320610687,11.633587786259541,0.0
11.59000039100647,-9.574412438964844,1.2306196533203124,0.6703764648437499,-7.083969465648855,13.34351145038168,0.549618320610687,-9.521740002441407,1.3263877197265623,0.411802685546875,-5.343511450381679,8.50381679389313,12.030534351145038,0.0
11.600000619888306,-9.406818322753905,1.189918225097656,0.7876923461914062,-5.526717557251908,12.213740458015268,0.8549618320610687,-9.545682019042967,0.9409212524414062,0.3399766357421875,-7.801526717557252,6.580152671755725,11.572519083969466,0.0
11.610000610351562,-9.354145886230468,1.1444283935546875,0.7254431030273437,-4.137404580152672,11.129770992366412,0.2595419847328244,-9.572018237304688,0.6727706665039062,0.33039982910156246,-8.732824427480915,4.122137404580153,11.435114503816793,0.0
11.62000060081482,-9.689334118652344,1.1635820068359375,0.7805097412109374,-2.4580152671755724,10.229007633587786,0.22900763358778625,-9.514557397460937,0.45010991210937495,0.4477157104492187,-8.793893129770993,1.618320610687023,9.86259541984733,0.0
11.630000829696655,-9.6917283203125,1.2282254516601563,0.46208092041015625,-0.6412213740458015,9.038167938931299,-0.061068702290076333,-9.481038574218749,0.5602431884765625,0.36631285400390623,-10.396946564885496,-1.1145038167938932,7.862595419847328,0.0
11.640000343322754,-9.7683427734375,1.6639701538085936,-0.0047884033203125,-1.3435114503816794,8.931297709923664,-0.2900763358778626,-9.368511096191405,0.7517793212890624,0.4644751220703125,-11.83206106870229,-3.1297709923664123,6.213740458015267,0.0
11.65000033378601,-9.823409411621093,1.6903063720703124,-0.5219359619140624,-3.7557251908396947,8.274809160305344,0.07633587786259542,-9.478644372558593,0.7134720947265625,0.6871358764648438,-13.32824427480916,-5.282442748091603,4.885496183206107,0.0
11.660000801086426,-9.6917283203125,1.7525556152343749,-0.34237083740234375,-6.625954198473282,8.595419847328245,0.015267175572519083,-9.394847314453125,0.6296750366210937,0.7661445312499999,-14.335877862595419,-7.709923664122138,2.427480916030534,0.0
11.670000553131104,-9.746794958496093,1.5801730957031248,-0.09576806640624999,-8.961832061068701,7.801526717557252,0.24427480916030533,-10.43871923828125,-0.28490999755859375,0.8283937744140625,-7.022900763358779,-10.82442748091603,1.786259541984733,0.0
11.68000054359436,-9.751583361816406,1.4508862060546874,0.0143652099609375,-8.51908396946565,7.435114503816794,-0.24427480916030533,-10.268730920410155,0.7230489013671875,0.201112939453125,-3.801526717557252,-15.450381679389313,-1.7404580152671756,0.0
11.690000295639038,-9.581595043945311,1.3168109130859373,0.3064578125,-7.022900763358779,7.541984732824427,-0.5343511450381679,-7.714117749023437,3.3327287109375,-0.22266075439453123,-14.198473282442748,-18.610687022900763,-6.137404580152672,0.0
11.700000286102295,-9.792284790039062,1.668758557128906,0.2825157958984375,-8.946564885496183,6.183206106870229,-1.0076335877862594,-9.9215716796875,2.195482922363281,-0.6679822631835937,-18.427480916030536,-14.442748091603054,-3.2519083969465647,0.0
11.71000051498413,-9.967061511230469,1.5849614990234373,-0.0718260498046875,-9.572519083969466,5.175572519083969,-0.8854961832061069,-9.318232861328125,2.250549560546875,-0.41419688720703124,-29.16030534351145,-8.198473282442748,-3.2213740458015265,0.0
11.720000505447388,-9.624690673828125,0.70868369140625,-0.5363011718749999,-7.740458015267175,5.4961832061068705,-0.2595419847328244,-10.433930834960936,1.2976572998046874,-0.5339069702148437,-25.541984732824428,-5.877862595419847,-2.519083969465649,0.0
11.730000495910645,-9.088389501953124,-0.1005564697265625,-1.0606313354492187,3.633587786259542,10.732824427480915,-1.099236641221374,-10.764330664062498,0.7589619262695312,-0.09337386474609374,-17.358778625954198,-5.694656488549619,-4.488549618320611,0.0
11.740000486373901,-9.402029919433593,1.0845733520507812,-1.254561669921875,0.3816793893129771,9.297709923664122,-3.1755725190839694,-9.679757312011718,2.300827795410156,-0.05746083984375,-17.34351145038168,-6.442748091603053,-7.786259541984733,0.0
11.750000476837158,-10.340556970214843,2.3319524169921872,-0.7422025146484375,2.198473282442748,12.778625954198473,-4.854961832061068,-11.176133349609374,1.6065093139648436,0.08379705810546874,-16.366412213740457,-4.656488549618321,-6.061068702290076,0.0
11.760000705718994,-10.919953771972656,3.3494881225585935,0.22266075439453123,-0.21374045801526717,17.00763358778626,-7.267175572519084,-10.110713610839843,2.3965958618164063,0.5889736083984375,-18.580152671755727,-5.00763358778626,-8.030534351145038,0.0
11.77000093460083,-10.0748005859375,1.7884686401367187,-0.8092401611328125,-10.045801526717558,11.145038167938932,-4.549618320610687,-10.532093103027343,2.0302830078125,0.39983167724609375,-18.213740458015266,-4.931297709923665,-7.969465648854962,0.0
11.780000686645508,-10.43871923828125,1.9632453613281249,-0.3687070556640625,-5.419847328244275,15.206106870229007,-4.900763358778626,-10.218452685546874,1.905784521484375,0.7015010864257812,-21.450381679389313,-4.442748091603053,-7.755725190839694,0.0
11.790001153945923,-10.165780249023436,2.2673089721679687,-0.2154781494140625,-14.030534351145038,11.938931297709924,-5.526717557251908,-10.098742602539062,1.8650830932617186,0.8475473876953125,-21.374045801526716,-5.526717557251908,-8.061068702290076,0.0
11.800000667572021,-10.058041174316406,1.6017209106445311,-0.4333505004882812,-16.671755725190838,10.687022900763358,-4.427480916030534,-9.5001921875,1.9680337646484374,0.7733271362304687,-25.51145038167939,-6.580152671755725,-8.67175572519084,0.0
11.810000658035278,-9.610325463867188,0.8068459594726562,-0.24660277099609373,-14.641221374045802,11.679389312977099,-4.870229007633588,-10.081983190917969,1.216254443359375,0.7398083129882812,-24.366412213740457,-6.656488549618321,-9.32824427480916,0.0
11.820000648498535,-9.574412438964844,1.1324573852539062,-0.2920926025390625,-12.961832061068701,11.435114503816793,-5.786259541984733,-10.160991845703125,0.7230489013671875,1.350329736328125,-22.427480916030536,-5.8320610687022905,-10.183206106870228,0.0
11.830000638961792,-9.160215551757812,0.12210428466796874,-0.9074024291992187,-8.885496183206106,11.221374045801527,-5.8320610687022905,-10.24000050048828,0.07422025146484375,1.429338391113281,-19.236641221374047,-7.511450381679389,-10.610687022900763,0.0
11.840000629425049,-10.493785876464843,1.678335363769531,0.23702596435546874,-0.366412213740458,17.6793893129771,-8.992366412213741,-9.919177478027343,0.181959326171875,2.3391350219726563,-11.877862595419847,-8.83969465648855,-12.580152671755725,0.0
11.850000381469727,-9.354145886230468,0.7900865478515624,-0.42377369384765623,-4.229007633587786,12.900763358778626,-8.65648854961832,-8.549694128417968,1.9105729248046874,1.189918225097656,-12.091603053435115,-12.091603053435115,-15.129770992366412,0.0
11.860000371932983,-9.97903251953125,1.4245499877929686,-0.20829554443359374,-4.198473282442748,11.923664122137405,-8.16793893129771,-9.60793126220703,1.5346832641601562,0.6943184814453125,-12.748091603053435,-12.732824427480915,-14.366412213740459,0.0
11.87000060081482,-10.972626208496093,2.1068974609374997,0.8643067993164062,-0.7633587786259542,14.13740458015267,-9.908396946564885,-9.792284790039062,0.8738836059570312,1.0965443603515623,-14.15267175572519,-9.389312977099237,-13.938931297709924,0.0
11.880000829696655,-9.09796630859375,-0.5099649536132812,-0.229843359375,2.351145038167939,10.641221374045802,-7.099236641221374,-9.56962403564453,0.062249243164062495,1.438915197753906,-7.129770992366412,-10.458015267175572,-14.396946564885496,0.0
11.890000581741333,-8.434772448730468,-1.4772224243164063,-0.8786720092773437,13.282442748091603,9.389312977099237,-6.732824427480916,-10.51533369140625,-1.8722656982421875,2.0661960327148434,14.381679389312977,-19.64885496183206,-14.50381679389313,0.0
11.900000810623169,-7.939172705078125,-1.2641384765625,-1.120486376953125,22.977099236641223,11.557251908396946,-9.572519083969466,-10.558429321289061,-1.120486376953125,2.2840683837890623,32.83969465648855,-25.053435114503817,-15.374045801526718,0.0
11.910000562667847,-9.014169250488282,0.842758984375,-0.7110778930664062,25.954198473282442,16.076335877862597,-12.15267175572519,-8.66940421142578,1.2856862915039062,1.209071838378906,35.93893129770992,-31.374045801526716,-19.740458015267176,0.0
11.920000553131104,-9.871293444824218,2.8514941772460936,-0.6153098266601562,20.076335877862597,17.786259541984734,-13.114503816793894,-9.60793126220703,1.9752163696289062,0.565031591796875,26.946564885496183,-28.641221374045802,-18.671755725190838,0.0
11.93000054359436,-9.6917283203125,3.268085266113281,-0.679953271484375,10.335877862595419,16.717557251908396,-12.061068702290076,-8.647856396484375,3.2537200561523436,1.0223241088867188,14.885496183206106,-25.099236641221374,-19.099236641221374,0.0
11.940000534057617,-9.368511096191405,2.0446482177734375,-1.3838485595703125,-4.687022900763359,12.610687022900763,-8.961832061068701,-9.423577734375,2.703053674316406,0.488417138671875,9.206106870229007,-25.419847328244273,-17.435114503816795,0.0
11.950000286102295,-10.081983190917969,1.4772224243164063,-0.7541735229492187,-1.0534351145038168,18.625954198473284,-10.641221374045802,-10.390835205078124,1.1444283935546875,1.3407529296874998,-4.366412213740458,-19.129770992366414,-14.183206106870228,0.0
11.960000276565552,-10.560823522949217,1.3335703247070312,0.09576806640624999,-2.50381679389313,20.946564885496183,-14.122137404580153,-10.749965454101561,-0.23702596435546874,1.4891934326171874,3.0229007633587788,-20.35114503816794,-13.801526717557252,0.0
11.970000505447388,-10.70686982421875,0.3232172241210937,0.12689268798828124,3.7404580152671754,20.793893129770993,-15.526717557251908,-10.299855541992187,0.258573779296875,2.250549560546875,12.916030534351146,-23.954198473282442,-14.763358778625955,0.0
11.980000495910645,-10.1131078125,0.7972691528320313,-0.09816226806640624,8.595419847328245,17.17557251908397,-15.893129770992367,-9.74200655517578,0.40940848388671874,1.7717092285156248,15.358778625954198,-29.69465648854962,-16.610687022900763,0.0
11.99000096321106,-9.042899670410156,1.3000515014648437,-0.07422025146484375,7.221374045801527,14.183206106870228,-15.893129770992367,-9.361328491210937,2.4516625,0.9552864624023437,11.786259541984732,-29.541984732824428,-17.297709923664122,0.0
12.000000476837158,-9.586383447265625,2.042254016113281,0.009576806640625,2.015267175572519,11.145038167938932,-13.755725190839694,-8.202534887695313,2.0302830078125,0.5291185668945312,-2.900763358778626,-25.282442748091604,-16.80916030534351,0.0
12.010000705718994,-10.658985791015624,2.7150246826171873,0.6584054565429687,3.068702290076336,12.106870229007633,-13.923664122137405,-10.723629235839843,0.4213794921875,1.1851298217773436,-1.5419847328244274,-20.50381679389313,-13.16030534351145,0.0
12.020000696182251,-10.931924780273437,2.6408044311523438,1.0558429321289062,6.458015267175573,14.50381679389313,-14.213740458015268,-9.516951599121093,-0.031124621582031248,1.886630908203125,6.015267175572519,-20.870229007633586,-13.86259541984733,0.0
12.030000925064087,-8.930372192382812,0.36631285400390623,0.19153613281249998,11.83206106870229,11.435114503816793,-10.748091603053435,-9.572018237304688,0.05746083984375,1.2210428466796874,16.27480916030534,-25.801526717557252,-15.358778625954198,0.0
12.040000677108765,-8.43956085205078,-0.06943184814453125,-0.4165910888671875,16.106870229007633,7.66412213740458,-8.335877862595419,-8.839392529296875,0.00718260498046875,1.0582371337890624,16.870229007633586,-24.061068702290076,-16.610687022900763,0.0
12.050000429153442,-9.370905297851563,1.22583125,0.8451531860351562,13.068702290076336,5.404580152671755,-9.86259541984733,-7.936778503417968,1.637633935546875,0.29927520751953124,20.076335877862597,-25.34351145038168,-17.83206106870229,0.0
12.060000658035278,-10.17056865234375,1.4030021728515625,2.205059729003906,22.732824427480917,7.312977099236641,-10.732824427480915,-7.781155395507812,1.5131354492187499,0.7254431030273437,11.19083969465649,-18.458015267175572,-17.740458015267176,0.0
12.070000648498535,-9.076418493652342,1.7717092285156248,2.310404602050781,27.61832061068702,3.984732824427481,-9.954198473282442,-8.291120349121094,2.786850732421875,2.760514514160156,-6.3816793893129775,-0.9923664122137404,-16.82442748091603,0.0
12.080000638961792,-10.031704956054687,3.418919970703125,2.6216508178710938,15.083969465648854,-6.748091603053435,-7.480916030534351,-9.289502441406249,0.10295067138671875,1.4173673828125,3.3740458015267176,-12.274809160305344,-14.687022900763358,0.0
12.090000629425049,-9.64623848876953,1.6160861206054686,2.2170307373046874,23.557251908396946,-13.84732824427481,-3.0076335877862594,-8.722076647949219,0.086191259765625,1.9201497314453124,2.5801526717557253,-9.022900763358779,-14.763358778625955,0.0
12.100000619888306,-8.94473740234375,1.0534487304687499,2.310404602050781,33.52671755725191,-14.854961832061068,-1.099236641221374,-8.655039001464843,-0.1149216796875,1.5849614990234373,8.106870229007633,-9.587786259541986,-15.297709923664122,0.0
12.110000610351562,-9.248801013183593,1.0438719238281249,2.916137622070312,40.16793893129771,-19.480916030534353,-1.8625954198473282,-8.664615808105468,-0.32561142578124996,1.4221557861328125,14.793893129770993,-8.564885496183207,-15.206106870229007,0.0
12.12000036239624,-9.581595043945311,1.4317325927734375,3.361459130859375,51.00763358778626,-24.30534351145038,-0.21374045801526717,-9.042899670410156,-1.848323681640625,1.8938135131835936,23.572519083969464,-7.9541984732824424,-15.267175572519085,0.0
12.130000591278076,-9.725247143554688,2.2361843505859373,3.3159692993164063,59.83206106870229,-30.38167938931298,3.0229007633587788,-8.51617530517578,-2.123656872558594,2.0781670410156248,40.30534351145038,-12.885496183206106,-18.16793893129771,0.0
12.140000820159912,-10.350133776855468,3.67749375,4.084508032226562,61.038167938931295,-34.29007633587786,6.549618320610687,-8.94473740234375,-1.8148048583984373,1.7286135986328124,53.51145038167939,-16.85496183206107,-20.091603053435115,0.0
12.15000033378601,-10.93671318359375,5.430049365234375,4.314351391601562,45.267175572519086,-44.67175572519084,11.312977099236642,-8.130708837890625,-0.5458779785156249,1.7166425903320313,61.61832061068702,-20.885496183206108,-21.480916030534353,0.0
12.160000801086426,-9.890447058105469,4.508281726074219,3.27526787109375,35.25190839694657,-54.54961832061068,17.068702290076335,-7.074865905761718,1.2378022583007813,1.1228805786132812,53.00763358778626,-20.748091603053435,-24.412213740458014,0.0
12.170000314712524,-9.006986645507812,3.201047619628906,3.134009973144531,24.33587786259542,-61.66412213740458,19.954198473282442,-7.8338278320312495,0.7230489013671875,2.0566192260742184,46.56488549618321,-14.732824427480915,-24.061068702290076,0.0
12.180000305175781,-8.985438830566405,2.616862414550781,3.859453076171875,3.114503816793893,-75.6793893129771,20.717557251908396,-6.979097839355468,1.2569558715820313,1.6807295654296874,36.70229007633588,-11.98473282442748,-24.870229007633586,0.0
12.190000534057617,-8.851363537597656,-0.7661445312499999,3.1675287963867187,7.541984732824427,-81.06870229007633,22.27480916030534,-6.861781958007812,0.9792284790039062,2.0566192260742184,30.870229007633586,-10.16793893129771,-24.82442748091603,0.0
12.200000524520874,-9.83777462158203,-2.0925322509765625,4.647145422363281,18.610687022900763,-85.7557251908397,18.80916030534351,-7.208941198730468,1.2928688964843749,2.480392919921875,19.19083969465649,-6.564885496183206,-26.9618320610687,0.0
12.210000276565552,-11.166556542968749,-2.664746447753906,7.558494641113281,36.18320610687023,-93.7557251908397,12.687022900763358,-8.204929089355469,-0.8188169677734375,3.679887951660156,17.17557251908397,-3.4656488549618323,-26.396946564885496,0.0
12.220000267028809,-13.175291735839844,-1.6472107421875,10.472238061523436,62.458015267175576,-108.01526717557252,8.793893129770993,-8.068459594726562,0.8092401611328125,3.3710359375,14.778625954198473,-6.351145038167939,-30.458015267175572,0.0
12.230000257492065,-16.17762061767578,1.218648645019531,12.54561669921875,73.64885496183206,-133.8320610687023,8.13740458015267,-9.399635717773437,3.5242648437499997,3.3494881225585935,12.030534351145038,-11.358778625954198,-31.49618320610687,0.0
12.240000486373901,-19.258958154296874,4.417302062988281,13.747505932617187,76.56488549618321,-163.63358778625954,9.908396946564885,-15.444994909667967,4.833893151855468,7.706935144042968,-10.50381679389313,-6.320610687022901,-31.282442748091604,0.0
12.250000238418579,-20.0346794921875,7.149086157226562,11.3772462890625,61.587786259541986,-204.27480916030535,17.236641221374047,-21.29642376708984,-1.2737152832031249,8.621520178222656,-21.64885496183206,-8.50381679389313,-35.404580152671755,0.0
12.260000944137573,-19.500772521972657,5.815515832519531,5.6407391113281244,35.64885496183206,-231.17557251908397,29.801526717557252,-20.515914025878907,-5.863399865722656,4.92247861328125,0.5648854961832062,-27.068702290076335,-35.11450381679389,0.0
12.270000696182251,-14.374786767578124,-0.6823474731445313,-0.9097966308593749,17.328244274809162,-239.0381679389313,44.045801526717554,-14.38436357421875,-1.5346832641601562,-1.0175357055664063,38.50381679389313,-36.87022900763359,-18.885496183206108,0.0
12.280000686645508,-14.068328955078124,-2.090138049316406,1.0726023437499999,-11.282442748091603,-243.0229007633588,49.725190839694655,-7.520187414550781,-0.6631938598632812,-5.382165332031249,50.80916030534351,-33.725190839694655,-13.32824427480916,0.0
12.290000915527344,-14.985308190917968,-5.999869360351562,-4.544194750976562,15.374045801526718,-240.51908396946564,57.19083969465649,-7.196970190429687,0.6679822631835937,-5.6383449096679685,30.47328244274809,-15.19083969465649,-18.595419847328245,0.0
12.300000667572021,-11.614272253417967,-10.560823522949217,-10.28549033203125,48.396946564885496,-216.76335877862596,53.17557251908397,-6.519411120605469,0.51714755859375,-5.353434912109375,16.748091603053435,-4.061068702290076,-23.49618320610687,0.0
12.310000658035278,-9.131485131835937,-7.577648254394531,-11.745953344726562,65.54198473282443,-181.5267175572519,28.50381679389313,-7.615955480957031,-1.0079588989257813,-3.718195178222656,10.549618320610687,5.282442748091603,-22.213740458015266,0.0
12.320000410079956,-9.674968908691406,-4.7931917236328125,-9.651026892089844,72.0,-147.4351145038168,8.16793893129771,-9.849745629882811,-1.9680337646484374,-3.1603461914062496,7.145038167938932,11.221374045801527,-16.27480916030534,0.0
12.330000400543213,-7.953537915039062,-4.898536596679687,-8.281543542480469,86.68702290076335,-107.95419847328245,0.7938931297709924,-12.495338464355468,-3.2441432495117186,-2.032677209472656,9.358778625954198,18.717557251908396,-10.732824427480915,0.0
12.340000629425049,-4.881777185058594,-2.925714428710937,-6.835445739746094,97.2824427480916,-68.8854961832061,-6.549618320610687,-11.573570825195311,-3.318363500976562,-2.418143676757812,24.748091603053435,20.015267175572518,-8.793893129770993,0.0
12.350000381469727,-6.270414147949219,1.5179238525390624,-3.902548706054687,92.21374045801527,-33.16030534351145,-13.908396946564885,-11.774683764648437,-3.84987626953125,-1.2114660400390624,55.14503816793893,24.870229007633586,-3.1755725190839694,0.0
12.360000610351562,-7.6470801025390625,5.463568188476562,-1.9895815795898437,56.045801526717554,-19.0381679389313,-13.648854961832061,-10.426748229980468,-1.1324573852539062,-2.128445275878906,75.09923664122137,23.450381679389313,-1.3282442748091603,0.0
12.37000060081482,-7.874529260253905,4.774038110351563,-2.0302830078125,19.603053435114504,-5.984732824427481,-8.534351145038167,-8.635885388183594,3.047818713378906,-3.0526071166992184,61.31297709923664,33.70992366412214,0.2595419847328244,0.0
12.380000829696655,-8.161833459472655,5.374982727050781,-1.8219874633789062,-21.61832061068702,-2.5801526717557253,-8.580152671755725,-8.25520732421875,3.5338416503906247,-2.109291662597656,39.7557251908397,45.00763358778626,7.511450381679389,0.0
12.390000343322754,-4.6064439941406246,1.3958195678710936,-2.829946362304687,-40.88549618320611,6.793893129770993,-1.6030534351145038,-7.611167077636718,5.485116003417969,-2.6240450195312497,14.458015267175572,51.00763358778626,12.67175572519084,0.0
12.40000057220459,-3.84987626953125,-1.1180921752929687,-3.4644098022460934,-43.17557251908397,25.49618320610687,-1.1908396946564885,-8.10197841796875,3.4261025756835934,-1.467645617675781,-2.4427480916030535,61.25190839694657,18.885496183206108,0.0
12.410000562667847,-3.3303345092773435,-2.6336218261718747,-3.5697546752929687,-38.396946564885496,43.41984732824427,-6.412213740458015,-8.655039001464843,1.5035586425781249,-0.4429273071289062,-12.458015267175572,64.61068702290076,21.984732824427482,0.0
12.420000553131104,-1.944091748046875,-4.912901806640625,-3.9528269409179684,-31.541984732824428,57.45038167938932,-12.183206106870228,-9.428366137695312,0.30885201416015623,0.42377369384765623,-12.992366412213741,64.35114503816794,21.541984732824428,0.0
12.43000054359436,-3.375824340820312,-4.163516687011718,-1.5969325073242187,-22.198473282442748,79.48091603053435,-22.045801526717558,-9.421183532714844,0.24660277099609373,0.8906430175781249,-16.50381679389313,63.06870229007634,20.076335877862597,0.0
12.440000295639038,-4.04141240234375,-2.138022082519531,-0.08858546142578125,-19.282442748091604,93.17557251908397,-30.18320610687023,-9.715670336914062,-1.1324573852539062,1.3168109130859373,-15.022900763358779,59.9236641221374,20.778625954198475,0.0
12.450000524520874,-5.252878442382812,0.33039982910156246,1.9129671264648436,-21.389312977099237,102.94656488549619,-32.961832061068705,-10.50815108642578,-1.6065093139648436,1.4221557861328125,-5.847328244274809,50.94656488549618,21.435114503816795,0.0
12.46000051498413,-5.947196923828125,1.8938135131835936,2.91134921875,-22.244274809160306,109.55725190839695,-34.0,-10.371681591796875,-1.2737152832031249,1.3024457031249999,-8.916030534351146,49.63358778625954,19.00763358778626,0.0
12.470000267028809,-6.3709706176757805,2.5713725830078125,3.1842882080078123,-27.72519083969466,110.97709923664122,-32.961832061068705,-10.342951171874999,-2.0566192260742184,1.8004396484374998,-2.1068702290076335,41.74045801526717,18.412213740458014,0.0
12.480000495910645,-7.201758593749999,1.8507178833007811,4.199429711914062,-25.099236641221374,109.6793893129771,-30.259541984732824,-10.347739575195313,-1.2569558715820313,1.9512743530273435,1.83206106870229,33.25190839694657,14.793893129770993,0.0
12.490000486373901,-8.461108666992187,2.0183119995117185,6.277596752929687,-11.511450381679388,110.50381679389314,-24.12213740458015,-9.33978067626953,0.9935936889648437,1.4221557861328125,-11.786259541984732,32.83969465648855,10.16793893129771,0.0
12.500000238418579,-9.813832604980469,2.6288334228515624,8.731653454589843,-1.2213740458015268,105.06870229007633,-15.541984732824428,-9.68454571533203,-0.9050082275390624,2.138022082519531,-15.587786259541986,30.671755725190838,12.854961832061068,0.0
12.510000944137573,-10.723629235839843,2.224213342285156,11.01332763671875,4.030534351145038,90.38167938931298,-10.274809160305344,-9.315838659667968,-2.001552587890625,2.1260510742187497,-5.099236641221374,22.763358778625953,11.938931297709924,0.0
12.520000696182251,-12.715605017089842,3.440467785644531,13.893552233886718,5.251908396946565,71.12977099236642,-8.595419847328245,-10.740388647460938,-0.8643067993164062,2.480392919921875,-2.6717557251908395,24.106870229007633,8.885496183206106,0.0
12.530000925064087,-12.763489050292968,0.9026140258789062,14.348450549316405,20.442748091603054,44.70229007633588,1.0381679389312977,-10.426748229980468,0.6344634399414062,1.1635820068359375,-9.007633587786259,22.99236641221374,6.106870229007634,0.0
12.540000915527344,-12.267889306640624,6.375759020996093,11.671733093261718,35.83206106870229,28.3206106870229,8.13740458015267,-9.239224206542968,0.9816226806640624,0.6009446166992187,-14.458015267175572,24.045801526717558,5.740458015267175,0.0
12.550000667572021,-11.860875024414062,17.803283544921875,1.0965443603515623,2.9770992366412212,16.33587786259542,25.770992366412212,-10.084377392578125,2.8323405639648436,-0.3591302490234375,-23.14503816793893,27.96946564885496,8.16793893129771,0.0
12.560000658035278,-7.129932543945312,11.8369330078125,-2.597708801269531,-67.22137404580153,-0.6106870229007634,41.954198473282446,-10.886434948730468,0.7422025146484375,-1.24498486328125,-27.267175572519083,32.83969465648855,17.00763358778626,0.0
12.570000648498535,-2.882618798828125,-2.128445275878906,-3.268085266113281,-78.82442748091603,0.7480916030534351,43.64885496183206,-10.977414611816405,-1.8507178833007811,-0.4860229370117187,-10.992366412213741,25.129770992366414,23.419847328244273,0.0
12.580000638961792,-5.746083984375,-9.892841259765625,1.0007762939453124,-46.229007633587784,21.00763358778626,37.267175572519086,-10.517727893066406,-2.446874096679687,-0.82360537109375,-5.480916030534351,19.16030534351145,25.328244274809162,0.0
12.59000039100647,-15.330073229980467,-8.365340600585936,8.942343200683593,-1.3435114503816794,21.068702290076335,25.083969465648856,-12.543222497558594,-0.689530078125,-0.8020575561523438,-6.412213740458015,19.14503816793893,23.96946564885496,0.0
12.600000858306885,-20.496760412597656,-2.3822306518554686,8.269572534179687,57.786259541984734,14.122137404580153,23.557251908396946,-9.926360083007811,1.39821376953125,-2.059013427734375,-28.33587786259542,17.6793893129771,17.557251908396946,0.0
12.610000610351562,-21.7201974609375,3.0741549316406247,6.500257507324219,75.02290076335878,-0.7022900763358778,26.290076335877863,-8.930372192382812,0.7733271362304687,-1.4939818359375,-40.12213740458015,22.732824427480917,17.435114503816795,0.0
12.62000060081482,-17.61893001708984,2.7724855224609373,6.354211206054687,68.10687022900764,-13.557251908396946,28.595419847328245,-9.332598071289063,-2.0350714111328125,1.1659762084960936,-38.961832061068705,25.068702290076335,24.35114503816794,0.0
12.630000591278076,-10.539275708007812,2.3822306518554686,-1.908178723144531,35.57251908396947,-27.389312977099237,26.0,-9.730035546875,-4.247313745117188,1.0582371337890624,-23.66412213740458,15.786259541984732,26.717557251908396,0.0
12.640000820159912,-8.904035974121093,-0.09576806640624999,-4.199429711914062,-4.076335877862595,-20.47328244274809,18.580152671755727,-9.234435803222656,-2.379836450195312,1.0749965454101562,-6.99236641221374,6.305343511450381,22.80916030534351,0.0
12.65000057220459,-9.217676391601563,-2.109291662597656,-1.8363526733398436,-24.50381679389313,-7.66412213740458,10.290076335877863,-9.528922607421874,-0.20829554443359374,0.967257470703125,-12.198473282442748,2.7786259541984735,19.96946564885496,0.0
12.660000801086426,-7.745242370605468,-1.7381904052734374,-2.844311572265625,-30.610687022900763,5.755725190839694,2.900763358778626,-9.176974963378905,1.3623007446289062,0.6512228515624999,-20.610687022900763,-0.5343511450381679,18.671755725190838,0.0
12.670000314712524,-7.989450939941406,1.8267758666992187,-2.9089550170898435,-50.534351145038165,13.16030534351145,-2.366412213740458,-8.78432589111328,3.105279553222656,-0.2561795776367187,-36.18320610687023,-1.1297709923664123,18.870229007633586,0.0
12.68000054359436,-7.714117749023437,-0.469263525390625,-3.066972326660156,-55.603053435114504,22.427480916030536,3.450381679389313,-10.230423693847655,0.7781155395507812,-0.031124621582031248,-46.0,0.2748091603053435,24.091603053435115,0.0
12.690000295639038,-7.319074475097656,-2.094926452636719,-2.4851813232421875,-50.10687022900763,41.16030534351145,3.114503816793893,-9.011775048828124,1.707065783691406,-0.7326257080078125,-49.80152671755725,-4.351145038167939,21.6793893129771,0.0
12.700000524520874,-10.098742602539062,0.023942016601562498,-2.109291662597656,-53.267175572519086,48.13740458015267,-1.4198473282442747,-10.28549033203125,0.0526724365234375,-0.6967126831054687,-51.74045801526717,-5.862595419847328,23.14503816793893,0.0
12.71000051498413,-8.94473740234375,-1.3311761230468748,-1.5538368774414062,-43.7557251908397,54.25954198473283,-0.2900763358778626,-10.78348427734375,-0.8906430175781249,-0.8930372192382812,-51.74045801526717,-7.938931297709924,23.480916030534353,0.0
12.720000505447388,-9.603142858886718,-1.8148048583984373,-0.74699091796875,-32.091603053435115,59.63358778625954,-5.465648854961832,-10.656591589355468,-1.0726023437499999,-1.0702081420898437,-45.465648854961835,-10.625954198473282,21.00763358778626,0.0
12.730000495910645,-11.125855114746093,0.8667010009765624,0.24181436767578124,-34.62595419847328,56.67175572519084,-12.946564885496183,-10.560823522949217,-0.45968671875,-1.1348515869140625,-42.19847328244275,-8.458015267175572,17.709923664122137,0.0
12.740000486373901,-11.805808386230469,1.9991583862304687,0.28012159423828126,-30.717557251908396,52.44274809160305,-12.13740458015267,-10.381258398437499,0.04548983154296875,-1.1563994018554686,-37.11450381679389,-9.526717557251908,14.549618320610687,0.0
12.750000238418579,-11.690886706542969,2.6527754394531247,0.8044517578125,-28.442748091603054,45.66412213740458,-8.351145038167939,-10.467449658203124,0.7062894897460937,-1.2425906616210938,-34.18320610687023,-7.4961832061068705,11.84732824427481,0.0
12.760000705718994,-11.920730065917969,3.6679169433593746,1.649604943847656,-31.114503816793892,38.70229007633588,-4.427480916030534,-10.924742175292968,0.7254431030273437,-0.9959878906249999,-26.671755725190838,-4.213740458015267,10.091603053435115,0.0
12.77000117301941,-12.004527124023436,3.6487633300781246,1.6639701538085936,-33.43511450381679,32.58015267175573,0.6564885496183206,-11.066000073242186,1.16837041015625,-0.8212111694335937,-16.748091603053435,-2.8396946564885495,9.007633587786259,0.0
12.780000686645508,-11.154585534667968,2.2577321655273437,1.7118541870117185,-27.83206106870229,26.427480916030536,4.564885496183206,-12.969390393066405,-0.7709329345703124,0.5051765502929687,5.00763358778626,-2.50381679389313,12.488549618320612,0.0
12.790000915527344,-9.598354455566406,-0.0718260498046875,0.9002198242187499,-21.34351145038168,16.748091603053435,7.129770992366412,-10.927136376953124,1.2976572998046874,-0.8906430175781249,18.259541984732824,-10.396946564885496,8.01526717557252,0.0
12.800000667572021,-8.63827958984375,-1.2042834350585936,0.3447650390625,-1.0534351145038168,19.770992366412212,7.66412213740458,-11.109095703125,2.1212626708984375,0.09816226806640624,23.34351145038168,-7.908396946564886,8.900763358778626,0.0
12.810000658035278,-9.284714038085937,0.4836287353515625,0.258573779296875,8.748091603053435,20.15267175572519,3.2977099236641223,-9.78031378173828,2.4564509033203126,-0.5123591552734374,23.297709923664122,-10.290076335877863,8.82442748091603,0.0
12.820000648498535,-10.101136804199218,1.8435352783203125,0.08140285644531249,9.099236641221374,17.923664122137403,0.7480916030534351,-10.141838232421874,0.7158662963867187,0.1197100830078125,21.297709923664122,-7.206106870229007,10.946564885496183,0.0
12.830000638961792,-10.579977136230468,1.3359645263671873,0.201112939453125,7.297709923664122,16.916030534351144,-0.12213740458015267,-9.662997900390625,2.003946789550781,-0.15083470458984374,37.41984732824427,-15.19083969465649,7.068702290076335,0.0
12.840000629425049,-10.462661254882812,1.216254443359375,0.03591302490234375,6.244274809160306,16.519083969465647,0.07633587786259542,-8.379705810546875,3.0645781249999997,-0.0047884033203125,25.099236641221374,-13.740458015267176,8.916030534351146,0.0
12.850000381469727,-10.36210478515625,2.0661960327148434,0.28490999755859375,1.7557251908396947,15.938931297709924,-2.1374045801526718,-7.948749511718749,4.934449621582031,-0.8355763793945312,2.564885496183206,-5.343511450381679,9.068702290076336,0.0
12.860000610351562,-9.981426721191406,2.4013842651367185,0.1484405029296875,-5.358778625954199,14.564885496183207,-3.0229007633587788,-8.875305554199219,3.584119885253906,-1.1180921752929687,-9.16030534351145,1.083969465648855,10.412213740458014,0.0
12.870000839233398,-9.356540087890625,0.9097966308593749,-0.7948749511718749,-5.267175572519084,13.587786259541986,-1.7557251908396947,-9.157821350097656,2.50912333984375,-1.5370774658203123,-14.595419847328245,6.229007633587786,8.916030534351146,0.0
12.880000829696655,-10.347739575195313,0.7996633544921875,0.0430956298828125,10.213740458015268,24.198473282442748,-3.5572519083969465,-10.486603271484375,-0.09576806640624999,-0.7206546997070312,-14.427480916030534,10.488549618320612,7.419847328244275,0.0
12.890000343322754,-11.161768139648437,3.1794998046874996,0.430956298828125,8.458015267175572,21.221374045801525,-6.564885496183206,-10.213664282226562,0.201112939453125,-1.0773907470703123,-3.5114503816793894,6.519083969465649,3.0381679389312977,0.0
12.900000810623169,-10.412383020019531,3.689464758300781,0.1292868896484375,4.442748091603053,18.3206106870229,-4.091603053435114,-10.589553942871094,0.852335791015625,-0.9888052856445312,3.0381679389312977,4.305343511450381,2.732824427480916,0.0
12.910000562667847,-11.425130322265625,5.044582897949218,1.1659762084960936,0.07633587786259542,19.587786259541986,-2.183206106870229,-10.500968481445312,1.4915876342773438,-0.32561142578124996,6.564885496183206,3.5877862595419847,2.519083969465649,0.0
12.920000791549683,-10.117896215820313,3.0119056884765625,0.24899697265624998,-11.938931297709924,12.65648854961832,1.4351145038167938,-9.988609326171874,1.5203180541992187,0.3495534423828125,8.473282442748092,1.816793893129771,1.5572519083969465,0.0
12.930000305175781,-9.873687646484374,0.9121908325195311,0.0718260498046875,-7.190839694656488,14.778625954198473,3.618320610687023,-9.504980590820312,1.7621324218749999,-0.4525041137695312,16.30534351145038,-5.129770992366412,-0.6717557251908397,0.0
12.940000534057617,-9.622296472167967,0.14125789794921875,-0.031124621582031248,-2.4580152671755724,16.748091603053435,0.8702290076335878,-7.790732202148437,3.21780703125,0.19871873779296872,7.404580152671755,-4.778625954198473,-2.2595419847328246,0.0
12.950000762939453,-9.880870251464843,1.0797849487304687,-0.24899697265624998,-4.076335877862595,16.259541984732824,-2.3206106870229006,-9.679757312011718,2.5067291381835934,-0.9217676391601562,4.061068702290076,-5.633587786259542,0.6412213740458015,0.0
12.96000075340271,-10.034099157714843,1.7860744384765623,-0.229843359375,-5.3893129770992365,16.717557251908396,-3.4656488549618323,-10.175357055664062,0.8786720092773437,0.8810662109374999,-1.5725190839694656,-3.435114503816794,1.9389312977099236,0.0
12.970000505447388,-9.749189160156249,1.7717092285156248,-0.09337386474609374,-7.847328244274809,17.114503816793892,-3.8473282442748094,-9.397241516113281,0.833182177734375,1.0941501586914062,-7.312977099236641,-4.900763358778626,-0.015267175572519083,0.0
12.980000495910645,-9.560047229003906,1.1276689819335937,0.086191259765625,-9.19083969465649,17.786259541984734,-3.66412213740458,-10.196904870605469,0.32082302246093747,1.20667763671875,3.6030534351145036,-11.465648854961833,-0.9770992366412213,0.0
12.990000486373901,-10.058041174316406,1.2042834350585936,0.17477672119140625,-8.427480916030534,18.091603053435115,-5.083969465648855,-10.450690246582031,-0.7805097412109374,0.718260498046875,9.48091603053435,-15.954198473282442,-1.816793893129771,0.0
13.000000238418579,-9.725247143554688,0.6871358764648438,0.09337386474609374,-6.702290076335878,18.244274809160306,-5.526717557251908,-9.789890588378906,0.39264907226562495,0.7876923461914062,19.862595419847327,-22.977099236641223,-5.083969465648855,0.0
13.010000705718994,-9.533711010742186,0.7637503295898437,0.1005564697265625,-2.8091603053435112,20.396946564885496,-6.67175572519084,-9.289502441406249,2.6216508178710938,0.062249243164062495,15.465648854961833,-24.03053435114504,-6.687022900763359,0.0
13.020000696182251,-9.145850341796875,1.2880804931640624,0.03591302490234375,-1.4809160305343512,21.52671755725191,-8.534351145038167,-8.655039001464843,2.3870190551757813,-0.5746083984375,-0.8396946564885496,-21.938931297709924,-5.099236641221374,0.0
13.030001163482666,-10.55364091796875,2.4756045166015626,0.33758243408203126,-5.083969465648855,24.38167938931298,-11.312977099236642,-11.051634863281249,1.2713210815429687,0.06464344482421874,-7.419847328244275,-15.145038167938932,-1.1297709923664123,0.0
13.040000438690186,-9.275137231445312,1.7214309936523438,-0.055066638183593745,-8.0,20.0,-8.82442748091603,-8.695740429687499,0.948103857421875,0.023942016601562498,-2.6564885496183206,-22.30534351145038,-4.412213740458015,0.0
13.050000667572021,-10.223241088867187,2.3032219970703123,0.7350199096679687,-10.198473282442748,21.709923664122137,-8.625954198473282,-10.330980163574218,-0.29927520751953124,-0.5506663818359374,8.229007633587786,-21.435114503816795,-3.145038167938931,0.0
13.060000658035278,-10.560823522949217,2.001552587890625,0.5291185668945312,-9.511450381679388,20.259541984732824,-7.66412213740458,-9.545682019042967,-0.062249243164062495,0.430956298828125,16.625954198473284,-23.96946564885496,-5.312977099236641,0.0
13.070000648498535,-9.880870251464843,1.2904746948242187,0.7350199096679687,-5.877862595419847,19.236641221374047,-7.190839694656488,-8.971073620605468,0.86191259765625,0.5985504150390625,16.15267175572519,-25.786259541984734,-6.961832061068702,0.0
13.080000638961792,-9.74200655517578,3.5098996337890624,2.1116858642578125,-5.816793893129771,19.770992366412212,-9.435114503816793,-7.747636572265624,2.418143676757812,-0.016759411621093748,5.312977099236641,-24.458015267175572,-8.274809160305344,0.0
13.09000039100647,-9.74200655517578,1.3862427612304686,0.7805097412109374,-7.7251908396946565,14.83969465648855,-5.893129770992366,-8.667010009765624,2.863465185546875,0.5339069702148437,-2.3969465648854964,-19.587786259541986,-6.198473282442748,0.0
13.100000381469727,-9.5001921875,2.070984436035156,0.9193734375,-10.259541984732824,11.419847328244275,-3.83206106870229,-8.197746484375,2.250549560546875,0.28730419921875,-7.358778625954199,-17.938931297709924,-5.9541984732824424,0.0
13.110000610351562,-9.90241806640625,2.214636535644531,0.6727706665039062,-11.603053435114504,8.732824427480915,-2.8244274809160306,-9.68454571533203,0.6607996582031249,0.7900865478515624,2.854961832061069,-20.65648854961832,-5.343511450381679,0.0
13.12000060081482,-9.634267480468749,1.1156979736328125,0.47644613037109373,-7.099236641221374,8.885496183206106,-1.6641221374045803,-10.972626208496093,-1.0654197387695312,0.967257470703125,8.67175572519084,-20.12213740458015,-5.32824427480916,0.0
13.130000352859497,-9.282319836425781,0.8092401611328125,0.5386953735351562,-3.1755725190839694,9.068702290076336,-2.900763358778626,-9.8449572265625,1.2282254516601563,0.737414111328125,19.633587786259543,-26.076335877862597,-7.755725190839694,0.0
13.140000343322754,-9.363722692871093,0.9744400756835937,0.63206923828125,-0.9618320610687023,9.129770992366412,-4.595419847328245,-8.825027319335938,1.9823989746093749,0.411802685546875,14.50381679389313,-26.977099236641223,-7.893129770992366,0.0
13.15000057220459,-9.540893615722656,1.7645266235351562,0.6823474731445313,-0.7022900763358778,8.916030534351146,-4.656488549618321,-8.542511523437499,3.536235852050781,-0.51714755859375,2.2595419847328246,-25.053435114503817,-7.297709923664122,0.0
13.160000562667847,-9.880870251464843,2.674323254394531,0.5027823486328125,-3.9389312977099236,8.045801526717558,-3.1603053435114505,-8.75320126953125,3.7421371948242186,-0.8092401611328125,-7.770992366412214,-24.076335877862597,-5.603053435114504,0.0
13.170000553131104,-9.612719665527344,1.9752163696289062,-0.00239420166015625,-4.595419847328245,7.816793893129771,0.4580152671755725,-9.72285294189453,1.6807295654296874,1.0582371337890624,-20.870229007633586,-14.366412213740459,-1.465648854961832,0.0
13.18000054359436,-8.659827404785156,-0.229843359375,-0.1580173095703125,9.221374045801527,17.404580152671755,-0.7938931297709924,-9.220070593261719,1.0726023437499999,0.7685387329101562,-16.091603053435115,-17.389312977099237,-2.366412213740458,0.0
13.190000534057617,-7.953537915039062,0.0526724365234375,-0.8188169677734375,16.396946564885496,20.259541984732824,-5.145038167938932,-9.119514123535156,0.5817910034179687,1.2641384765625,-12.50381679389313,-16.47328244274809,-3.2213740458015265,0.0
13.200000524520874,-9.26316622314453,2.109291662597656,-0.70868369140625,10.870229007633588,24.748091603053435,-10.091603053435115,-9.957484704589843,0.33758243408203126,1.1635820068359375,-8.16793893129771,-17.52671755725191,-3.4198473282442747,0.0
13.21000051498413,-9.603142858886718,2.9089550170898435,-1.2832920898437499,3.435114503816794,25.66412213740458,-10.030534351145038,-9.586383447265625,0.8643067993164062,1.1875240234375,-7.1603053435114505,-18.47328244274809,-5.32824427480916,0.0
13.220000505447388,-10.388441003417968,3.2609026611328122,-0.8379705810546875,-9.221374045801527,28.885496183206108,-10.030534351145038,-11.166556542968749,-0.354341845703125,1.7956512451171873,-0.6412213740458015,-19.17557251908397,-4.748091603053435,0.0
13.230000495910645,-10.888829150390624,2.308010400390625,-0.44532150878906246,-24.99236641221374,29.908396946564885,-10.549618320610687,-11.295843432617186,-0.0909796630859375,2.375048046875,6.656488549618321,-20.68702290076336,-6.396946564885496,0.0
13.240000486373901,-9.047688073730468,0.17477672119140625,-0.9864110839843749,-28.35114503816794,30.53435114503817,-10.717557251908397,-9.469067565917967,0.5698199951171875,2.1547814941406247,8.564885496183207,-28.48854961832061,-9.129770992366412,0.0
13.250000476837158,-9.062053283691405,-0.9720458740234375,-1.0773907470703123,-23.068702290076335,34.33587786259542,-14.641221374045802,-9.923965881347655,1.388636962890625,1.8195932617187498,13.068702290076336,-32.18320610687023,-10.458015267175572,0.0
13.260000705718994,-9.373299499511718,-0.17477672119140625,-0.7948749511718749,-22.82442748091603,37.14503816793893,-21.083969465648856,-9.715670336914062,2.1452046874999997,1.4437036010742186,6.3816793893129775,-31.557251908396946,-11.099236641221374,0.0
13.270000696182251,-9.97903251953125,0.8762778076171874,-0.316034619140625,-21.755725190839694,39.19083969465649,-23.69465648854962,-8.030152368164062,3.0071172851562498,0.8451531860351562,-8.488549618320612,-30.748091603053435,-12.030534351145038,0.0
13.280000686645508,-10.280701928710936,1.8076222534179687,-0.3495534423828125,-21.435114503816795,40.99236641221374,-23.923664122137403,-9.294290844726563,2.01112939453125,1.5442600708007812,-26.366412213740457,-19.00763358778626,-8.885496183206106,0.0
13.290000915527344,-9.406818322753905,1.9608511596679685,-0.8762778076171874,-24.03053435114504,38.458015267175576,-22.717557251908396,-7.074865905761718,3.5913024902343746,0.1867477294921875,-38.33587786259542,-17.541984732824428,-10.763358778625955,0.0
13.300000429153442,-9.038111267089842,0.833182177734375,-0.9648632690429687,-22.53435114503817,39.786259541984734,-20.946564885496183,-10.187328063964843,-0.2154781494140625,1.5227122558593749,-37.05343511450382,-13.374045801526718,-5.480916030534351,0.0
13.3100004196167,-9.332598071289063,0.14125789794921875,-0.7230489013671875,-14.458015267175572,43.02290076335878,-22.50381679389313,-8.365340600585936,0.16280571289062498,1.47482822265625,-30.732824427480917,-14.488549618320612,-7.908396946564886,0.0
13.320000648498535,-8.762778076171875,0.2705447875976562,-0.28969840087890625,-9.221374045801527,42.229007633587784,-24.35114503816794,-7.948749511718749,0.3758896606445312,1.5825672973632812,-21.587786259541986,-17.221374045801525,-9.770992366412214,0.0
13.330000877380371,-9.816226806640625,1.1947066284179686,0.13646949462890623,-11.32824427480916,39.7557251908397,-25.740458015267176,-7.42441934814453,1.8195932617187498,0.086191259765625,-18.412213740458014,-19.282442748091604,-12.351145038167939,0.0
13.340000629425049,-9.634267480468749,1.139639990234375,0.15083470458984374,-8.534351145038167,36.19847328244275,-24.35114503816794,-9.550470422363281,0.6512228515624999,0.6943184814453125,-19.419847328244273,-14.16793893129771,-9.740458015267176,0.0
13.350000619888306,-9.409212524414063,1.0941501586914062,-0.08140285644531249,-5.022900763358779,36.38167938931298,-23.099236641221374,-9.641450085449218,-0.20829554443359374,1.3958195678710936,-13.679389312977099,-10.854961832061068,-9.450381679389313,0.0
13.360000610351562,-9.97184991455078,0.5003881469726562,-0.2346317626953125,-0.6259541984732825,36.29007633587786,-21.34351145038168,-9.495403784179686,-1.0366893188476562,1.5346832641601562,1.7099236641221374,-16.427480916030536,-11.114503816793894,0.0
13.37000060081482,-10.905588562011719,1.3527239379882812,0.239420166015625,2.427480916030534,35.12977099236641,-19.87786259541985,-10.144232434082031,-0.5243301635742187,1.43652099609375,15.099236641221374,-20.80916030534351,-13.572519083969466,0.0
13.380000352859497,-12.873622326660156,2.5761609863281247,1.158793603515625,-5.251908396946565,31.083969465648856,-18.900763358778626,-9.823409411621093,-0.031124621582031248,1.675941162109375,21.251908396946565,-22.977099236641223,-14.305343511450381,0.0
13.390000581741333,-11.401188305664062,2.1787235107421874,0.5985504150390625,-3.6946564885496183,20.68702290076336,-14.13740458015267,-9.411606726074218,1.7190367919921874,1.3144167114257812,18.9618320610687,-21.572519083969464,-14.931297709923664,0.0
13.400000810623169,-11.235988391113281,2.6671406494140624,1.139639990234375,-8.0,15.908396946564885,-12.82442748091603,-10.036493359375,1.8722656982421875,1.6160861206054686,11.587786259541986,-17.893129770992367,-13.969465648854962,0.0
13.410000562667847,-10.436325036621094,1.438915197753906,1.7381904052734374,0.3053435114503817,15.32824427480916,-12.80916030534351,-8.564059338378906,1.4796166259765624,1.5442600708007812,1.5572519083969465,-15.038167938931299,-14.396946564885496,0.0
13.420000791549683,-10.120290417480469,1.446097802734375,1.9536685546875,-0.15267175572519084,8.213740458015268,-11.236641221374045,-7.9463553100585935,3.459621398925781,1.697488977050781,-12.106870229007633,-5.145038167938932,-13.893129770992367,0.0
13.43000054359436,-10.244788903808594,1.889025109863281,2.592920397949219,5.7251908396946565,4.732824427480916,-11.129770992366412,-9.406818322753905,0.4955997436523437,1.7166425903320313,-17.206106870229007,-3.145038167938931,-9.251908396946565,0.0
13.440000772476196,-10.625466967773438,2.499546533203125,2.3822306518554686,-0.6106870229007634,-6.473282442748092,-9.603053435114504,-9.83777462158203,0.02633621826171875,1.7932570434570312,-6.778625954198473,-5.648854961832061,-10.0,0.0
13.450000524520874,-10.785878479003905,2.0925322509765625,2.3822306518554686,8.412213740458014,-11.404580152671755,-4.549618320610687,-9.665392102050781,-0.28730419921875,2.212242333984375,-2.7480916030534353,-3.969465648854962,-9.969465648854962,0.0
13.46000051498413,-10.36210478515625,1.2689268798828124,2.059013427734375,14.82442748091603,-15.389312977099237,-1.2671755725190839,-9.277531433105468,-0.20829554443359374,2.023100402832031,3.8625954198473282,-4.748091603053435,-10.961832061068701,0.0
13.470000505447388,-10.761936462402343,1.7741034301757812,1.9776105712890624,15.954198473282442,-20.229007633587788,-0.9007633587786259,-9.284714038085937,-0.1197100830078125,1.9488801513671874,10.67175572519084,-4.473282442748092,-11.267175572519085,0.0
13.480000734329224,-11.044452258300781,1.5370774658203123,2.868253588867187,20.564885496183205,-24.610687022900763,1.9389312977099236,-8.853757739257812,0.040701428222656245,1.838746875,15.83206106870229,-4.656488549618321,-12.458015267175572,0.0
13.490000486373901,-11.777077966308592,3.5434184570312497,4.544194750976562,23.46564885496183,-30.549618320610687,3.5877862595419847,-8.832209924316405,-0.0047884033203125,1.637633935546875,18.9618320610687,-5.038167938931298,-12.870229007633588,0.0
13.500000476837158,-12.73715283203125,5.164292980957031,6.363788012695312,15.954198473282442,-44.13740458015267,9.419847328244275,-8.583212951660157,0.1388636962890625,1.4317325927734375,19.64885496183206,-5.66412213740458,-13.358778625954198,0.0
13.510000705718994,-12.797007873535156,5.798756420898437,7.003039855957031,17.938931297709924,-60.44274809160305,20.33587786259542,-8.52335791015625,0.34237083740234375,1.4724340209960938,17.709923664122137,-4.99236641221374,-13.17557251908397,0.0
13.520000696182251,-12.267889306640624,5.118803149414062,7.48906279296875,32.68702290076336,-77.12977099236642,35.93893129770992,-8.647856396484375,0.3232172241210937,1.6304513305664061,14.793893129770993,-3.404580152671756,-14.076335877862595,0.0
13.530001163482666,-10.647014782714843,4.8314989501953125,5.080495922851562,46.717557251908396,-86.03053435114504,49.465648854961835,-8.667010009765624,-0.15562310791015624,1.8028338500976562,12.412213740458014,-1.3740458015267176,-15.648854961832061,0.0
13.540000677108765,-9.052476477050782,4.50109912109375,4.015076184082031,27.099236641221374,-100.99236641221374,47.954198473282446,-8.046911779785155,-0.5147533569335937,1.8267758666992187,15.435114503816793,-1.5725190839694656,-15.648854961832061,0.0
13.550000429153442,-7.659051110839843,3.2609026611328122,2.521094348144531,14.0,-114.54961832061069,42.61068702290076,-7.568071447753906,-0.6344634399414062,1.6352397338867186,20.091603053435115,-2.1374045801526718,-15.603053435114504,0.0
13.5600004196167,-6.773196496582031,1.7980454467773437,1.2018892333984375,8.381679389312977,-121.52671755725191,42.396946564885496,-6.883329772949218,-0.3064578125,1.1252747802734375,26.412213740458014,-3.480916030534351,-16.641221374045802,0.0
13.570000648498535,-8.123526232910155,-0.6200982299804687,1.5370774658203123,7.908396946564886,-122.03053435114504,41.17557251908397,-6.497863305664062,-0.22266075439453123,1.3263877197265623,33.16030534351145,-2.3969465648854964,-17.16030534351145,0.0
13.580000638961792,-8.647856396484375,-4.546588952636719,1.4891934326171874,10.335877862595419,-127.46564885496183,39.70992366412214,-5.798756420898437,0.15083470458984374,1.2641384765625,40.10687022900763,-1.1145038167938932,-18.671755725190838,0.0
13.590000629425049,-9.457096557617186,-5.465962390136719,2.7365724975585937,24.35114503816794,-132.67175572519085,33.267175572519086,-5.664681127929687,0.6536170532226562,1.5346832641601562,44.38167938931298,-0.6259541984732825,-19.389312977099237,0.0
13.600000619888306,-11.14022032470703,-4.280832568359375,6.0884548217773435,43.11450381679389,-138.15267175572518,24.38167938931298,-5.679046337890624,1.8698714965820311,1.8100164550781248,44.6412213740458,-0.015267175572519083,-20.549618320610687,0.0
13.610000848770142,-13.259088793945311,-3.327940307617187,9.34696328125,69.38931297709924,-148.76335877862596,17.267175572519083,-7.117961535644531,2.7557261108398436,2.8419173706054686,36.87022900763359,-2.045801526717557,-20.0,0.0
13.62000036239624,-16.436194396972656,0.239420166015625,10.89122335205078,86.0,-168.65648854961833,11.435114503816793,-11.592724438476562,5.140350964355468,6.950367419433594,19.862595419847327,-6.320610687022901,-23.129770992366414,0.0
13.630000829696655,-20.362685119628907,5.013458276367187,11.516109985351562,91.5114503816794,-193.32824427480915,9.664122137404581,-19.002778576660155,4.13718046875,12.86404552001953,-15.83206106870229,-10.610687022900763,-31.083969465648856,0.0
13.640000820159912,-21.55499754638672,5.954379528808594,9.368511096191405,80.85496183206106,-220.0763358778626,15.48091603053435,-22.948422912597653,-3.6559459350585937,9.931148486328125,-41.45038167938932,-17.572519083969464,-42.54961832061068,0.0
13.65000057220459,-17.592593798828123,4.407725256347656,6.019022973632812,56.56488549618321,-235.58778625954199,27.14503816793893,-22.002713256835936,-3.6583401367187496,3.833116857910156,-23.053435114503817,-28.244274809160306,-37.3587786259542,0.0
13.660000801086426,-15.404293481445311,0.7302315063476562,4.237736938476562,31.374045801526716,-242.42748091603053,40.47328244274809,-12.662932580566405,-2.8730419921875,-2.032677209472656,26.580152671755727,-57.93893129770992,-16.244274809160306,0.0
13.670000553131104,-12.629413757324219,-3.81156904296875,-0.5099649536132812,37.37404580152672,-241.6946564885496,50.50381679389313,-6.586448767089843,0.7972691528320313,-5.494692810058593,33.099236641221374,-55.541984732824424,-14.488549618320612,0.0
13.68000054359436,-10.766724865722656,-4.627991809082031,-6.4284314575195305,48.38167938931298,-226.82442748091603,50.51908396946565,-5.817910034179687,-0.3184288208007812,-4.479551306152343,5.541984732824427,-32.42748091603053,-22.595419847328245,0.0
13.690000534057617,-8.722076647949219,-6.414066247558593,-9.97903251953125,52.13740458015267,-203.0229007633588,42.717557251908396,-4.357447021484375,0.7852981445312499,-5.128379956054687,-12.748091603053435,-22.16793893129771,-29.984732824427482,0.0
13.700000524520874,-7.896077075195312,-8.40843623046875,-10.58476553955078,59.587786259541986,-164.67175572519085,27.83206106870229,-6.124367846679687,0.699106884765625,-2.906560815429687,-26.702290076335878,-8.793893129770993,-29.786259541984734,0.0
13.71000051498413,-5.528211633300781,-8.494627490234375,-10.271125122070313,65.26717557251908,-130.4732824427481,5.694656488549619,-8.413224633789062,-1.3359645263671873,-2.042254016113281,-26.946564885496183,-4.641221374045801,-20.03053435114504,0.0
13.720000743865967,-5.104437939453125,-4.333505004882812,-8.650250598144531,77.06870229007633,-90.74809160305344,-11.389312977099237,-11.010933435058593,-3.0645781249999997,-1.4700398193359374,-17.46564885496183,0.5190839694656488,-9.86259541984733,0.0
13.730000734329224,-3.8570588745117185,-1.22583125,-6.9719152343749995,80.42748091603053,-51.541984732824424,-21.633587786259543,-12.521674682617187,-4.920084411621094,-0.5602431884765625,0.030534351145038167,6.67175572519084,-6.763358778625954,0.0
13.740000486373901,-6.105214233398437,4.376600634765625,-4.73094248046875,56.16793893129771,-21.282442748091604,-28.99236641221374,-13.117830895996093,-5.576095666503906,0.033518823242187495,25.17557251908397,11.267175572519085,-6.900763358778626,0.0
13.750000476837158,-5.817910034179687,6.004657763671875,-4.582501977539062,13.038167938931299,-6.595419847328245,-26.137404580152673,-10.376469995117187,-1.89620771484375,0.031124621582031248,38.916030534351144,16.15267175572519,-8.396946564885496,0.0
13.760000705718994,-5.252878442382812,5.236119030761718,-4.489128112792969,-29.328244274809162,12.610687022900763,-19.114503816793892,-10.395623608398436,-0.40222587890625,-0.34237083740234375,35.51145038167939,25.14503816793893,-3.1603053435114505,0.0
13.77000093460083,-4.266467358398438,2.741360900878906,-4.647145422363281,-54.44274809160305,28.290076335877863,-16.27480916030534,-8.686163623046875,1.4915876342773438,-1.3144167114257812,31.541984732824428,29.51145038167939,1.633587786259542,0.0
13.780000686645508,-2.9448680419921875,0.3758896606445312,-5.03740029296875,-62.36641221374046,45.37404580152672,-13.435114503816793,-7.864952453613281,4.048595007324218,-1.5418658691406248,17.908396946564885,40.19847328244275,3.236641221374046,0.0
13.790000915527344,-2.133233679199219,-2.0973206542968748,-5.353434912109375,-59.20610687022901,67.19083969465649,-14.335877862595419,-8.47786807861328,2.645592834472656,-1.1875240234375,-3.49618320610687,51.20610687022901,8.793893129770993,0.0
13.8000009059906,-3.7205893798828122,-2.70065947265625,-4.144363073730468,-50.51908396946565,91.93893129770993,-19.81679389312977,-10.117896215820313,1.1851298217773436,-0.00718260498046875,-5.129770992366412,53.52671755725191,14.13740458015267,0.0
13.810000658035278,-4.441244079589843,-3.2632968627929686,-2.8012159423828122,-39.6793893129771,108.06106870229007,-23.96946564885496,-10.601524951171875,1.3862427612304686,0.35673604736328124,-10.51908396946565,53.48091603053435,14.091603053435115,0.0
13.820000886917114,-6.411672045898437,-1.9033903198242186,-0.5961562133789062,-36.67175572519084,122.54961832061069,-26.793893129770993,-11.3389390625,-1.9105729248046874,2.0757728393554684,-8.549618320610687,51.02290076335878,16.137404580152673,0.0
13.830000638961792,-8.528146313476562,-0.1484405029296875,3.1316157714843746,-38.213740458015266,131.05343511450383,-28.99236641221374,-12.08592998046875,-3.3016040893554686,2.437297290039062,9.770992366412214,37.55725190839695,18.076335877862597,0.0
13.840000629425049,-10.436325036621094,-0.033518823242187495,4.802768530273437,-34.36641221374046,131.26717557251908,-25.69465648854962,-10.137049829101562,-0.9241618408203125,1.9991583862304687,15.938931297709924,27.435114503816795,15.297709923664122,0.0
13.850000619888306,-10.357316381835936,0.21068974609375,5.8610056640625,-33.41984732824427,127.45038167938931,-21.755725190839694,-9.193734375,0.277727392578125,0.8786720092773437,2.6717557251908395,26.061068702290076,13.877862595419847,0.0
13.860000610351562,-10.663774194335938,0.47884033203125,9.126696728515624,-20.80916030534351,122.27480916030534,-13.679389312977099,-8.755595471191405,-0.5674257934570313,1.6208745239257811,-7.847328244274809,23.64885496183206,15.007633587786259,0.0
13.87000060081482,-11.271901416015623,-0.05985504150390625,14.348450549316405,6.122137404580153,109.3587786259542,-9.938931297709924,-9.94072529296875,-0.93852705078125,2.5905261962890624,-9.267175572519085,21.61832061068702,15.358778625954198,0.0
13.880000829696655,-12.799402075195312,3.9408559326171875,15.813701965332031,32.36641221374046,87.52671755725191,-7.419847328244275,-9.313444458007812,-0.26815058593749996,1.5298948608398437,-10.82442748091603,12.442748091603054,11.022900763358779,0.0
13.890000820159912,-8.959102612304687,4.656722229003906,9.943119494628906,59.64885496183206,61.3587786259542,4.183206106870229,-9.287108239746093,-0.7398083129882812,1.1611878051757811,-18.244274809160306,11.435114503816793,7.633587786259542,0.0
13.900000810623169,-8.434772448730468,8.008604553222655,6.095637426757812,50.732824427480914,52.58015267175573,9.282442748091603,-9.0788126953125,-0.9816226806640624,1.6448165405273436,-18.82442748091603,10.65648854961832,5.847328244274809,0.0
13.910000562667847,-7.599196069335937,6.368576416015625,2.1068974609374997,4.152671755725191,39.038167938931295,12.625954198473282,-8.671798413085938,0.02154781494140625,1.5945383056640625,-18.3206106870229,8.198473282442748,5.557251908396947,0.0
13.920000553131104,-5.2265422241210935,3.7229835815429686,-4.039018200683594,-38.656488549618324,36.274809160305345,16.106870229007633,-9.2320416015625,-0.11013327636718749,2.7653029174804686,-26.35114503816794,13.633587786259541,6.229007633587786,0.0
13.93000054359436,-2.9281086303710935,0.9361328491210937,-6.282385156249999,-63.17557251908397,40.06106870229008,12.931297709923664,-9.935936889648437,-0.26336218261718747,3.294421484375,-34.0,13.557251908396946,8.045801526717558,0.0
13.940000534057617,-9.804255798339844,-3.143586779785156,4.553771557617187,-57.12977099236641,49.66412213740458,7.572519083969466,-8.90643017578125,-0.8858546142578124,2.094926452636719,-44.68702290076336,8.091603053435115,8.870229007633588,0.0
13.950000524520874,-16.610971118164063,-5.030217687988281,13.905523242187499,-8.916030534351146,42.717557251908396,7.694656488549619,-11.3389390625,-4.2497079467773435,3.0406361083984375,-48.51908396946565,11.83206106870229,11.114503816793894,0.0
13.96000051498413,-22.809559216308593,1.2210428466796874,16.180014819335938,50.3206106870229,34.717557251908396,14.641221374045802,-11.461043347167967,-4.575319372558593,1.0271125122070313,-48.56488549618321,4.885496183206107,4.213740458015267,0.0
13.970000505447388,-24.48310617675781,11.118672509765624,12.643778967285156,48.88549618320611,11.664122137404581,25.267175572519083,-10.721235034179687,-4.276044165039062,0.49799394531249996,-50.67175572519084,14.045801526717558,-1.3282442748091603,0.0
13.980000734329224,-18.55266866455078,11.03248125,6.770802294921874,-9.114503816793894,-26.366412213740457,33.05343511450382,-9.866505041503906,-3.816357446289062,-1.3958195678710936,-30.778625954198475,13.84732824427481,-0.183206106870229,0.0
13.990000486373901,-8.954314208984375,-1.7764976318359373,-0.603338818359375,-42.458015267175576,-42.83969465648855,35.41984732824427,-10.194510668945313,-3.88818349609375,-1.3072341064453123,5.068702290076335,14.412213740458014,-0.015267175572519083,0.0
14.000000476837158,-4.412513659667969,-9.112331518554686,-3.825934252929687,-24.38167938931298,-25.435114503816795,27.14503816793893,-7.9463553100585935,-1.5322890624999999,-1.2952630981445312,38.13740458015267,9.725190839694656,-2.2290076335877864,0.0
14.010000944137573,-3.5889082885742187,-8.24802471923828,-3.7517140014648436,-0.0916030534351145,-12.106870229007633,13.541984732824428,-9.991003527832031,-0.2825157958984375,-2.1116858642578125,56.045801526717554,13.755725190839694,-0.732824427480916,0.0
14.020000696182251,-5.865794067382812,-4.714183068847656,-2.96881005859375,21.34351145038168,-2.3206106870229006,4.1679389312977095,-11.269507214355468,1.659181750488281,-2.6982652709960937,56.88549618320611,22.610687022900763,6.534351145038168,0.0
14.030000925064087,-7.335833886718749,-2.664746447753906,-2.834734765625,32.152671755725194,3.786259541984733,-0.13740458015267176,-10.347739575195313,3.299209887695312,-1.7405846069335937,53.9236641221374,24.977099236641223,12.702290076335878,0.0
14.040000677108765,-10.307038146972655,0.9624690673828125,-2.3535002319335936,32.74809160305343,11.206106870229007,-2.519083969465649,-9.265560424804686,5.487510205078125,-1.407790576171875,49.49618320610687,25.66412213740458,17.068702290076335,0.0
14.050000667572021,-11.745953344726562,3.287238879394531,-1.89620771484375,21.572519083969464,14.992366412213741,-1.251908396946565,-10.046070166015625,5.542576843261719,-0.5339069702148437,39.12977099236641,30.85496183206107,23.740458015267176,0.0
14.060000658035278,-12.069170568847655,4.201823913574218,-1.419761584472656,5.847328244274809,20.458015267175572,1.450381679389313,-9.076418493652342,6.157886669921875,-0.5099649536132812,21.31297709923664,31.984732824427482,28.519083969465647,0.0
14.070000648498535,-11.125855114746093,3.2728736694335936,-1.4101847778320311,-10.900763358778626,25.053435114503817,2.213740458015267,-10.098742602539062,4.65432802734375,0.05985504150390625,1.3893129770992367,38.80916030534351,33.37404580152672,0.0
14.080000638961792,-10.848127722167968,1.9871873779296874,-1.1659762084960936,-16.427480916030536,35.725190839694655,-1.8625954198473282,-10.103531005859374,2.6240450195312497,-0.411802685546875,-14.916030534351146,38.6412213740458,37.06870229007634,0.0
14.090000629425049,-10.031704956054687,0.4955997436523437,-1.1180921752929687,-17.17557251908397,45.12977099236641,-7.236641221374046,-11.544840405273437,1.2856862915039062,-0.11252747802734374,-19.083969465648856,35.603053435114504,37.86259541984733,0.0
14.100000381469727,-7.666233715820312,-1.2737152832031249,-2.3439234252929686,-10.488549618320612,45.908396946564885,-8.992366412213741,-11.10191309814453,0.8762778076171874,-0.2059013427734375,-10.366412213740459,26.091603053435115,34.2442748091603,0.0
14.110000371932983,-8.487444885253906,-0.29448680419921874,-1.3742717529296875,0.13740458015267176,56.48854961832061,-14.229007633587786,-12.131419812011718,-1.1133037719726562,0.38786066894531246,-9.083969465648854,25.709923664122137,33.69465648854962,0.0
14.120001077651978,-10.206481677246094,2.990357873535156,-0.3112462158203125,-2.732824427480916,58.42748091603053,-18.65648854961832,-10.314220751953124,1.235408056640625,-0.7206546997070312,-4.442748091603053,18.0,24.946564885496183,0.0
14.130000591278076,-12.351686364746094,5.015852478027344,0.9888052856445312,-17.16030534351145,56.6412213740458,-18.65648854961832,-11.643002673339844,-0.09576806640624999,-0.5793968017578125,-5.984732824427481,19.81679389312977,24.458015267175572,0.0
14.140000820159912,-12.85207451171875,5.5090580200195305,1.407790576171875,-36.412213740458014,49.38931297709924,-15.038167938931299,-10.376469995117187,1.1563994018554686,-1.0726023437499999,-5.893129770992366,17.389312977099237,19.31297709923664,0.0
14.15000033378601,-11.360486877441405,3.076549133300781,0.7302315063476562,-42.152671755725194,43.267175572519086,-8.992366412213741,-11.379640490722656,0.11731588134765625,-0.699106884765625,-1.9083969465648856,19.87786259541985,19.908396946564885,0.0
14.160000801086426,-8.422801440429687,-0.258573779296875,-0.4285620971679687,-40.458015267175576,39.6793893129771,-6.549618320610687,-10.311826550292968,0.7900865478515624,-0.6823474731445313,3.9083969465648853,19.46564885496183,17.87786259541985,0.0
14.170000553131104,-7.881711865234375,-0.7517793212890624,-0.19871873779296872,-26.595419847328245,41.06870229007634,-7.175572519083969,-10.66856259765625,-0.5913678100585937,0.30406361083984373,13.770992366412214,22.47328244274809,21.587786259541986,0.0
14.18000054359436,-6.739677673339843,-1.5179238525390624,0.016759411621093748,-15.648854961832061,40.412213740458014,-8.488549618320612,-9.49300958251953,1.5562310791015623,0.4285620971679687,30.12213740458015,15.954198473282442,17.022900763358777,0.0
14.190000534057617,-10.120290417480469,1.4628572143554686,2.4301146850585935,-4.717557251908397,46.717557251908396,-10.870229007633588,-8.813056311035156,3.5386300537109374,-0.07900865478515624,16.65648854961832,20.885496183206108,17.84732824427481,0.0
14.200000286102295,-11.149797131347656,2.8610709838867185,2.806004345703125,-6.854961832061068,42.274809160305345,-11.404580152671755,-9.8449572265625,2.0661960327148434,-0.2561795776367187,10.396946564885496,23.709923664122137,22.244274809160306,0.0
14.21000051498413,-11.367669482421874,3.0645781249999997,2.499546533203125,-10.549618320610687,36.656488549618324,-10.259541984732824,-9.639055883789062,1.8531120849609375,-0.00239420166015625,14.366412213740459,21.17557251908397,20.977099236641223,0.0
14.220000505447388,-10.766724865722656,1.927332336425781,2.2266075439453124,-4.549618320610687,38.19847328244275,-8.473282442748092,-9.313444458007812,1.5610194824218748,0.49320554199218747,13.84732824427481,20.900763358778626,21.450381679389313,0.0
14.230000495910645,-9.976638317871092,1.1659762084960936,1.426944189453125,-5.847328244274809,32.74809160305343,-7.923664122137405,-9.179369165039063,1.6041151123046875,0.3591302490234375,13.221374045801527,18.625954198473284,21.862595419847327,0.0
14.24000072479248,-10.93671318359375,2.863465185546875,1.4700398193359374,-10.961832061068701,27.572519083969464,-8.076335877862595,-9.119514123535156,1.6615759521484375,0.34715924072265625,9.84732824427481,17.46564885496183,21.358778625954198,0.0
14.250000476837158,-10.800243688964843,2.319981408691406,1.678335363769531,-11.816793893129772,25.786259541984734,-6.030534351145038,-9.279925634765624,1.4221557861328125,0.29927520751953124,4.137404580152672,16.641221374045802,20.16793893129771,0.0
14.260000705718994,-10.08677159423828,1.8531120849609375,1.5777788940429687,-10.259541984732824,25.557251908396946,-4.977099236641221,-9.504980590820312,1.0366893188476562,0.28969840087890625,-0.33587786259541985,15.251908396946565,18.564885496183205,0.0
14.27000093460083,-9.995791931152343,2.0183119995117185,1.5849614990234373,-11.083969465648854,23.221374045801525,-5.129770992366412,-9.842563024902343,0.6631938598632812,0.15562310791015624,-2.9160305343511452,13.679389312977099,17.61832061068702,0.0
14.280000925064087,-9.734823950195311,2.099714855957031,1.5705962890624998,-11.48091603053435,21.61832061068702,-4.351145038167939,-10.067617980957031,0.5793968017578125,0.15322890625,-4.259541984732825,11.282442748091603,15.374045801526718,0.0
14.290001153945923,-9.773131176757811,2.1691467041015624,1.6352397338867186,-11.49618320610687,21.374045801526716,-3.3587786259541983,-10.381258398437499,0.4955997436523437,0.031124621582031248,-5.145038167938932,9.206106870229007,13.541984732824428,0.0
14.300000667572021,-9.660603698730467,2.4157494750976563,0.9696516723632812,-12.50381679389313,19.801526717557252,-2.4580152671755724,-10.283096130371094,0.679953271484375,0.0047884033203125,-6.213740458015267,7.099236641221374,11.557251908396946,0.0
14.3100004196167,-9.543287817382812,2.39420166015625,0.6847416748046875,-14.748091603053435,19.206106870229007,-1.984732824427481,-10.211270080566406,0.5770026000976562,0.23702596435546874,-7.083969465648855,4.763358778625954,10.366412213740459,0.0
14.320000648498535,-9.5384994140625,2.2553379638671873,0.5267243652343749,-18.35114503816794,19.709923664122137,-2.854961832061069,-9.787496386718749,0.7757213378906249,0.28969840087890625,-9.725190839694656,1.8473282442748091,7.770992366412214,0.0
14.330000638961792,-10.067617980957031,2.4564509033203126,0.49320554199218747,-23.923664122137403,18.763358778625953,-2.9618320610687023,-9.911994873046874,0.19153613281249998,0.6919242797851562,-11.251908396946565,0.183206106870229,6.961832061068702,0.0
14.340000629425049,-10.235212097167969,2.0374656127929685,0.59376201171875,-26.091603053435115,19.358778625954198,-2.8244274809160306,-10.86009873046875,-1.9512743530273435,1.8746598999023436,-3.618320610687023,-2.6106870229007635,7.068702290076335,0.0
14.350000858306885,-9.9981861328125,1.1156979736328125,0.7637503295898437,-26.38167938931298,18.519083969465647,-2.854961832061069,-10.0748005859375,0.8164227661132812,0.08858546142578125,4.656488549618321,-12.549618320610687,-0.2900763358778626,0.0
14.360000610351562,-9.648632690429688,0.3806780639648437,0.7589619262695312,-21.206106870229007,18.671755725190838,-2.6106870229007635,-9.631873278808593,0.7733271362304687,1.5275006591796874,0.916030534351145,-13.618320610687023,0.6870229007633588,0.0
14.37000060081482,-9.595960253906249,0.28490999755859375,1.024718310546875,-16.778625954198475,19.862595419847327,-4.885496183206107,-9.911994873046874,0.7996633544921875,0.17956512451171874,-1.786259541984733,-18.35114503816794,-1.1450381679389312,0.0
14.380000829696655,-10.505756884765624,1.5897499023437498,1.4628572143554686,-22.259541984732824,16.977099236641223,-6.229007633587786,-10.479420666503906,1.0702081420898437,0.5602431884765625,-2.122137404580153,-20.076335877862597,-3.282442748091603,0.0
14.390000581741333,-10.108319409179687,1.3742717529296875,1.1133037719726562,-16.85496183206107,17.633587786259543,-5.557251908396947,-9.564835632324218,1.915361328125,0.8020575561523438,-3.5267175572519083,-25.221374045801525,-5.633587786259542,0.0
14.400000810623169,-10.13226142578125,2.1452046874999997,1.1085153686523437,-19.984732824427482,14.793893129770993,-6.0,-9.330203869628905,2.2649147705078123,0.63206923828125,-10.290076335877863,-25.908396946564885,-6.33587786259542,0.0
14.410000324249268,-9.679757312011718,2.214636535644531,0.6560112548828124,-19.374045801526716,13.725190839694656,-4.656488549618321,-9.119514123535156,3.5529952636718747,0.7685387329101562,-22.65648854961832,-22.106870229007633,-4.320610687022901,0.0
14.420000791549683,-9.442731347656249,2.2457611572265623,0.4381389038085937,-21.053435114503817,11.98473282442748,-3.0076335877862594,-8.633491186523438,2.2673089721679687,0.17477672119140625,-31.770992366412212,-21.81679389312977,-3.3893129770992365,0.0
14.43000054359436,-10.110713610839843,2.29843359375,0.45968671875,-22.900763358778626,10.946564885496183,-1.3587786259541985,-10.79545528564453,1.407790576171875,-0.42377369384765623,-26.732824427480917,-19.786259541984734,-1.450381679389313,0.0
14.440000534057617,-9.662997900390625,1.6424223388671875,-0.08379705810546874,-20.27480916030534,11.083969465648854,0.916030534351145,-10.522516296386717,0.18914193115234373,0.21787235107421873,-18.03053435114504,-23.00763358778626,-2.717557251908397,0.0
14.450000762939453,-9.483432775878907,1.2425906616210938,-0.1005564697265625,-18.610687022900763,11.664122137404581,1.3740458015267176,-10.54645831298828,0.689530078125,1.139639990234375,-11.679389312977099,-24.80916030534351,-2.2748091603053435,0.0
14.46000051498413,-9.248801013183593,1.2138602416992186,-0.1771709228515625,-18.106870229007633,12.01526717557252,0.6259541984732825,-9.90241806640625,2.8730419921875,-0.33518823242187495,-17.129770992366414,-25.129770992366414,-3.9236641221374047,0.0
14.470000505447388,-9.495403784179686,1.7884686401367187,-0.040701428222656245,-21.87786259541985,12.274809160305344,-0.8549618320610687,-9.847351428222655,2.7964275390625,0.9002198242187499,-32.06106870229008,-17.419847328244273,-1.3740458015267176,0.0
14.480000257492065,-9.689334118652344,2.01112939453125,0.20350714111328125,-27.0381679389313,11.740458015267176,-1.7099236641221374,-8.774749084472656,3.603273498535156,0.23702596435546874,-45.41984732824427,-16.671755725190838,-2.732824427480916,0.0
14.490000247955322,-9.696516723632811,1.3551181396484375,0.3136404174804687,-27.770992366412212,11.053435114503817,-1.0687022900763359,-10.311826550292968,0.9433154541015625,0.5315127685546874,-46.2442748091603,-13.083969465648854,0.10687022900763359,0.0
14.500000715255737,-9.026140258789061,-0.9504980590820312,-0.3711012573242187,-18.68702290076336,10.916030534351146,0.061068702290076333,-9.495403784179686,1.8746598999023436,-0.1005564697265625,-40.396946564885496,-17.00763358778626,-3.450381679389313,0.0
14.510000944137573,-9.176974963378905,-1.2689268798828124,-0.430956298828125,0.13740458015267176,17.34351145038168,-3.3435114503816794,-11.980585107421874,-2.3439234252929686,2.384624853515625,-33.3587786259542,-11.587786259541986,0.5801526717557252,0.0
14.52000093460083,-7.766790185546874,-0.699106884765625,-0.7733271362304687,8.229007633587786,18.442748091603054,-8.51908396946565,-9.41639512939453,-1.0127473022460938,1.139639990234375,-13.572519083969466,-26.213740458015266,-5.526717557251908,0.0
14.530000925064087,-9.935936889648437,0.6727706665039062,-0.37828386230468747,10.305343511450381,18.885496183206108,-10.183206106870228,-10.582371337890624,-0.6296750366210937,1.369483349609375,1.7557251908396947,-31.083969465648856,-6.778625954198473,0.0
14.540000677108765,-11.106701501464842,2.849099975585937,0.5698199951171875,7.32824427480916,21.83206106870229,-11.664122137404581,-10.012551342773437,1.1444283935546875,0.8307879760742187,4.5038167938931295,-32.091603053435115,-8.80916030534351,0.0
14.550000429153442,-11.274295617675781,3.727771984863281,0.22744915771484372,-5.969465648854962,16.427480916030536,-9.404580152671755,-8.82981572265625,3.35188232421875,0.6248866333007812,-5.190839694656488,-32.412213740458014,-10.931297709923664,0.0
14.560000658035278,-11.504138977050781,4.965574243164062,0.5315127685546874,-20.16793893129771,14.412213740458014,-6.396946564885496,-10.761936462402343,2.070984436035156,0.33758243408203126,-21.114503816793892,-24.0,-6.977099236641221,0.0
14.570000648498535,-10.089165795898436,2.473210314941406,-0.38786066894531246,-33.02290076335878,10.15267175572519,-2.2748091603053435,-8.923189587402343,2.4349030883789062,0.9074024291992187,-36.0,-17.419847328244273,-7.068702290076335,0.0
14.580000638961792,-9.22485899658203,0.35673604736328124,-0.6057330200195312,-30.595419847328245,11.679389312977099,0.07633587786259542,-9.859322436523437,0.5985504150390625,0.9121908325195311,-32.47328244274809,-16.137404580152673,-6.778625954198473,0.0
14.59000039100647,-7.6997525390625,-2.959233251953125,-1.2689268798828124,-16.03053435114504,13.19083969465649,-1.8931297709923665,-11.212046374511718,-1.180341418457031,1.924938134765625,-17.450381679389313,-17.984732824427482,-6.916030534351145,0.0
14.600000619888306,-7.630320690917968,-2.1116858642578125,-0.5027823486328125,2.6106870229007635,18.412213740458014,-7.877862595419847,-12.217611071777343,-2.31758720703125,3.0597897216796874,-3.312977099236641,-17.709923664122137,-6.076335877862595,0.0
14.610000610351562,-9.090783703613281,0.06703764648437499,-0.24660277099609373,10.381679389312977,21.96946564885496,-14.580152671755725,-9.536105212402344,-1.7884686401367187,2.81558115234375,11.16030534351145,-28.50381679389313,-11.954198473282442,0.0
14.62000060081482,-11.066000073242186,2.1116858642578125,0.5913678100585937,8.564885496183207,20.900763358778626,-15.969465648854962,-10.213664282226562,-0.24181436767578124,1.6639701538085936,25.14503816793893,-35.099236641221374,-14.870229007633588,0.0
14.630000591278076,-9.447519750976562,2.370259643554687,0.296881005859375,2.7480916030534353,16.290076335877863,-13.16030534351145,-8.908824377441405,2.133233679199219,0.33039982910156246,23.206106870229007,-38.01526717557252,-18.290076335877863,0.0
14.640000820159912,-10.819397302246093,2.901772412109375,1.5083470458984374,-3.2213740458015265,18.229007633587788,-11.740458015267176,-8.559270935058594,3.1100679565429687,-0.201112939453125,5.129770992366412,-31.51145038167939,-18.229007633587788,0.0
14.65000057220459,-9.85692823486328,1.6448165405273436,0.9959878906249999,-3.5572519083969465,17.49618320610687,-10.702290076335878,-7.805097412109374,3.632003918457031,0.4285620971679687,-11.419847328244275,-21.801526717557252,-17.328244274809162,0.0
14.660000801086426,-10.39322940673828,2.3582886352539063,1.139639990234375,-5.022900763358779,16.015267175572518,-11.740458015267176,-8.267178332519531,2.7748797241210936,0.05746083984375,-14.213740458015268,-23.786259541984734,-17.31297709923664,0.0
14.670000791549683,-9.45470235595703,1.3407529296874998,0.30406361083984373,-4.732824427480916,9.511450381679388,-10.076335877862595,-9.519345800781249,1.1013327636718748,1.5322890624999999,-24.458015267175572,-13.954198473282442,-12.610687022900763,0.0
14.680000305175781,-9.392453112792968,0.8643067993164062,0.21787235107421873,-2.2442748091603053,4.473282442748092,-7.343511450381679,-9.595960253906249,0.03591302490234375,1.8363526733398436,-20.610687022900763,-15.83206106870229,-12.977099236641221,0.0
14.690000534057617,-11.030087048339842,2.693476867675781,1.5777788940429687,-1.7251908396946565,2.9770992366412212,-8.458015267175572,-10.845733520507812,-0.9169792358398436,1.5155296508789062,-3.9083969465648853,-22.977099236641223,-12.885496183206106,0.0
14.700000524520874,-10.436325036621094,1.905784521484375,1.6807295654296874,-2.16793893129771,-3.7099236641221376,-6.213740458015267,-8.604760766601562,0.21068974609375,1.7190367919921874,-1.083969465648855,-24.213740458015266,-14.549618320610687,0.0
14.71000051498413,-9.425971936035156,0.7852981445312499,1.7549498168945312,4.442748091603053,-6.8396946564885495,-3.2977099236641223,-9.550470422363281,0.7206546997070312,1.7549498168945312,10.16793893129771,-26.763358778625953,-15.389312977099237,0.0
14.720000505447388,-9.550470422363281,0.8858546142578124,1.6807295654296874,12.473282442748092,-8.412213740458014,-2.198473282442748,-9.131485131835937,0.5530605834960938,0.9959878906249999,16.458015267175572,-27.49618320610687,-15.893129770992367,0.0
14.730000495910645,-9.045293872070312,1.2569558715820313,0.699106884765625,15.526717557251908,-11.038167938931299,-2.1374045801526718,-8.939948999023438,0.8690952026367187,0.22266075439453123,13.908396946564885,-25.328244274809162,-19.801526717557252,0.0
14.740000486373901,-8.626308581542968,1.2521674682617188,0.3232172241210937,21.00763358778626,-9.709923664122137,-2.3053435114503817,-7.240065820312499,1.0797849487304687,-0.38307226562499996,5.740458015267175,-18.015267175572518,-19.72519083969466,0.0
14.750000476837158,-9.351751684570312,2.269703173828125,0.8379705810546875,16.18320610687023,-10.427480916030534,-3.4198473282442747,-8.671798413085938,-0.16998831787109375,-0.18435352783203124,7.129770992366412,-9.618320610687023,-16.85496183206107,0.0
14.760000705718994,-10.259154113769531,2.528276953125,1.3479355346679687,12.259541984732824,-13.17557251908397,-3.0839694656488548,-8.24802471923828,-0.105344873046875,-0.38786066894531246,17.435114503816795,-7.9541984732824424,-17.114503816793892,0.0
14.770000696182251,-10.256759912109374,1.5849614990234373,1.5921441040039062,15.374045801526718,-16.015267175572518,-0.7938931297709924,-9.050082275390624,-1.2617442749023438,0.8930372192382812,26.793893129770993,-4.809160305343512,-16.366412213740457,0.0
