timestamp,Thigh_L_Acc_X,Thigh_L_Acc_Y,Thigh_L_Acc_Z,Thigh_L_Gyr_X,Thigh_L_Gyr_Y,Thigh_L_Gyr_Z,Thigh_R_Acc_X,Thigh_R_Acc_Y,Thigh_R_Acc_Z,Thigh_R_Gyr_X,Thigh_R_Gyr_Y,Thigh_R_Gyr_Z,gpio_output
10.000000238418579,-9.756371765136718,-6.959944226074218,2.5641899780273434,49.38931297709924,90.68702290076335,30.244274809160306,-18.320431103515624,-1.0582371337890624,5.427655163574219,-109.23664122137404,-6.702290076335878,49.465648854961835,0.0
10.010000705718994,-12.856862915039061,0.8714894042968749,3.6918589599609373,65.43511450381679,82.90076335877863,17.96946564885496,-16.95573615722656,-3.8091748413085935,4.786009118652344,-91.77099236641222,-17.297709923664122,43.64885496183206,1.0
10.020000696182251,-11.274295617675781,2.6001030029296874,4.328716601562499,80.0,105.45038167938931,11.251908396946565,-15.54555137939453,-4.948814831542968,3.3207577026367185,-63.847328244274806,-25.17557251908397,37.06870229007634,1.0
10.030000686645508,-14.211981054687499,9.33978067626953,1.2761094848632812,30.27480916030534,108.50381679389314,3.2977099236641223,-14.535198278808593,-1.2785036865234374,1.8052280517578123,-27.64885496183206,-31.17557251908397,28.977099236641223,1.0
10.040000438690186,-1.1109095703125,-5.025429284667968,1.0893617553710937,23.206106870229007,100.4885496183206,16.53435114503817,-14.571111303710937,1.7956512451171873,-0.13168109130859373,-14.320610687022901,-36.88549618320611,24.778625954198475,1.0
10.050000667572021,-4.762067102050781,-7.242460021972656,2.2457611572265623,52.76335877862596,134.99236641221373,3.0229007633587788,-14.980519787597656,3.201047619628906,-1.1947066284179686,-12.748091603053435,-40.94656488549618,21.435114503816795,1.0
10.060000896453857,-5.533000036621093,-6.586448767089843,1.1324573852539062,73.90839694656489,136.03053435114504,-19.61832061068702,-14.283807104492187,1.5682020874023437,-1.2976572998046874,-5.358778625954199,-44.12213740458015,19.068702290076335,1.0
10.070000648498535,-9.562441430664062,-3.2417490478515623,2.4133552734375,95.83206106870229,147.49618320610688,-34.56488549618321,-13.895946435546874,-1.7836802368164062,-1.7262193969726563,21.557251908396946,-57.969465648854964,13.053435114503817,1.0
10.080000638961792,-6.770802294921874,-8.470685473632813,-3.706224169921875,122.2442748091603,147.00763358778627,-38.61068702290076,-11.595118640136718,-0.9911994873046874,-0.7038952880859375,27.51145038167939,-66.4885496183206,-3.5267175572519083,1.0
10.090000629425049,-10.66856259765625,-1.0702081420898437,-2.243366955566406,159.32824427480915,177.48091603053436,-53.908396946564885,-8.815450512695312,-0.8786720092773437,-2.664746447753906,35.49618320610687,-74.42748091603053,-20.091603053435115,1.0
10.100000858306885,2.4851813232421875,-7.275978845214843,-6.265625744628906,176.13740458015266,175.45038167938932,-57.70992366412214,-9.153032946777342,-0.29927520751953124,-0.948103857421875,31.419847328244273,-67.38931297709924,-28.427480916030536,1.0
10.110000610351562,-10.216058483886718,0.5985504150390625,-3.1459809814453124,227.6793893129771,208.74809160305344,-66.99236641221374,-9.296685046386719,0.7757213378906249,-0.8930372192382812,32.18320610687023,-62.93129770992366,-32.900763358778626,1.0
10.12000060081482,-12.955025183105468,9.054870678710937,-2.3056161987304686,198.68702290076337,199.46564885496184,-80.04580152671755,-7.625532287597656,3.1507693847656246,-2.061407629394531,28.076335877862597,-60.0,-38.68702290076336,1.0
10.130000591278076,-19.823989746093748,17.171214306640625,3.450044592285156,134.65648854961833,181.9083969465649,-77.98473282442748,-7.920019091796875,3.833116857910156,-5.3199160888671875,-3.4198473282442747,-47.19083969465649,-42.58015267175573,1.0
10.140000581741333,-12.066776367187499,11.784260571289062,2.8658593872070313,39.55725190839695,145.4351145038168,-67.19083969465649,-11.195286962890624,2.568978381347656,-3.5865140869140624,-17.52671755725191,-34.16793893129771,-41.37404580152672,1.0
10.15000057220459,-12.801796276855468,7.999027746582031,3.6080619018554687,-5.099236641221374,127.34351145038168,-64.35114503816794,-11.480196960449218,2.3726538452148436,-3.284844677734375,-3.816793893129771,-38.534351145038165,-38.900763358778626,1.0
10.160000562667847,-12.399570397949217,9.126696728515624,3.3255461059570313,-46.396946564885496,106.7175572519084,-63.17557251908397,-12.720393420410156,2.597708801269531,-0.9265560424804687,3.0381679389312977,-31.068702290076335,-32.67175572519084,1.0
10.170000553131104,-7.074865905761718,0.7278373046875,-0.718260498046875,-70.79389312977099,89.69465648854961,-55.06870229007634,-10.424354028320312,2.808398547363281,-1.2808978881835937,19.862595419847327,-39.69465648854962,-26.931297709923665,1.0
10.18000054359436,-9.87608184814453,2.0183119995117185,2.607285607910156,-52.13740458015267,96.38167938931298,-55.11450381679389,-10.682927807617187,4.484339709472656,0.40462008056640625,26.061068702290076,-39.43511450381679,-22.595419847328245,1.0
10.190000534057617,-8.078036401367187,-1.2425906616210938,0.8212111694335937,-50.61068702290076,92.35114503816794,-50.778625954198475,-7.094019519042968,8.59997236328125,-1.5035586425781249,16.564885496183205,-42.3206106870229,-24.076335877862597,1.0
10.200000524520874,-7.398083129882812,-3.727771984863281,2.224213342285156,-8.13740458015267,107.57251908396947,-49.52671755725191,-7.668627917480468,6.950367419433594,-0.6272808349609375,-9.49618320610687,-33.02290076335878,-17.374045801526716,1.0
10.21000051498413,-8.760383874511719,-1.7501614135742187,2.499546533203125,10.961832061068701,111.12977099236642,-54.50381679389313,-7.742848168945312,3.0621839233398433,-0.28012159423828126,-10.396946564885496,-33.48091603053435,-15.435114503816793,0.0
10.220000505447388,-12.136208215332031,3.7325603881835936,3.77326181640625,19.129770992366414,112.82442748091603,-60.88549618320611,-8.963891015625,1.1348515869140625,1.5418658691406248,-8.290076335877863,-36.900763358778626,-13.541984732824428,0.0
10.230000734329224,-9.414000927734374,3.7804444213867185,2.710236279296875,-10.442748091603054,100.97709923664122,-61.099236641221374,-6.059724401855468,4.240131140136718,-0.6177040283203125,-21.72519083969466,-45.32824427480916,-18.366412213740457,0.0
10.240000247955322,-11.417947717285156,7.682993127441406,4.678270043945313,-35.32824427480916,93.74045801526718,-64.36641221374046,-7.096413720703125,0.6464344482421874,0.9840168823242187,-42.595419847328245,-39.3587786259542,-16.0,0.0
10.250000715255737,-8.291120349121094,2.528276953125,-0.3758896606445312,-69.08396946564885,73.58778625954199,-60.61068702290076,-8.180987072753906,-0.8882488159179687,1.3359645263671873,-24.80916030534351,-42.54961832061068,-16.0,0.0
10.260000705718994,-15.138537097167967,10.287884533691406,3.7014357666015623,-66.74809160305344,77.34351145038168,-60.74809160305343,-11.40837091064453,-2.7916391357421872,3.806780639648437,2.549618320610687,-48.6412213740458,-14.106870229007633,0.0
10.270000696182251,-10.065223779296874,5.801150622558594,1.005564697265625,-124.61068702290076,49.083969465648856,-52.229007633587784,-9.68454571533203,0.63206923828125,2.3415292236328122,16.412213740458014,-65.7557251908397,-22.18320610687023,0.0
10.280000686645508,-9.526528405761718,2.89219560546875,1.3862427612304686,-107.46564885496183,49.786259541984734,-40.0,-9.904812268066406,0.12210428466796874,1.695094775390625,22.091603053435115,-75.09923664122137,-24.442748091603054,0.0
10.290000915527344,-7.793126403808594,-1.0582371337890624,-0.1149216796875,-74.77862595419847,63.70992366412214,-33.11450381679389,-9.986215124511718,0.3184288208007812,1.7166425903320313,29.221374045801525,-83.08396946564885,-26.580152671755727,0.0
10.300000667572021,-13.70680450439453,9.545682019042967,4.426878869628906,-86.33587786259542,58.3206106870229,-35.25190839694657,-10.54645831298828,0.5147533569335937,2.090138049316406,26.717557251908396,-83.49618320610686,-26.549618320610687,0.0
10.310000658035278,-10.644620581054687,2.530671154785156,-0.24181436767578124,-125.20610687022901,36.54961832061068,-28.47328244274809,-7.261613635253906,2.6048914062499997,0.181959326171875,23.87786259541985,-94.0,-29.450381679389313,0.0
10.320001602172852,-15.23909356689453,8.049305981445311,4.479551306152343,-127.63358778625954,38.67175572519084,-29.083969465648856,-7.802703210449218,2.422932080078125,0.4261678955078125,7.709923664122138,-94.65648854961832,-32.778625954198475,0.0
10.330000638961792,-10.541669909667968,4.314351391601562,1.5969325073242187,-176.70229007633588,8.870229007633588,-25.786259541984734,-8.865728747558594,2.712630480957031,-0.023942016601562498,8.793893129770993,-96.44274809160305,-32.83969465648855,0.0
10.340000629425049,-17.053898425292967,11.346121667480467,8.008604553222655,-174.38167938931298,10.992366412213741,-20.18320610687023,-11.271901416015623,0.9145850341796874,1.4628572143554686,-3.0381679389312977,-90.62595419847328,-28.33587786259542,0.0
10.350000381469727,-14.288595507812499,6.294356164550781,3.77326181640625,-220.27480916030535,-30.916030534351144,-5.8320610687022905,-10.457872851562499,0.8355763793945312,1.9895815795898437,0.6412213740458015,-90.99236641221374,-30.15267175572519,0.0
10.36000108718872,-14.915876342773437,2.7964275390625,3.3877953491210935,-189.96946564885496,-33.770992366412216,18.564885496183205,-9.442731347656249,1.6328455322265625,1.448492004394531,-5.8320610687022905,-93.31297709923665,-30.38167938931298,0.0
10.370000839233398,-11.295843432617186,-5.137956762695312,1.2904746948242187,-150.3206106870229,-39.57251908396947,32.12213740458015,-9.100360510253905,0.6607996582031249,1.1133037719726562,7.8320610687022905,-93.1145038167939,-30.65648854961832,0.0
10.380000829696655,-8.621520178222656,-8.382100012207031,1.0582371337890624,-85.2824427480916,-28.671755725190838,36.091603053435115,-6.9527616210937495,0.7972691528320313,0.6584054565429687,19.72519083969466,-95.48091603053435,-28.12213740458015,0.0
10.390000581741333,-3.153163586425781,-12.559981909179687,-2.243366955566406,-14.030534351145038,-11.053435114503817,23.740458015267176,-6.461950280761719,-1.3670891479492187,2.50912333984375,36.534351145038165,-88.1526717557252,-24.885496183206108,0.0
10.40000057220459,-7.261613635253906,-5.195417602539062,0.6081272216796875,3.312977099236641,1.465648854961832,-3.1755725190839694,-2.978386865234375,0.3112462158203125,0.6057330200195312,52.47328244274809,-90.21374045801527,-30.412213740458014,0.0
10.410000562667847,-6.691793640136718,-1.62805712890625,-0.612915625,33.9236641221374,15.145038167938932,-9.17557251908397,-6.4356140625,-0.7637503295898437,2.683900061035156,51.06870229007634,-71.40458015267176,-24.0,0.0
10.420000553131104,-5.76523759765625,0.7613561279296874,-0.21787235107421873,53.770992366412216,35.908396946564885,-11.938931297709924,-1.2378022583007813,2.868253588867187,1.6424223388671875,24.15267175572519,-56.48854961832061,-33.267175572519086,0.0
10.43000054359436,-8.865728747558594,3.0526071166992184,1.455674609375,48.732824427480914,50.36641221374046,-17.19083969465649,-7.117961535644531,0.8595183959960937,1.936909143066406,6.961832061068702,-39.770992366412216,-31.450381679389313,0.0
10.440000534057617,-9.267954626464844,2.6791116577148437,1.005564697265625,46.33587786259542,57.93893129770992,-16.931297709923665,-6.564900952148437,2.6910826660156246,1.9680337646484374,2.9770992366412212,-34.48854961832061,-33.02290076335878,0.0
10.450000286102295,-8.427589843749999,0.86191259765625,0.17238251953125,47.89312977099237,66.87022900763358,-17.557251908396946,-10.383652600097655,1.0773907470703123,3.21780703125,-1.5267175572519085,-27.19083969465649,-26.82442748091603,0.0
10.46000051498413,-8.63827958984375,0.7158662963867187,-0.0909796630859375,50.152671755725194,73.05343511450381,-22.885496183206108,-6.782773303222656,3.2034418212890623,0.63206923828125,-2.3969465648854964,-34.97709923664122,-28.702290076335878,0.0
10.470000743865967,-9.878476049804688,2.5522189697265625,0.9983820922851562,46.534351145038165,74.87022900763358,-27.480916030534353,-8.884882360839843,3.210624426269531,1.9536685546875,-17.801526717557252,-20.732824427480917,-21.938931297709924,0.0
10.480000257492065,-11.257536206054686,4.599261389160156,1.6998831787109374,35.267175572519086,73.70992366412214,-28.625954198473284,-7.596801867675781,3.356670727539062,0.19393033447265623,-32.19847328244275,-21.00763358778626,-19.541984732824428,0.0
10.490000486373901,-12.212822668457031,5.1690813842773435,2.403778466796875,21.297709923664122,67.05343511450381,-25.83206106870229,-11.161768139648437,1.2473790649414063,1.9536685546875,-26.671755725190838,-11.801526717557252,-12.870229007633588,0.0
10.500000476837158,-12.102689392089843,3.6942531616210936,2.583343591308594,16.519083969465647,59.64885496183206,-20.0,-10.63025537109375,1.0486603271484374,1.4245499877929686,-9.83206106870229,-18.519083969465647,-13.236641221374045,0.0
10.510000467300415,-12.401964599609375,3.071760729980469,2.212242333984375,12.076335877862595,51.587786259541986,-17.34351145038168,-10.259154113769531,0.852335791015625,2.7581203125,-5.603053435114504,-15.450381679389313,-14.702290076335878,0.0
10.520000696182251,-12.102689392089843,3.0262708984374997,1.0486603271484374,3.8473282442748094,43.38931297709924,-16.18320610687023,-9.916783276367187,0.7613561279296874,2.806004345703125,-10.488549618320612,-17.709923664122137,-16.702290076335878,0.0
10.530000686645508,-12.08592998046875,4.144363073730468,1.0821791503906248,-4.732824427480916,38.396946564885496,-14.732824427480915,-10.541669909667968,0.8403647827148437,3.066972326660156,-2.198473282442748,-20.793893129770993,-16.229007633587788,0.0
10.540000677108765,-10.797849487304687,2.9544448486328125,1.0462661254882812,-3.572519083969466,37.66412213740458,-10.83969465648855,-8.935160595703124,3.0071172851562498,1.9919757812499999,-15.236641221374045,-15.618320610687023,-14.67175572519084,0.0
10.550000667572021,-10.635043774414061,3.660734338378906,0.1867477294921875,-18.564885496183205,35.31297709923664,-11.801526717557252,-9.181763366699219,1.8171990600585937,1.8722656982421875,-17.908396946564885,-15.038167938931299,-10.366412213740459,0.0
10.5600004196167,-10.251971508789062,1.7334020019531249,0.143652099609375,-21.52671755725191,34.50381679389313,-9.877862595419847,-9.610325463867188,0.2753331909179687,2.1164742675781247,-5.923664122137405,-18.702290076335878,-7.679389312977099,0.0
10.570000648498535,-11.068394274902342,0.7398083129882812,1.2569558715820313,-19.31297709923664,35.32824427480916,-10.595419847328245,-11.137826123046874,-0.7948749511718749,3.881000891113281,9.312977099236642,-20.870229007633586,-6.9465648854961835,0.0
10.580000638961792,-10.740388647460938,-0.5793968017578125,1.3048399047851562,-15.664122137404581,32.900763358778626,-14.15267175572519,-10.007762939453125,-0.1867477294921875,4.060566015625,18.748091603053435,-27.84732824427481,-10.473282442748092,0.0
10.590000629425049,-11.235988391113281,0.0143652099609375,1.618480322265625,-7.190839694656488,35.267175572519086,-16.80916030534351,-7.960720520019531,2.3056161987304686,2.8203695556640622,11.282442748091603,-28.106870229007633,-14.061068702290076,0.0
10.600000858306885,-12.23197628173828,3.3494881225585935,2.3343466186523436,-20.16793893129771,30.061068702290076,-21.129770992366414,-9.016563452148437,1.47482822265625,3.0430303100585934,0.0,-18.396946564885496,-11.84732824427481,0.0
10.610000848770142,-12.715605017089842,4.553771557617187,2.1116858642578125,-32.030534351145036,23.908396946564885,-18.244274809160306,-8.729259252929687,-0.040701428222656245,2.9472622436523435,1.5877862595419847,-15.450381679389313,-9.068702290076336,0.0
10.62000060081482,-11.609483850097655,2.070984436035156,1.867477294921875,-30.549618320610687,20.213740458015266,-11.358778625954198,-9.947907897949218,-1.0749965454101562,3.6727053466796873,11.038167938931299,-16.748091603053435,-8.198473282442748,0.0
10.630000591278076,-11.303026037597656,1.2042834350585936,1.9991583862304687,-20.396946564885496,16.870229007633586,-8.82442748091603,-9.153032946777342,0.411802685546875,3.385401147460937,15.053435114503817,-16.610687022900763,-11.083969465648854,0.0
10.640000581741333,-10.359710583496094,0.4261678955078125,1.4772224243164063,-10.778625954198473,15.908396946564885,-9.557251908396946,-7.417236743164062,2.0470424194335934,1.7166425903320313,5.908396946564886,-16.106870229007633,-14.351145038167939,0.0
10.65000057220459,-9.655815295410155,0.7924807495117187,1.0582371337890624,-7.541984732824427,13.526717557251908,-12.778625954198473,-5.679046337890624,2.6982652709960937,0.9121908325195311,-4.549618320610687,-9.587786259541986,-14.381679389312977,0.0
10.660000562667847,-9.883264453125,1.9680337646484374,1.66636435546875,-6.137404580152672,10.82442748091603,-15.282442748091603,-7.951143713378905,1.2689268798828124,2.8467057739257813,-23.17557251908397,13.740458015267176,-8.16793893129771,0.0
10.670000553131104,-10.50815108642578,2.3535002319335936,2.1978771240234374,-10.244274809160306,6.0458015267175576,-14.351145038167939,-5.3199160888671875,1.4724340209960938,0.603338818359375,-22.99236641221374,9.83206106870229,-8.122137404580153,0.0
10.68000054359436,-10.242394702148436,2.152387292480469,2.7461493041992187,-2.7786259541984735,2.0,-12.274809160305344,-7.225700610351562,0.9026140258789062,2.039859814453125,-29.34351145038168,27.541984732824428,-4.305343511450381,0.0
10.690000534057617,-10.556035119628906,1.5562310791015623,4.486733911132812,0.7022900763358778,-1.3282442748091603,-11.435114503816793,-6.150704064941406,0.2825157958984375,1.2737152832031249,-38.76335877862596,39.55725190839695,-1.5725190839694656,0.0
10.700000524520874,-10.934318981933593,0.6727706665039062,6.1459156616210935,1.6641221374045803,-10.442748091603054,-11.969465648854962,-0.0143652099609375,6.0525417968749995,-4.266467358398438,-42.99236641221374,33.587786259541986,-6.290076335877862,0.0
10.71000075340271,-10.857704528808593,1.3455413330078123,8.087613208007811,10.50381679389313,-20.30534351145038,-12.992366412213741,4.994304663085937,10.896011755371093,-8.073247998046874,-100.9618320610687,74.6412213740458,-3.786259541984733,0.0
10.720000505447388,-11.767501159667969,2.858676782226562,11.089942089843749,7.206106870229007,-32.51908396946565,-13.007633587786259,0.033518823242187495,9.076418493652342,-7.864952453613281,-154.33587786259542,130.10687022900763,17.923664122137403,0.0
10.730000495910645,-13.850456604003906,4.153939880371094,14.061146350097655,0.4732824427480916,-52.916030534351144,-11.297709923664122,-7.070077502441406,-0.6440402465820312,-4.797980126953124,-124.07633587786259,147.14503816793894,44.19847328244275,0.0
10.740000486373901,-13.012486022949219,0.16041151123046873,15.43062969970703,29.34351145038168,-75.5114503816794,-3.312977099236641,-4.8506525634765625,-2.942473840332031,-6.351817004394531,-70.27480916030534,144.83969465648855,55.32824427480916,0.0
10.750000476837158,-14.176068029785155,-3.246537451171875,17.937358837890624,71.32824427480917,-98.4885496183206,0.21374045801526717,-1.9871873779296874,-2.1116858642578125,-2.3630770385742186,-34.412213740458014,143.32824427480915,52.213740458015266,0.0
10.760000705718994,-17.063475231933595,-0.9097966308593749,20.07777512207031,83.23664122137404,-134.76335877862596,-4.6106870229007635,-13.1393787109375,-2.1116858642578125,11.9135474609375,-70.82442748091603,156.38167938931298,43.12977099236641,0.0
10.770000696182251,-20.21424461669922,2.6767174560546874,20.068198315429687,91.38931297709924,-178.51908396946564,2.381679389312977,-9.34696328125,-12.586318127441405,2.250549560546875,-76.42748091603053,145.29770992366412,28.045801526717558,0.0
10.780000686645508,-21.073763012695313,5.521029028320312,15.550339782714843,92.87022900763358,-220.5648854961832,12.01526717557252,-8.418013037109375,-1.3479355346679687,-5.6383449096679685,19.893129770992367,128.94656488549617,26.763358778625953,0.0
10.790000677108765,-20.568586462402344,1.0175357055664063,12.706028210449219,78.25954198473282,-267.587786259542,22.671755725190838,-10.287884533691406,7.448361364746093,-0.6703764648437499,-13.893129770992367,122.73282442748092,18.458015267175572,0.0
10.800000429153442,-18.78969462890625,-2.8754361938476563,7.359775903320312,103.3587786259542,-292.6412213740458,40.48854961832061,-16.038756921386717,5.066130712890625,5.8083332275390624,-93.87786259541984,133.17557251908397,5.435114503816794,0.0
10.8100004196167,-15.713145495605469,-0.7685387329101562,-0.30885201416015623,115.25190839694656,-290.7480916030534,62.778625954198475,-11.508927380371093,2.5139117431640625,0.0430956298828125,-99.5114503816794,110.21374045801527,-3.801526717557252,0.0
10.820000410079956,-12.689268798828124,0.16280571289062498,-4.352658618164062,104.50381679389314,-281.8320610687023,86.7175572519084,-18.32761370849609,1.6017209106445311,3.1292215698242187,-144.04580152671755,114.99236641221374,7.374045801526718,0.0
10.830000400543213,-11.796231579589843,-1.8818425048828125,-9.718064538574218,90.18320610687023,-273.2977099236641,101.2824427480916,-12.133814013671874,-6.035782385253906,3.2513258544921873,-75.49618320610686,77.78625954198473,34.01526717557252,0.0
10.840000867843628,-13.359645263671874,-3.4093431640625,-5.181052392578125,71.74045801526718,-259.5419847328244,91.48091603053435,-7.963114721679687,-0.7278373046875,-4.3454760131835934,-12.320610687022901,35.00763358778626,42.900763358778626,0.0
10.850000619888306,-17.255011364746093,-1.419761584472656,-1.4053963745117186,60.47328244274809,-241.95419847328245,73.83206106870229,-6.7085530517578125,2.051830822753906,-4.867411975097656,-53.38931297709924,44.58015267175573,39.32824427480916,0.0
10.860000610351562,-16.934188342285154,-0.7110778930664062,2.959233251953125,60.2442748091603,-225.25190839694656,69.23664122137404,-9.236830004882812,-0.6943184814453125,-2.147598889160156,-80.70229007633588,69.3587786259542,31.83206106870229,0.0
10.87000036239624,-14.279018701171875,-4.146757275390625,2.4588451049804685,68.51908396946565,-219.86259541984734,65.78625954198473,-9.686939916992188,-7.0102224609374995,-2.6503812377929687,-29.893129770992367,54.213740458015266,28.641221374045802,0.0
10.880000591278076,-13.089100476074218,-3.114856359863281,1.8243816650390623,61.099236641221374,-210.76335877862596,44.35114503816794,-12.145785021972655,-9.162609753417968,-0.6081272216796875,5.343511450381679,53.51145038167939,31.083969465648856,0.0
10.890000581741333,-12.129025610351562,-0.7350199096679687,2.2673089721679687,35.02290076335878,-210.3969465648855,27.587786259541986,-11.269507214355468,-4.965574243164062,-1.946485949707031,57.16030534351145,40.6412213740458,29.17557251908397,0.0
10.90000057220459,-12.073958972167969,-1.209071838378906,0.8259995727539062,15.740458015267176,-208.51908396946564,22.18320610687023,-10.87925234375,-1.7645266235351562,-2.5426421630859375,83.87786259541984,32.99236641221374,29.404580152671755,0.0
10.910000562667847,-9.3852705078125,-1.3910311645507811,-0.42377369384765623,7.557251908396947,-199.58778625954199,20.68702290076336,-10.71884083251953,2.0829554443359375,-1.7812860351562498,71.72519083969466,40.961832061068705,27.52671755725191,0.0
10.920000553131104,-7.948749511718749,-0.19153613281249998,-1.1109095703125,4.8396946564885495,-187.98473282442748,19.893129770992367,-10.105925207519531,4.180276098632812,-2.300827795410156,67.92366412213741,40.900763358778626,27.083969465648856,0.0
10.930000305175781,-7.639897497558593,1.0342951171875,-0.603338818359375,-0.33587786259541985,-175.23664122137404,19.83206106870229,-11.863269226074218,6.5409589355468745,-2.5641899780273434,28.27480916030534,56.44274809160305,28.65648854961832,0.0
10.940000295639038,-3.124433166503906,-1.5251064575195312,-2.123656872558594,6.015267175572519,-162.74809160305344,24.641221374045802,-12.938265771484375,0.9026140258789062,-1.0678139404296874,0.0916030534351145,71.8473282442748,34.961832061068705,0.0
10.950000286102295,-1.6711527587890624,-2.4756045166015626,-2.114080065917969,23.404580152671755,-140.35114503816794,21.908396946564885,-11.396399902343749,-7.378929516601562,1.1013327636718748,48.732824427480914,61.603053435114504,45.19083969465649,0.0
10.960000276565552,-3.4428619873046875,0.7733271362304687,-0.7015010864257812,38.29007633587786,-116.65648854961832,16.519083969465647,-7.831433630371094,-1.8315642700195311,-2.5522189697265625,98.36641221374046,45.099236641221374,48.61068702290076,0.0
10.970000743865967,-1.2832920898437499,0.9911994873046874,-1.2832920898437499,42.47328244274809,-103.92366412213741,20.748091603053435,-14.104241979980468,-2.3630770385742186,-0.00718260498046875,110.56488549618321,49.14503816793893,53.3587786259542,0.0
10.980000495910645,-0.07422025146484375,3.2154128295898436,0.3232172241210937,39.12977099236641,-75.20610687022901,22.458015267175572,-8.080430603027343,2.91134921875,-3.2154128295898436,83.49618320610686,47.9236641221374,46.412213740458014,0.0
10.99000072479248,-0.8906430175781249,6.823474731445312,0.5626373901367188,10.610687022900763,-64.99236641221374,22.137404580152673,-8.896853369140624,3.1579519897460937,-2.3630770385742186,71.69465648854961,49.06870229007634,41.41984732824427,0.0
11.000000238418579,2.6096798095703124,4.7764323120117185,0.5626373901367188,-14.900763358778626,-51.86259541984733,33.12977099236641,-15.969325073242187,-2.8850130004882812,1.7932570434570312,74.21374045801527,54.534351145038165,47.465648854961835,0.0
11.010000467300415,3.995922570800781,3.488351818847656,1.7908628417968748,-23.251908396946565,-30.916030534351144,36.412213740458014,-11.844115612792969,-1.9728221679687499,1.3455413330078123,69.46564885496183,53.541984732824424,46.44274809160305,0.0
11.020000457763672,1.3455413330078123,5.1882349975585935,4.11802685546875,-39.41984732824427,-16.595419847328245,32.534351145038165,-7.359775903320312,3.7158009765625,-1.9800047729492187,67.86259541984732,40.36641221374046,39.41984732824427,0.0
11.030000686645508,-0.24899697265624998,4.3263223999023435,5.456385583496093,-55.587786259541986,-9.786259541984732,36.19847328244275,-15.310919616699218,-5.106832141113281,4.228160131835938,52.61068702290076,51.64885496183206,46.19847328244275,0.0
11.040000677108765,1.0031704956054688,1.7310078002929687,4.2329485351562495,-51.603053435114504,5.297709923664122,40.01526717557252,-10.089165795898436,-2.0733786376953125,0.5578489868164063,73.74045801526718,25.435114503816795,41.23664122137404,0.0
11.050000667572021,0.6272808349609375,1.2737152832031249,3.296815686035156,-42.18320610687023,20.85496183206107,38.48854961832061,-15.66047305908203,-7.532158422851562,7.180210778808593,79.08396946564885,29.801526717557252,44.091603053435115,0.0
11.06003451347351,-0.10773907470703124,1.5131354492187499,0.7661445312499999,-45.11450381679389,33.343511450381676,36.152671755725194,-9.586383447265625,1.0199299072265624,-0.7302315063476562,101.05343511450381,-8.122137404580153,38.25954198473283,0.0
11.070000410079956,1.47482822265625,-0.03591302490234375,-4.276044165039062,-37.81679389312977,60.396946564885496,38.274809160305345,-10.242394702148436,6.069301208496094,-3.239354846191406,29.938931297709924,-6.488549618320611,25.893129770992367,0.0
11.080000638961792,1.2234370483398436,-3.1675287963867187,-3.584119885253906,-52.900763358778626,81.74045801526718,29.755725190839694,-14.791377856445312,8.911218579101561,2.4157494750976563,-37.93893129770992,29.14503816793893,27.51145038167939,0.0
11.090000629425049,-7.908048083496094,-6.883329772949218,24.75365096435547,-28.625954198473284,75.8473282442748,28.595419847328245,-14.508862060546875,5.609614489746093,1.8219874633789062,-56.12213740458015,17.83206106870229,37.541984732824424,0.0
11.100000858306885,-7.548917834472656,3.2728736694335936,12.145785021972655,82.35114503816794,79.34351145038168,46.12213740458015,-15.253458776855467,4.790797521972656,1.465251416015625,-83.34351145038168,6.122137404580153,43.31297709923664,0.0
11.110000610351562,-14.53759248046875,14.281412902832031,-0.2825157958984375,20.748091603053435,83.89312977099236,38.01526717557252,-18.270152868652342,-0.4572925170898437,5.087678527832031,-105.98473282442748,20.931297709923665,55.86259541984733,0.0
11.12000060081482,-15.835249780273436,8.674192614746094,-1.9991583862304687,-66.21374045801527,68.3969465648855,30.748091603053435,-16.105794567871094,-6.732495068359374,4.086902233886718,-78.44274809160305,-1.1603053435114503,65.63358778625954,0.0
11.130000591278076,-19.349937817382813,2.269703173828125,11.212046374511718,-61.11450381679389,63.6793893129771,29.755725190839694,-16.761805822753907,-9.26316622314453,5.130774157714844,-51.00763358778626,-19.755725190839694,58.396946564885496,0.0
11.140000581741333,-14.10903038330078,-1.7956512451171873,6.710947253417968,-35.25190839694657,65.41984732824427,35.63358778625954,-15.56470499267578,-5.121197351074218,4.876988781738281,-37.282442748091604,-26.33587786259542,38.74809160305343,0.0
11.15000033378601,-8.231265307617187,-1.419761584472656,-1.3048399047851562,-20.778625954198475,68.25954198473282,26.83969465648855,-13.666103076171874,-0.296881005859375,2.166752502441406,-19.34351145038168,-28.595419847328245,26.259541984732824,0.0
11.160000324249268,-6.009446166992187,-5.303156677246093,1.448492004394531,-13.725190839694656,71.90839694656489,17.69465648854962,-10.979808813476561,4.292803576660156,-1.2521674682617188,-18.0,-35.32824427480916,22.0,0.0
11.170000553131104,-5.9591679321289055,-3.9887399658203124,1.4532804077148436,10.80916030534351,85.31297709923665,15.404580152671755,-13.639766857910155,3.7612908081054686,-0.258573779296875,-18.16793893129771,-25.893129770992367,28.442748091603054,0.0
11.18000054359436,-9.251195214843749,-1.4939818359375,5.463568188476562,30.53435114503817,100.07633587786259,4.900763358778626,-12.8329208984375,2.7557261108398436,-0.9361328491210937,-7.6183206106870225,-34.99236641221374,28.625954198473284,0.0
11.190001010894775,-4.283226770019531,-7.9272016967773435,2.3511060302734372,59.282442748091604,106.29007633587786,1.6641221374045803,-12.933477368164061,-0.469263525390625,0.05985504150390625,-10.946564885496183,-36.35114503816794,23.0381679389313,0.0
11.200000524520874,-8.221688500976562,-2.8203695556640622,3.4069489624023435,79.08396946564885,129.05343511450383,-23.6793893129771,-10.556035119628906,-3.4620156005859375,0.679953271484375,10.702290076335878,-41.87786259541985,8.687022900763358,0.0
11.21000075340271,-4.9823336547851556,-5.798756420898437,-0.7110778930664062,96.58015267175573,125.0381679389313,-30.396946564885496,-10.304643945312499,-5.295974072265625,1.429338391113281,32.19847328244275,-51.00763358778626,-7.312977099236641,0.0
11.220000267028809,-6.955155822753905,-1.0941501586914062,1.2473790649414063,122.21374045801527,155.12977099236642,-43.6793893129771,-9.191340173339842,-4.754884497070313,1.1540052001953125,50.54961832061068,-62.36641221374046,-24.106870229007633,0.0
11.230000734329224,-13.5224509765625,9.488221179199218,4.742913488769531,95.69465648854961,149.5114503816794,-64.19847328244275,-8.698134631347656,-0.4261678955078125,0.6440402465820312,51.847328244274806,-67.41984732824427,-39.267175572519086,0.0
11.240000486373901,-10.053252770996092,6.912060192871094,3.1268273681640624,56.87022900763359,131.5114503816794,-53.29770992366412,-8.990227233886719,3.124433166503906,-0.679953271484375,40.35114503816794,-68.82442748091603,-42.62595419847328,0.0
11.250000715255737,-7.433996154785156,-1.1276689819335937,-0.63206923828125,57.43511450381679,131.6946564885496,-43.6793893129771,-9.255983618164063,3.2441432495117186,-1.886630908203125,26.946564885496183,-68.74809160305344,-45.19083969465649,0.0
11.260000705718994,-11.291055029296874,1.4173673828125,1.5705962890624998,71.89312977099236,146.44274809160305,-51.847328244274806,-9.344569079589844,5.576095666503906,-4.6064439941406246,19.572519083969464,-64.77862595419847,-46.25954198473283,0.0
11.270000696182251,5.054159704589844,-14.674061975097656,-7.687781530761718,109.3587786259542,146.01526717557252,-41.37404580152672,-11.14022032470703,3.4739866088867184,-2.9448680419921875,7.175572519083969,-51.25190839694657,-40.62595419847328,0.0
11.280000686645508,12.054805358886718,-32.199618127441404,-15.421052893066406,259.23664122137404,197.12977099236642,-37.587786259541986,-10.670956799316405,1.1013327636718748,-2.521094348144531,18.213740458015266,-51.786259541984734,-40.83969465648855,0.0
11.290000677108765,-11.250353601074218,-5.324704492187499,-6.282385156249999,413.8625954198473,274.5038167938931,-85.7557251908397,-8.971073620605468,1.1516109985351561,-0.8810662109374999,31.14503816793893,-51.404580152671755,-43.98473282442748,0.0
11.300000667572021,-29.52768907470703,37.28969085693359,4.405331054687499,315.23664122137404,244.5801526717557,-102.01526717557252,-8.511386901855468,5.566518859863281,0.047884033203124995,21.206106870229007,-42.19847328244275,-48.83969465648855,0.0
11.310000658035278,-24.995465332031248,39.22540289916992,11.805808386230469,20.549618320610687,157.05343511450383,-76.82442748091603,-11.319785449218749,7.184999182128906,-0.16280571289062498,-11.725190839694656,-38.18320610687023,-45.00763358778626,0.0
11.320000886917114,-8.566453540039062,12.682086193847656,4.434061474609375,-165.74045801526717,82.7175572519084,-70.42748091603053,-10.594342346191405,6.962338427734375,-1.908178723144531,-45.12977099236641,-40.33587786259542,-39.61832061068702,0.0
11.330000400543213,-15.765817932128906,8.128314636230469,2.5354595581054684,-227.89312977099237,38.656488549618324,-79.1145038167939,-11.030087048339842,4.642357019042969,-1.1827356201171875,-47.49618320610687,-31.31297709923664,-32.29007633587786,0.0
11.340000867843628,-5.475539196777343,-9.430760339355468,-3.9456443359374997,-184.0916030534351,39.98473282442748,-53.43511450381679,-13.172897534179686,0.603338818359375,-1.1228805786132812,-15.526717557251908,-42.44274809160305,-25.740458015267176,0.0
11.350000619888306,-9.507374792480467,-5.585672473144531,0.9457096557617187,-94.3969465648855,65.6793893129771,-43.49618320610687,-15.780183142089843,-1.9009961181640624,1.0390835205078124,24.38167938931298,-51.38931297709924,-24.9618320610687,0.0
11.360000848770142,-9.490615380859374,-0.35194764404296874,1.0127473022460938,-63.343511450381676,74.83969465648855,-47.43511450381679,-12.497732666015624,2.741360900878906,-0.0718260498046875,47.7557251908397,-66.1526717557252,-35.25190839694657,0.0
11.37000060081482,-9.153032946777342,1.5155296508789062,0.8451531860351562,-59.267175572519086,75.38931297709924,-49.48091603053435,-10.297461340332031,4.517858532714843,-1.0845733520507812,47.93893129770992,-70.93129770992367,-39.465648854961835,0.0
11.380000352859497,-7.364564306640625,-3.342305517578125,-1.465251416015625,-39.48091603053435,83.3587786259542,-47.81679389312977,-10.005368737792969,4.182670300292968,0.9528922607421875,38.12213740458015,-64.85496183206106,-32.99236641221374,0.0
11.390000581741333,-7.4794859863281244,-2.6048914062499997,-0.8116343627929687,-3.3893129770992365,97.57251908396947,-51.267175572519086,-7.960720520019531,5.03740029296875,1.0366893188476562,28.793893129770993,-65.2824427480916,-31.46564885496183,0.0
11.40000057220459,-8.24802471923828,-1.448492004394531,-0.5746083984375,17.64885496183206,108.94656488549619,-54.35114503816794,-7.335833886718749,4.819527941894531,1.4628572143554686,27.84732824427481,-67.3587786259542,-30.625954198473284,0.0
11.410000562667847,-21.033061584472655,21.44965267333984,10.728417639160156,-22.717557251908396,108.01526717557252,-69.55725190839695,-7.673416320800781,3.871424084472656,3.5194764404296874,12.366412213740459,-62.091603053435115,-26.137404580152673,0.0
11.420000553131104,-10.414777221679687,5.786785412597656,-0.5099649536132812,-149.63358778625954,47.465648854961835,-49.16030534351145,-8.271966735839843,3.9264907226562498,2.2266075439453124,20.16793893129771,-75.14503816793894,-24.793893129770993,0.0
11.43000054359436,-7.252036828613281,-4.247313745117188,-1.455674609375,-105.34351145038168,60.13740458015267,-36.33587786259542,-7.7787611938476555,3.4452561889648434,1.898601916503906,-18.106870229007633,-74.91603053435115,-23.404580152671755,0.0
11.440000295639038,-14.927847351074218,10.491391674804687,8.56166513671875,-110.1526717557252,60.18320610687023,-46.6412213740458,-9.107543115234375,1.8459294799804686,1.8602946899414061,-13.34351145038168,-78.2442748091603,-25.389312977099237,0.0
11.450000762939453,-15.614983227539062,12.641384765624998,5.449202978515625,-187.1145038167939,15.435114503816793,-37.66412213740458,-11.271901416015623,0.15562310791015624,1.5729904907226562,-7.740458015267175,-84.68702290076335,-23.328244274809162,0.0
11.460000276565552,-11.643002673339844,2.9975404785156248,0.14125789794921875,-189.2824427480916,0.04580152671755725,-11.740458015267176,-11.006145031738281,0.7709329345703124,0.8188169677734375,-18.091603053435115,-90.4885496183206,-25.49618320610687,0.0
11.470000743865967,-15.710751293945311,6.622361791992187,6.495469104003906,-168.83969465648855,7.267175572519084,-5.129770992366412,-11.935095275878906,0.4955997436523437,1.4101847778320311,-14.122137404580153,-89.70992366412214,-27.49618320610687,0.0
11.480000495910645,-13.297396020507811,4.927267016601562,3.5434184570312497,-197.81679389312978,-27.022900763358777,4.656488549618321,-10.462661254882812,0.16519991455078123,1.3455413330078123,0.6870229007633588,-96.35114503816794,-29.358778625954198,0.0
11.490000486373901,-13.357251062011718,0.8882488159179687,3.2609026611328122,-152.73282442748092,-25.572519083969464,27.297709923664122,-9.22485899658203,-0.27293898925781246,1.2713210815429687,1.7251908396946565,-105.0381679389313,-25.358778625954198,0.0
11.500000238418579,-6.248866333007812,-8.238447912597655,-0.3591302490234375,-105.0381679389313,-20.625954198473284,36.06106870229008,-10.498574279785156,0.201112939453125,2.0973206542968748,14.854961832061068,-100.03053435114504,-20.625954198473284,0.0
11.510000467300415,-9.749189160156249,-7.522581616210937,3.871424084472656,-42.778625954198475,15.679389312977099,20.900763358778626,-8.674192614746094,-1.6017209106445311,3.3638533325195312,28.641221374045802,-100.42748091603053,-17.84732824427481,0.0
11.520000696182251,-6.2392895263671875,-4.398148449707031,0.82360537109375,-21.557251908396946,17.114503816793892,2.16793893129771,-5.6407391113281244,-1.3215993164062498,2.760514514160156,44.80916030534351,-98.3969465648855,-20.33587786259542,0.0
11.530000448226929,-5.305550878906249,-2.4133552734375,-1.3670891479492187,13.267175572519085,42.12213740458015,-4.748091603053435,-3.8283284545898435,-0.0383072265625,2.6431986328124997,36.88549618320611,-87.23664122137404,-23.862595419847327,0.0
11.540000677108765,-6.909665991210937,0.9744400756835937,-1.6735469604492186,25.34351145038168,68.3206106870229,-17.709923664122137,-5.106832141113281,-0.4261678955078125,4.848258361816406,19.14503816793893,-60.274809160305345,-21.251908396946565,0.0
11.550000667572021,-9.87608184814453,3.852270471191406,-1.93451494140625,17.72519083969466,85.55725190839695,-25.51145038167939,-0.373495458984375,5.413289953613281,0.009576806640625,5.312977099236641,-60.0763358778626,-32.83969465648855,0.0
11.560000896453857,-10.465055456542968,2.319981408691406,-1.3335703247070312,13.541984732824428,101.86259541984732,-21.61832061068702,-8.698134631347656,0.9361328491210937,2.5570073730468748,-21.282442748091604,-26.50381679389313,-20.82442748091603,0.0
11.570000648498535,-10.156203442382813,-0.8379705810546875,-0.5363011718749999,16.259541984732824,112.93129770992367,-26.27480916030534,-5.274426257324219,3.447650390625,-0.6967126831054687,-18.900763358778626,-33.66412213740458,-24.717557251908396,0.0
11.580000877380371,-11.279084020996093,-1.6304513305664061,0.9361328491210937,19.435114503816795,116.42748091603053,-35.55725190839695,-8.075642199707032,2.2649147705078123,1.2018892333984375,-33.37404580152672,-8.67175572519084,-19.19083969465649,0.0
11.590000629425049,-13.038822241210937,0.5793968017578125,2.750937707519531,16.366412213740457,113.08396946564885,-44.229007633587784,-9.53131680908203,0.948103857421875,1.0486603271484374,-35.725190839694655,-3.435114503816794,-14.50381679389313,0.0
11.600000858306885,-13.09388887939453,2.9089550170898435,2.398990063476562,11.679389312977099,98.79389312977099,-46.25954198473283,-11.585541833496093,0.24899697265624998,1.5873557006835937,-24.778625954198475,-3.633587786259542,-12.15267175572519,0.0
11.610000371932983,-12.11705460205078,1.9871873779296874,1.5011644409179687,19.51145038167939,83.37404580152672,-37.93893129770992,-9.935936889648437,1.7980454467773437,1.4245499877929686,-30.977099236641223,-3.145038167938931,-13.007633587786259,0.0
11.62000060081482,-13.187262744140623,2.5450363647460934,3.227383837890625,16.15267175572519,75.09923664122137,-35.14503816793893,-12.899958544921875,-0.9600748657226562,3.1268273681640624,-19.297709923664122,-4.8396946564885495,-10.412213740458014,0.0
11.630000591278076,-14.259865087890624,4.620809204101562,2.925714428710937,-2.1526717557251906,56.88549618320611,-34.16793893129771,-11.391611499023437,-0.718260498046875,2.987963671875,4.396946564885496,-21.46564885496183,-14.564885496183207,0.0
11.640000581741333,-11.731588134765625,2.1260510742187497,0.8403647827148437,-8.977099236641221,40.229007633587784,-24.671755725190838,-10.232817895507813,1.209071838378906,4.180276098632812,2.9923664122137406,-19.96946564885496,-14.793893129770993,0.0
11.65000057220459,-14.77940684814453,4.331110803222656,3.318363500976562,-17.16030534351145,33.7557251908397,-21.83206106870229,-9.006986645507812,1.6711527587890624,2.882618798828125,1.2671755725190839,-28.16793893129771,-14.992366412213741,0.0
11.660000324249268,-9.85692823486328,0.5865794067382812,0.6751648681640625,-20.580152671755727,21.068702290076335,-19.14503816793893,-8.427589843749999,4.374206433105469,2.068590234375,-1.9694656488549618,-27.61832061068702,-12.442748091603054,0.0
11.670000314712524,-11.939883679199218,3.6056677001953124,2.1811177124023438,-10.15267175572519,24.580152671755727,-16.35114503816794,-8.152256652832031,2.300827795410156,0.9744400756835937,-19.709923664122137,-23.282442748091604,-6.870229007633588,0.0
11.68000054359436,-10.919953771972656,2.269703173828125,2.327164013671875,-9.206106870229007,23.541984732824428,-16.137404580152673,-9.0788126953125,-0.1292868896484375,2.2577321655273437,-5.847328244274809,-20.3206106870229,-1.8625954198473282,0.0
11.690000295639038,-11.109095703125,2.906560815429687,2.3343466186523436,-4.152671755725191,23.923664122137403,-11.954198473282442,-10.242394702148436,-1.1037269653320312,2.839523168945312,16.3206106870229,-25.251908396946565,-1.7251908396946565,0.0
11.700000524520874,-10.503362683105468,2.7269956909179687,1.0630255371093749,-7.175572519083969,17.923664122137403,-9.84732824427481,-8.434772448730468,0.6727706665039062,2.7054478759765623,13.099236641221374,-23.00763358778626,-4.8396946564885495,0.0
11.71000075340271,-10.20169327392578,2.7150246826171873,0.9050082275390624,-11.923664122137405,18.137404580152673,-6.99236641221374,-6.773196496582031,1.927332336425781,1.218648645019531,5.8320610687022905,-23.16030534351145,-10.305343511450381,0.0
11.720014333724976,-9.227253198242186,2.123656872558594,0.833182177734375,-15.038167938931299,16.85496183206107,-7.9541984732824424,-3.361459130859375,3.4811692138671875,-1.5035586425781249,-8.061068702290076,-20.259541984732824,-14.274809160305344,0.0
11.730000734329224,-10.764330664062498,3.246537451171875,1.7669208251953124,-26.12213740458015,13.389312977099237,-11.19083969465649,-11.003750830078124,-2.0350714111328125,2.1739351074218747,-0.732824427480916,-5.129770992366412,-2.885496183206107,0.0
11.740000486373901,-10.402806213378906,2.1452046874999997,1.7908628417968748,-20.412213740458014,11.374045801526718,-11.633587786259541,-6.809109521484374,-0.18435352783203124,2.142810485839844,9.404580152671755,-1.3282442748091603,-5.66412213740458,0.0
11.750000476837158,-10.041281762695311,0.9097966308593749,1.3934253662109375,-13.465648854961833,9.389312977099237,-7.32824427480916,-7.378929516601562,-0.833182177734375,1.66636435546875,16.65648854961832,-2.045801526717557,-4.870229007633588,0.0
11.760000705718994,-10.529698901367187,1.5897499023437498,1.4891934326171874,-8.351145038167939,4.259541984732825,-6.458015267175573,-6.579266162109374,-0.4525041137695312,1.659181750488281,20.68702290076336,2.3969465648854964,-5.145038167938932,0.0
11.770000696182251,-10.268730920410155,1.2904746948242187,2.0733786376953125,-1.4351145038167938,2.946564885496183,-6.748091603053435,-5.298368273925781,0.3711012573242187,1.024718310546875,24.47328244274809,3.5114503816793894,-5.893129770992366,0.0
11.780000686645508,-9.897629663085937,1.1563994018554686,2.8036101440429686,2.595419847328244,-1.3740458015267176,-7.099236641221374,-5.4899044067382805,1.3000515014648437,0.7589619262695312,20.763358778625953,10.473282442748092,-4.305343511450381,0.0
11.790000438690186,-9.866505041503906,0.8307879760742187,3.5242648437499997,5.343511450381679,-7.603053435114504,-8.122137404580153,-6.744466076660156,0.6177040283203125,0.63206923828125,23.068702290076335,15.221374045801527,-2.122137404580153,0.0
11.800000429153442,-11.233594189453123,1.9704279663085937,4.469974499511719,7.022900763358779,-14.351145038167939,-9.557251908396946,1.7669208251953124,9.763554370117188,-5.499481213378906,0.42748091603053434,12.13740458015267,-12.687022900763358,0.0
11.8100004196167,-10.266336718749999,3.5913024902343746,4.273649963378906,-3.068702290076336,-29.099236641221374,-6.305343511450381,3.4428619873046875,14.37718096923828,-7.3478048950195305,-93.95419847328245,64.68702290076335,-7.526717557251908,0.0
11.820000410079956,-10.376469995117187,4.2521021484374995,5.492298608398437,-15.679389312977099,-36.961832061068705,-0.549618320610687,-1.915361328125,10.149020837402343,-7.117961535644531,-172.82442748091603,120.90076335877863,11.816793893129772,0.0
11.830000638961792,-11.264718811035156,4.201823913574218,7.024587670898437,-20.885496183206108,-43.969465648854964,3.450381679389313,-0.8834604125976562,5.844246252441406,-8.09479581298828,-182.50381679389312,141.5267175572519,25.16030534351145,0.0
11.840000867843628,-10.721235034179687,1.2832920898437499,7.721300354003906,-10.259541984732824,-55.908396946564885,7.297709923664122,-8.750807067871094,-1.5083470458984374,-3.584119885253906,-165.81679389312978,164.5801526717557,47.14503816793893,0.0
11.850000619888306,-11.420341918945311,-0.17477672119140625,8.975862023925782,11.465648854961833,-66.29007633587786,8.778625954198473,-11.350910070800781,-8.40843623046875,1.0845733520507812,-94.76335877862596,162.38167938931298,59.55725190839695,0.0
11.860000848770142,-11.882422839355469,-2.913743420410156,10.091559997558592,27.6793893129771,-84.91603053435115,6.67175572519084,-11.468225952148437,-8.099584216308592,0.7015010864257812,-17.328244274809162,145.206106870229,57.587786259541986,0.0
11.87000060081482,-12.641384765624998,-4.977545251464844,10.896011755371093,64.13740458015268,-102.56488549618321,6.412213740458015,2.8107927490234372,5.755660791015624,-7.4770917846679685,7.648854961832061,123.5114503816794,38.13740458015267,0.0
11.880000352859497,-14.022839123535155,-0.8595183959960937,14.961366174316405,87.38931297709924,-122.16793893129771,-0.15267175572519084,-6.0142345703124995,8.432378247070313,4.568136767578125,-93.43511450381679,176.91603053435114,29.84732824427481,0.0
11.890000581741333,-17.8894748046875,3.2513258544921873,17.79849514160156,83.16030534351145,-159.06870229007635,0.5190839694656488,-12.512097875976561,-5.039794494628906,8.681375219726561,-159.23664122137404,170.10687022900763,28.641221374045802,0.0
11.90000057220459,-19.97003604736328,5.046977099609375,15.109806677246093,99.40458015267176,-192.9618320610687,11.48091603053435,-16.187197424316405,-6.919242797851562,0.17238251953125,-60.47328244274809,146.90076335877862,24.091603053435115,0.0
11.910000324249268,-19.03150899658203,6.078878015136718,11.712434521484374,85.74045801526718,-224.54961832061068,22.458015267175572,-13.249511987304686,4.6255976074218745,-3.948038537597656,-39.541984732824424,123.0381679389313,16.259541984732824,0.0
11.920000553131104,-18.23423984375,0.7302315063476562,10.290278735351562,73.37404580152672,-251.16030534351145,26.9618320610687,-20.336348901367185,3.4093431640625,7.939172705078125,-46.0763358778626,129.06870229007635,25.81679389312977,0.0
11.930000305175781,-17.70512127685547,-2.3247698120117186,7.510610607910156,93.6030534351145,-264.44274809160305,34.58015267175573,-21.19586729736328,-4.505887524414062,7.68059892578125,-12.870229007633588,95.26717557251908,33.98473282442748,0.0
11.940000534057617,-18.6939265625,-1.177947216796875,4.122815258789062,120.99236641221374,-265.6641221374046,48.97709923664122,-10.773907470703124,-0.3064578125,-1.0797849487304687,-3.801526717557252,53.282442748091604,26.68702290076336,0.0
11.950000762939453,-17.870321191406248,1.3239935180664062,-0.143652099609375,120.58015267175573,-263.40458015267177,66.68702290076335,-5.439626171875,5.228936425781249,-4.065354418945312,-76.13740458015268,64.74809160305344,25.923664122137403,0.0
11.96000051498413,-16.287753894042968,-1.1444283935546875,-2.8419173706054686,98.74809160305344,-254.99236641221373,83.16030534351145,-7.721300354003906,-0.967257470703125,0.7589619262695312,-109.31297709923665,79.37404580152672,30.671755725190838,0.0
11.970000743865967,-13.000515014648437,-2.959233251953125,-6.998251452636718,80.35114503816794,-250.10687022900763,83.48091603053435,-3.967192150878906,-3.8953661010742184,-2.923320227050781,-80.91603053435115,63.43511450381679,23.31297709923664,0.0
11.980000495910645,-14.14733760986328,-3.2249896362304686,-5.513846423339843,48.01526717557252,-230.73282442748092,66.3969465648855,-8.25520732421875,-4.905719201660156,-1.5155296508789062,-71.32824427480917,69.87786259541984,19.022900763358777,0.0
11.99000072479248,-13.838485595703125,-2.427720483398437,-1.649604943847656,25.282442748091604,-215.31297709923663,48.87022900763359,-12.291831323242187,-11.314997045898437,1.0031704956054688,-3.2213740458015265,60.732824427480914,23.053435114503817,0.0
12.000000476837158,-13.40034669189453,-1.0869675537109373,1.6017209106445311,34.778625954198475,-193.06870229007635,44.54961832061068,-10.857704528808593,-7.218518005371093,-3.6822821533203123,52.88549618320611,34.47328244274809,25.709923664122137,0.0
12.010000467300415,-12.665326782226561,0.24899697265624998,1.8076222534179687,55.66412213740458,-177.80152671755727,49.66412213740458,-12.933477368164061,-2.051830822753906,-4.402936853027343,67.06870229007633,28.977099236641223,24.946564885496183,0.0
12.020000696182251,-11.937489477539062,2.868253588867187,1.2306196533203124,55.465648854961835,-169.98473282442748,52.274809160305345,-10.486603271484375,-0.38786066894531246,-3.6104561035156246,55.3587786259542,32.412213740458014,24.106870229007633,0.0
12.030000448226929,-11.578359228515625,4.2880151733398435,1.9105729248046874,29.17557251908397,-170.0,52.2442748091603,-10.467449658203124,1.2018892333984375,-2.0661960327148434,54.99236641221374,36.35114503816794,26.610687022900763,0.0
12.040000677108765,-8.616731774902343,-0.603338818359375,-0.105344873046875,2.6106870229007635,-171.45038167938932,53.908396946564885,-11.288660827636718,2.6312276245117188,-1.9105729248046874,53.267175572519086,34.76335877862596,29.480916030534353,0.0
12.050000667572021,-4.436455676269531,-4.7884033203125,-0.1771709228515625,-2.4885496183206106,-157.8320610687023,48.045801526717554,-11.6837041015625,2.93050283203125,-1.5490484741210937,49.465648854961835,36.595419847328245,29.374045801526716,0.0
12.060000896453857,-4.910507604980468,-4.594472985839843,0.15322890625,1.984732824427481,-144.21374045801528,36.83969465648855,-9.519345800781249,2.0638018310546875,-1.668758557128906,42.38167938931298,37.770992366412216,27.83206106870229,0.0
12.070000886917114,-4.611232397460937,-1.7357962036132812,0.16280571289062498,1.8931297709923665,-136.0,28.80916030534351,-8.90643017578125,2.408566870117187,-2.24097275390625,38.595419847328245,37.12977099236641,27.16030534351145,0.0
12.080000877380371,-1.6735469604492186,-2.9544448486328125,-1.7357962036132812,11.541984732824428,-123.66412213740458,31.893129770992367,-14.152126013183594,-4.094084838867187,2.272097375488281,54.2442748091603,36.82442748091603,33.45038167938932,0.0
12.090000629425049,-1.4963760375976562,-2.9544448486328125,-1.1611878051757811,28.85496183206107,-93.34351145038168,29.52671755725191,-12.552799304199217,-8.295908752441406,2.4109610717773435,101.80152671755725,22.35114503816794,38.16793893129771,0.0
12.100047588348389,-4.273649963378906,0.9744400756835937,0.8116343627929687,19.00763358778626,-78.62595419847328,19.129770992366414,-7.745242370605468,0.15562310791015624,-2.50912333984375,141.38931297709922,-10.580152671755725,32.36641221374046,0.0
12.110000848770142,-1.7310078002929687,0.2753331909179687,1.0079588989257813,5.022900763358779,-69.6793893129771,16.595419847328245,-17.233463549804686,-9.311050256347656,5.025429284667968,115.00763358778626,12.076335877862595,36.94656488549618,0.0
12.12000060081482,-2.597708801269531,2.319981408691406,2.080561242675781,-3.49618320610687,-51.80152671755725,13.786259541984732,-8.123526232910155,-2.6767174560546874,-0.27293898925781246,197.48091603053436,-44.61068702290076,28.427480916030536,0.0
12.130000591278076,-3.6367923217773437,3.9935283691406247,2.9759926635742184,-16.68702290076336,-45.64885496183206,11.282442748091603,-8.317456567382813,3.758896606445312,-7.869740856933594,155.49618320610688,-51.69465648854962,14.916030534351146,0.0
12.140000581741333,-0.6919242797851562,3.268085266113281,2.3439234252929686,-19.480916030534353,-35.70992366412214,21.099236641221374,-11.899182250976562,4.747701892089843,-2.834734765625,71.5114503816794,-15.84732824427481,4.5038167938931295,0.0
12.15000057220459,-0.1292868896484375,3.871424084472656,3.4739866088867184,-19.068702290076335,-23.053435114503817,26.38167938931298,-10.805032092285156,3.8690298828125,1.5466542724609373,28.366412213740457,12.091603053435115,1.3282442748091603,0.0
12.160000324249268,-1.6136919189453125,6.593631372070312,4.386177441406249,-29.0381679389313,-18.50381679389313,28.38167938931298,-9.957484704589843,2.6001030029296874,0.6177040283203125,27.083969465648856,-3.4656488549618323,6.564885496183206,0.0
12.170000553131104,-3.1459809814453124,8.427589843749999,6.373364819335937,-46.900763358778626,-14.259541984732824,35.93893129770992,-9.205705383300781,5.193023400878906,-3.447650390625,-25.114503816793892,10.259541984732824,6.564885496183206,0.0
12.18000054359436,-1.0893617553710937,6.687005236816406,5.664681127929687,-58.67175572519084,-12.732824427480915,49.48091603053435,-16.079458349609375,-3.5338416503906247,4.1754876953124995,-34.213740458015266,48.045801526717554,25.83206106870229,0.0
12.190000534057617,-1.0390835205078124,5.7149593627929685,4.572925170898437,-71.00763358778626,-5.282442748091603,54.56488549618321,-14.063540551757812,-11.571176623535155,5.767631799316406,39.786259541984734,16.53435114503817,35.55725190839695,0.0
12.200000286102295,-0.5698199951171875,4.13718046875,1.3862427612304686,-77.2824427480916,10.305343511450381,57.86259541984733,-11.461043347167967,-6.311115576171875,1.8267758666992187,60.19847328244275,-11.267175572519085,20.458015267175572,0.0
12.210000991821289,1.2617442749023438,1.9632453613281249,-0.40940848388671874,-82.7175572519084,27.541984732824428,58.412213740458014,-9.545682019042967,0.9097966308593749,-1.1013327636718748,20.763358778625953,0.24427480916030533,8.595419847328245,0.0
12.220000505447388,-2.3056161987304686,-4.431667272949219,13.64934366455078,-82.36641221374046,42.47328244274809,54.99236641221374,-8.44674345703125,4.786009118652344,-2.2768857788085937,-17.984732824427482,8.183206106870228,9.541984732824428,0.0
12.230000734329224,-0.3806780639648437,-11.168950744628905,11.319785449218749,-15.938931297709924,38.534351145038165,53.17557251908397,-15.509638354492187,0.5746083984375,-0.36631285400390623,-38.36641221374046,12.244274809160306,20.793893129770993,0.0
12.240000247955322,4.733336682128906,-7.105990527343749,-16.98686077880859,19.328244274809162,100.99236641221374,51.23664122137404,-16.74504641113281,3.0813375366210938,3.859453076171875,-60.80916030534351,20.259541984732824,26.83969465648855,0.0
12.250000238418579,-8.271966735839843,-8.621520178222656,-3.806780639648437,35.282442748091604,121.8473282442748,31.480916030534353,-16.89827531738281,3.797203833007812,2.712630480957031,-87.2824427480916,21.81679389312977,28.076335877862597,0.0
12.260000705718994,-14.633360546874998,-1.0007762939453124,7.228094812011718,86.27480916030534,139.4198473282443,12.351145038167939,-19.225439331054687,-0.7350199096679687,4.3430818115234375,-95.8473282442748,17.267175572519083,42.30534351145038,0.0
12.270000696182251,-9.054870678710937,1.7764976318359373,7.747636572265624,122.22900763358778,139.32824427480915,14.16793893129771,-20.266917053222656,-2.549824768066406,6.105214233398437,-96.06106870229007,3.954198473282443,45.267175572519086,0.0
12.280000686645508,-12.399570397949217,5.0757075195312495,2.2649147705078123,100.51908396946565,156.21374045801528,4.33587786259542,-17.152060693359374,-3.284844677734375,4.402936853027343,-79.86259541984732,-11.908396946564885,39.343511450381676,0.0
12.290000677108765,-12.777854260253905,7.4411787597656245,-2.3391350219726563,60.70229007633588,142.77862595419847,-0.2595419847328244,-15.416264489746093,-2.9041666137695312,4.939238024902344,-53.81679389312977,-21.053435114503817,31.572519083969464,0.0
12.300000429153442,-14.544775085449217,3.229778039550781,3.5960908935546874,27.19083969465649,142.90076335877862,-1.83206106870229,-15.435418103027343,0.1580173095703125,2.920926025390625,-30.717557251908396,-36.42748091603053,23.282442748091604,0.0
12.310000658035278,-2.7437551025390623,-9.603142858886718,0.6344634399414062,26.442748091603054,133.5114503816794,-1.1755725190839694,-15.466542724609374,1.5538368774414062,2.6288334228515624,-28.83969465648855,-40.58015267175573,16.16793893129771,0.0
12.320000886917114,-7.474697583007812,-10.824185705566405,3.718195178222656,82.01526717557252,157.95419847328245,-17.221374045801525,-13.934253662109374,1.7022773803710936,0.5123591552734374,-19.83206106870229,-48.47328244274809,10.885496183206106,0.0
12.330000638961792,-0.354341845703125,-17.92538782958984,-5.810727429199218,157.25190839694656,162.85496183206106,-28.519083969465647,-5.286397265624999,3.1028853515624997,-4.228160131835938,-34.045801526717554,-60.85496183206107,1.1145038167938932,0.0
12.340000867843628,-9.459490759277344,-9.643844287109374,-0.25139117431640623,247.0229007633588,203.17557251908397,-51.541984732824424,-9.488221179199218,-1.3096283081054687,-1.6400281372070311,-24.396946564885496,-46.25954198473283,2.198473282442748,0.0
12.350000619888306,-11.698069311523437,1.8291700683593748,-1.149216796875,239.84732824427482,190.65648854961833,-71.3587786259542,-8.79150849609375,-2.913743420410156,-1.0606313354492187,16.213740458015266,-47.48091603053435,-6.061068702290076,0.0
12.360000610351562,-17.6596314453125,16.70673918457031,4.010287780761718,190.74809160305344,178.2290076335878,-74.01526717557252,-9.557653027343749,-0.7996633544921875,-0.16519991455078123,6.748091603053435,-52.35114503816794,-16.48854961832061,0.0
12.37000060081482,-13.63737265625,12.229582080078124,2.133233679199219,86.82442748091603,135.74045801526717,-70.09160305343511,-8.611943371582031,1.0271125122070313,-0.5410895751953124,6.870229007633588,-53.541984732824424,-25.87786259541985,0.0
12.380000829696655,-12.251129895019531,10.915165368652342,2.7533319091796873,31.96946564885496,115.34351145038168,-73.40458015267176,-10.350133776855468,1.6807295654296874,-0.9720458740234375,4.870229007633588,-48.656488549618324,-27.282442748091604,0.0
12.390000820159912,-14.705186596679686,11.137826123046874,0.7254431030273437,-39.45038167938932,88.30534351145039,-73.81679389312977,-11.786654772949218,2.250549560546875,-2.2840683837890623,7.4961832061068705,-41.038167938931295,-24.15267175572519,0.0
12.40000057220459,-12.006921325683592,4.1946413085937495,-1.120486376953125,-59.099236641221374,78.54961832061069,-67.93893129770993,-10.500968481445312,2.3965958618164063,-4.254496350097656,13.236641221374045,-38.25954198473283,-24.12213740458015,0.0
12.410000324249268,-10.766724865722656,1.3120225097656248,-2.27927998046875,-47.16030534351145,83.38931297709924,-61.954198473282446,-11.750741748046874,1.2952630981445312,-4.295197778320312,17.129770992366414,-33.02290076335878,-24.3206106870229,0.0
12.420000553131104,-9.696516723632811,-1.2785036865234374,-2.2744915771484373,-7.1603053435114505,102.07633587786259,-56.87022900763359,-10.481814868164061,0.32082302246093747,-2.93050283203125,33.099236641221374,-30.946564885496183,-25.81679389312977,0.0
12.430001020431519,-10.007762939453125,0.6057330200195312,-0.7493851196289062,16.748091603053435,111.93893129770993,-56.0763358778626,-12.42351241455078,0.59376201171875,-0.0143652099609375,48.916030534351144,-30.53435114503817,-28.0,0.0
12.440000534057617,-9.619902270507811,2.6384102294921874,-0.143652099609375,14.900763358778626,113.31297709923665,-58.656488549618324,-9.248801013183593,3.5027170288085934,-0.9720458740234375,53.404580152671755,-35.11450381679389,-32.19847328244275,0.0
12.450000762939453,-12.741941235351561,5.200206005859375,1.5466542724609373,6.931297709923665,118.33587786259542,-62.19847328244275,-7.019799267578125,6.864176159667968,-1.388636962890625,34.54961832061068,-32.80916030534351,-33.66412213740458,0.0
12.46000051498413,-10.388441003417968,2.511517541503906,1.2210428466796874,-28.16793893129771,102.65648854961832,-62.274809160305345,-5.923254907226562,7.979874133300781,-2.221819140625,4.244274809160306,-31.984732824427482,-30.977099236641223,0.0
12.470000743865967,-16.78335363769531,9.2320416015625,5.248090039062499,-53.32824427480916,97.6793893129771,-70.3969465648855,-7.199364392089843,5.755660791015624,-0.17477672119140625,-19.52671755725191,-23.557251908396946,-24.85496183206107,0.0
12.480000734329224,-11.257536206054686,3.402160559082031,2.5761609863281247,-110.38167938931298,71.69465648854961,-66.54961832061069,-8.185775476074218,3.5769372802734374,0.7709329345703124,-18.16793893129771,-25.389312977099237,-22.519083969465647,0.0
12.490000486373901,-11.942277880859374,3.536235852050781,5.609614489746093,-111.06870229007633,66.09160305343511,-63.31297709923664,-11.537657800292967,-0.9911994873046874,2.806004345703125,-4.580152671755725,-32.50381679389313,-16.061068702290076,0.0
12.500000238418579,-9.6917283203125,-2.693476867675781,2.8371289672851563,-101.00763358778626,62.93129770992366,-55.61832061068702,-10.000580334472655,2.3343466186523436,1.235408056640625,25.770992366412212,-57.86259541984733,-20.442748091603054,0.0
12.510000705718994,-10.24000050048828,-0.44053310546874996,1.4125789794921875,-78.3969465648855,58.74809160305343,-53.954198473282446,-10.04846436767578,3.2249896362304686,2.4133552734375,6.961832061068702,-59.541984732824424,-19.52671755725191,0.0
12.520000696182251,-9.5384994140625,-0.0430956298828125,0.9624690673828125,-52.85496183206107,61.908396946564885,-51.29770992366412,-7.706935144042968,4.094084838867187,-0.05746083984375,13.725190839694656,-71.38931297709924,-20.442748091603054,0.0
12.530000686645508,-12.401964599609375,7.68059892578125,3.469198205566406,-69.1145038167939,55.17557251908397,-53.282442748091604,-9.785102185058593,2.750937707519531,0.8595183959960937,11.19083969465649,-76.1526717557252,-20.641221374045802,0.0
12.540000677108765,-9.356540087890625,4.132392065429687,-0.5243301635742187,-105.45038167938931,39.770992366412216,-45.41984732824427,-10.08677159423828,2.499546533203125,0.3447650390625,4.061068702290076,-81.00763358778626,-18.03053435114504,0.0
12.550000667572021,-9.619902270507811,3.768473413085937,1.618480322265625,-93.16030534351145,42.534351145038165,-35.06870229007634,-9.976638317871092,1.5849614990234373,1.5059528442382812,-12.763358778625955,-75.93893129770993,-15.893129770992367,0.0
12.560000896453857,-8.461108666992187,0.6871358764648438,-0.4381389038085937,-92.6412213740458,42.13740458015267,-31.053435114503817,-7.091625317382812,2.5570073730468748,-1.0510545288085937,-12.244274809160306,-82.10687022900764,-18.396946564885496,0.0
12.570000648498535,-16.259023474121093,10.27830772705078,3.3327287109375,-96.42748091603053,42.12213740458015,-33.00763358778626,-7.831433630371094,2.4492682983398435,-1.4796166259765624,-12.793893129770993,-82.70229007633588,-19.740458015267176,0.0
12.580000877380371,-12.133814013671874,8.207323291015625,1.4700398193359374,-141.25190839694656,17.419847328244273,-20.778625954198475,-9.188945971679686,1.8363526733398436,-0.82360537109375,-1.8015267175572518,-84.13740458015268,-19.053435114503817,0.0
12.590000629425049,-15.619771630859374,9.248801013183593,4.048595007324218,-143.9083969465649,14.335877862595419,-5.908396946564886,-10.31661495361328,0.5099649536132812,0.8667010009765624,-5.603053435114504,-78.58015267175573,-16.229007633587788,0.0
12.600000858306885,-12.102689392089843,3.555389465332031,2.068590234375,-160.87022900763358,-1.4351145038167938,7.3893129770992365,-9.794678991699218,0.4261678955078125,1.5538368774414062,6.8396946564885495,-80.30534351145039,-18.0,0.0
12.610000371932983,-10.615890161132812,-1.7405846069335937,0.8068459594726562,-128.9618320610687,-0.8702290076335878,19.251908396946565,-8.755595471191405,0.11731588134765625,1.7381904052734374,9.007633587786259,-85.3587786259542,-18.38167938931298,0.0
12.62000060081482,-6.4667386840820305,-6.600813977050781,-0.6081272216796875,-86.85496183206106,-0.732824427480916,21.022900763358777,-8.451531860351562,0.6272808349609375,1.5490484741210937,27.34351145038168,-90.38167938931298,-19.633587786259543,0.0
12.630000591278076,-8.264784130859374,-6.438008264160156,0.8810662109374999,-45.06870229007634,11.526717557251908,10.381679389312977,-8.856151940917968,-0.055066638183593745,2.454056701660156,40.778625954198475,-90.97709923664122,-15.511450381679388,0.0
12.640000343322754,-6.41646044921875,-7.204152795410156,-0.22744915771484372,-11.603053435114504,16.610687022900763,-2.2900763358778624,-7.819462622070312,0.38307226562499996,2.250549560546875,50.62595419847328,-94.25954198473282,-17.19083969465649,0.0
12.65000033378601,-11.0707884765625,0.009576806640625,3.418919970703125,18.061068702290076,33.45038167938932,-15.893129770992367,-8.501810095214843,-0.9504980590820312,3.909731311035156,49.87786259541985,-87.6030534351145,-16.045801526717558,0.0
12.660000324249268,-9.495403784179686,0.679953271484375,1.5011644409179687,20.931297709923665,30.015267175572518,-17.221374045801525,-9.502586389160156,-1.0127473022460938,4.491522314453125,44.62595419847328,-83.17557251908397,-16.442748091603054,0.0
12.670000314712524,-11.066000073242186,4.046200805664062,1.8650830932617186,28.12213740458015,42.68702290076336,-15.603053435114504,-4.723759875488281,2.8658593872070313,2.703053674316406,20.748091603053435,-80.45801526717557,-24.946564885496183,0.0
12.68000054359436,-10.211270080566406,4.383783239746093,0.7230489013671875,11.908396946564885,40.900763358778626,-14.854961832061068,-8.74601866455078,1.1133037719726562,3.1387983764648437,21.786259541984734,-76.04580152671755,-21.923664122137403,0.0
12.690000534057617,-9.227253198242186,2.499546533203125,0.011971008300781249,7.145038167938932,44.595419847328245,-10.366412213740459,-6.342240197753906,2.999934680175781,2.2601263671875,5.66412213740458,-69.95419847328245,-20.82442748091603,0.0
12.700000524520874,-8.022969763183593,0.21308394775390624,-0.06943184814453125,7.145038167938932,49.19083969465649,-10.396946564885496,-9.641450085449218,0.6751648681640625,2.6767174560546874,2.6106870229007635,-62.56488549618321,-16.16793893129771,0.0
12.71000075340271,-8.520963708496094,0.32082302246093747,-0.3232172241210937,4.8396946564885495,49.3587786259542,-15.083969465648854,-9.545682019042967,-0.6344634399414062,2.422932080078125,13.16030534351145,-63.64885496183206,-18.198473282442748,0.0
12.720000505447388,-8.949525805664061,0.28969840087890625,-0.6584054565429687,11.358778625954198,51.06870229007634,-17.282442748091604,-9.272743029785156,1.5155296508789062,2.482787121582031,13.16030534351145,-62.58015267175573,-20.3206106870229,0.0
12.730000495910645,-10.357316381835936,1.8650830932617186,-0.05027823486328125,14.458015267175572,52.36641221374046,-19.72519083969466,-8.74601866455078,1.438915197753906,2.43250888671875,-2.50381679389313,-57.29770992366412,-19.923664122137403,0.0
12.740000247955322,-11.303026037597656,3.7421371948242186,0.565031591796875,0.9465648854961832,48.06106870229008,-20.442748091603054,-10.766724865722656,-0.00718260498046875,2.2864625854492187,-2.4732824427480917,-53.343511450381676,-18.412213740458014,0.0
12.750000476837158,-11.9518546875,3.0119056884765625,0.97683427734375,-4.076335877862595,43.9236641221374,-17.17557251908397,-10.893617553710937,0.3758896606445312,2.7341782958984373,11.526717557251908,-56.67175572519084,-19.450381679389313,0.0
12.760000705718994,-11.044452258300781,1.39821376953125,0.6368576416015624,-2.4732824427480917,40.61068702290076,-15.358778625954198,-10.900800158691405,1.0606313354492187,3.1268273681640624,19.557251908396946,-55.87786259541985,-19.19083969465649,0.0
12.770000696182251,-11.911153259277343,2.607285607910156,0.9504980590820312,-2.717557251908397,37.282442748091604,-15.98473282442748,-6.6271501953125,3.9935283691406247,1.3048399047851562,4.99236641221374,-59.57251908396947,-24.442748091603054,0.0
12.780028581619263,-10.66137999267578,3.105279553222656,-0.29448680419921874,-14.488549618320612,28.870229007633586,-13.49618320610687,-9.176974963378905,2.5234885498046875,2.8945898071289062,-18.244274809160306,-40.30534351145038,-17.16030534351145,0.0
12.790000677108765,-12.090718383789062,5.154716174316406,1.0702081420898437,-27.603053435114504,26.641221374045802,-10.80916030534351,-8.614337573242187,1.446097802734375,1.7693150268554687,-19.221374045801525,-43.404580152671755,-17.786259541984734,0.0
12.800000667572021,-9.76116016845703,0.9792284790039062,0.2059013427734375,-20.900763358778626,26.18320610687023,-3.3587786259541983,-10.067617980957031,0.16519991455078123,3.0645781249999997,-2.2442748091603053,-39.343511450381676,-13.664122137404581,0.0
12.810000658035278,-10.158597644042969,0.6081272216796875,0.51714755859375,-17.282442748091604,25.72519083969466,-4.870229007633588,-6.323086584472656,2.061407629394531,1.369483349609375,-1.7099236641221374,-45.603053435114504,-19.022900763358777,0.0
12.820000886917114,-9.483432775878907,-0.239420166015625,0.055066638183593745,-11.526717557251908,28.916030534351144,-9.786259541984732,-6.926425402832031,2.1356278808593747,1.9009961181640624,-18.427480916030536,-28.931297709923665,-18.53435114503817,0.0
12.830000638961792,-9.957484704589843,1.5658078857421873,0.44532150878906246,-21.358778625954198,26.366412213740457,-14.106870229007633,-7.1395093505859375,1.8076222534179687,0.59376201171875,-22.18320610687023,-24.870229007633586,-19.14503816793893,0.0
12.840000629425049,-10.702081420898438,1.898601916503906,0.9217676391601562,-19.587786259541986,26.564885496183205,-14.763358778625955,-9.382876306152344,-0.6919242797851562,2.612074011230469,-15.48091603053435,-12.16793893129771,-15.84732824427481,0.0
12.850000381469727,-10.752359655761719,1.438915197753906,1.5179238525390624,-17.83206106870229,23.572519083969464,-13.725190839694656,-7.6231380859375,0.19632453613281248,2.2361843505859373,-10.091603053435115,-11.48091603053435,-17.84732824427481,0.0
12.860000610351562,-10.441113439941406,0.70868369140625,1.4915876342773438,-9.465648854961833,22.50381679389313,-13.267175572519085,-8.755595471191405,-0.5793968017578125,2.6431986328124997,-2.595419847328244,-8.961832061068701,-18.412213740458014,0.0
12.87000060081482,-10.807426293945312,1.3335703247070312,2.0638018310546875,-5.022900763358779,18.427480916030536,-15.236641221374045,-6.476315490722656,0.8595183959960937,2.157175695800781,-4.0,-4.473282442748092,-21.34351145038168,0.0
12.880000591278076,-10.87206973876953,1.438915197753906,2.360682836914062,-1.450381679389313,16.33587786259542,-17.251908396946565,-7.4220251464843745,0.6536170532226562,2.4660277099609376,-1.8931297709923665,-0.04580152671755725,-20.015267175572518,0.0
12.890000581741333,-10.931924780273437,2.2266075439453124,2.710236279296875,-2.946564885496183,11.312977099236642,-17.083969465648856,-6.947973217773437,1.0869675537109373,2.1715409057617188,-1.786259541984733,5.297709923664122,-18.549618320610687,0.0
12.900004386901855,-10.831368310546875,2.310404602050781,2.887407202148437,4.137404580152672,10.0,-14.50381679389313,-7.637503295898437,0.023942016601562498,2.655169641113281,-1.1145038167938932,10.854961832061068,-15.114503816793894,0.0
12.910000562667847,-11.367669482421874,2.0278888061523435,2.3535002319335936,3.0381679389312977,5.526717557251908,-12.274809160305344,-8.183381274414062,-1.3431471313476562,3.1842882080078123,12.13740458015267,8.198473282442748,-13.389312977099237,0.0
12.920000314712524,-10.134655627441406,1.13006318359375,2.47081611328125,10.061068702290076,4.183206106870229,-10.732824427480915,-6.622361791992187,0.062249243164062495,3.1220389648437497,17.114503816793892,8.992366412213741,-14.854961832061068,0.0
12.93000054359436,-9.883264453125,1.8842367065429686,2.925714428710937,9.572519083969466,0.48854961832061067,-11.068702290076336,-7.6614453125,-1.1324573852539062,3.4572271972656248,18.68702290076336,12.442748091603054,-13.572519083969466,0.0
12.940000295639038,-9.677363110351562,0.9241618408203125,2.2457611572265623,10.916030534351146,-1.9083969465648856,-12.335877862595419,-6.129156249999999,-0.08858546142578125,2.5139117431640625,24.18320610687023,11.19083969465649,-14.427480916030534,0.0
12.950000762939453,-9.955090502929687,2.7437551025390623,3.5577836669921874,9.572519083969466,-3.404580152671756,-13.725190839694656,-6.622361791992187,-0.5434837768554687,2.4516625,25.51145038167939,14.854961832061068,-13.557251908396946,0.0
12.96000051498413,-9.277531433105468,2.9664158569335934,3.303998291015625,-6.99236641221374,-18.091603053435115,-13.221374045801527,-6.351817004394531,-0.28012159423828126,2.0302830078125,25.84732824427481,18.366412213740457,-13.648854961832061,0.0
12.970000743865967,-11.415553515625,1.3910311645507811,4.970362646484375,-10.50381679389313,-26.03053435114504,-9.34351145038168,-5.80354482421875,0.4740519287109375,1.5203180541992187,22.0,22.977099236641223,-13.251908396946565,0.0
12.980000257492065,-9.706093530273437,-0.055066638183593745,5.892130285644531,-2.2290076335877864,-33.969465648854964,-8.458015267175572,-3.785232824707031,1.4867992309570313,0.5147533569335937,9.633587786259541,38.25954198473283,-13.389312977099237,0.0
12.99000072479248,-11.389217297363281,0.09337386474609374,7.582436657714843,-1.7251908396946565,-43.49618320610687,-12.625954198473282,-3.0262708984374997,0.7326257080078125,-2.003946789550781,4.5038167938931295,49.038167938931295,-9.526717557251908,0.0
13.000000715255737,-12.026074938964843,0.928950244140625,9.45470235595703,2.366412213740458,-59.083969465648856,-13.114503816793894,-2.1787235107421874,2.786850732421875,-3.5817256835937497,1.7099236641221374,67.3587786259542,-5.221374045801527,0.0
13.010000705718994,-12.974178796386719,0.7876923461914062,11.67652149658203,9.679389312977099,-77.69465648854961,-10.427480916030534,-4.742913488769531,1.446097802734375,1.0702081420898437,-18.931297709923665,91.06870229007633,0.24427480916030533,0.0
13.020000696182251,-14.094665173339843,-0.8259995727539062,13.601459631347655,23.572519083969464,-100.76335877862596,-8.13740458015267,-8.06367119140625,-0.2705447875976562,7.864952453613281,-30.625954198473284,86.97709923664122,-1.7251908396946565,0.0
13.030000686645508,-16.381127758789063,-0.22266075439453123,16.175226416015622,41.69465648854962,-123.37404580152672,-7.9541984732824424,-10.376469995117187,-6.150704064941406,3.907337109375,-19.236641221374047,96.1526717557252,0.2595419847328244,0.0
13.040001153945923,-18.310854296875,-0.4261678955078125,17.178396911621093,63.770992366412216,-152.8854961832061,-6.091603053435114,-13.156138122558593,-4.742913488769531,0.028730419921875,19.801526717557252,96.18320610687023,-5.00763358778626,0.0
13.050000667572021,-20.35310831298828,0.8930372192382812,15.461754321289062,90.21374045801527,-187.0381679389313,1.297709923664122,-16.03157431640625,2.262520568847656,2.73896669921875,27.541984732824428,83.3587786259542,-10.412213740458014,0.0
13.060001134872437,-20.21424461669922,-0.47884033203125,10.675745202636719,104.41221374045801,-217.75572519083968,5.984732824427481,-16.361974145507812,0.41898529052734373,4.939238024902344,3.7099236641221376,87.2824427480916,-9.557251908396946,0.0
13.070000648498535,-20.271705456542968,-1.180341418457031,9.006986645507812,104.4885496183206,-241.45038167938932,11.450381679389313,-12.241553088378906,0.9193734375,0.6416460449218749,-3.877862595419847,73.83206106870229,-11.679389312977099,0.0
13.080000638961792,-19.665972436523436,0.8667010009765624,5.679046337890624,116.13740458015268,-256.8702290076336,27.46564885496183,-6.5768719604492185,4.237736938476562,1.5897499023437498,-23.083969465648856,83.02290076335878,-3.83206106870229,0.0
13.090000629425049,-17.178396911621093,1.4724340209960938,-0.9648632690429687,101.96946564885496,-259.74045801526717,53.083969465648856,6.229712719726562,9.964667309570311,-11.367669482421874,-60.61068702290076,64.45801526717557,-1.7099236641221374,0.0
13.100000619888306,-13.527239379882811,2.0350714111328125,-5.834669445800781,74.30534351145039,-252.4732824427481,67.22137404580153,0.6368576416015624,15.322890625,-7.3478048950195305,-150.21374045801528,144.3053435114504,15.786259541984732,0.0
13.110017538070679,-10.77630167236328,0.18435352783203124,-5.717353564453124,19.83206106870229,-245.206106870229,69.57251908396947,1.7381904052734374,12.536039892578124,-13.316549633789062,-199.84732824427482,138.76335877862596,46.33587786259542,0.0
13.12000060081482,-11.499350573730467,-3.787627026367187,-4.965574243164062,-0.2748091603053435,-236.4885496183206,58.18320610687023,-10.9941740234375,8.896853369140624,-8.434772448730468,-291.618320610687,194.73282442748092,55.541984732824424,0.0
13.130000352859497,-9.390058911132812,-7.706935144042968,-2.398990063476562,18.106870229007633,-214.87022900763358,43.81679389312977,-7.912836486816405,4.893748193359374,-10.797849487304687,-293.9389312977099,178.1679389312977,54.045801526717554,0.0
13.140000581741333,-10.778695874023438,-8.671798413085938,-0.3399766357421875,75.83206106870229,-182.8854961832061,34.44274809160305,-18.765752612304688,-6.0142345703124995,-5.109226342773437,-349.37404580152673,211.2824427480916,48.778625954198475,0.0
13.15000033378601,-11.61906065673828,-5.652710119628906,0.9552864624023437,125.23664122137404,-159.75572519083968,29.16030534351145,-17.36514464111328,-13.82172618408203,-3.5577836669921874,-233.12977099236642,168.36641221374046,40.47328244274809,0.0
13.160000562667847,-13.536816186523437,-3.3494881225585935,0.8283937744140625,147.2824427480916,-153.5114503816794,29.129770992366414,-18.85912647705078,-21.001936962890625,3.1483751831054687,-136.90076335877862,150.03053435114504,51.603053435114504,0.0
13.170000314712524,-12.708422412109375,-2.5234885498046875,0.5770026000976562,150.91603053435114,-153.09923664122138,29.46564885496183,-10.005368737792969,-16.59900010986328,1.3311761230468748,14.65648854961832,91.37404580152672,56.88549618320611,0.0
13.18000054359436,-12.995726611328124,0.6631938598632812,1.7310078002929687,130.45801526717557,-152.6412213740458,28.38167938931298,-11.159373937988281,-13.1776859375,2.2768857788085937,119.72519083969466,59.587786259541986,70.25954198473282,0.0
13.190000534057617,-12.665326782226561,2.4492682983398435,2.327164013671875,101.05343511450381,-156.50381679389312,27.87786259541985,-10.381258398437499,-1.0893617553710937,-1.458068811035156,160.44274809160305,37.11450381679389,64.53435114503817,0.0
13.200000286102295,-12.217611071777343,5.868188269042968,2.612074011230469,56.213740458015266,-163.1145038167939,26.748091603053435,-8.966285217285156,4.534617944335937,-1.5466542724609373,116.65648854961832,41.63358778625954,51.725190839694655,0.0
13.21000051498413,-7.7787611938476555,4.450820886230469,0.44053310546874996,4.732824427480916,-167.86259541984734,32.595419847328245,-10.070012182617187,4.809951135253906,-1.177947216796875,92.54961832061069,47.770992366412216,47.74045801526717,0.0
13.220000505447388,-5.391742138671875,2.0183119995117185,-0.6943184814453125,-21.19083969465649,-155.32824427480915,32.80916030534351,-9.79946739501953,3.0789433349609374,-1.1061211669921875,74.74809160305344,48.67175572519084,50.38167938931298,0.0
13.230000734329224,-1.9129671264648436,-3.287238879394531,-1.9919757812499999,-20.30534351145038,-140.25954198473283,31.16030534351145,-13.467384338378906,-0.8379705810546875,2.039859814453125,66.99236641221374,55.81679389312977,55.17557251908397,0.0
13.240000486373901,-0.316034619140625,-4.659116430664063,-0.4908113403320312,6.549618320610687,-106.33587786259542,23.908396946564885,-10.443507641601562,-0.411802685546875,-1.2018892333984375,67.06870229007633,48.12213740458015,51.69465648854962,0.0
13.250000476837158,1.177947216796875,-3.2417490478515623,-0.3327940307617187,28.290076335877863,-87.8473282442748,18.045801526717558,-13.251906188964844,-3.861847277832031,1.2928688964843749,76.54961832061069,48.70229007633588,50.18320610687023,0.0
13.260000705718994,-0.26336218261718747,1.8243816650390623,0.7206546997070312,33.11450381679389,-67.55725190839695,14.061068702290076,-7.649474304199218,-1.43652099609375,-2.118868469238281,93.70992366412214,28.244274809160306,42.412213740458014,0.0
13.270000696182251,-1.9416975463867185,5.8083332275390624,1.6807295654296874,12.870229007633588,-59.45038167938932,14.488549618320612,-6.49307490234375,1.8363526733398436,-2.01112939453125,66.58015267175573,36.396946564885496,36.458015267175576,0.0
13.280000686645508,0.36631285400390623,3.8953661010742184,1.5370774658203123,-2.0916030534351147,-49.14503816793893,25.908396946564885,-12.548010900878905,-1.6448165405273436,1.47482822265625,74.53435114503817,41.221374045801525,41.23664122137404,0.0
13.290000677108765,-0.5674257934570313,4.486733911132812,3.268085266113281,-8.854961832061068,-34.12213740458015,28.595419847328245,-8.827421520996094,-0.1484405029296875,-0.469263525390625,93.86259541984732,23.633587786259543,38.93129770992366,0.0
13.300000667572021,-1.3144167114257812,6.658274816894531,3.7924154296875,-20.18320610687023,-28.18320610687023,30.65648854961832,-7.975085729980468,4.747701892089843,-1.7286135986328124,47.465648854961835,36.595419847328245,34.045801526717554,0.0
13.310000658035278,0.8116343627929687,4.6064439941406246,3.5003228271484375,-34.656488549618324,-25.206106870229007,38.88549618320611,-16.103400366210938,-6.315903979492187,7.295132458496093,57.66412213740458,47.541984732824424,44.961832061068705,0.0
13.320000410079956,-1.7477672119140624,5.662286926269531,5.679046337890624,-48.18320610687023,-12.610687022900763,39.66412213740458,-10.022128149414062,-2.389413256835937,1.4891934326171874,117.98473282442748,0.15267175572519084,41.66412213740458,0.0
13.330000638961792,0.5722141967773438,3.0454245117187497,3.5434184570312497,-47.23664122137404,-7.251908396946565,46.6412213740458,-15.528791967773437,-5.9208607055664055,6.121973645019531,95.6030534351145,10.0,36.82442748091603,0.0
13.340000867843628,0.009576806640625,5.628768103027343,3.361459130859375,-46.229007633587784,10.045801526717558,45.02290076335878,-10.275913525390624,-0.3016694091796875,2.003946789550781,116.80916030534351,-20.244274809160306,23.923664122137403,0.0
13.350000381469727,-1.407790576171875,7.611167077636718,1.8507178833007811,-61.404580152671755,20.610687022900763,43.48091603053435,-16.575058093261717,-3.986345764160156,5.42047255859375,76.7175572519084,-4.091603053435114,21.96946564885496,0.0
13.360000848770142,0.20350714111328125,4.276044165039062,-1.675941162109375,-95.52671755725191,28.3206106870229,45.969465648854964,-9.715670336914062,1.4820108276367188,-0.3136404174804687,71.92366412213741,-18.229007633587788,13.587786259541986,0.0
13.37000060081482,0.4860229370117187,-0.17956512451171874,-1.889025109863281,-105.12977099236642,53.12977099236641,46.3206106870229,-11.872846032714843,3.3207577026367185,-0.00239420166015625,26.946564885496183,-12.83969465648855,9.16030534351145,0.0
13.380000591278076,-4.292803576660156,-6.758831286621094,9.114725720214842,-95.61832061068702,73.78625954198473,41.98473282442748,-11.365275280761718,5.061342309570312,0.86191259765625,-11.664122137404581,-3.435114503816794,12.0,0.0
13.390000581741333,-7.635109094238281,-14.92545314941406,22.601263671875,-36.97709923664122,51.17557251908397,49.11450381679389,-12.411541406249999,3.6463691284179687,1.8507178833007811,-31.755725190839694,5.480916030534351,21.862595419847327,0.0
13.400000810623169,-3.785232824707031,-10.12507882080078,2.262520568847656,54.412213740458014,88.8854961832061,38.36641221374046,-12.830526696777342,-0.23223756103515625,3.440467785644531,-56.732824427480914,16.47328244274809,32.48854961832061,0.0
13.410000562667847,-6.404489440917969,-2.5641899780273434,-3.438073583984375,94.73282442748092,100.09160305343511,34.79389312977099,-13.010091821289063,1.1444283935546875,2.961627453613281,-65.89312977099236,27.61832061068702,36.85496183206107,0.0
13.420000791549683,-11.176133349609374,-0.05985504150390625,-1.848323681640625,92.53435114503817,122.12213740458016,17.923664122137403,-13.77144794921875,-1.3455413330078123,1.9201497314453124,-68.42748091603053,27.587786259541986,40.42748091603053,0.0
13.43000054359436,-12.567164514160156,-1.5035586425781249,4.340687609863281,103.86259541984732,120.06106870229007,6.412213740458015,-14.207192651367187,-1.9680337646484374,2.3774422485351563,-47.725190839694655,24.259541984732824,39.14503816793893,0.0
13.440000534057617,-13.804966772460936,3.4093431640625,3.900154504394531,105.66412213740458,122.10687022900764,2.0610687022900764,-15.567099194335936,-0.3950432739257812,2.602497204589844,-35.12977099236641,21.129770992366414,35.87786259541985,0.0
13.450000762939453,-8.022969763183593,2.123656872558594,-2.6623522460937497,75.46564885496183,108.10687022900764,-0.6870229007633588,-14.188039038085936,2.1643583007812497,1.3862427612304686,-35.969465648854964,19.16030534351145,33.83206106870229,0.0
13.46000051498413,-10.347739575195313,1.1348515869140625,0.8451531860351562,42.99236641221374,112.18320610687023,-9.007633587786259,-15.650896252441406,0.00239420166015625,1.85790048828125,-24.0,12.778625954198473,37.64885496183206,0.0
13.470000982284546,-0.1580173095703125,-10.299855541992187,-1.2114660400390624,49.25190839694657,105.19083969465649,-5.267175572519084,-16.63730733642578,0.45489831542968745,2.2385785522460937,-3.145038167938931,-2.6259541984732824,36.18320610687023,0.0
13.480000495910645,-4.69263525390625,-10.93671318359375,0.5674257934570313,111.87786259541984,139.34351145038167,-17.6793893129771,-14.879963317871093,2.8012159423828122,0.086191259765625,-6.442748091603053,-19.251908396946565,28.412213740458014,0.0
13.49000072479248,-3.8283284545898435,-8.681375219726561,-2.3870190551757813,142.99236641221373,137.75572519083968,-31.938931297709924,-14.755464831542968,-0.22266075439453123,1.216254443359375,2.6717557251908395,-22.53435114503817,22.198473282442748,0.0
13.500000238418579,-13.658920471191406,-1.350329736328125,0.05985504150390625,189.49618320610688,171.09923664122138,-47.786259541984734,-11.422736120605467,2.090138049316406,0.46208092041015625,-9.007633587786259,-34.82442748091603,13.129770992366412,0.0
13.510000705718994,-15.440206506347655,13.558364001464843,5.9208607055664055,130.45801526717557,150.01526717557252,-64.03053435114504,-10.486603271484375,0.07422025146484375,0.39743747558593745,-14.885496183206106,-36.47328244274809,2.6259541984732824,0.0
13.520000457763672,-9.33978067626953,4.5968671875,-2.6862942626953124,69.17557251908397,124.2442748091603,-53.6793893129771,-10.888829150390624,-0.5147533569335937,0.8571241943359375,-14.82442748091603,-44.35114503816794,-2.8091603053435112,0.0
13.530000448226929,-11.022904443359375,3.859453076171875,0.9361328491210937,70.53435114503817,135.89312977099237,-55.969465648854964,-10.963049401855468,-1.5011644409179687,-0.0047884033203125,-11.083969465648854,-53.603053435114504,-15.618320610687023,0.0
13.540000677108765,-11.614272253417967,9.816226806640625,1.3215993164062498,33.48091603053435,122.19847328244275,-61.282442748091604,-11.085153686523437,-1.7166425903320313,0.49320554199218747,12.885496183206106,-64.12213740458016,-25.206106870229007,0.0
13.550000667572021,-6.555324145507812,-0.33758243408203126,-3.2561142578125,10.305343511450381,103.54198473282443,-49.954198473282446,-11.968614099121092,-0.37828386230468747,0.3280056274414062,17.954198473282442,-70.27480916030534,-33.343511450381676,0.0
13.5600004196167,-7.821856823730468,-0.4261678955078125,-1.0007762939453124,49.19083969465649,122.29007633587786,-49.48091603053435,-10.867281335449219,0.34237083740234375,-0.5363011718749999,21.72519083969466,-73.08396946564885,-37.587786259541986,0.0
13.570000648498535,-8.8489693359375,1.5251064575195312,-1.2689268798828124,53.343511450381676,121.37404580152672,-52.213740458015266,-11.044452258300781,0.17956512451171874,-1.0175357055664063,42.18320610687023,-76.16793893129771,-40.916030534351144,0.0
13.580000638961792,-12.172121240234373,6.679822631835937,1.0390835205078124,50.045801526717554,124.97709923664122,-56.36641221374046,-10.046070166015625,2.882618798828125,-2.422932080078125,20.977099236641223,-68.18320610687023,-49.63358778625954,0.0
13.590000629425049,-10.824185705566405,7.3094976684570305,0.3902548706054687,8.106870229007633,111.77099236641222,-56.68702290076336,-9.706093530273437,4.094084838867187,-3.347093920898437,14.473282442748092,-64.0,-52.412213740458014,0.0
13.600000619888306,-11.84890401611328,7.170633972167968,1.5322890624999999,-15.541984732824428,108.47328244274809,-58.030534351145036,-9.801861596679688,5.250484240722656,-2.592920397949219,-3.8625954198473282,-51.66412213740458,-48.94656488549618,0.0
13.610000610351562,-10.307038146972655,3.2632968627929686,0.47644613037109373,-38.0763358778626,98.0,-55.32824427480916,-8.28633194580078,5.252878442382812,-2.454056701660156,-10.061068702290076,-44.54961832061068,-40.961832061068705,0.0
13.62000060081482,-9.153032946777342,1.0486603271484374,0.7565677246093749,-38.06106870229008,94.01526717557252,-52.13740458015267,-7.898471276855468,3.5960908935546874,-1.1348515869140625,-1.9694656488549618,-43.74045801526717,-33.43511450381679,0.0
13.630000591278076,-7.917624890136718,-2.8107927490234372,0.5315127685546874,-15.83206106870229,99.54198473282443,-49.11450381679389,-8.755595471191405,2.9951462768554684,0.16519991455078123,11.49618320610687,-47.41984732824427,-29.893129770992367,0.0
13.640000581741333,-15.579070202636718,8.712499841308594,6.294356164550781,-25.419847328244273,99.61832061068702,-57.343511450381676,-8.341398583984375,3.900154504394531,0.7948749511718749,6.351145038167939,-46.87022900763359,-28.977099236641223,0.0
13.65000033378601,-16.809689855957032,12.148179223632813,6.754042883300781,-117.12977099236642,62.56488549618321,-61.541984732824424,-8.48505068359375,5.504269616699219,0.3184288208007812,0.916030534351145,-46.33587786259542,-27.954198473282442,0.0
13.660000324249268,-8.992621435546875,-3.385401147460937,2.3487118286132813,-117.83206106870229,58.87022900763359,-50.19847328244275,-8.607154968261717,3.871424084472656,0.17477672119140625,-9.022900763358779,-49.80152671755725,-25.099236641221374,0.0
13.670000553131104,-12.8329208984375,-1.7166425903320313,1.5107412475585937,-96.01526717557252,53.847328244274806,-51.6793893129771,-8.82981572265625,4.467580297851562,-0.7517793212890624,-13.236641221374045,-55.86259541984733,-25.72519083969466,0.0
13.68000054359436,-10.050858569335936,0.031124621582031248,1.0630255371093749,-67.45038167938931,63.3587786259542,-49.786259541984734,-8.844180932617187,3.2537200561523436,0.2753331909179687,-20.0,-54.76335877862596,-22.12213740458015,0.0
13.690000534057617,-8.588001354980468,0.2657563842773437,1.0749965454101562,-58.97709923664122,62.47328244274809,-47.74045801526717,-8.185775476074218,4.316745593261719,-1.2018892333984375,-19.16030534351145,-60.2442748091603,-19.96946564885496,0.0
13.700000524520874,-14.822502478027342,5.5545478515625,1.465251416015625,-74.33587786259542,54.961832061068705,-50.58015267175573,-10.089165795898436,1.9919757812499999,0.45010991210937495,-19.51145038167939,-56.12213740458015,-14.549618320610687,0.0
13.71000075340271,-11.154585534667968,4.671087438964843,2.24097275390625,-76.33587786259542,60.2442748091603,-46.88549618320611,-8.358157995605469,2.952050646972656,0.1580173095703125,-24.595419847328245,-59.52671755725191,-14.412213740458014,0.0
13.720000505447388,-9.811438403320311,1.3838485595703125,1.5729904907226562,-76.12213740458016,58.76335877862596,-39.86259541984733,-8.805873706054687,2.142810485839844,0.0383072265625,-25.00763358778626,-60.900763358778626,-14.961832061068701,0.0
13.730000734329224,-7.129932543945312,-1.7190367919921874,-0.7493851196289062,-50.87022900763359,64.59541984732824,-35.404580152671755,-8.571241943359375,1.1755530151367186,0.5530605834960938,-32.74809160305343,-57.41984732824427,-12.80916030534351,0.0
13.740000247955322,-17.61414161376953,17.19276212158203,8.578424548339843,-87.02290076335878,54.61068702290076,-45.86259541984733,-9.828197814941406,0.031124621582031248,0.32082302246093747,-18.549618320610687,-60.534351145038165,-12.045801526717558,0.0
13.750000476837158,-17.082628845214842,16.110582971191405,4.429273071289062,-197.70992366412213,1.9389312977099236,-37.786259541984734,-10.17056865234375,0.01915361328125,1.1420341918945311,-13.114503816793894,-60.534351145038165,-12.366412213740459,0.0
13.760000467300415,-12.344503759765624,5.039794494628906,-0.6679822631835937,-212.83969465648855,-15.770992366412214,-8.793893129770993,-9.8449572265625,1.465251416015625,-0.4477157104492187,-11.801526717557252,-71.80152671755725,-17.34351145038168,0.0
13.770000696182251,-16.04833372802734,5.849034655761718,4.953603234863281,-187.08396946564886,-7.9541984732824424,3.0839694656488548,-12.591106530761717,-1.4867992309570313,2.085349645996094,0.12213740458015267,-67.29770992366412,-16.229007633587788,0.0
13.780000686645508,-12.90235274658203,1.9129671264648436,2.4588451049804685,-187.61832061068702,-31.14503816793893,14.702290076335878,-12.229582080078124,-0.8307879760742187,2.901772412109375,23.022900763358777,-79.05343511450381,-20.18320610687023,0.0
13.790000438690186,-6.746860278320312,-7.613561279296874,-1.8650830932617186,-111.64885496183206,-17.587786259541986,37.38931297709924,-10.639832177734375,0.076614453125,2.8107927490234372,31.236641221374047,-87.83206106870229,-21.450381679389313,0.0
13.800000667572021,-5.1714755859374995,-12.327744348144531,-0.7206546997070312,-48.045801526717554,1.6488549618320612,28.99236641221374,-9.169792358398437,-0.8714894042968749,3.5506010620117183,48.48854961832061,-93.02290076335878,-23.374045801526716,0.0
13.8100004196167,-5.027823486328125,-6.37815322265625,1.4700398193359374,2.8396946564885495,26.9618320610687,-2.717557251908397,-8.200140686035155,-1.3144167114257812,3.5793314819335937,63.083969465648856,-97.0381679389313,-22.931297709923665,0.0
13.820000410079956,-9.873687646484374,0.28012159423828126,0.7517793212890624,0.33587786259541985,24.412213740458014,-18.82442748091603,-7.115567333984375,0.42377369384765623,4.465186096191406,71.41984732824427,-94.7175572519084,-25.358778625954198,0.0
13.830000400543213,-8.049305981445311,0.0,-0.8044517578125,30.793893129770993,43.404580152671755,-12.213740458015268,-6.193799694824218,1.1228805786132812,5.533000036621093,47.49618320610687,-87.20610687022901,-21.587786259541986,0.0
13.840000629425049,-9.562441430664062,1.7477672119140624,0.1771709228515625,28.0,58.38167938931298,-21.954198473282442,-5.142745166015625,4.177881896972656,2.221819140625,34.93129770992366,-85.8473282442748,-29.419847328244273,0.0
13.850000619888306,-11.456254943847656,3.6200329101562496,0.3902548706054687,12.793893129770993,61.57251908396947,-26.564885496183205,-8.796296899414061,1.908178723144531,3.3446997192382812,14.091603053435115,-69.77099236641222,-20.702290076335878,0.0
13.860000610351562,-11.02529864501953,1.924938134765625,0.5051765502929687,4.885496183206107,64.38167938931298,-24.47328244274809,-6.48589229736328,4.548983154296875,1.6615759521484375,-3.1603053435114505,-69.09923664122137,-25.083969465648856,0.0
13.87000060081482,-10.295067138671874,1.618480322265625,1.4149731811523436,3.801526717557252,66.9618320610687,-24.015267175572518,-8.262389929199218,2.068590234375,1.9800047729492187,-26.3206106870229,-58.274809160305345,-20.519083969465647,0.0
13.880000591278076,-10.563217724609375,2.221819140625,1.8722656982421875,-0.32061068702290074,62.82442748091603,-24.580152671755727,-11.748347546386718,0.3447650390625,2.896984008789062,-26.12213740458015,-49.969465648854964,-17.16030534351145,0.0
13.890000581741333,-10.749965454101561,1.5586252807617187,1.618480322265625,0.4122137404580153,55.89312977099237,-22.778625954198475,-11.365275280761718,-1.2928688964843749,2.9927520751953125,-10.580152671755725,-55.70992366412214,-17.19083969465649,0.0
13.90000057220459,-12.150573425292968,2.032677209472656,2.7341782958984373,0.030534351145038167,49.06870229007634,-23.419847328244273,-11.884817041015625,-1.2976572998046874,2.710236279296875,15.267175572519085,-64.4885496183206,-19.267175572519083,0.0
13.910000562667847,-12.667720983886719,2.185906115722656,2.825157958984375,-2.366412213740458,36.0,-22.519083969465647,-8.602366564941406,2.1308394775390624,1.7549498168945312,12.122137404580153,-67.83206106870229,-24.65648854961832,0.0
13.920000314712524,-14.053963745117187,3.7995980346679685,3.766079211425781,-6.977099236641221,28.15267175572519,-19.6793893129771,-10.663774194335938,1.4987702392578124,2.829946362304687,-0.9618320610687023,-56.94656488549618,-22.412213740458014,0.0
13.930001020431519,-10.651803186035156,0.7254431030273437,1.599326708984375,-8.80916030534351,17.46564885496183,-14.366412213740459,-9.579200842285156,1.908178723144531,2.31758720703125,6.977099236641221,-57.66412213740458,-21.51145038167939,0.0
13.940000534057617,-10.967837805175781,2.760514514160156,1.2785036865234374,7.236641221374046,19.954198473282442,-12.778625954198473,-5.039794494628906,5.772420202636718,0.9409212524414062,-0.42748091603053434,-56.58015267175573,-21.6793893129771,0.0
13.950000762939453,-9.87608184814453,2.588131994628906,0.21068974609375,3.4656488549618323,20.610687022900763,-15.770992366412214,-7.029376074218749,3.1866824096679687,2.2361843505859373,-20.458015267175572,-37.66412213740458,-13.465648854961833,0.0
13.960000276565552,-10.735600244140624,4.070142822265625,0.9409212524414062,-11.725190839694656,19.786259541984734,-14.900763358778626,-10.014945544433592,0.7924807495117187,3.143586779785156,-23.14503816793893,-25.786259541984734,-5.4961832061068705,0.0
13.970000743865967,-11.693280908203125,3.5625720703124997,1.695094775390625,-22.580152671755727,17.129770992366414,-11.755725190839694,-6.277596752929687,2.480392919921875,1.0941501586914062,-20.045801526717558,-32.56488549618321,-9.48091603053435,0.0
13.980000257492065,-10.618284362792968,1.8004396484374998,1.467645617675781,-15.954198473282442,18.885496183206108,-7.7251908396946565,-8.832209924316405,-0.2657563842773437,3.337517114257812,-27.64885496183206,-11.893129770992367,-6.122137404580153,0.0
13.99000072479248,-9.931148486328125,0.8547299926757812,2.094926452636719,-21.053435114503817,16.061068702290076,-10.854961832061068,-7.445967163085937,-0.4740519287109375,2.0278888061523435,-18.65648854961832,-13.618320610687023,-7.603053435114504,0.0
14.000000476837158,-11.046846459960937,1.2665326782226562,3.1794998046874996,-19.435114503816795,12.16793893129771,-12.80916030534351,-6.53138212890625,0.16280571289062498,1.8363526733398436,-11.603053435114504,-10.13740458015267,-8.274809160305344,0.0
14.010000705718994,-11.269507214355468,1.2425906616210938,4.07971962890625,-10.702290076335878,7.358778625954199,-14.183206106870228,-7.589619262695312,-0.8547299926757812,1.9823989746093749,-5.816793893129771,-4.717557251908397,-7.755725190839694,0.0
14.020000696182251,-10.82179150390625,1.3838485595703125,5.204994409179688,-3.282442748091603,2.122137404580153,-15.221374045801527,-6.957550024414062,-0.7278373046875,1.9536685546875,0.549618320610687,-0.21374045801526717,-9.099236641221374,0.0
14.030000448226929,-10.886434948730468,1.2138602416992186,6.7277066650390625,4.534351145038168,-7.786259541984733,-16.549618320610687,-7.012616662597656,-1.218648645019531,1.89620771484375,4.885496183206107,4.534351145038168,-9.923664122137405,0.0
14.040000677108765,-12.00213292236328,2.147598889160156,8.80347950439453,7.32824427480916,-19.297709923664122,-18.076335877862597,-4.182670300292968,0.9864110839843749,-0.10773907470703124,3.2977099236641223,6.732824427480916,-14.793893129770993,0.0
14.050000667572021,-12.310984936523436,3.912125512695312,10.625466967773438,15.099236641221374,-29.984732824427482,-17.17557251908397,-3.0047230834960934,2.31758720703125,-1.0773907470703123,-14.931297709923664,22.65648854961832,-15.694656488549619,0.0
14.060000896453857,-14.47294903564453,6.718129858398437,13.383587280273437,0.366412213740458,-52.44274809160305,-11.618320610687023,-2.6503812377929687,1.5610194824218748,-1.177947216796875,-34.778625954198475,48.30534351145038,-11.083969465648854,0.0
14.070000648498535,-16.539145068359375,8.961496813964843,15.672444067382811,-15.526717557251908,-79.7557251908397,-2.4427480916030535,-2.7533319091796873,0.5458779785156249,-3.7038299682617186,-33.98473282442748,53.89312977099237,-7.969465648854962,0.0
14.080000638961792,-15.272612390136718,5.8083332275390624,15.729904907226562,-22.778625954198475,-113.80152671755725,11.19083969465649,-2.003946789550781,0.11731588134765625,-3.797203833007812,-33.11450381679389,82.12213740458016,-0.8091603053435115,0.0
14.090000629425049,-15.516820959472655,2.0470424194335934,17.84398497314453,-14.595419847328245,-140.99236641221373,20.564885496183205,-0.19153613281249998,1.3048399047851562,-6.818686328125,-22.213740458015266,89.80152671755725,3.954198473282443,0.0
14.100000858306885,-15.078682055664062,-1.5203180541992187,17.901445812988282,11.251908396946565,-175.46564885496184,24.610687022900763,2.4875755249023435,1.9895815795898437,-8.489839086914062,-11.679389312977099,103.32824427480917,10.13740458015267,0.0
14.110000371932983,-15.818490368652343,-1.8698714965820311,15.600618017578125,35.3587786259542,-205.72519083969465,27.14503816793893,0.3064578125,5.487510205078125,-4.163516687011718,-10.702290076335878,112.91603053435115,15.664122137404581,0.0
14.12000846862793,-14.372392565917968,-1.944091748046875,11.17852755126953,35.7557251908397,-238.73282442748092,23.00763358778626,-5.904101293945312,8.463502868652343,16.024391711425782,-82.09160305343511,121.80152671755725,16.549618320610687,0.0
14.130000829696655,-14.573505505371093,-4.153939880371094,8.736441857910156,38.82442748091603,-264.48854961832063,19.236641221374047,3.162740393066406,1.1061211669921875,-9.595960253906249,-129.9083969465649,116.25954198473282,10.183206106870228,0.0
14.140000343322754,-14.458583825683593,-1.0869675537109373,5.442020373535156,57.57251908396947,-275.48091603053433,21.755725190839694,-3.478775012207031,9.085995300292968,-11.190498559570312,-173.1908396946565,175.14503816793894,20.198473282442748,0.0
14.150000810623169,-11.458649145507811,-2.252943762207031,-0.12210428466796874,63.52671755725191,-267.9389312977099,40.29007633587786,-7.5153990112304685,13.666103076171874,-2.408566870117187,-236.3969465648855,177.23664122137404,23.709923664122137,0.0
14.160000562667847,-9.756371765136718,-8.188169677734374,-5.03740029296875,101.34351145038168,-248.77862595419847,50.76335877862596,-21.859061157226563,0.9576806640625,4.125209460449218,-326.62595419847327,206.51908396946564,24.12213740458015,0.0
14.170000553131104,-8.82981572265625,-9.969455712890625,-9.689334118652344,129.58778625954199,-233.05343511450383,53.48091603053435,-18.41380496826172,-4.024652990722656,-3.9504327392578125,-278.793893129771,146.10687022900763,18.091603053435115,0.0
14.18000054359436,-13.010091821289063,-3.21780703125,-7.6231380859375,134.76335877862596,-212.59541984732823,43.87786259541985,-20.412963354492188,-9.86411083984375,-0.3711012573242187,-295.19083969465646,149.58778625954199,32.19847328244275,0.0
14.190000534057617,-13.864821813964843,-1.5969325073242187,-4.984727856445312,127.72519083969466,-199.6030534351145,48.18320610687023,-15.464148522949218,-25.08405079345703,3.323151904296875,-141.96946564885496,107.90839694656489,41.69465648854962,0.0
14.200000524520874,-16.850391284179686,1.0223241088867188,1.1923124267578125,141.86259541984734,-173.29770992366412,50.732824427480914,-0.1388636962890625,-14.111424584960936,-5.200206005859375,27.34351145038168,21.69465648854962,40.0763358778626,0.0
14.21000075340271,-23.49430089111328,7.407659936523437,6.696582043457031,114.79389312977099,-174.12213740458014,47.87786259541985,-5.03740029296875,-7.829039428710937,-4.764461303710937,44.19847328244275,22.931297709923665,35.847328244274806,0.0
14.220000267028809,-22.673089721679688,11.058817468261719,7.252036828613281,70.04580152671755,-179.25190839694656,62.0763358778626,-6.969521032714844,-4.80755693359375,-5.973533142089844,71.57251908396947,29.984732824427482,19.068702290076335,0.0
14.230000734329224,-16.03636271972656,5.935225915527344,4.280832568359375,20.16793893129771,-189.98473282442748,69.3587786259542,-8.93755479736328,1.3383587280273437,-7.223306408691406,75.00763358778626,32.97709923664122,7.908396946564886,0.0
14.240000247955322,-11.851298217773437,0.21068974609375,4.7117888671875,-18.99236641221374,-183.6030534351145,60.97709923664122,-10.82179150390625,5.571307263183593,-5.257666845703125,25.557251908396946,54.79389312977099,10.106870229007633,0.0
14.250000476837158,-7.728482958984374,-6.289567761230469,2.829946362304687,-36.13740458015267,-182.9618320610687,46.396946564885496,-13.838485595703125,1.7597382202148437,0.086191259765625,31.0381679389313,67.86259541984732,21.083969465648856,0.0
14.260000705718994,-4.929661218261718,-9.052476477050782,0.9888052856445312,-19.404580152671755,-166.87022900763358,30.12213740458015,-13.898340637207031,1.5562310791015623,0.229843359375,58.61068702290076,66.44274809160305,33.11450381679389,0.0
14.270000696182251,-2.2744915771484373,-9.045293872070312,-0.22026655273437498,12.80916030534351,-150.5648854961832,20.244274809160306,-13.304578625488281,5.408501550292969,-1.5610194824218748,57.49618320610687,65.34351145038168,37.52671755725191,0.0
14.280000686645508,-4.264073156738281,-4.843469958496094,1.5275006591796874,33.20610687022901,-126.1526717557252,10.488549618320612,-10.398017810058594,6.268019946289062,-2.6431986328124997,32.42748091603053,69.86259541984732,40.19847328244275,0.0
14.290000677108765,-3.1124621582031247,-2.8802245971679685,1.350329736328125,55.32824427480916,-109.08396946564885,8.198473282442748,-11.499350573730467,0.30885201416015623,-1.5753846923828123,38.091603053435115,75.22137404580153,49.66412213740458,0.0
14.300000429153442,-6.021417175292968,1.8076222534179687,3.1316157714843746,48.412213740458014,-97.61832061068702,1.4961832061068703,-12.064382165527343,1.149216796875,-2.786850732421875,67.48091603053435,63.725190839694655,57.11450381679389,0.0
14.310000658035278,-3.2441432495117186,1.4173673828125,1.4604630126953124,45.786259541984734,-91.92366412213741,5.358778625954199,-12.80658468017578,-2.4779987182617185,-1.0845733520507812,79.29770992366412,64.54961832061069,66.83969465648855,0.0
14.320000886917114,-3.5817256835937497,4.450820886230469,2.6575638427734374,34.80916030534351,-73.41984732824427,4.534351145038168,-10.058041174316406,0.9193734375,-3.5386300537109374,85.1145038167939,60.68702290076336,64.97709923664122,0.0
14.330000638961792,0.258573779296875,2.3487118286132813,0.26336218261718747,38.25954198473283,-64.33587786259542,15.145038167938932,-14.765041638183593,-1.197100830078125,0.22026655273437498,85.23664122137404,65.49618320610686,66.8854961832061,0.0
14.340000867843628,-0.9361328491210937,5.829881042480468,1.35990654296875,39.69465648854962,-41.038167938931295,19.358778625954198,-12.72997022705078,-1.2114660400390624,-1.5682020874023437,73.66412213740458,63.69465648854962,62.534351145038165,0.0
14.350000381469727,-0.21068974609375,8.228871105957031,1.426944189453125,31.282442748091604,-33.86259541984733,25.49618320610687,-15.473725329589843,-2.940079638671875,2.1811177124023438,81.89312977099236,66.68702290076335,63.06870229007634,0.0
14.360000848770142,-0.5889736083984375,9.718064538574218,2.5450363647460934,15.221374045801527,-22.47328244274809,35.038167938931295,-12.42351241455078,-1.3311761230468748,1.5466542724609373,67.95419847328245,61.3587786259542,59.31297709923664,0.0
14.37000036239624,-0.9840168823242187,10.479420666503906,3.361459130859375,-2.015267175572519,-11.572519083969466,44.97709923664122,-9.629479077148437,0.6871358764648438,0.7565677246093749,64.99236641221374,55.49618320610687,54.47328244274809,0.0
14.380000352859497,0.6177040283203125,7.613561279296874,1.6017209106445311,-32.79389312977099,-4.229007633587786,57.57251908396947,-9.018957653808593,1.3383587280273437,0.55545478515625,40.94656488549618,60.152671755725194,52.732824427480914,0.0
14.390000581741333,0.028730419921875,6.402095239257812,1.0199299072265624,-49.038167938931295,14.0,60.48854961832061,-12.344503759765624,-2.6719290527343746,3.4739866088867184,41.00763358778626,58.12213740458015,54.18320610687023,0.0
14.40000057220459,-1.458068811035156,7.201758593749999,-2.6599580444335937,-86.1526717557252,22.106870229007633,54.97709923664122,-10.826579907226561,-0.2154781494140625,1.8076222534179687,44.030534351145036,38.534351145038165,49.51145038167939,0.0
14.410000562667847,1.2713210815429687,-0.5051765502929687,-6.1459156616210935,-105.25190839694656,46.152671755725194,57.3587786259542,-18.32761370849609,-2.6192566162109374,7.098807922363281,16.106870229007633,50.54961832061068,53.38931297709924,0.0
14.420000553131104,4.067748620605468,-8.67658681640625,-8.422801440429687,-101.89312977099236,74.58015267175573,50.94656488549618,-14.211981054687499,-2.3582886352539063,6.672640026855468,38.778625954198475,18.0,49.19083969465649,0.0
14.43000054359436,-8.2743609375,-16.89827531738281,24.629152478027343,-67.93893129770993,83.78625954198473,34.42748091603053,-18.885462695312498,-5.209782812499999,7.812280017089844,40.3206106870229,11.32824427480916,51.770992366412216,0.0
14.440000295639038,-4.446032482910156,-15.579070202636718,14.164097021484373,93.77099236641222,80.58015267175573,31.17557251908397,-14.276624499511717,2.061407629394531,5.05655390625,43.908396946564885,-16.916030534351144,39.51145038167939,0.0
14.450000762939453,-10.091559997558592,7.64229169921875,-2.7078420776367187,57.05343511450382,88.13740458015268,11.633587786259541,-17.36514464111328,-3.1411925781249996,9.315838659667968,25.923664122137403,-20.259541984732824,38.900763358778626,0.0
14.46000051498413,-12.48097325439453,3.7301661865234372,-3.5960908935546874,52.274809160305345,97.06870229007633,16.519083969465647,-13.259088793945311,-1.6208745239257811,4.429273071289062,32.916030534351144,-47.19083969465649,33.7557251908397,0.0
14.470000743865967,-12.004527124023436,-4.7884033203125,6.691793640136718,60.13740458015267,94.68702290076335,12.15267175572519,-12.792219470214842,-0.45010991210937495,1.2952630981445312,24.763358778625953,-58.51908396946565,24.564885496183205,0.0
14.480000257492065,-13.905523242187499,1.93451494140625,9.07163009033203,76.18320610687023,105.00763358778626,-1.6030534351145038,-14.908693737792968,-1.1755530151367186,3.1771056030273437,25.801526717557252,-55.66412213740458,22.290076335877863,0.0
14.490000486373901,1.6639701538085936,-13.299790222167967,-2.422932080078125,97.23664122137404,99.70992366412214,2.198473282442748,-13.24711778564453,-2.5761609863281247,4.6830584472656245,35.32824427480916,-43.038167938931295,22.564885496183205,0.0
14.500000476837158,-3.1387983764648437,-11.039663854980468,-3.6343981201171873,154.73282442748092,150.793893129771,-25.64885496183206,-10.328585961914062,0.70868369140625,-0.00239420166015625,40.70229007633588,-52.06106870229008,13.450381679389313,0.0
14.510000944137573,-14.085088366699217,5.6766521362304685,0.8690952026367187,140.99236641221373,148.54961832061068,-53.80152671755725,-10.919953771972656,5.772420202636718,-0.9624690673828125,33.969465648854964,-40.85496183206107,9.19083969465649,0.0
14.520000696182251,-11.731588134765625,7.364564306640625,3.6391865234374996,97.34351145038168,128.3969465648855,-46.01526717557252,-13.357251062011718,4.359841223144531,0.21787235107421873,-1.1297709923664123,-32.56488549618321,14.900763358778626,0.0
14.530000686645508,-1.429338391113281,-6.469132885742187,-1.465251416015625,100.25954198473282,117.31297709923665,-30.35114503816794,-14.698003991699219,1.3670891479492187,0.1484405029296875,-6.015267175572519,-38.0,14.396946564885496,0.0
14.540000438690186,-8.034940771484374,-4.019864587402344,-1.0342951171875,159.6793893129771,147.3740458015267,-44.030534351145036,-13.287819213867186,-1.879448303222656,0.09816226806640624,-3.5572519083969465,-48.16793893129771,2.7938931297709924,0.0
14.550000429153442,2.070984436035156,-9.74200655517578,-4.774038110351563,189.45038167938932,139.89312977099237,-40.961832061068705,-10.575188732910156,-0.3687070556640625,-1.8219874633789062,7.236641221374046,-57.86259541984733,-15.404580152671755,0.0
14.560000896453857,-12.27028350830078,7.601590270996093,-1.3646949462890625,258.3358778625954,182.77862595419847,-55.41984732824427,-10.467449658203124,-2.7174188842773437,-0.1580173095703125,0.6412213740458015,-57.038167938931295,-24.916030534351144,0.0
14.570000648498535,-12.138602416992187,18.957288745117186,-0.44532150878906246,168.93129770992365,155.54198473282443,-61.847328244274806,-9.368511096191405,-2.461239306640625,0.7493851196289062,20.198473282442748,-58.47328244274809,-34.70229007633588,0.0
14.580000877380371,-18.576610681152342,23.075315600585935,1.9943699829101562,64.45801526717557,128.13740458015266,-57.221374045801525,-12.208034265136718,2.0542250244140625,-1.0462661254882812,19.221374045801525,-71.69465648854961,-39.98473282442748,0.0
14.59000039100647,-15.308525415039062,18.241422448730468,0.7900865478515624,-47.43511450381679,94.13740458015268,-55.267175572519086,-11.56159981689453,2.9735984619140625,-2.1643583007812497,-3.7557251908396947,-69.08396946564885,-47.099236641221374,0.0
14.600000858306885,-13.543998791503906,8.391676818847655,0.7709329345703124,-114.50381679389314,72.12213740458016,-48.99236641221374,-12.81376728515625,2.8945898071289062,-3.4093431640625,-5.8320610687022905,-65.38931297709924,-48.54961832061068,0.0
14.610000371932983,-10.405200415039062,-1.438915197753906,-1.5155296508789062,-109.46564885496183,72.51908396946565,-38.732824427480914,-14.214375256347655,0.5219359619140624,-2.5713725830078125,8.305343511450381,-63.099236641221374,-45.74045801526717,0.0
14.62000036239624,-9.014169250488282,-3.172317199707031,0.7781155395507812,-46.56488549618321,97.55725190839695,-37.38931297709924,-14.992490795898437,0.8044517578125,-0.9744400756835937,33.31297709923664,-66.90076335877863,-46.152671755725194,0.0
14.630000591278076,-9.392453112792968,2.176329309082031,1.7860744384765623,-34.87022900763359,103.95419847328245,-41.908396946564885,-12.243947290039062,5.3390697021484375,-0.7278373046875,35.099236641221374,-68.58015267175573,-49.45038167938932,0.0
14.640000581741333,-8.157045056152343,-2.645592834472656,0.239420166015625,-36.045801526717554,101.83206106870229,-43.02290076335878,-10.374075793457031,6.880935571289062,-1.0007762939453124,42.732824427480914,-71.17557251908397,-46.25954198473283,0.0
14.65000057220459,-8.80347950439453,-3.2417490478515623,2.0063409912109376,-18.48854961832061,107.66412213740458,-47.11450381679389,-8.001421948242188,11.200075366210937,-2.5139117431640625,12.564885496183207,-72.36641221374046,-40.16793893129771,0.0
14.660000324249268,-15.535974572753906,5.963956335449218,6.545747338867187,-23.450381679389313,112.1526717557252,-61.48091603053435,-8.276755139160155,7.730877160644531,0.06464344482421874,-6.687022900763359,-56.213740458015266,-28.702290076335878,0.0
14.670000553131104,-15.128960290527344,9.107543115234375,6.3973068359375,-98.2442748091603,77.77099236641222,-67.77099236641222,-8.240842114257813,6.806715319824218,-0.7493851196289062,-11.694656488549619,-62.916030534351144,-26.83969465648855,0.0
14.68000054359436,-9.64623848876953,-2.583343591308594,1.5873557006835937,-121.23664122137404,56.6412213740458,-61.37404580152672,-7.673416320800781,7.211335400390625,-0.5913678100585937,-50.30534351145038,-58.82442748091603,-23.435114503816795,0.0
14.690000534057617,-14.367604162597656,3.1411925781249996,6.375759020996093,-100.22900763358778,52.67175572519084,-63.587786259541986,-11.197681164550781,1.0438719238281249,1.37906015625,-49.55725190839695,-52.01526717557252,-19.72519083969466,0.0
14.700000286102295,-8.621520178222656,-1.4053963745117186,-0.00239420166015625,-93.72519083969466,46.0,-57.20610687022901,-9.342174877929686,2.2457611572265623,0.4572925170898437,-33.7557251908397,-64.7175572519084,-19.129770992366414,0.0
14.71000051498413,-11.915941662597655,0.8259995727539062,1.2330138549804688,-60.70229007633588,61.05343511450382,-54.62595419847328,-8.999804040527343,2.896984008789062,-0.32561142578124996,-22.15267175572519,-72.83969465648855,-18.47328244274809,0.0
14.720000505447388,-9.923965881347655,1.4101847778320311,1.37906015625,-40.85496183206107,72.06106870229007,-51.6793893129771,-9.562441430664062,1.9895815795898437,0.5865794067382812,-8.992366412213741,-77.1145038167939,-15.297709923664122,0.0
14.730000495910645,-10.338162768554687,4.070142822265625,0.6967126831054687,-47.282442748091604,66.80916030534351,-48.87022900763359,-10.773907470703124,0.12449848632812499,2.1021090576171875,-5.755725190839694,-75.78625954198473,-10.412213740458014,0.0
14.740000247955322,-9.9981861328125,4.73094248046875,0.8403647827148437,-53.725190839694655,68.3206106870229,-43.87786259541985,-8.482656481933594,0.5434837768554687,1.4508862060546874,-5.465648854961832,-78.30534351145039,-9.17557251908397,0.0
14.750000476837158,-7.826645227050781,0.8643067993164062,-0.41419688720703124,-51.69465648854962,73.34351145038168,-38.13740458015267,-4.987122058105468,2.1595698974609374,-0.7685387329101562,-19.893129770992367,-82.35114503816794,-13.19083969465649,0.0
14.760000705718994,-13.80257257080078,10.070012182617187,4.491522314453125,-79.87786259541984,65.95419847328245,-44.229007633587784,-6.442796667480469,0.6655880615234374,-0.9313444458007812,-24.35114503816794,-76.67175572519083,-10.381679389312977,0.0
14.770000696182251,-12.466608044433594,8.042123376464843,3.6080619018554687,-132.06106870229007,40.961832061068705,-37.69465648854962,-8.95670841064453,-0.6153098266601562,0.15322890625,-17.64885496183206,-77.22137404580153,-8.885496183206106,0.0
14.780000686645508,-8.779537487792968,-0.6512228515624999,0.9528922607421875,-120.73282442748092,41.12977099236641,-22.30534351145038,-10.307038146972655,-1.0534487304687499,0.9696516723632812,-26.48854961832061,-75.8473282442748,-10.15267175572519,0.0
14.790000677108765,-7.273584643554687,-6.584054565429687,-0.26336218261718747,-84.90076335877863,51.70992366412214,-21.114503816793892,-9.643844287109374,-0.26815058593749996,1.1228805786132812,-23.709923664122137,-70.33587786259542,-16.3206106870229,0.0
