timestamp,Thigh_L_Acc_X,Thigh_L_Acc_Y,Thigh_L_Acc_Z,Thigh_L_Gyr_X,Thigh_L_Gyr_Y,Thigh_L_Gyr_Z,Thigh_R_Acc_X,Thigh_R_Acc_Y,Thigh_R_Acc_Z,Thigh_R_Gyr_X,Thigh_R_Gyr_Y,Thigh_R_Gyr_Z,gpio_output
10.000000238418579,-15.255852978515625,-3.3542765258789062,17.496825732421875,-14.977099236641221,51.64885496183206,34.13740458015267,-17.274164978027343,-0.612915625,1.1180921752929687,-59.29770992366412,5.862595419847328,20.641221374045802,0.0
10.010000467300415,-17.10417666015625,3.9887399658203124,6.461950280761719,-14.748091603053435,32.6412213740458,29.923664122137403,-17.841590771484373,-0.13407529296874998,1.6543933471679686,-70.83969465648855,-7.419847328244275,18.83969465648855,1.0
10.020000696182251,-17.9660892578125,2.7054478759765623,5.1714755859374995,11.17557251908397,34.900763358778626,42.900763358778626,-15.595829614257811,1.9752163696289062,1.254561669921875,-72.90076335877863,-15.877862595419847,12.076335877862595,1.0
10.030000686645508,-12.550405102539061,0.5195417602539062,-2.7844565307617186,0.9007633587786259,38.74809160305343,45.770992366412216,-12.988544006347656,3.0621839233398433,0.9935936889648437,-74.18320610687023,-23.419847328244273,7.633587786259542,1.0
10.040000677108765,-10.211270080566406,-1.7022773803710936,-2.288856787109375,-15.83206106870229,38.85496183206107,32.0,-12.701239807128905,5.061342309570312,0.181959326171875,-86.3969465648855,-28.30534351145038,9.954198473282442,1.0
10.050000667572021,-5.971138940429687,-5.173869787597656,-6.244077929687499,-13.282442748091603,41.587786259541986,23.49618320610687,-13.979743493652343,1.5729904907226562,-0.20350714111328125,-82.99236641221374,-36.70229007633588,17.34351145038168,1.0
10.060000658035278,-8.044517578125,-8.010998754882811,-3.859453076171875,13.007633587786259,66.90076335877863,7.587786259541985,-14.121001391601562,-1.37906015625,-0.37828386230468747,-60.961832061068705,-54.045801526717554,20.244274809160306,1.0
10.070000886917114,-7.580042456054687,-6.205770703124999,-4.129997863769531,29.282442748091604,75.57251908396947,-10.198473282442748,-13.7906015625,-1.9393033447265624,-1.254561669921875,-41.465648854961835,-69.83206106870229,12.061068702290076,1.0
10.080000400543213,-10.01015714111328,-1.7693150268554687,-3.6152445068359373,42.44274809160305,93.23664122137404,-24.641221374045802,-12.12423720703125,-1.7525556152343749,-1.1827356201171875,-37.31297709923664,-77.87786259541984,-4.1679389312977095,1.0
10.090000629425049,-9.787496386718749,0.9097966308593749,-2.896984008789062,26.641221374045802,94.85496183206106,-37.80152671755725,-11.2240173828125,-1.9728221679687499,-0.5889736083984375,-27.557251908396946,-76.54961832061069,-21.709923664122137,1.0
10.100000619888306,-12.191274853515624,3.265691064453125,-2.3870190551757813,7.343511450381679,97.1145038167939,-43.603053435114504,-10.89840595703125,-2.360682836914062,-1.0702081420898437,-3.83206106870229,-79.32824427480917,-32.030534351145036,1.0
10.110000610351562,-10.55364091796875,-0.32082302246093747,-3.23696064453125,-4.854961832061068,95.26717557251908,-43.49618320610687,-9.495403784179686,3.0909143432617188,-4.9823336547851556,4.244274809160306,-83.20610687022901,-40.717557251908396,1.0
10.12000060081482,-11.384428894042967,-0.70868369140625,-2.839523168945312,4.687022900763359,104.6412213740458,-43.847328244274806,-8.86812294921875,4.410119458007812,-6.8569935546875,-14.106870229007633,-65.16030534351145,-39.61832061068702,1.0
10.130000591278076,-11.269507214355468,-0.4333505004882812,-2.0087351928710935,7.267175572519084,106.79389312977099,-45.06870229007634,-9.267954626464844,6.5960255737304685,-5.753266589355468,7.862595419847328,-57.267175572519086,-34.030534351145036,1.0
10.140000343322754,-11.066000073242186,1.0462661254882812,-1.924938134765625,15.282442748091603,104.93129770992367,-40.717557251908396,-9.81862100830078,5.781997009277344,-5.494692810058593,-14.15267175572519,-51.14503816793893,-24.198473282442748,1.0
10.15000057220459,-11.346121667480467,3.0885201416015624,0.8714894042968749,2.8702290076335877,102.70229007633588,-38.68702290076336,-10.443507641601562,4.826710546875,-4.122815258789062,-17.72519083969466,-37.19083969465649,-14.229007633587786,1.0
10.160000324249268,-11.264718811035156,2.935291235351562,2.3822306518554686,-10.091603053435115,96.07633587786259,-34.79389312977099,-9.09796630859375,4.517858532714843,-3.4524387939453125,-16.03053435114504,-32.961832061068705,-8.381679389312977,1.0
10.170000553131104,-11.183315954589844,2.408566870117187,2.6982652709960937,-21.6793893129771,87.66412213740458,-32.3206106870229,-9.686939916992188,2.8945898071289062,-2.8323405639648436,-8.778625954198473,-30.0,-6.305343511450381,1.0
10.18000054359436,-10.129867224121092,0.0526724365234375,1.838746875,-24.38167938931298,81.45038167938931,-30.85496183206107,-8.300697155761718,3.1268273681640624,-1.7549498168945312,-4.366412213740458,-25.72519083969466,-6.732824427480916,1.0
10.190000534057617,-12.133814013671874,3.1172505615234374,4.65432802734375,-26.50381679389313,78.83969465648855,-35.7557251908397,-7.319074475097656,2.5713725830078125,-1.6160861206054686,-10.396946564885496,-25.251908396946565,-10.335877862595419,1.0
10.200000762939453,-10.747571252441405,4.060566015625,4.647145422363281,-54.01526717557252,58.534351145038165,-36.396946564885496,-7.764395983886718,4.180276098632812,-2.942473840332031,-16.702290076335878,-25.404580152671755,-14.564885496183207,1.0
10.21000051498413,-9.777919580078125,1.4772224243164063,4.180276098632812,-50.717557251908396,57.786259541984734,-30.259541984732824,-9.512163195800781,1.9033903198242186,-2.1021090576171875,-23.572519083969464,-23.022900763358777,-13.34351145038168,0.0
10.220000743865967,-8.449137658691406,-0.39264907226562495,2.319981408691406,-35.6793893129771,60.412213740458014,-28.396946564885496,-9.478644372558593,-0.689530078125,-1.2904746948242187,-4.1679389312977095,-33.45038167938932,-13.679389312977099,0.0
10.230000495910645,-8.482656481933594,0.5602431884765625,1.4867992309570313,-14.213740458015268,65.72519083969466,-30.0,-9.284714038085937,-0.04548983154296875,-0.4165910888671875,10.549618320610687,-42.274809160305345,-16.82442748091603,0.0
10.240000486373901,-9.686939916992188,2.9281086303710935,1.3742717529296875,-11.679389312977099,67.49618320610686,-32.42748091603053,-8.444349255371094,0.201112939453125,0.2059013427734375,7.816793893129771,-46.35114503816794,-19.068702290076335,0.0
10.250000476837158,-8.499415893554687,3.5027170288085934,0.5530605834960938,-15.007633587786259,65.37404580152672,-27.51145038167939,-8.204929089355469,0.9600748657226562,0.32082302246093747,15.572519083969466,-55.17557251908397,-19.786259541984734,0.0
10.260000944137573,-13.747505932617187,8.741230261230468,3.7612908081054686,-31.450381679389313,67.69465648854961,-27.16030534351145,-8.078036401367187,2.0829554443359375,1.0007762939453124,3.954198473282443,-56.83969465648855,-19.83206106870229,0.0
10.270000696182251,-12.677297790527343,7.524975817871093,2.959233251953125,-71.86259541984732,51.64885496183206,-18.625954198473284,-8.719682446289061,0.48123453369140623,1.7525556152343749,4.656488549618321,-58.916030534351144,-16.85496183206107,0.0
10.280000686645508,-9.265560424804686,1.4700398193359374,1.0606313354492187,-68.29007633587786,50.732824427480914,-5.679389312977099,-8.552088330078124,2.1356278808593747,0.699106884765625,1.2213740458015268,-70.0,-19.64885496183206,0.0
10.290000677108765,-14.62617794189453,6.167463476562499,4.836287353515624,-72.67175572519083,53.404580152671755,-9.877862595419847,-10.371681591796875,-0.8786720092773437,2.4851813232421875,0.4122137404580153,-63.98473282442748,-19.19083969465649,0.0
10.300000667572021,-12.12423720703125,2.844311572265625,1.70467158203125,-105.45038167938931,28.50381679389313,-8.396946564885496,-10.615890161132812,0.2657563842773437,0.6081272216796875,17.00763358778626,-80.56488549618321,-23.862595419847327,0.0
10.310000896453857,-10.965443603515624,-1.0893617553710937,0.51714755859375,-76.73282442748092,33.25190839694657,-0.732824427480916,-10.615890161132812,-0.03591302490234375,1.3742717529296875,8.50381679389313,-78.54961832061069,-26.15267175572519,0.0
10.320000410079956,-9.560047229003906,-1.438915197753906,1.0103531005859374,-64.42748091603053,33.343511450381676,-6.67175572519084,-9.974244116210937,0.8595183959960937,0.20350714111328125,19.251908396946565,-87.26717557251908,-32.656488549618324,0.0
10.330000638961792,-12.497732666015624,2.1212626708984375,1.6208745239257811,-65.78625954198473,27.206106870229007,-12.305343511450381,-11.920730065917969,-1.7022773803710936,2.319981408691406,23.404580152671755,-80.42748091603053,-29.786259541984734,0.0
10.340000629425049,-10.613495959472656,1.3024457031249999,0.5889736083984375,-53.02290076335878,27.129770992366414,-9.129770992366412,-8.449137658691406,0.8475473876953125,0.565031591796875,23.52671755725191,-89.17557251908397,-37.48091603053435,0.0
10.350000858306885,-11.528080993652344,3.2249896362304686,1.39821376953125,-49.3587786259542,25.282442748091604,-4.625954198473282,-12.050016955566406,0.5291185668945312,1.407790576171875,32.35114503816794,-86.0,-32.80916030534351,0.0
10.360000610351562,-9.655815295410155,1.8339584716796873,0.6248866333007812,-42.091603053435115,24.702290076335878,-0.061068702290076333,-9.150638745117186,1.6160861206054686,0.8595183959960937,22.885496183206108,-83.89312977099236,-31.61832061068702,0.0
10.37000036239624,-9.4618849609375,1.4006079711914061,0.9026140258789062,-38.10687022900763,24.870229007633586,3.3587786259541983,-9.993397729492187,1.9009961181640624,0.43574470214843747,30.748091603053435,-85.14503816793894,-32.030534351145036,0.0
10.380000591278076,-8.8872765625,0.17238251953125,0.45489831542968745,-30.748091603053435,25.6793893129771,4.290076335877862,-8.91840118408203,1.1468225952148436,0.5746083984375,23.14503816793893,-77.48091603053435,-26.702290076335878,0.0
10.390000343322754,-8.20971749267578,-1.1372457885742187,0.3399766357421875,-24.519083969465647,25.297709923664122,2.946564885496183,-8.722076647949219,1.5849614990234373,-0.0526724365234375,31.267175572519083,-80.04580152671755,-29.31297709923664,0.0
10.40000057220459,-7.920019091796875,-3.009511486816406,-0.09576806640624999,-8.51908396946565,26.366412213740457,0.2595419847328244,-8.793902697753905,1.0654197387695312,0.36631285400390623,26.229007633587788,-70.21374045801527,-22.702290076335878,0.0
10.410000562667847,-8.619125976562499,-1.8602946899414061,0.143652099609375,5.740458015267175,27.358778625954198,-5.236641221374046,-9.701305126953125,-0.01915361328125,0.41898529052734373,37.847328244274806,-69.2824427480916,-22.99236641221374,0.0
10.420000553131104,-9.540893615722656,-0.30885201416015623,0.43574470214843747,4.595419847328245,24.793893129770993,-11.312977099236642,-6.572083557128906,1.4101847778320311,-0.18914193115234373,33.9236641221374,-66.18320610687023,-22.412213740458014,0.0
10.43000054359436,-10.299855541992187,0.36391865234375,0.229843359375,9.572519083969466,23.801526717557252,-10.580152671755725,-9.543287817382812,0.8092401611328125,-0.15083470458984374,39.11450381679389,-60.56488549618321,-19.129770992366414,0.0
10.440000534057617,-9.926360083007811,-0.239420166015625,0.2346317626953125,16.85496183206107,23.923664122137403,-9.98473282442748,-8.317456567382813,2.013523596191406,-0.4572925170898437,42.80916030534351,-60.732824427480914,-20.519083969465647,0.0
10.450000524520874,-9.449913952636718,-1.2473790649414063,0.0526724365234375,26.564885496183205,25.84732824427481,-10.244274809160306,-7.841010437011718,2.1260510742187497,0.44053310546874996,35.55725190839695,-52.76335877862596,-17.114503816793892,0.0
10.46000051498413,-9.746794958496093,-0.40462008056640625,0.07900865478515624,39.14503816793893,34.88549618320611,-14.061068702290076,-9.0788126953125,1.6400281372070311,0.6392518432617187,39.14503816793893,-50.18320610687023,-15.969465648854962,0.0
10.470000505447388,-11.214440576171874,2.109291662597656,0.5770026000976562,35.404580152671755,36.54961832061068,-20.229007633587788,-6.694187841796874,3.289633081054687,-0.0143652099609375,28.48854961832061,-48.900763358778626,-18.213740458015266,0.0
10.480000734329224,-9.658209497070311,3.6487633300781246,-0.29927520751953124,25.389312977099237,32.56488549618321,-20.80916030534351,-9.198522778320312,2.5737667846679684,1.6927005737304686,11.267175572519085,-33.57251908396947,-13.618320610687023,0.0
10.490000247955322,-10.386046801757812,5.662286926269531,1.3120225097656248,9.374045801526718,36.18320610687023,-18.27480916030534,-9.720458740234374,2.3343466186523436,1.7764976318359373,5.114503816793893,-29.480916030534353,-11.267175572519085,0.0
10.500000476837158,-11.221623181152344,5.05655390625,1.8531120849609375,-9.923664122137405,35.70992366412214,-14.396946564885496,-10.87206973876953,0.9816226806640624,2.262520568847656,12.030534351145038,-26.580152671755727,-10.0,0.0
10.510000705718994,-10.670956799316405,3.0550013183593747,1.4700398193359374,-10.67175572519084,34.18320610687023,-10.992366412213741,-8.257601525878906,1.8459294799804686,0.5243301635742187,13.083969465648854,-30.458015267175572,-13.19083969465649,0.0
10.520000457763672,-8.815450512695312,2.032677209472656,1.465251416015625,-7.6183206106870225,32.93129770992366,-9.450381679389313,-8.104372619628906,2.020706201171875,1.5107412475585937,-3.5114503816793894,-15.526717557251908,-10.045801526717558,0.0
10.530000686645508,-10.66856259765625,2.3247698120117186,1.7310078002929687,-13.007633587786259,30.290076335877863,-10.977099236641221,-7.726088757324218,1.599326708984375,0.0718260498046875,-3.5114503816793894,-15.17557251908397,-9.068702290076336,0.0
10.540000438690186,-9.526528405761718,1.7381904052734374,1.898601916503906,-6.061068702290076,29.61832061068702,-10.412213740458014,-8.947131604003905,0.24660277099609373,0.9409212524414062,0.5038167938931297,-5.923664122137405,-7.312977099236641,0.0
10.550000667572021,-9.399635717773437,0.9696516723632812,2.43250888671875,6.717557251908397,25.84732824427481,-10.030534351145038,-8.968679418945312,-0.2705447875976562,1.3192051147460937,6.259541984732825,-2.198473282442748,-9.068702290076336,0.0
10.560000658035278,-9.909600671386718,3.0454245117187497,3.2800562744140622,12.01526717557252,22.564885496183205,-12.381679389312977,-8.185775476074218,0.0430956298828125,1.39821376953125,11.557251908396946,-0.12213740458015267,-10.931297709923664,0.0
10.570000886917114,-11.420341918945311,4.264073156738281,3.9695863525390624,0.3053435114503817,9.206106870229007,-11.022900763358779,-7.805097412109374,0.967257470703125,0.7948749511718749,14.473282442748092,2.427480916030534,-11.358778625954198,0.0
10.580000638961792,-10.812214697265624,2.6312276245117188,3.5506010620117183,11.786259541984732,0.44274809160305345,-4.183206106870229,-8.358157995605469,0.6751648681640625,1.7190367919921874,5.511450381679389,14.366412213740459,-7.709923664122138,0.0
10.590000867843628,-10.97502041015625,3.7038299682617186,5.161898779296875,16.82442748091603,-3.099236641221374,-2.381679389312977,-6.124367846679687,1.656787548828125,-0.3902548706054687,11.679389312977099,9.145038167938932,-11.877862595419847,0.0
10.600000619888306,-10.180145458984374,2.4492682983398435,5.080495922851562,14.80916030534351,-16.106870229007633,-2.015267175572519,-6.797138513183594,1.1468225952148436,-0.6009446166992187,6.427480916030534,20.916030534351144,-7.938931297709924,0.0
10.610000610351562,-11.441889733886718,3.1699229980468746,5.702988354492187,21.49618320610687,-23.31297709923664,-0.3969465648854962,-6.603208178710937,1.8435352783203125,-1.0462661254882812,7.099236641221374,26.732824427480917,-7.190839694656488,0.0
10.62000060081482,-10.579977136230468,2.8131869506835936,6.119579443359375,20.625954198473284,-37.969465648854964,2.030534351145038,-5.942408520507812,2.5522189697265625,-1.8052280517578123,-0.5190839694656488,39.64885496183206,-4.977099236641221,0.0
10.630000591278076,-10.864887133789061,2.8945898071289062,6.72291826171875,18.229007633587788,-48.99236641221374,4.534351145038168,-5.090072729492187,3.4835634155273434,-2.4253262817382812,-14.15267175572519,55.038167938931295,-2.381679389312977,0.0
10.640000581741333,-11.326968054199218,2.1715409057617188,6.998251452636718,18.748091603053435,-60.412213740458014,8.427480916030534,-7.5153990112304685,0.7900865478515624,-1.3000515014648437,-12.793893129770993,67.69465648854961,5.908396946564886,0.0
10.650038719177246,-11.710040319824218,0.8403647827148437,7.886500268554687,28.519083969465647,-73.00763358778626,11.32824427480916,-4.908113403320312,1.5011644409179687,-2.9855694702148434,-5.404580152671755,71.02290076335878,6.0,0.0
10.660000562667847,-12.061987963867187,0.02154781494140625,8.690952026367187,42.458015267175576,-85.78625954198473,12.381679389312977,-7.510610607910156,-0.9648632690429687,-3.0645781249999997,4.656488549618321,81.74045801526718,12.992366412213741,0.0
10.670000791549683,-12.612654345703124,-1.4125789794921875,10.28549033203125,55.41984732824427,-101.8473282442748,10.335877862595419,-6.449979272460937,0.258573779296875,-3.81156904296875,18.106870229007633,78.83969465648855,8.977099236641221,0.0
10.68000054359436,-14.693215588378905,-0.852335791015625,13.43865391845703,75.5114503816794,-116.6412213740458,8.412213740458014,-10.084377392578125,-0.679953271484375,1.7645266235351562,19.740458015267176,85.48091603053435,9.709923664122137,0.0
10.690000295639038,-15.849614990234373,0.6727706665039062,16.270994482421873,82.77862595419847,-145.74045801526717,3.053435114503817,-14.132972399902343,-1.8004396484374998,9.854534033203125,7.969465648854962,74.44274809160305,-6.564885496183206,0.0
10.700000762939453,-17.994819677734373,4.328716601562499,13.797784167480469,80.85496183206106,-175.5114503816794,1.618320610687023,-15.310919616699218,-9.267954626464844,8.769960681152343,-6.351145038167939,66.0,-16.015267175572518,0.0
10.71000051498413,-19.85511436767578,6.057330200195312,12.7563064453125,48.778625954198475,-209.0381679389313,-0.030534351145038167,-14.705186596679686,-5.027823486328125,2.051830822753906,57.267175572519086,39.908396946564885,-14.549618320610687,0.0
10.720000505447388,-21.38740343017578,5.4515971801757805,13.812149377441406,41.7557251908397,-238.0,14.931297709923664,-15.67962667236328,4.046200805664062,1.3575123413085937,84.65648854961832,34.93129770992366,-18.519083969465647,0.0
10.730000495910645,-19.381062438964843,2.7269956909179687,10.218452685546874,49.29770992366412,-255.6946564885496,37.3587786259542,-13.702016101074218,6.1650692749023435,1.1420341918945311,54.12213740458015,33.80152671755725,-22.244274809160306,0.0
10.74000072479248,-16.26620607910156,-1.6160861206054686,4.0222587890625,40.412213740458014,-264.1679389312977,45.099236641221374,-12.15536182861328,1.1540052001953125,1.7118541870117185,37.31297709923664,37.45038167938932,-12.870229007633588,0.0
10.750000476837158,-12.97896719970703,-6.373364819335937,2.142810485839844,41.63358778625954,-265.32824427480915,45.17557251908397,-9.830592016601562,2.0973206542968748,1.3838485595703125,14.885496183206106,33.49618320610687,-4.9465648854961835,0.0
10.760000705718994,-13.455413330078125,-7.594407666015624,-5.9591679321289055,53.541984732824424,-251.12977099236642,41.7557251908397,-7.072471704101562,1.7405846069335937,1.1563994018554686,-1.3893129770992367,35.20610687022901,1.4198473282442747,0.0
10.770000457763672,-8.712499841308594,-8.413224633789062,-11.291055029296874,65.77099236641222,-232.0,33.725190839694655,-5.42047255859375,2.0470424194335934,-2.3032219970703123,-22.671755725190838,39.603053435114504,0.24427480916030533,0.0
10.780000686645508,-5.609614489746093,-5.8610056640625,-11.59990704345703,66.41221374045801,-199.06870229007635,19.557251908396946,-6.7277066650390625,0.7733271362304687,-3.0645781249999997,-41.221374045801525,45.23664122137404,2.0610687022900764,0.0
10.790000438690186,-6.076483813476562,-4.125209460449218,-8.489839086914062,77.19083969465649,-159.4351145038168,12.030534351145038,-8.319850769042969,-0.9026140258789062,-2.849099975585937,-54.25954198473283,49.81679389312977,4.0458015267175576,0.0
10.800000429153442,-7.3286512817382805,-0.7781155395507812,-4.489128112792969,87.80152671755725,-122.21374045801527,5.969465648854962,-10.259154113769531,-2.2960393920898436,-2.499546533203125,-63.66412213740458,60.656488549618324,4.076335877862595,0.0
10.8100004196167,-9.516951599121093,5.023035083007812,-0.8786720092773437,75.25190839694656,-93.63358778625954,4.412213740458015,-12.181698046874999,-7.943961108398437,-0.2920926025390625,-44.93129770992366,67.23664122137404,8.641221374045802,0.0
10.820000648498535,-8.032546569824218,5.2433016357421875,-0.1484405029296875,55.49618320610687,-81.2824427480916,12.916030534351146,-11.853692419433592,-9.064447485351561,-0.15083470458984374,0.5648854961832062,56.85496183206107,6.5038167938931295,0.0
10.830000877380371,-5.853823059082031,5.1523219726562495,-0.3687070556640625,32.595419847328245,-67.6793893129771,18.99236641221374,-6.785167504882812,-1.8171990600585937,-3.526659045410156,13.98473282442748,54.13740458015267,-0.7633587786259542,0.0
10.840000629425049,-6.471527087402343,7.378929516601562,-0.0718260498046875,-10.83969465648855,-59.541984732824424,19.099236641221374,-7.635109094238281,1.0438719238281249,-1.7310078002929687,1.5877862595419847,79.72519083969466,7.32824427480916,0.0
10.850000858306885,-3.8762124877929685,2.6336218261718747,-1.3766659545898436,-48.80916030534351,-60.534351145038165,23.068702290076335,-4.88417138671875,4.146757275390625,-3.4835634155273434,-10.641221374045802,80.80916030534351,13.755725190839694,0.0
10.860000610351562,-2.1835119140624997,-0.7517793212890624,-2.43250888671875,-43.908396946564885,-44.87022900763359,27.954198473282442,-6.648698010253906,8.580818749999999,-3.845087866210937,-58.13740458015267,102.85496183206106,17.72519083969466,0.0
10.87000036239624,-2.5570073730468748,-0.316034619140625,-2.059013427734375,-28.198473282442748,-24.549618320610687,22.48854961832061,-7.287949853515625,4.060566015625,-1.0486603271484374,-74.54961832061069,115.41984732824427,30.82442748091603,0.0
10.880000591278076,-4.185064501953125,-0.82360537109375,-1.4987702392578124,-36.94656488549618,-19.96946564885496,15.664122137404581,-7.5537062377929685,1.3934253662109375,-1.0630255371093749,-57.587786259541986,105.77099236641222,37.465648854961835,0.0
10.890000581741333,-2.5043349365234375,-3.373430139160156,-1.905784521484375,-33.083969465648856,-15.648854961832061,13.877862595419847,-9.658209497070311,1.5442600708007812,-2.7269956909179687,-51.7557251908397,99.6793893129771,37.93893129770992,0.0
10.90000057220459,-1.0869675537109373,-4.903325,-1.0773907470703123,-13.16030534351145,5.374045801526718,10.641221374045802,-11.540052001953125,-1.20667763671875,-0.9888052856445312,-43.954198473282446,100.18320610687023,41.343511450381676,0.0
10.910000562667847,-0.3112462158203125,-5.899312890625,0.5698199951171875,0.5190839694656488,20.412213740458014,1.8473282442748091,-10.74517705078125,-2.4564509033203126,-0.33518823242187495,-22.03053435114504,91.89312977099236,41.7557251908397,0.0
10.920000314712524,-2.1547814941406247,-4.058171813964844,3.459621398925781,14.83969465648855,39.17557251908397,-6.030534351145038,-9.358934289550781,-0.3495534423828125,-1.1109095703125,-19.053435114503817,87.98473282442748,38.47328244274809,0.0
10.930000305175781,-4.905719201660156,-0.45489831542968745,6.49307490234375,13.32824427480916,42.47328244274809,-16.53435114503817,-10.079588989257813,-2.5737667846679684,0.3447650390625,-4.595419847328245,80.18320610687023,39.908396946564885,0.0
10.940000295639038,-4.963180041503906,0.201112939453125,7.723694555664062,10.961832061068701,40.534351145038165,-19.587786259541986,-10.115502014160155,-1.2689268798828124,-0.009576806640625,12.595419847328245,69.38931297709924,41.31297709923664,0.0
10.950000524520874,-5.734112976074218,1.7573440185546874,8.494627490234375,18.061068702290076,42.29007633587786,-19.66412213740458,-9.952696301269532,-2.300827795410156,0.4955997436523437,6.122137404580153,65.8473282442748,38.6412213740458,0.0
10.96000051498413,-5.595249279785156,3.478775012207031,8.2743609375,23.206106870229007,39.847328244274806,-14.82442748091603,-8.635885388183594,-2.77727392578125,0.8451531860351562,23.755725190839694,54.900763358778626,38.47328244274809,0.0
10.970000505447388,-5.607220288085937,4.335899206542969,8.458714465332031,25.72519083969466,39.038167938931295,-7.9541984732824424,-13.601459631347655,-6.212953308105468,4.223371728515625,43.80152671755725,55.93893129770992,42.045801526717554,0.0
10.980000734329224,-5.6766521362304685,4.932055419921875,8.700528833007812,18.68702290076336,38.97709923664122,-1.3740458015267176,-9.459490759277344,-2.346317626953125,1.1085153686523437,50.916030534351144,43.16030534351145,32.10687022900763,0.0
10.990000247955322,-5.942408520507812,6.244077929687499,9.085995300292968,0.6106870229007634,38.06106870229008,3.404580152671756,-9.682151513671874,-1.956062756347656,0.488417138671875,42.25954198473283,39.404580152671755,26.793893129770993,0.0
11.000000476837158,-4.838681555175781,6.880935571289062,9.090783703613281,-26.38167938931298,32.99236641221374,7.969465648854962,-9.380482104492186,-2.1260510742187497,1.5346832641601562,30.290076335877863,44.36641221374046,23.87786259541985,0.0
11.010198831558228,-5.5258174316406246,7.735665563964844,10.596736547851561,-41.89312977099237,32.0,11.648854961832061,-12.23915888671875,-3.67749375,3.9647979492187497,38.51908396946565,40.82442748091603,25.51145038167939,0.0
11.020000696182251,-6.562506750488281,7.4220251464843745,10.78348427734375,-44.18320610687023,31.87786259541985,17.893129770992367,-9.91438907470703,0.6153098266601562,2.0254946044921875,27.46564885496183,33.29770992366412,20.015267175572518,0.0
11.030000925064087,-4.697423657226563,6.72291826171875,8.86812294921875,-32.68702290076336,28.106870229007633,30.045801526717558,-13.625401647949218,-1.2401964599609374,3.8762124877929685,14.564885496183207,36.61068702290076,21.450381679389313,0.0
11.040000677108765,-5.2456958374023435,5.68862314453125,6.114791040039062,-24.12213740458015,35.81679389312977,45.725190839694655,-11.4538607421875,1.24498486328125,2.020706201171875,0.13740458015267176,29.83206106870229,17.0381679389313,0.0
11.050000429153442,-4.3430818115234375,2.023100402832031,3.801992236328125,-24.396946564885496,40.6412213740458,54.12213740458015,-12.083535778808592,1.7286135986328124,1.1156979736328125,-32.47328244274809,26.076335877862597,16.16793893129771,0.0
11.060051679611206,-8.195352282714843,-3.852270471191406,7.60398447265625,-49.63358778625954,44.916030534351144,44.19847328244275,-15.397110876464843,-0.7302315063476562,2.882618798828125,-28.0,19.893129770992367,23.450381679389313,0.0
11.070000886917114,-16.761805822753907,-6.754042883300781,17.563863378906248,-10.045801526717558,40.778625954198475,30.16793893129771,-15.875951208496092,0.4213794921875,0.7924807495117187,-49.7557251908397,7.251908396946565,24.366412213740457,0.0
11.080000400543213,-22.86223165283203,4.290409374999999,12.97178459472656,42.61068702290076,31.221374045801525,32.44274809160305,-17.65244884033203,-0.9121908325195311,1.7310078002929687,-67.69465648854961,-5.297709923664122,24.885496183206108,0.0
11.090000629425049,-19.615694201660155,0.3232172241210937,3.725377783203125,36.25954198473283,-2.0610687022900764,41.93893129770992,-16.84799708251953,-1.39821376953125,2.8945898071289062,-70.6412213740458,-19.236641221374047,19.236641221374047,0.0
11.100000619888306,-13.84806240234375,-3.4859576171874997,-2.844311572265625,62.274809160305345,33.52671755725191,48.16793893129771,-12.148179223632813,1.5275006591796874,1.3575123413085937,-77.80152671755725,-29.221374045801525,5.312977099236641,0.0
11.110000848770142,-8.465897070312499,-1.8363526733398436,-7.436390356445312,29.572519083969464,19.923664122137403,25.740458015267176,-11.006145031738281,2.1404162841796874,0.9121908325195311,-74.67175572519083,-29.206106870229007,2.549618320610687,0.0
11.12000036239624,-3.191470812988281,-4.299986181640625,-5.758054992675781,31.984732824427482,36.82442748091603,17.6793893129771,-14.563928698730468,-1.0486603271484374,1.0821791503906248,-48.42748091603053,-39.11450381679389,9.83206106870229,0.0
11.130000591278076,-6.636727001953124,-0.5003881469726562,-5.779602807617187,25.328244274809162,46.83969465648855,-3.9389312977099236,-13.87918702392578,0.1580173095703125,-1.43652099609375,-23.81679389312977,-57.37404580152672,10.0,0.0
11.140000581741333,-9.090783703613281,0.6177040283203125,-4.886565588378906,9.16030534351145,52.35114503816794,-10.580152671755725,-12.701239807128905,1.2497732666015624,-4.115632653808594,-27.46564885496183,-65.86259541984732,4.763358778625954,0.0
11.15000057220459,-7.987056738281249,-0.9457096557617187,-4.2329485351562495,12.687022900763358,68.18320610687023,-11.114503816793894,-11.288660827636718,0.8212111694335937,-5.894524487304687,-35.02290076335878,-62.10687022900763,-3.786259541984733,0.0
11.160000324249268,-10.900800158691405,1.2808978881835937,-1.8938135131835936,10.229007633587786,83.05343511450381,-21.69465648854962,-11.398794104003905,-2.8754361938476563,-4.630386010742187,-14.65648854961832,-61.282442748091604,-17.00763358778626,0.0
11.170000553131104,-12.880804931640624,2.4779987182617185,-0.7398083129882812,-4.2748091603053435,83.14503816793894,-29.64885496183206,-11.631031665039062,-3.189076611328125,-2.3415292236328122,23.587786259541986,-69.08396946564885,-28.946564885496183,0.0
11.18000054359436,-7.45075556640625,-4.707000463867187,-5.437231970214843,-4.290076335877862,77.2824427480916,-30.045801526717558,-9.744400756835937,2.7198130859375,-4.860229370117187,32.01526717557252,-69.58778625954199,-38.88549618320611,0.0
11.190000534057617,-8.001421948242188,-5.9783215454101555,-3.1938650146484373,27.17557251908397,102.85496183206106,-37.3587786259542,-8.808267907714843,4.991910461425781,-6.7277066650390625,18.625954198473284,-52.62595419847328,-39.32824427480916,0.0
11.200000762939453,-12.131419812011718,-0.5530605834960938,-1.2018892333984375,34.412213740458014,110.45801526717557,-55.12977099236641,-10.062829577636718,1.7956512451171873,-4.007893579101562,15.908396946564885,-35.847328244274806,-29.129770992366414,0.0
11.210000276565552,-7.350199096679687,-3.6750995483398436,-3.4835634155273434,59.93893129770992,111.37404580152672,-47.23664122137404,-10.01015714111328,5.990292553710937,-5.291185668945312,13.19083969465649,-36.88549618320611,-24.68702290076336,0.0
11.220000743865967,-9.763554370117188,-1.0271125122070313,-2.1811177124023438,95.69465648854961,135.32824427480915,-46.25954198473283,-7.788338000488281,9.074024291992187,-5.293579870605469,-18.53435114503817,-27.557251908396946,-23.0381679389313,0.0
11.230000495910645,-13.977349291992187,8.48505068359375,3.1268273681640624,66.41221374045801,130.01526717557252,-55.87786259541985,-9.406818322753905,4.2329485351562495,-3.0334535034179684,-19.801526717557252,-11.84732824427481,-11.114503816793894,0.0
11.24000072479248,-11.839327209472655,8.492233288574218,1.7525556152343749,29.282442748091604,112.0,-44.3206106870229,-9.485826977539062,2.5378537597656248,-2.482787121582031,-10.67175572519084,-14.366412213740459,-8.702290076335878,0.0
11.250000476837158,-10.867281335449219,5.025429284667968,2.7054478759765623,3.4198473282442747,100.35114503816794,-36.47328244274809,-8.813056311035156,3.6248213134765623,-2.4061726684570313,-16.229007633587788,-16.931297709923665,-11.770992366412214,0.0
11.260000705718994,-9.97903251953125,4.220977526855468,3.246537451171875,-24.68702290076336,89.26717557251908,-37.61832061068702,-8.214505895996094,3.833116857910156,-2.528276953125,-23.587786259541986,-16.48854961832061,-14.702290076335878,0.0
11.270000457763672,-9.303867651367186,3.066972326660156,2.7461493041992187,-45.86259541984733,76.82442748091603,-36.83969465648855,-8.571241943359375,2.8754361938476563,-1.8531120849609375,-31.419847328244273,-17.114503816793892,-13.725190839694656,0.0
11.280000686645508,-10.582371337890624,2.932897033691406,4.218583325195312,-46.93129770992366,74.25954198473282,-35.86259541984733,-10.1131078125,-1.6424223388671875,-0.488417138671875,-16.12213740458015,-23.00763358778626,-11.84732824427481,0.0
11.290000677108765,-9.153032946777342,1.3383587280273437,2.0063409912109376,-55.038167938931295,61.51145038167939,-33.6793893129771,-10.582371337890624,-2.185906115722656,0.23223756103515625,15.419847328244275,-38.74809160305343,-14.183206106870228,0.0
11.300000667572021,-7.371746911621093,0.5147533569335937,0.01915361328125,-43.038167938931295,62.56488549618321,-28.931297709923665,-8.336610180664062,2.109291662597656,-0.74699091796875,14.763358778625955,-53.45038167938932,-22.85496183206107,0.0
11.310000896453857,-9.457096557617186,4.209006518554688,2.849099975585937,-47.38931297709924,64.67175572519083,-30.16793893129771,-9.540893615722656,1.3335703247070312,1.197100830078125,7.419847328244275,-50.47328244274809,-18.519083969465647,0.0
11.320000648498535,-11.585541833496093,3.404554760742187,2.418143676757812,-70.07633587786259,56.62595419847328,-28.778625954198475,-8.279149340820313,2.6623522460937497,0.239420166015625,14.687022900763358,-64.93129770992367,-17.404580152671755,0.0
11.33000111579895,-8.98304462890625,-0.689530078125,1.1156979736328125,-51.25190839694657,62.152671755725194,-23.6793893129771,-7.931990100097655,3.0933085449218747,1.2234370483398436,0.8244274809160306,-67.0381679389313,-15.297709923664122,0.0
11.340000629425049,-9.445125549316407,0.5578489868164063,2.408566870117187,-39.43511450381679,64.45801526717557,-26.137404580152673,-7.977479931640625,2.8107927490234372,0.948103857421875,-1.816793893129771,-69.55725190839695,-14.778625954198473,0.0
11.350000858306885,-11.259930407714844,3.318363500976562,3.0142998901367184,-49.64885496183206,57.969465648854964,-29.19083969465649,-9.09796630859375,0.258573779296875,1.4772224243164063,-9.816793893129772,-68.85496183206106,-13.297709923664122,0.0
11.360000610351562,-11.046846459960937,2.224213342285156,2.051830822753906,-56.3206106870229,48.68702290076336,-24.85496183206107,-8.21690009765625,2.1068974609374997,-0.1149216796875,-12.50381679389313,-76.22900763358778,-17.83206106870229,0.0
11.37000060081482,-15.46893692626953,7.204152795410156,5.216965417480468,-58.274809160305345,49.954198473282446,-24.870229007633586,-9.45470235595703,-0.6584054565429687,1.659181750488281,-23.84732824427481,-68.53435114503817,-16.9618320610687,0.0
11.380000352859497,-11.702857714843748,3.4763808105468748,2.578555187988281,-81.31297709923665,25.603053435114504,-16.213740458015266,-9.562441430664062,0.16998831787109375,-0.1867477294921875,-4.3816793893129775,-83.89312977099236,-21.389312977099237,0.0
11.390000581741333,-8.353369592285155,-1.7453730102539062,-0.17238251953125,-45.603053435114504,31.862595419847327,-4.931297709923665,-10.429142431640624,-1.4030021728515625,1.3215993164062498,-9.664122137404581,-80.74809160305344,-22.748091603053435,0.0
11.40000057220459,-8.061276989746093,-1.2042834350585936,0.33518823242187495,-29.709923664122137,32.79389312977099,-7.022900763358779,-9.124302526855468,-0.17477672119140625,0.24181436767578124,1.4809160305343512,-89.38931297709924,-28.091603053435115,0.0
11.410000562667847,-9.215282189941405,1.1348515869140625,0.09337386474609374,-28.717557251908396,30.396946564885496,-10.427480916030534,-10.740388647460938,-0.699106884765625,1.1085153686523437,11.786259541984732,-90.1526717557252,-24.458015267175572,0.0
11.420000314712524,-11.520898388671874,3.921702319335937,0.9935936889648437,-38.778625954198475,27.282442748091604,-11.34351145038168,-9.718064538574218,0.8188169677734375,1.6232687255859375,7.129770992366412,-88.38167938931298,-24.015267175572518,0.0
11.43000054359436,-10.941501586914061,2.6671406494140624,0.5267243652343749,-43.49618320610687,30.15267175572519,-6.977099236641221,-10.484209069824217,2.3415292236328122,0.2561795776367187,11.389312977099237,-95.26717557251908,-25.099236641221374,0.0
11.440000295639038,-10.115502014160155,1.8602946899414061,0.055066638183593745,-43.74045801526717,31.19083969465649,-4.2748091603053435,-12.236764685058594,0.7350199096679687,1.7860744384765623,8.244274809160306,-88.41221374045801,-18.47328244274809,0.0
11.450000286102295,-12.452242834472656,3.399766357421875,1.2880804931640624,-54.68702290076336,29.954198473282442,-5.7251908396946565,-10.268730920410155,2.042254016113281,1.1348515869140625,9.587786259541986,-93.57251908396947,-21.389312977099237,0.0
11.46000075340271,-12.856862915039061,3.411737365722656,1.3120225097656248,-63.9236641221374,27.17557251908397,-3.099236641221374,-13.512874169921874,0.24181436767578124,1.8818425048828125,19.46564885496183,-95.8473282442748,-15.755725190839694,0.0
11.470000267028809,-12.164938635253906,0.9361328491210937,0.22266075439453123,-60.80916030534351,22.33587786259542,1.083969465648855,-11.252747802734374,1.5514426757812498,2.128445275878906,6.854961832061068,-95.40458015267176,-16.65648854961832,0.0
11.480000734329224,-9.72285294189453,-1.438915197753906,-0.49320554199218747,-53.725190839694655,25.053435114503817,1.6946564885496183,-11.018116040039061,2.7533319091796873,1.0462661254882812,5.770992366412214,-102.73282442748092,-19.984732824427482,0.0
11.490000486373901,-8.461108666992187,-3.0885201416015624,-2.04943662109375,-35.954198473282446,26.519083969465647,0.3816793893129771,-10.967837805175781,1.5131354492187499,2.5522189697265625,-8.061068702290076,-96.3969465648855,-14.15267175572519,0.0
11.500000476837158,-6.392518432617187,-4.805162731933594,-2.3127988037109373,-18.27480916030534,37.70992366412214,-5.1603053435114505,-7.4220251464843745,2.8036101440429686,2.1404162841796874,-22.16793893129771,-97.43511450381679,-19.49618320610687,0.0
11.510000467300415,-8.89924757080078,-1.1252747802734375,-0.8020575561523438,-14.793893129770993,49.083969465648856,-17.64885496183206,-8.489839086914062,1.6807295654296874,1.9776105712890624,-21.96946564885496,-98.54961832061069,-18.16793893129771,0.0
11.520000696182251,-9.354145886230468,2.1499930908203124,-0.70868369140625,-43.49618320610687,42.83969465648855,-25.221374045801525,-8.719682446289061,-0.4261678955078125,2.935291235351562,-24.259541984732824,-92.4885496183206,-12.625954198473282,0.0
11.530000448226929,-9.612719665527344,0.8283937744140625,-1.0103531005859374,-47.00763358778626,50.458015267175576,-21.083969465648856,-5.116408947753906,2.147598889160156,0.09816226806640624,-26.290076335877863,-96.16793893129771,-17.053435114503817,0.0
11.540000677108765,-9.533711010742186,0.25139117431640623,0.05027823486328125,-43.64885496183206,58.80916030534351,-20.68702290076336,-8.497021691894531,-1.2761094848632812,1.0271125122070313,-19.938931297709924,-79.7557251908397,-11.587786259541986,0.0
11.550000667572021,-9.409212524414063,0.01915361328125,0.1197100830078125,-47.31297709923664,63.86259541984733,-26.137404580152673,-5.149927770996094,0.74699091796875,-0.4955997436523437,-17.954198473282442,-77.19083969465649,-17.083969465648856,0.0
11.5600004196167,-8.877699755859375,-1.2521674682617188,-0.6105214233398437,-35.25190839694657,67.96946564885496,-26.68702290076336,-8.01818135986328,-2.214636535644531,1.0773907470703123,-15.236641221374045,-59.603053435114504,-12.931297709923664,0.0
11.570001125335693,-9.133879333496093,-0.8547299926757812,-0.32082302246093747,-22.27480916030534,71.70992366412214,-30.900763358778626,-8.66940421142578,-2.5330653564453125,1.6615759521484375,1.83206106870229,-56.10687022900763,-15.83206106870229,0.0
11.580000400543213,-9.284714038085937,-0.06943184814453125,0.12449848632812499,-7.969465648854962,73.54198473282443,-32.961832061068705,-7.247248425292969,-1.0486603271484374,0.6560112548828124,13.541984732824428,-55.32824427480916,-20.27480916030534,0.0
11.590000867843628,-10.874463940429687,3.1938650146484373,1.3263877197265623,1.5419847328244274,72.13740458015268,-33.32824427480916,-7.235277416992187,-0.6200982299804687,1.2904746948242187,12.229007633587786,-40.6412213740458,-19.51145038167939,0.0
11.600000619888306,-10.850521923828124,3.9983167724609374,1.7525556152343749,1.786259541984733,63.770992366412216,-26.549618320610687,-7.606378674316406,-0.7302315063476562,1.4628572143554686,6.916030534351145,-26.12213740458015,-17.709923664122137,0.0
11.610000848770142,-11.274295617675781,4.371812231445312,2.7461493041992187,5.603053435114504,56.10687022900763,-18.702290076335878,-6.275202551269531,-0.5363011718749999,0.5530605834960938,22.213740458015266,-26.15267175572519,-20.458015267175572,0.0
11.62000036239624,-11.214440576171874,3.5194764404296874,3.2800562744140622,8.992366412213741,43.20610687022901,-12.65648854961832,-7.723694555664062,-0.9457096557617187,1.2521674682617188,39.847328244274806,-18.076335877862597,-17.603053435114504,0.0
11.630000591278076,-10.87925234375,1.43652099609375,3.670311145019531,25.633587786259543,31.236641221374047,-6.793893129770993,-7.723694555664062,-0.3136404174804687,1.6065093139648436,50.67175572519084,-10.977099236641221,-17.00763358778626,0.0
11.640000581741333,-10.927136376953124,0.5889736083984375,4.656722229003906,41.770992366412216,25.282442748091604,-4.641221374045801,-6.124367846679687,0.7278373046875,1.0749965454101562,59.66412213740458,-4.015267175572519,-16.259541984732824,0.0
11.65000057220459,-11.231199987792968,1.2761094848632812,4.867411975097656,48.83969465648855,8.885496183206106,-4.320610687022901,-7.094019519042968,1.4030021728515625,0.38786066894531246,70.87022900763358,1.1450381679389312,-13.709923664122137,0.0
11.660000562667847,-11.623849060058593,1.9393033447265624,5.468356591796875,64.03053435114504,-0.13740458015267176,-4.916030534351145,-7.161057165527343,1.6998831787109374,0.29448680419921874,76.36641221374046,9.145038167938932,-10.931297709923664,0.0
11.670000553131104,-11.350910070800781,0.9193734375,4.778826513671874,79.06870229007633,-12.458015267175572,-2.5343511450381677,-5.5641246582031245,3.4452561889648434,-1.2928688964843749,76.22900763358778,13.419847328244275,-10.82442748091603,0.0
11.68000054359436,-11.281478222656249,3.5314474487304683,5.193023400878906,90.83969465648855,-18.015267175572518,-2.4580152671755724,-7.1586629638671875,4.244919543457031,-0.737414111328125,61.02290076335878,30.885496183206108,-5.114503816793893,0.0
11.690000534057617,-12.641384765624998,6.787561706542968,5.468356591796875,75.89312977099236,-31.114503816793892,-2.1374045801526718,-7.6470801025390625,3.5051112304687497,-1.697488977050781,51.16030534351145,37.00763358778626,-3.0076335877862594,0.0
11.700000762939453,-12.342109558105468,6.940790612792968,5.023035083007812,61.89312977099237,-48.83969465648855,6.580152671755725,-7.874529260253905,3.1196447631835937,-1.1420341918945311,42.595419847328245,47.93893129770992,-1.282442748091603,0.0
11.71000075340271,-12.871228125,7.46272657470703,5.7317187744140625,51.41984732824427,-58.85496183206107,16.27480916030534,-5.609614489746093,5.49708701171875,-2.9544448486328125,23.61832061068702,56.61068702290076,-4.366412213740458,0.0
11.720000743865967,-11.954248889160155,5.379771130371093,6.095637426757812,39.12977099236641,-72.61068702290076,24.763358778625953,-8.427589843749999,2.0757728393554684,-1.5514426757812498,5.633587786259542,79.16030534351145,2.931297709923664,0.0
11.730000495910645,-13.182474340820312,6.102820031738281,8.662221606445312,26.106870229007633,-85.29770992366412,28.396946564885496,-5.76523759765625,2.9664158569335934,-3.545812658691406,4.366412213740458,82.6412213740458,-0.6106870229007634,0.0
11.74000072479248,-12.703634008789061,3.699041564941406,10.01015714111328,22.229007633587788,-103.69465648854961,32.88549618320611,-7.6614453125,0.8283937744140625,-2.5641899780273434,6.396946564885496,99.45038167938931,5.694656488549619,0.0
11.750000238418579,-13.941436267089843,1.1109095703125,12.950236779785156,35.43511450381679,-118.03053435114504,37.465648854961835,-5.058948107910156,1.4987702392578124,-4.242525341796875,11.816793893129772,106.50381679389314,2.9770992366412212,0.0
11.760000705718994,-15.614983227539062,0.4261678955078125,16.730681201171873,61.61832061068702,-140.3969465648855,39.16030534351145,-6.801926916503906,0.18435352783203124,-3.9887399658203124,29.328244274809162,111.00763358778626,5.267175572519084,0.0
11.770000696182251,-18.576610681152342,0.19871873779296872,21.30600057373047,78.25954198473282,-175.206106870229,36.213740458015266,-10.594342346191405,0.5027823486328125,4.158728283691406,27.206106870229007,115.66412213740458,0.8091603053435115,0.0
11.780000448226929,-20.259734448242185,3.399766357421875,18.959682946777342,91.77099236641222,-210.76335877862596,36.152671755725194,-17.05868682861328,-1.6065093139648436,16.845602880859374,-12.946564885496183,98.94656488549619,-20.396946564885496,0.0
11.790000438690186,-22.488736193847654,7.50821640625,10.68053360595703,55.86259541984733,-250.93129770992365,31.267175572519083,-16.946159350585937,-8.578424548339843,5.054159704589844,3.7404580152671754,79.77099236641222,-17.557251908396946,0.0
11.800000667572021,-23.72893265380859,1.714248388671875,11.121066711425781,29.19083969465649,-289.19083969465646,32.10687022900763,-18.784906225585935,-0.2753331909179687,2.712630480957031,56.534351145038165,65.45038167938931,-12.442748091603054,0.0
11.810000896453857,-20.75533419189453,-2.770091320800781,5.9950809570312495,36.42748091603053,-300.6106870229008,54.70229007633588,-16.333243725585938,8.63827958984375,2.252943762207031,55.41984732824427,50.778625954198475,-18.977099236641223,0.0
11.820000648498535,-16.270994482421873,-6.392518432617187,-1.0989385620117187,53.05343511450382,-295.09923664122135,69.5114503816794,-13.704410302734374,3.744531396484375,2.482787121582031,33.69465648854962,49.74045801526717,-2.9923664122137406,0.0
11.830000877380371,-13.20881055908203,-11.896788049316406,-3.246537451171875,71.31297709923665,-280.76335877862596,67.43511450381679,-8.343792785644531,2.729389892578125,0.833182177734375,26.18320610687023,33.23664122137404,7.282442748091603,0.0
11.84000039100647,-9.72285294189453,-10.196904870605469,-7.513004809570312,85.92366412213741,-264.90076335877865,53.05343511450382,-4.316745593261719,7.122749938964843,-0.10295067138671875,-19.34351145038168,44.68702290076336,9.648854961832061,0.0
11.850000858306885,-9.442731347656249,-6.112396838378906,-11.889605444335936,72.10687022900764,-241.5114503816794,39.05343511450382,-5.164292980957031,0.8810662109374999,-1.7405846069335937,-55.83206106870229,56.778625954198475,18.48854961832061,0.0
11.860000371932983,-8.820238916015624,-2.8131869506835936,-9.670180505371093,61.43511450381679,-205.45038167938932,25.480916030534353,-6.7277066650390625,-2.5761609863281247,-4.575319372558593,-57.786259541984734,52.6412213740458,21.114503816793892,0.0
11.87000060081482,-9.0788126953125,0.8212111694335937,-5.896918688964844,69.17557251908397,-165.29770992366412,22.68702290076336,-7.829039428710937,-2.9041666137695312,-4.917690209960937,-75.22137404580153,61.343511450381676,16.061068702290076,0.0
11.880000591278076,-10.242394702148436,3.4955344238281247,-0.9217676391601562,57.083969465648856,-129.32824427480915,21.69465648854962,-11.935095275878906,-5.858611462402344,-2.808398547363281,-67.49618320610686,70.56488549618321,16.244274809160306,0.0
11.890000581741333,-8.161833459472655,3.1962592163085937,0.3064578125,44.412213740458014,-106.1526717557252,24.18320610687023,-12.492944262695312,-7.0102224609374995,-1.7621324218749999,-58.85496183206107,73.16030534351145,9.267175572519085,0.0
11.90000033378601,-9.433154541015625,5.049371301269531,1.1875240234375,21.236641221374047,-88.6412213740458,23.801526717557252,-13.283030810546874,-9.624690673828125,-0.09576806640624999,-28.0,76.44274809160305,5.145038167938932,0.0
11.910000324249268,-9.028534460449219,5.710170959472656,-0.6703764648437499,-14.229007633587786,-88.68702290076335,24.47328244274809,-8.643067993164061,-4.977545251464844,-2.375048046875,3.8931297709923665,65.96946564885496,-1.5572519083969465,0.0
11.920000553131104,-7.4220251464843745,5.066130712890625,-1.89620771484375,-51.603053435114504,-80.91603053435115,28.15267175572519,-7.584830859375,0.277727392578125,-1.9105729248046874,-4.8396946564885495,82.91603053435115,2.351145038167939,0.0
11.93000054359436,-4.163516687011718,1.4006079711914061,-3.258508459472656,-76.59541984732824,-74.21374045801527,32.045801526717554,-4.673481640625,4.69263525390625,-2.920926025390625,-14.610687022900763,90.16793893129771,10.83969465648855,0.0
11.940000295639038,-3.5601778686523438,-0.296881005859375,-3.821145849609375,-76.33587786259542,-57.86259541984733,34.19847328244275,-6.150704064941406,6.955155822753905,-3.201047619628906,-42.51908396946565,102.9618320610687,22.091603053435115,0.0
11.950000286102295,-1.6448165405273436,-1.7453730102539062,-3.9815573608398434,-62.900763358778626,-38.18320610687023,33.9236641221374,-10.160991845703125,4.101267443847656,-1.0175357055664063,-53.57251908396947,110.54961832061069,35.31297709923664,0.0
11.96000075340271,-0.5315127685546874,-3.488351818847656,-3.833116857910156,-47.725190839694655,-18.015267175572518,32.778625954198475,-9.404424121093749,1.4820108276367188,-0.5793968017578125,-55.51145038167939,104.97709923664122,40.94656488549618,0.0
11.970000505447388,-3.3159692993164063,-0.5722141967773438,-1.3287819213867187,-55.908396946564885,-4.396946564885496,24.900763358778626,-10.204087475585936,2.080561242675781,-1.3455413330078123,-75.95419847328245,111.92366412213741,41.87786259541985,0.0
11.980000972747803,-2.8036101440429686,-1.2330138549804688,-0.9983820922851562,-64.83969465648855,3.053435114503817,23.984732824427482,-10.304643945312499,-0.24899697265624998,-0.6392518432617187,-86.27480916030534,115.20610687022901,43.343511450381676,0.0
11.990000247955322,-0.7110778930664062,-4.173093493652344,-0.6871358764648438,-59.908396946564885,16.15267175572519,23.954198473282442,-10.534487304687499,-1.1707646118164061,-0.6296750366210937,-59.908396946564885,99.63358778625954,44.82442748091603,0.0
12.000000476837158,-0.7541735229492187,-5.717353564453124,1.3838485595703125,-35.3587786259542,38.51908396946565,17.358778625954198,-12.00931552734375,-6.2584431396484375,1.5011644409179687,-20.213740458015266,82.18320610687023,47.083969465648856,0.0
12.010000467300415,-0.3327940307617187,-6.074089611816406,2.882618798828125,-17.480916030534353,45.267175572519086,5.740458015267175,-12.356474768066406,-4.580107775878906,1.37906015625,20.580152671755727,69.72519083969466,45.48091603053435,0.0
12.020000696182251,-1.908178723144531,-3.3207577026367185,4.96078583984375,5.709923664122138,56.94656488549618,-6.076335877862595,-10.266336718749999,-3.0047230834960934,0.9265560424804687,33.63358778625954,60.900763358778626,37.541984732824424,0.0
12.030000925064087,-1.8339584716796873,-2.061407629394531,5.758054992675781,21.84732824427481,60.045801526717554,-12.427480916030534,-9.909600671386718,-1.5322890624999999,0.4213794921875,40.93129770992366,55.847328244274806,33.45038167938932,0.0
12.040000438690186,-4.170699291992188,1.3096283081054687,7.81467421875,28.03053435114504,64.80916030534351,-15.648854961832061,-9.011775048828124,-1.0223241088867188,-0.1149216796875,44.16793893129771,51.02290076335878,31.068702290076335,0.0
12.050000667572021,-6.603208178710937,3.9695863525390624,10.153809240722655,19.908396946564885,60.97709923664122,-12.366412213740459,-9.050082275390624,-0.1197100830078125,0.2657563842773437,43.48091603053435,51.00763358778626,28.732824427480917,0.0
12.060000658035278,-6.478709692382812,3.746925598144531,11.410765112304686,6.9465648854961835,51.31297709923664,-4.534351145038168,-11.9518546875,-1.1420341918945311,2.4564509033203126,29.480916030534353,63.87786259541985,29.755725190839694,0.0
12.070000410079956,-6.754042883300781,3.114856359863281,12.478579052734375,-5.66412213740458,43.12977099236641,1.83206106870229,-8.544905725097657,-2.5665841796874997,3.0358477050781247,41.00763358778626,59.38931297709924,27.52671755725191,0.0
12.080000638961792,-9.605537060546874,4.548983154296875,13.860033410644531,-13.648854961832061,33.847328244274806,3.2519083969465647,-8.224082702636718,-2.319981408691406,2.1021090576171875,37.61832061068702,52.80916030534351,22.0,0.0
12.090000629425049,-9.433154541015625,5.674257934570313,14.456189624023436,-10.625954198473282,20.18320610687023,10.793893129770993,-10.58476553955078,-4.378994836425781,3.2249896362304686,17.236641221374047,61.43511450381679,18.625954198473284,0.0
12.100000619888306,-8.415618835449218,7.000645654296875,12.114660400390624,13.114503816793894,11.84732824427481,24.229007633587788,-10.742782849121093,-2.540247961425781,2.9376854370117185,36.06106870229008,45.61832061068702,12.977099236641221,0.0
12.110000848770142,-6.385335827636719,7.773972790527344,8.130708837890625,41.43511450381679,8.80916030534351,45.7557251908397,-12.531251489257812,-0.7589619262695312,3.766079211425781,8.030534351145038,39.55725190839695,5.465648854961832,0.0
12.120000839233398,-3.718195178222656,8.2360537109375,3.162740393066406,42.30534351145038,12.030534351145038,61.06870229007634,-14.087482568359373,-0.4644751220703125,7.3478048950195305,-15.954198473282442,41.83206106870229,6.961832061068702,0.0
12.130000352859497,-5.3007624755859375,0.0383072265625,7.410054138183593,13.297709923664122,8.83969465648855,57.43511450381679,-14.56871710205078,-0.4429273071289062,6.438008264160156,-25.633587786259543,17.49618320610687,9.297709923664122,0.0
12.140000820159912,-13.512874169921874,-2.607285607910156,17.494431530761716,12.931297709923664,6.67175572519084,45.038167938931295,-14.834473486328124,0.086191259765625,3.6679169433593746,-52.6412213740458,-5.129770992366412,10.427480916030534,0.0
12.150000810623169,-19.996372265625,5.106832141113281,15.409081884765625,39.80152671755725,-9.541984732824428,43.770992366412216,-15.897499023437499,-0.7110778930664062,3.8474820678710935,-72.97709923664122,-20.12213740458015,8.702290076335878,0.0
12.160000562667847,-18.356344128417966,11.204863769531249,0.1867477294921875,22.99236641221374,-20.03053435114504,50.54961832061068,-15.157690710449218,-1.2785036865234374,3.574543078613281,-79.06870229007633,-32.85496183206107,1.1908396946564885,0.0
12.170000553131104,-10.328585961914062,3.6343981201171873,-7.838616235351562,-42.62595419847328,-6.305343511450381,48.01526717557252,-12.46181964111328,-0.1005564697265625,0.9337386474609375,-69.86259541984732,-46.2442748091603,-10.076335877862595,0.0
12.180000305175781,-4.019864587402344,-5.011064074707031,-7.64229169921875,-42.93129770992366,19.61832061068702,41.69465648854962,-12.018892333984374,0.2561795776367187,-0.28490999755859375,-59.61832061068702,-50.85496183206107,-14.778625954198473,0.0
12.190000295639038,-1.1635820068359375,-3.6176387084960937,-5.865794067382812,-35.43511450381679,24.778625954198475,23.450381679389313,-13.309367028808593,1.8650830932617186,-2.2098481323242187,-46.42748091603053,-56.68702290076336,-13.16030534351145,0.0
12.200000762939453,-4.900930798339844,-6.880935571289062,-3.921702319335937,2.854961832061069,59.20610687022901,17.557251908396946,-13.905523242187499,3.7014357666015623,-3.883395092773437,-48.152671755725194,-58.67175572519084,-5.801526717557252,0.0
12.21000051498413,-12.109871997070313,0.59376201171875,-1.695094775390625,2.717557251908397,74.0,-3.2977099236641223,-15.571887597656248,2.942473840332031,-3.816357446289062,-46.83969465648855,-54.458015267175576,2.3206106870229006,0.0
12.220000743865967,-10.752359655761719,-1.9536685546875,-1.2378022583007813,19.603053435114504,86.10687022900764,-0.4122137404580153,-15.938200451660155,-1.3144167114257812,-3.1364041748046874,-27.480916030534353,-57.969465648854964,4.290076335877862,0.0
12.230000495910645,-11.896788049316406,-0.3687070556640625,-0.6105214233398437,25.221374045801525,98.0,-13.694656488549619,-14.34605634765625,-1.3646949462890625,-3.5960908935546874,-1.297709923664122,-63.587786259541986,-4.351145038167939,0.0
12.24000072479248,-14.255076684570312,3.3016040893554686,-0.6057330200195312,6.778625954198473,96.42748091603053,-25.374045801526716,-11.401188305664062,1.2521674682617188,-4.896142395019531,4.870229007633588,-63.083969465648856,-13.19083969465649,0.0
12.250000476837158,-12.344503759765624,1.3862427612304686,-0.7517793212890624,-5.603053435114504,92.42748091603053,-22.549618320610687,-10.888829150390624,3.5721488769531247,-5.724536169433593,2.3969465648854964,-60.67175572519084,-21.17557251908397,0.0
12.260000705718994,-12.320561743164061,0.22744915771484372,-0.9265560424804687,-2.4885496183206106,99.93893129770993,-22.15267175572519,-10.536881506347656,1.3934253662109375,-3.5960908935546874,-1.3587786259541985,-51.404580152671755,-21.480916030534353,0.0
12.270000696182251,-8.073247998046874,-4.994304663085937,-2.0446482177734375,3.816793893129771,93.6030534351145,-24.702290076335878,-10.905588562011719,1.9033903198242186,-3.277662072753906,11.618320610687023,-51.80152671755725,-24.061068702290076,0.0
12.280000686645508,-9.217676391601563,-5.044582897949218,-0.44532150878906246,27.083969465648856,103.64885496183206,-32.62595419847328,-10.793061083984375,2.384624853515625,-2.664746447753906,11.86259541984733,-47.89312977099237,-24.625954198473284,0.0
12.290000677108765,-8.80347950439453,-2.952050646972656,-1.4915876342773438,39.64885496183206,103.7557251908397,-42.045801526717554,-9.82580361328125,7.175422375488281,-4.386177441406249,-3.1603053435114505,-40.16793893129771,-28.35114503816794,0.0
12.300000667572021,-10.321403356933594,0.5722141967773438,0.23702596435546874,48.778625954198475,113.8473282442748,-47.17557251908397,-10.290278735351562,6.720524060058593,-5.046977099609375,-17.297709923664122,-33.20610687022901,-25.770992366412212,0.0
12.310000896453857,-8.355763793945313,1.3311761230468748,-0.9361328491210937,38.47328244274809,108.01526717557252,-47.89312977099237,-10.292672937011718,4.2137949218749995,-3.632003918457031,-16.82442748091603,-29.893129770992367,-19.450381679389313,0.0
12.320000886917114,-11.252747802734374,3.0621839233398433,1.0462661254882812,30.091603053435115,113.16030534351145,-47.6793893129771,-9.45470235595703,5.379771130371093,-3.162740393066406,-18.137404580152673,-29.14503816793893,-17.068702290076335,0.0
12.330000877380371,-10.058041174316406,3.2704794677734372,1.8459294799804686,10.564885496183207,107.41984732824427,-46.961832061068705,-8.295908752441406,6.545747338867187,-4.405331054687499,-31.6793893129771,-26.50381679389313,-14.335877862595419,0.0
12.340000629425049,-10.079588989257813,2.7557261108398436,0.9504980590820312,0.6259541984732825,106.19847328244275,-45.20610687022901,-8.650250598144531,4.833893151855468,-3.3446997192382812,-44.412213740458014,-13.908396946564885,-8.885496183206106,0.0
12.350000858306885,-10.388441003417968,2.4851813232421875,2.291250988769531,-9.450381679389313,99.66412213740458,-44.94656488549618,-9.327809667968749,2.81558115234375,-2.664746447753906,-35.98473282442748,-10.366412213740459,-5.8320610687022905,0.0
12.360000610351562,-9.634267480468749,1.8195932617187498,1.2593500732421874,-9.587786259541986,96.91603053435115,-42.045801526717554,-8.628702783203124,1.8842367065429686,-2.085349645996094,-30.99236641221374,-9.19083969465649,-5.145038167938932,0.0
12.37000036239624,-10.122684619140625,2.7054478759765623,0.7948749511718749,-14.030534351145038,91.5114503816794,-41.343511450381676,-7.311891870117187,1.7717092285156248,-2.0566192260742184,-25.755725190839694,-10.15267175572519,-5.786259541984733,0.0
12.380000591278076,-9.983820922851562,3.4165257690429685,0.6081272216796875,-24.778625954198475,84.21374045801527,-38.83969465648855,-6.698976245117187,1.0414777221679687,-2.1883003173828124,-21.6793893129771,-13.206106870229007,-5.221374045801527,0.0
12.390000343322754,-10.263942517089843,4.3071687866210935,1.915361328125,-37.343511450381676,76.42748091603053,-35.80152671755725,-9.672574707031249,-0.6751648681640625,-0.258573779296875,-9.709923664122137,-11.450381679389313,-2.8396946564885495,0.0
12.40000057220459,-9.442731347656249,1.5705962890624998,1.1228805786132812,-38.458015267175576,75.6030534351145,-32.0763358778626,-9.294290844726563,-1.8291700683593748,0.0143652099609375,10.274809160305344,-23.14503816793893,-6.717557251908397,0.0
12.410000562667847,-10.984597216796875,3.622427111816406,2.138022082519531,-34.83969465648855,76.33587786259542,-32.76335877862596,-9.344569079589844,-1.407790576171875,0.5243301635742187,18.717557251908396,-34.54961832061068,-12.106870229007633,0.0
12.420000314712524,-11.154585534667968,4.446032482910156,2.4516625,-52.48854961832061,68.36641221374046,-31.480916030534353,-8.520963708496094,0.2705447875976562,1.120486376953125,15.17557251908397,-38.93129770992366,-15.450381679389313,0.0
12.43000054359436,-9.95987890625,3.670311145019531,2.2960393920898436,-58.16793893129771,65.19083969465649,-25.755725190839694,-10.295067138671874,-1.6519991455078125,2.473210314941406,22.27480916030534,-43.969465648854964,-12.320610687022901,0.0
12.440000534057617,-10.615890161132812,1.3455413330078123,1.6615759521484375,-63.43511450381679,58.06106870229008,-22.931297709923665,-9.275137231445312,1.618480322265625,1.4604630126953124,34.88549618320611,-59.11450381679389,-16.48854961832061,0.0
12.450000524520874,-9.840168823242188,0.229843359375,2.061407629394531,-54.0763358778626,62.44274809160305,-22.15267175572519,-9.267954626464844,0.8188169677734375,3.0238766967773434,27.954198473282442,-57.7557251908397,-13.587786259541986,0.0
12.46000075340271,-9.483432775878907,-0.8834604125976562,1.5969325073242187,-46.213740458015266,61.61832061068702,-23.6793893129771,-9.45470235595703,0.9959878906249999,1.8076222534179687,42.3206106870229,-71.77099236641222,-15.053435114503817,0.0
12.470000743865967,-12.799402075195312,2.729389892578125,2.990357873535156,-39.48091603053435,62.2442748091603,-27.114503816793892,-9.145850341796875,1.448492004394531,2.2002713256835937,31.022900763358777,-69.70992366412214,-17.022900763358777,0.0
12.480000495910645,-12.502521069335936,4.273649963378906,3.287238879394531,-58.717557251908396,51.55725190839695,-26.549618320610687,-8.40843623046875,2.6479870361328124,0.2609679809570312,28.16793893129771,-80.76335877862596,-22.091603053435115,0.0
12.490000247955322,-14.556746093749998,5.9400143188476555,4.84586416015625,-65.64885496183206,47.37404580152672,-22.931297709923665,-9.617508068847656,1.9800047729492187,0.3016694091796875,12.931297709923664,-74.45801526717557,-18.0,0.0
12.500000476837158,-9.93354268798828,0.9241618408203125,1.3742717529296875,-71.09923664122137,35.099236641221374,-15.84732824427481,-7.345410693359375,2.8203695556640622,-0.7302315063476562,2.8244274809160306,-76.9618320610687,-22.717557251908396,0.0
12.510000944137573,-8.88009395751953,-0.679953271484375,0.1149216796875,-50.274809160305345,38.29007633587786,-10.67175572519084,-10.374075793457031,-0.21308394775390624,0.29448680419921874,2.3969465648854964,-72.18320610687023,-17.633587786259543,0.0
12.520000696182251,-10.304643945312499,0.9528922607421875,1.1324573852539062,-45.89312977099237,35.02290076335878,-14.916030534351146,-7.431601953125,0.06943184814453125,0.8164227661132812,-1.2213740458015268,-70.2442748091603,-20.47328244274809,0.0
12.530000686645508,-10.690110412597656,1.3168109130859373,1.0414777221679687,-41.00763358778626,35.969465648854964,-13.694656488549619,-10.129867224121092,-1.180341418457031,1.2904746948242187,9.099236641221374,-69.05343511450381,-17.709923664122137,0.0
12.540000677108765,-10.01733974609375,1.2593500732421874,0.9959878906249999,-32.61068702290076,34.51908396946565,-12.106870229007633,-8.068459594726562,1.3383587280273437,1.16837041015625,6.076335877862595,-69.61832061068702,-22.38167938931298,0.0
12.550000667572021,-12.46181964111328,3.23696064453125,2.559401574707031,-39.38931297709924,30.47328244274809,-11.404580152671755,-10.826579907226561,-0.5506663818359374,2.47081611328125,8.045801526717558,-61.69465648854962,-20.12213740458015,0.0
12.560000658035278,-11.082759484863281,1.1085153686523437,1.8435352783203125,-37.083969465648856,27.282442748091604,-9.221374045801527,-8.647856396484375,1.4437036010742186,1.4030021728515625,13.923664122137405,-67.0381679389313,-23.603053435114504,0.0
12.570000886917114,-9.775525378417969,0.11731588134765625,0.9145850341796874,-25.00763358778626,28.045801526717558,-7.32824427480916,-8.95670841064453,0.8020575561523438,1.5777788940429687,9.633587786259541,-60.88549618320611,-20.244274809160306,0.0
12.580000638961792,-9.943119494628906,0.97683427734375,1.0199299072265624,-24.870229007633586,26.778625954198475,-11.007633587786259,-10.436325036621094,-0.1005564697265625,1.3048399047851562,22.33587786259542,-61.20610687022901,-20.35114503816794,0.0
12.590000867843628,-8.142679846191406,-0.9433154541015625,-0.35194764404296874,-11.801526717557252,29.267175572519083,-10.900763358778626,-7.651868505859374,1.6615759521484375,0.6248866333007812,17.83206106870229,-58.152671755725194,-21.938931297709924,0.0
12.600000619888306,-11.051634863281249,2.8658593872070313,0.9241618408203125,-15.419847328244275,28.83969465648855,-12.67175572519084,-10.156203442382813,-0.38307226562499996,0.6081272216796875,23.0381679389313,-52.80916030534351,-19.358778625954198,0.0
12.610000848770142,-9.375693701171874,0.6512228515624999,-0.19871873779296872,-19.099236641221374,23.69465648854962,-11.358778625954198,-10.249577307128906,0.5674257934570313,-0.016759411621093748,35.11450381679389,-52.717557251908396,-19.770992366412212,0.0
12.62000060081482,-7.201758593749999,-1.1755530151367186,-0.7134720947265625,5.1603053435114505,29.389312977099237,-8.183206106870228,-7.417236743164062,1.5466542724609373,-0.34237083740234375,30.778625954198475,-47.267175572519086,-21.221374045801525,0.0
12.630000352859497,-8.207323291015625,-0.948103857421875,-0.38307226562499996,14.977099236641221,34.19847328244275,-14.931297709923664,-9.504980590820312,0.016759411621093748,0.05027823486328125,33.43511450381679,-35.45038167938932,-18.625954198473284,0.0
12.640000581741333,-8.602366564941406,-1.0702081420898437,-0.13407529296874998,27.908396946564885,39.25190839694657,-20.366412213740457,-9.60793126220703,-0.3399766357421875,-0.3327940307617187,42.0763358778626,-32.44274809160305,-19.053435114503817,0.0
12.65000033378601,-9.124302526855468,-0.842758984375,-0.6679822631835937,43.770992366412216,41.38931297709924,-23.34351145038168,-8.896853369140624,-0.33518823242187495,-0.22505495605468748,50.35114503816794,-30.870229007633586,-19.83206106870229,0.0
12.660000562667847,-10.9941740234375,2.080561242675781,0.7876923461914062,48.961832061068705,42.30534351145038,-26.610687022900763,-7.015010864257812,1.5897499023437498,-0.4836287353515625,48.88549618320611,-31.938931297709924,-22.076335877862597,0.0
12.670000553131104,-11.257536206054686,3.7421371948242186,0.9074024291992187,40.732824427480914,34.54961832061068,-24.458015267175572,-9.169792358398437,1.9584569580078124,0.8595183959960937,34.99236641221374,-17.603053435114504,-17.862595419847327,0.0
12.68000054359436,-10.927136376953124,4.824316345214844,1.3072341064453123,33.038167938931295,28.778625954198475,-18.80916030534351,-5.571307263183593,4.575319372558593,-0.1771709228515625,14.732824427480915,-15.587786259541986,-21.221374045801525,0.0
12.690000534057617,-11.743559143066406,4.754884497070313,2.5905261962890624,18.732824427480917,25.129770992366414,-14.122137404580153,-8.904035974121093,2.4971523315429685,-0.12449848632812499,9.633587786259541,-8.534351145038167,-15.206106870229007,0.0
12.700000762939453,-10.20887587890625,3.0358477050781247,1.6256629272460936,15.389312977099237,18.916030534351144,-8.305343511450381,-7.972691528320312,2.3535002319335936,0.39743747558593745,8.15267175572519,-3.954198473282443,-12.595419847328245,0.0
12.710000276565552,-8.729259252929687,1.9895815795898437,0.6919242797851562,12.198473282442748,12.427480916030534,-3.3740458015267176,-8.058882788085937,1.66636435546875,0.32082302246093747,9.786259541984732,-1.83206106870229,-9.908396946564885,0.0
12.720000743865967,-8.722076647949219,1.01514150390625,0.8858546142578124,18.53435114503817,15.374045801526718,-3.816793893129771,-8.164227661132813,1.6639701538085936,0.565031591796875,11.908396946564885,0.48854961832061067,-6.854961832061068,0.0
12.730000495910645,-9.368511096191405,0.7805097412109374,1.4413093994140624,11.511450381679388,14.106870229007633,-6.870229007633588,-7.706935144042968,1.6615759521484375,0.6248866333007812,13.709923664122137,2.045801526717557,-5.1603053435114505,0.0
12.74000072479248,-10.17056865234375,0.8978256225585937,2.693476867675781,11.251908396946565,12.488549618320612,-9.740458015267176,-7.4699091796875,1.7956512451171873,0.40940848388671874,12.83969465648855,3.3587786259541983,-3.6793893129770994,0.0
12.750000476837158,-10.27830772705078,0.45010991210937495,3.73495458984375,10.030534351145038,7.1603053435114505,-11.603053435114504,-7.9272016967773435,1.5825672973632812,0.25139117431640623,12.320610687022901,5.4961832061068705,-3.404580152671756,0.0
12.760000705718994,-11.547234606933593,1.5251064575195312,5.513846423339843,8.885496183206106,-0.2900763358778626,-14.106870229007633,-6.734889270019531,1.7669208251953124,-0.3280056274414062,5.816793893129771,7.526717557251908,-5.129770992366412,0.0
12.770000696182251,-11.118672509765624,1.4963760375976562,6.600813977050781,19.34351145038168,-9.557251908396946,-13.770992366412214,-8.614337573242187,0.229843359375,-0.04548983154296875,5.587786259541985,13.404580152671755,-3.1603053435114505,0.0
12.780000925064087,-11.872846032714843,2.9640216552734375,8.40125362548828,23.69465648854962,-20.198473282442748,-13.969465648854962,-6.042964990234375,1.218648645019531,-0.9888052856445312,3.114503816793893,15.435114503816793,-6.137404580152672,0.0
12.790000677108765,-13.623007446289062,5.087678527832031,10.544064111328124,15.419847328244275,-37.63358778625954,-12.961832061068701,-5.228936425781249,2.7341782958984373,-1.0845733520507812,-13.801526717557252,30.50381679389313,-3.8625954198473282,0.0
12.800000667572021,-14.954183569335937,7.079654309082031,13.02445703125,7.8320610687022905,-62.35114503816794,-3.648854961832061,-5.288791467285156,2.6671406494140624,-1.3239935180664062,-22.717557251908396,34.68702290076336,-2.8244274809160306,0.0
12.810000896453857,-16.82884346923828,8.384494213867187,14.709975,-0.9618320610687023,-92.82442748091603,10.763358778625955,-7.654262707519531,2.3295582153320313,1.7573440185546874,-34.778625954198475,45.81679389312977,1.4351145038167938,0.0
12.820000410079956,-18.535909252929688,7.740453967285156,16.455348010253907,3.9236641221374047,-122.03053435114504,26.519083969465647,-9.354145886230468,0.4740519287109375,4.759672900390624,-56.10687022900763,50.38167938931298,1.1908396946564885,0.0
12.830000638961792,-19.661184033203124,5.5641246582031245,17.707515478515624,7.633587786259542,-162.85496183206106,39.20610687022901,-11.262324609375,-5.394136340332031,1.7717092285156248,-45.45038167938932,48.030534351145036,0.5801526717557252,0.0
12.84000039100647,-20.116082348632812,3.782838623046875,17.808071948242187,27.51145038167939,-198.99236641221373,44.42748091603053,-11.10191309814453,-5.360617517089843,-2.0781670410156248,-11.297709923664122,47.00763358778626,0.6870229007633588,0.0
12.850001096725464,-21.404162841796875,4.3813890380859375,12.648567370605468,34.152671755725194,-233.26717557251908,45.847328244274806,-13.263877197265625,-1.39821376953125,-3.536235852050781,30.763358778625953,50.61068702290076,-6.488549618320611,0.0
12.860000371932983,-21.727380065917966,-2.0542250244140625,9.22485899658203,17.34351145038168,-270.4580152671756,40.2442748091603,-12.868833923339842,1.3646949462890625,-1.0821791503906248,36.58015267175573,52.50381679389313,-13.557251908396946,0.0
12.87000060081482,-20.163966381835937,-6.282385156249999,4.149151477050781,45.20610687022901,-293.22137404580155,46.29007633587786,-12.564770312499999,-1.388636962890625,2.0638018310546875,20.748091603053435,54.030534351145036,-12.702290076335878,0.0
12.880000591278076,-18.262970263671875,-4.256890551757812,0.0718260498046875,55.31297709923664,-291.3587786259542,51.86259541984733,-12.152967626953124,-2.157175695800781,3.268085266113281,29.755725190839694,45.282442748091604,-6.3816793893129775,0.0
12.89002776145935,-14.769830041503905,-6.272808349609375,-2.8036101440429686,50.85496183206107,-288.99236641221376,58.29007633587786,-9.667786303710937,2.4157494750976563,2.360682836914062,35.25190839694657,33.74045801526717,-2.2748091603053435,0.0
12.900000810623169,-12.677297790527343,-8.44674345703125,-5.331887097167969,70.0,-270.67175572519085,60.595419847328245,-9.018957653808593,2.961627453613281,0.2561795776367187,19.49618320610687,32.18320610687023,0.7175572519083969,0.0
12.910000562667847,-9.253589416503905,-7.958326318359375,-8.590395556640624,68.30534351145039,-249.6946564885496,50.01526717557252,-10.864887133789061,3.0406361083984375,0.16519991455078123,3.068702290076336,36.94656488549618,5.648854961832061,0.0
12.920000314712524,-8.458714465332031,-8.987833032226561,-12.332532751464843,63.587786259541986,-224.3053435114504,32.83969465648855,-11.647791076660155,0.25139117431640623,-0.373495458984375,-7.038167938931298,34.412213740458014,9.557251908396946,0.0
12.93000054359436,-7.247248425292969,-3.9456443359374997,-8.540117321777343,78.61068702290076,-182.18320610687022,12.458015267175572,-10.249577307128906,-2.020706201171875,-1.7621324218749999,-25.480916030534353,34.229007633587784,7.32824427480916,0.0
12.940000295639038,-7.419630944824219,0.3232172241210937,-3.5506010620117183,84.4885496183206,-143.63358778625954,7.8320610687022905,-11.690886706542969,-5.233724829101562,-1.6112977172851561,-21.34351145038168,36.595419847328245,9.129770992366412,0.0
12.950000524520874,-8.425195642089843,3.229778039550781,0.565031591796875,82.70229007633588,-114.67175572519083,8.946564885496183,-8.992621435546875,-4.742913488769531,-1.43652099609375,-8.366412213740459,34.56488549618321,4.442748091603053,0.0
12.96000075340271,-8.844180932617187,6.770802294921874,3.3973721557617185,60.83969465648855,-95.90839694656489,12.01526717557252,-6.426037255859375,-2.549824768066406,-1.8722656982421875,-4.183206106870229,37.847328244274806,-0.5190839694656488,0.0
12.970000505447388,-9.366116894531249,8.200140686035155,2.3439234252929686,19.557251908396946,-95.1145038167939,16.85496183206107,-8.188169677734374,0.5267243652343749,-2.422932080078125,2.564885496183206,46.30534351145038,1.7404580152671756,0.0
12.980000972747803,-8.475473876953124,7.146691955566406,0.3591302490234375,-24.580152671755727,-93.55725190839695,22.870229007633586,-5.7125651611328125,2.0733786376953125,-1.9919757812499999,-18.82442748091603,62.85496183206107,5.648854961832061,0.0
12.990000247955322,-5.863399865722656,2.817975354003906,-1.5921441040039062,-63.80152671755725,-93.78625954198473,29.770992366412212,-8.444349255371094,0.718260498046875,-1.6112977172851561,-19.557251908396946,65.0381679389313,12.01526717557252,0.0
13.000000476837158,-3.3686417358398435,-0.6584054565429687,-3.009511486816406,-62.030534351145036,-79.09923664122137,32.85496183206107,-7.785943798828124,3.3638533325195312,-1.9823989746093749,-43.89312977099237,77.29770992366412,14.610687022900763,0.0
13.010000467300415,-3.8570588745117185,0.4333505004882812,-2.3918074584960936,-58.25954198473283,-60.58015267175573,31.206106870229007,-7.75721337890625,2.8945898071289062,-1.8746598999023436,-60.82442748091603,90.82442748091603,22.48854961832061,0.0
13.020000696182251,-1.8219874633789062,-1.7429788085937499,-2.185906115722656,-58.06106870229008,-44.091603053435115,31.49618320610687,-8.655039001464843,2.1930887207031247,-2.849099975585937,-57.954198473282446,86.54961832061069,28.778625954198475,0.0
13.030000686645508,-2.612074011230469,-1.915361328125,-1.3168109130859373,-39.51145038167939,-16.015267175572518,28.717557251908396,-10.709264025878905,1.7405846069335937,-2.360682836914062,-68.82442748091603,94.76335877862596,34.58015267175573,0.0
13.040000677108765,-3.9743747558593747,-0.6057330200195312,-0.7661445312499999,-52.18320610687023,-14.687022900763358,20.137404580152673,-9.160215551757812,1.8291700683593748,-3.0621839233398433,-65.20610687022901,96.83969465648855,37.3587786259542,0.0
13.05000114440918,-4.395754248046875,-0.9504980590820312,0.28012159423828126,-61.81679389312977,-4.290076335877862,19.72519083969466,-10.941501586914061,-1.3646949462890625,-1.7860744384765623,-77.78625954198473,102.91603053435115,40.6412213740458,0.0
13.060000658035278,0.33758243408203126,-5.403713146972656,-0.4165910888671875,-46.18320610687023,7.694656488549619,21.389312977099237,-9.907206469726562,-0.4836287353515625,-1.7741034301757812,-70.56488549618321,99.57251908396947,38.68702290076336,0.0
13.070000886917114,-1.7405846069335937,-4.228160131835938,1.5322890624999999,-28.045801526717558,30.549618320610687,13.511450381679388,-9.212887988281249,-1.1180921752929687,-1.3670891479492187,-66.4885496183206,97.87786259541984,36.29007633587786,0.0
13.080000638961792,-2.5163059448242184,-2.7174188842773437,2.9855694702148434,-14.030534351145038,41.38931297709924,4.580152671755725,-10.98699141845703,-3.878606689453125,0.25139117431640623,-35.954198473282446,86.0,39.465648854961835,0.0
13.090000867843628,-1.3766659545898436,-3.0166940917968748,3.9264907226562498,-0.2748091603053435,47.66412213740458,-3.3282442748091605,-9.562441430664062,-0.8044517578125,-1.7286135986328124,-24.916030534351144,76.33587786259542,36.16793893129771,0.0
13.100000619888306,-1.608903515625,-1.7094599853515624,4.393360046386719,17.923664122137403,56.916030534351144,-9.770992366412214,-11.2240173828125,-1.8315642700195311,-0.181959326171875,-20.65648854961832,77.02290076335878,35.16030534351145,0.0
13.110000848770142,-3.670311145019531,1.5011644409179687,5.693411547851563,17.46564885496183,61.41984732824427,-14.534351145038167,-11.121066711425781,-1.0941501586914062,0.3232172241210937,1.1297709923664123,70.0,36.36641221374046,0.0
13.12000060081482,-4.745307690429687,3.356670727539062,7.204152795410156,14.748091603053435,65.3587786259542,-9.969465648854962,-10.419565624999999,0.00239420166015625,-0.055066638183593745,-13.908396946564885,73.40458015267176,35.099236641221374,0.0
13.130000591278076,-4.568136767578125,3.375824340820312,8.377311608886718,3.5114503816793894,61.25190839694657,-2.0763358778625953,-10.038887561035155,-0.23223756103515625,0.7350199096679687,-9.297709923664122,71.66412213740458,35.66412213740458,0.0
13.140000343322754,-5.161898779296875,2.109291662597656,9.567229833984374,-7.435114503816794,60.62595419847328,0.6412213740458015,-10.139444030761718,-0.4836287353515625,0.7230489013671875,-11.053435114503817,71.22137404580153,36.25954198473283,0.0
13.15000057220459,-6.4834980957031245,1.6041151123046875,11.305420239257812,-15.954198473282442,60.33587786259542,-1.2366412213740459,-10.218452685546874,-0.5578489868164063,1.120486376953125,-37.3587786259542,82.3969465648855,34.656488549618324,0.0
13.160000562667847,-7.541735229492187,1.8028338500976562,12.437877624511717,-17.404580152671755,54.47328244274809,0.12213740458015267,-12.08592998046875,-4.367023828124999,3.5146880371093747,-22.35114503816794,81.3587786259542,38.229007633587784,0.0
13.170000314712524,-8.489839086914062,2.6479870361328124,13.299790222167967,-8.305343511450381,49.7557251908397,1.5877862595419847,-10.960655200195312,-2.9496564453125,2.9855694702148434,-10.595419847328245,70.9618320610687,38.25954198473283,0.0
13.18000054359436,-9.313444458007812,4.084508032226562,12.797007873535156,2.7938931297709924,41.38931297709924,4.763358778625954,-12.528857287597656,-5.671863732910156,4.228160131835938,-1.4198473282442747,66.29007633587786,38.396946564885496,0.0
13.190000295639038,-12.045228552246092,6.358999609374999,14.867992309570312,11.526717557251908,33.6793893129771,10.259541984732824,-10.213664282226562,-3.6104561035156246,1.4125789794921875,21.358778625954198,44.091603053435115,36.47328244274809,0.0
13.200000762939453,-11.14022032470703,6.356605407714843,10.381258398437499,42.67175572519084,16.946564885496183,35.12977099236641,-12.176909643554687,-1.1444283935546875,0.6584054565429687,10.83969465648855,39.00763358778626,33.725190839694655,0.0
13.21000051498413,-11.346121667480467,10.864887133789061,2.8754361938476563,47.48091603053435,28.931297709923665,66.13740458015268,-13.450624926757811,-0.6200982299804687,1.4006079711914061,-8.045801526717558,36.35114503816794,33.69465648854962,0.0
13.220000505447388,-10.16338604736328,7.625532287597656,-0.9983820922851562,-15.038167938931299,15.740458015267176,66.25954198473282,-12.509703674316405,2.7365724975585937,-0.40222587890625,-39.12977099236641,30.244274809160306,31.862595419847327,0.0
13.230000257492065,-10.761936462402343,-9.65342109375,14.020444921874999,-27.603053435114504,23.64885496183206,54.33587786259542,-18.20072102050781,-2.454056701660156,3.3351229125976563,-60.54961832061068,31.389312977099237,39.80152671755725,0.0
13.24000072479248,-17.444153295898438,-1.5011644409179687,14.599841723632812,-5.66412213740458,7.923664122137405,27.221374045801525,-19.132065466308593,-5.327098693847656,5.6191912963867185,-30.076335877862597,12.946564885496183,46.10687022900763,0.0
13.250000476837158,-20.887015283203123,9.208099584960937,6.739677673339843,23.52671755725191,-3.282442748091603,39.41984732824427,-15.567099194335936,0.21787235107421873,2.9568390502929685,-28.091603053435115,-15.816793893129772,30.48854961832061,0.0
13.260000467300415,-11.56159981689453,2.389413256835937,-4.3071687866210935,35.66412213740458,1.8473282442748091,58.67175572519084,-12.7563064453125,5.279214660644531,1.429338391113281,-49.9236641221374,-25.633587786259543,15.053435114503817,0.0
13.27000093460083,-4.496310717773437,-5.736507177734374,-6.1267620483398435,-1.9389312977099236,18.38167938931298,38.458015267175576,-13.943830468749999,2.7653029174804686,2.73896669921875,-60.30534351145038,-23.099236641221374,14.534351145038167,0.0
13.280000686645508,-2.104503259277344,-10.213664282226562,-5.671863732910156,-1.6641221374045803,34.29007633587786,14.381679389312977,-14.803348864746093,-1.5658078857421873,1.9416975463867185,-21.786259541984734,-43.69465648854962,19.51145038167939,0.0
13.290000677108765,-8.219294299316406,-4.000710974121094,-1.22583125,29.81679389312977,50.48854961832061,-7.877862595419847,-14.556746093749998,-1.956062756347656,-0.36152445068359373,3.816793893129771,-69.22137404580153,15.633587786259541,0.0
13.300000429153442,-10.627861169433594,0.45010991210937495,-4.754884497070313,35.038167938931295,60.717557251908396,-14.580152671755725,-14.693215588378905,-2.3151930053710936,0.02154781494140625,11.17557251908397,-84.9618320610687,6.961832061068702,0.0
13.310000896453857,-8.190563879394531,-2.528276953125,-3.6200329101562496,46.0763358778626,88.3206106870229,-20.65648854961832,-12.955025183105468,-3.564966271972656,-1.7884686401367187,14.412213740458014,-99.6793893129771,-6.961832061068702,0.0
13.320000648498535,-10.656591589355468,3.4572271972656248,-2.375048046875,31.068702290076335,91.52671755725191,-35.51145038167939,-10.81460889892578,-1.599326708984375,-2.080561242675781,23.389312977099237,-108.07633587786259,-28.045801526717558,0.0
13.330000877380371,-10.886434948730468,5.039794494628906,-0.507570751953125,18.763358778625953,99.23664122137404,-37.25190839694657,-10.654197387695312,-0.5578489868164063,-2.3319524169921872,22.580152671755727,-113.31297709923665,-42.16793893129771,0.0
13.340000629425049,-8.63827958984375,1.1420341918945311,-2.4875755249023435,-1.4198473282442747,96.54961832061069,-39.61832061068702,-10.335768566894531,2.1260510742187497,-2.2936451904296873,14.687022900763358,-103.93893129770993,-47.16030534351145,0.0
13.350000619888306,-9.715670336914062,-1.6543933471679686,-2.2840683837890623,-0.5648854961832062,103.64885496183206,-40.732824427480914,-8.43956085205078,5.813121630859374,-5.793968017578124,11.221374045801527,-104.8854961832061,-52.38167938931298,0.0
13.360000610351562,-8.580818749999999,-3.4644098022460934,-2.2744915771484373,7.00763358778626,102.76335877862596,-44.396946564885496,-9.81862100830078,7.917624890136718,-7.199364392089843,-11.923664122137405,-80.38167938931298,-45.02290076335878,0.0
13.37000060081482,-9.773131176757811,-3.3399113159179685,-0.3184288208007812,33.17557251908397,114.50381679389314,-44.0,-8.161833459472655,9.888052856445311,-7.321468676757812,-8.351145038167939,-65.78625954198473,-41.12977099236641,0.0
13.380000591278076,-8.51617530517578,-1.5179238525390624,0.12210428466796874,49.908396946564885,115.57251908396947,-44.900763358778626,-8.17859287109375,7.75721337890625,-6.660669018554687,-28.015267175572518,-51.282442748091604,-29.6793893129771,0.0
13.390000581741333,-10.867281335449219,1.8531120849609375,1.3910311645507811,62.732824427480914,118.22900763358778,-43.221374045801525,-8.935160595703124,4.084508032226562,-4.541800549316406,-26.137404580152673,-35.31297709923664,-16.68702290076336,0.0
13.40000057220459,-10.141838232421874,1.9033903198242186,1.8650830932617186,54.58015267175573,110.35114503816794,-40.79389312977099,-8.303091357421874,3.105279553222656,-4.283226770019531,-9.053435114503817,-30.412213740458014,-14.549618320610687,0.0
13.410000324249268,-9.753977563476562,1.5729904907226562,1.0845733520507812,60.56488549618321,109.57251908396947,-37.969465648854964,-7.958326318359375,2.7269956909179687,-3.447650390625,-7.32824427480916,-22.82442748091603,-13.358778625954198,0.0
13.420000553131104,-9.617508068847656,3.3303345092773435,1.8100164550781248,41.49618320610687,97.48091603053435,-44.0,-7.730877160644531,2.463633508300781,-2.9831752685546875,-4.106870229007634,-16.946564885496183,-15.908396946564885,0.0
13.43000054359436,-14.528015673828124,8.705317236328124,4.7189714721679685,8.778625954198473,87.1145038167939,-44.36641221374046,-7.745242370605468,2.1906945190429687,-3.5122938354492184,-7.6183206106870225,-14.961832061068701,-17.923664122137403,0.0
13.440000534057617,-11.719617126464843,5.7317187744140625,3.507505432128906,-28.3206106870229,66.56488549618321,-39.29770992366412,-8.341398583984375,1.637633935546875,-3.4261025756835934,-5.038167938931298,-13.969465648854962,-16.702290076335878,0.0
13.450000524520874,-11.884817041015625,5.798756420898437,3.651157531738281,-46.51908396946565,58.274809160305345,-35.63358778625954,-8.480262280273436,2.437297290039062,-2.7533319091796873,-2.381679389312977,-14.65648854961832,-15.709923664122137,0.0
13.46000075340271,-9.279925634765624,3.5769372802734374,1.7884686401367187,-67.95419847328245,43.17557251908397,-29.84732824427481,-9.212887988281249,0.6440402465820312,-2.114080065917969,9.083969465648854,-20.519083969465647,-14.564885496183207,0.0
13.470000505447388,-8.91840118408203,1.8435352783203125,1.1659762084960936,-60.18320610687023,45.25190839694657,-22.442748091603054,-11.631031665039062,-3.028665100097656,3.0885201416015624,17.129770992366414,-21.46564885496183,-8.610687022900763,0.0
13.480000734329224,-10.242394702148436,1.8770541015625,1.9704279663085937,-55.29770992366412,45.55725190839695,-21.267175572519083,-8.197746484375,2.4564509033203126,0.33758243408203126,23.099236641221374,-37.083969465648856,-15.679389312977099,0.0
13.490000486373901,-9.234435803222656,1.695094775390625,2.3918074584960936,-50.35114503816794,45.908396946564885,-17.938931297709924,-9.050082275390624,2.597708801269531,0.39983167724609375,17.64885496183206,-38.85496183206107,-14.01526717557252,0.0
13.500000476837158,-9.425971936035156,1.7645266235351562,2.0063409912109376,-42.030534351145036,47.23664122137404,-16.99236641221374,-9.548076220703125,1.7214309936523438,0.5793968017578125,20.82442748091603,-45.847328244274806,-11.068702290076336,0.0
13.510000705718994,-9.962273107910155,3.878606689453125,2.8610709838867185,-49.02290076335878,40.74809160305343,-18.061068702290076,-8.70771143798828,2.779668127441406,0.7805097412109374,15.908396946564885,-49.70992366412214,-12.320610687022901,0.0
13.520000696182251,-9.97184991455078,3.459621398925781,2.1619640991210938,-56.2442748091603,35.48091603053435,-12.045801526717558,-9.366116894531249,2.0254946044921875,0.7852981445312499,18.076335877862597,-53.41984732824427,-11.34351145038168,0.0
13.530000448226929,-9.0788126953125,1.93451494140625,0.9959878906249999,-52.51908396946565,34.2442748091603,-5.66412213740458,-8.305485559082031,2.5426421630859375,0.12689268798828124,11.282442748091603,-57.9236641221374,-13.648854961832061,0.0
13.540000677108765,-8.525752111816406,0.3758896606445312,-0.21068974609375,-45.55725190839695,35.19083969465649,-2.8396946564885495,-8.415618835449218,1.6160861206054686,-0.031124621582031248,6.442748091603053,-57.587786259541986,-14.946564885496183,0.0
13.550000667572021,-11.736376538085937,3.323151904296875,1.924938134765625,-33.465648854961835,47.81679389312977,-8.702290076335878,-8.315062365722655,1.2808978881835937,0.0143652099609375,0.061068702290076333,-57.083969465648856,-16.35114503816794,0.0
13.560000658035278,-11.908759057617187,4.620809204101562,1.9297265380859374,-52.396946564885496,35.61832061068702,-10.946564885496183,-9.311050256347656,-0.948103857421875,0.8212111694335937,4.687022900763359,-54.99236641221374,-15.297709923664122,0.0
13.570000886917114,-9.579200842285156,0.2346317626953125,-1.0917559570312498,-51.3587786259542,30.35114503816794,-4.641221374045801,-9.469067565917967,-0.1771709228515625,-0.29927520751953124,16.778625954198475,-65.31297709923665,-19.587786259541986,0.0
13.580000638961792,-11.240776794433593,1.9895815795898437,0.6775590698242188,-36.88549618320611,40.48854961832061,-5.00763358778626,-9.421183532714844,0.44532150878906246,1.0486603271484374,7.450381679389313,-57.93893129770992,-23.0381679389313,0.0
13.590000867843628,-11.367669482421874,2.39420166015625,1.177947216796875,-61.02290076335878,26.610687022900763,-7.816793893129771,-10.702081420898438,-0.5195417602539062,0.4525041137695312,23.206106870229007,-63.38931297709924,-23.099236641221374,0.0
13.600000381469727,-11.930306872558592,1.4413093994140624,0.7038952880859375,-56.06106870229008,27.83206106870229,-4.0458015267175576,-9.052476477050782,2.683900061035156,0.22026655273437498,20.85496183206107,-67.66412213740458,-25.52671755725191,0.0
13.610000848770142,-10.0748005859375,-0.9911994873046874,0.46686932373046874,-45.11450381679389,31.52671755725191,-2.763358778625954,-10.998962426757812,0.9217676391601562,0.9600748657226562,22.641221374045802,-65.69465648854961,-23.19083969465649,0.0
13.62000060081482,-8.827421520996094,-2.5067291381835934,-0.37828386230468747,-38.70229007633588,29.83206106870229,-7.480916030534351,-9.088389501953124,2.8131869506835936,-0.11252747802734374,22.931297709923665,-70.93129770992367,-25.633587786259543,0.0
13.630000591278076,-7.079654309082031,-1.649604943847656,-1.4628572143554686,-27.19083969465649,28.580152671755727,-11.251908396946565,-11.537657800292967,0.10773907470703124,1.0558429321289062,29.221374045801525,-69.37404580152672,-21.267175572519083,0.0
13.640000581741333,-9.34696328125,1.0342951171875,0.622492431640625,-34.045801526717554,28.396946564885496,-16.946564885496183,-8.513781103515624,2.4301146850585935,0.00718260498046875,23.786259541984734,-73.5114503816794,-24.778625954198475,0.0
13.65000057220459,-9.574412438964844,1.5275006591796874,0.15322890625,-28.977099236641223,28.396946564885496,-11.786259541984732,-12.038045947265624,-0.5626373901367188,1.2210428466796874,25.541984732824428,-68.38167938931298,-18.641221374045802,0.0
13.660000562667847,-6.528987927246093,-1.7501614135742187,-1.3646949462890625,-5.526717557251908,33.63358778625954,-7.297709923664122,-9.030928662109375,1.8435352783203125,-0.13646949462890623,26.259541984732824,-73.34351145038168,-23.893129770992367,0.0
13.670000314712524,-7.244854223632812,-1.3862427612304686,-0.7541735229492187,12.732824427480915,40.900763358778626,-11.068702290076336,-11.669338891601562,-1.0534487304687499,1.6304513305664061,36.916030534351144,-67.57251908396947,-20.778625954198475,0.0
13.68000054359436,-8.305485559082031,0.7230489013671875,-0.086191259765625,18.625954198473284,43.7557251908397,-19.14503816793893,-8.722076647949219,0.8762778076171874,1.024718310546875,40.18320610687023,-71.49618320610686,-26.82442748091603,0.0
13.690000534057617,-10.204087475585936,2.492363928222656,0.411802685546875,14.15267175572519,41.908396946564885,-20.610687022900763,-11.037269653320312,-0.13646949462890623,1.4963760375976562,45.05343511450382,-69.6030534351145,-25.068702290076335,0.0
13.700000762939453,-11.473014355468749,3.7229835815429686,0.603338818359375,5.419847328244275,38.54961832061068,-18.244274809160306,-8.386888415527343,2.461239306640625,0.16759411621093748,41.17557251908397,-72.58015267175573,-30.748091603053435,0.0
13.71000051498413,-12.16254443359375,3.9504327392578125,0.8906430175781249,-6.213740458015267,36.06106870229008,-14.625954198473282,-9.945513696289062,0.8379705810546875,1.158793603515625,34.80916030534351,-62.79389312977099,-26.99236641221374,0.0
13.720000743865967,-10.824185705566405,3.3351229125976563,-0.016759411621093748,-15.938931297709924,29.34351145038168,-10.106870229007633,-8.602366564941406,2.473210314941406,0.028730419921875,36.61068702290076,-63.6793893129771,-29.83206106870229,0.0
13.730000495910645,-10.24718310546875,2.50912333984375,-0.13168109130859373,-27.938931297709924,24.48854961832061,-6.625954198473282,-7.0461354858398435,2.1930887207031247,0.19153613281249998,24.3206106870229,-57.37404580152672,-26.82442748091603,0.0
13.74000072479248,-9.907206469726562,1.4604630126953124,0.0143652099609375,-22.977099236641223,30.47328244274809,-5.847328244274809,-9.631873278808593,1.5370774658203123,0.3902548706054687,25.419847328244273,-50.67175572519084,-22.946564885496183,0.0
13.750000476837158,-9.284714038085937,1.0462661254882812,-0.258573779296875,-30.091603053435115,24.83969465648855,-7.32824427480916,-8.413224633789062,2.3415292236328122,0.11731588134765625,27.480916030534353,-48.25954198473283,-23.46564885496183,0.0
13.760000705718994,-8.99501563720703,-0.00718260498046875,-0.07422025146484375,-21.282442748091604,26.091603053435115,-7.969465648854962,-7.232883215332031,4.168305090332031,-0.36152445068359373,12.931297709923664,-41.29770992366412,-22.671755725190838,0.0
13.770000696182251,-8.537723120117187,-0.229843359375,0.29448680419921874,-12.335877862595419,26.38167938931298,-9.664122137404581,-9.418789331054686,2.1811177124023438,1.1348515869140625,-1.3587786259541985,-24.519083969465647,-18.015267175572518,0.0
13.780000686645508,-8.856151940917968,-0.9911994873046874,0.5578489868164063,-2.2595419847328246,27.64885496183206,-12.183206106870228,-6.792350109863281,1.9201497314453124,-0.3758896606445312,-2.4732824427480917,-22.38167938931298,-19.786259541984734,0.0
13.790000677108765,-8.954314208984375,-0.7278373046875,0.93852705078125,8.885496183206106,26.0,-13.755725190839694,-8.640673791503906,0.507570751953125,0.24181436767578124,9.877862595419847,-19.389312977099237,-17.34351145038168,0.0
13.8000009059906,-9.526528405761718,0.40222587890625,2.3151930053710936,22.18320610687023,27.786259541984734,-17.801526717557252,-8.578424548339843,0.5698199951171875,0.40222587890625,19.541984732824428,-19.00763358778626,-16.33587786259542,0.0
13.8100004196167,-11.173739147949219,2.3439234252929686,3.402160559082031,25.954198473282442,25.022900763358777,-20.30534351145038,-4.714183068847656,3.2800562744140622,-0.1771709228515625,11.694656488549619,-16.33587786259542,-18.427480916030536,0.0
13.820000410079956,-11.786654772949218,4.88417138671875,4.695029455566406,9.740458015267176,13.022900763358779,-18.33587786259542,-5.856217260742187,3.0933085449218747,-0.3495534423828125,-10.977099236641221,-0.5648854961832062,-15.267175572519085,0.0
13.830000877380371,-12.397176196289061,5.013458276367187,6.026205578613281,-2.6717557251908395,0.6717557251908397,-10.732824427480915,-7.781155395507812,1.3000515014648437,-1.1516109985351561,-9.053435114503817,3.6030534351145036,-10.351145038167939,0.0
13.84000039100647,-11.824961999511718,3.3973721557617185,6.955155822753905,5.251908396946565,-10.473282442748092,-1.9389312977099236,-6.296750366210937,1.3958195678710936,-1.1444283935546875,-5.145038167938932,9.877862595419847,-9.83206106870229,0.0
13.850000858306885,-12.246341491699217,3.4452561889648434,8.152256652832031,6.33587786259542,-21.282442748091604,0.8854961832061069,-5.204994409179688,1.4796166259765624,-0.7326257080078125,-9.374045801526718,20.900763358778626,-8.80916030534351,0.0
13.860000848770142,-11.82975040283203,3.375824340820312,8.281543542480469,8.061068702290076,-37.9236641221374,3.618320610687023,-6.5409589355468745,1.1611878051757811,-1.4341267944335936,-2.732824427480916,22.625954198473284,-7.038167938931298,0.0
13.87000060081482,-12.033257543945313,1.6831237670898436,9.30147344970703,14.931297709923664,-55.87786259541985,9.282442748091603,-6.3709706176757805,0.3280056274414062,-1.1947066284179686,-1.450381679389313,34.213740458015266,-2.687022900763359,0.0
13.880000591278076,-13.757082739257811,3.0454245117187497,12.004527124023436,23.206106870229007,-72.83969465648855,14.381679389312977,-2.916137622070312,3.337517114257812,-3.095702746582031,-8.992366412213741,38.0763358778626,-5.282442748091603,0.0
13.890000581741333,-15.363592053222655,3.77326181640625,13.773842150878906,28.106870229007633,-98.09160305343511,21.16030534351145,-5.475539196777343,2.2577321655273437,-2.327164013671875,-30.27480916030534,66.10687022900764,3.6030534351145036,0.0
13.90000057220459,-16.50323204345703,4.206612316894531,15.701174487304687,32.99236641221374,-122.04580152671755,29.282442748091604,-5.791573815917968,0.9792284790039062,-3.5673604736328124,-22.12213740458015,68.27480916030534,8.045801526717558,0.0
13.910000562667847,-16.539145068359375,1.3623007446289062,14.784195251464842,33.587786259541986,-160.01526717557252,32.51908396946565,-6.883329772949218,0.7422025146484375,-1.0390835205078124,-19.419847328244273,82.70229007633588,13.801526717557252,0.0
13.920000553131104,-17.733851696777343,0.3806780639648437,14.851232897949219,34.045801526717554,-190.2290076335878,29.61832061068702,-11.367669482421874,1.7118541870117185,5.408501550292969,-11.541984732824428,72.90076335877863,10.549618320610687,0.0
13.93000078201294,-18.547880261230468,-1.2713210815429687,16.067487341308592,37.083969465648856,-225.96946564885496,20.33587786259542,-15.102624072265623,-1.6208745239257811,12.217611071777343,-36.213740458015266,69.41984732824427,2.030534351145038,0.0
13.940000534057617,-18.883068493652342,0.14604630126953125,15.382745666503906,47.86259541984733,-262.5496183206107,14.244274809160306,-16.347608935546873,-9.04050546875,4.747701892089843,-8.076335877862595,48.12213740458015,-7.557251908396947,0.0
13.950000524520874,-19.024326391601562,1.6831237670898436,7.577648254394531,48.87022900763359,-292.1832061068702,13.801526717557252,-15.35401524658203,-5.928043310546875,1.1540052001953125,34.778625954198475,37.17557251908397,-10.381679389312977,0.0
13.96000075340271,-17.846379174804685,-0.055066638183593745,4.774038110351563,49.45038167938932,-305.9083969465649,21.755725190839694,-16.117765576171873,-1.1851298217773436,2.442085693359375,71.66412213740458,29.480916030534353,-16.610687022900763,0.0
13.970000267028809,-16.424223388671873,-4.707000463867187,-2.3630770385742186,65.86259541984732,-298.0916030534351,34.19847328244275,-15.962142468261717,-0.6009446166992187,4.565742565917969,64.85496183206106,17.801526717557252,-17.16030534351145,0.0
13.980000734329224,-11.245565197753905,-11.02529864501953,-2.0877438476562498,90.01526717557252,-277.55725190839695,37.587786259541986,-8.839392529296875,-0.7110778930664062,3.239354846191406,48.717557251908396,6.854961832061068,-19.938931297709924,0.0
13.990000486373901,-9.536105212402344,-7.809885815429687,-11.441889733886718,108.70229007633588,-254.35114503816794,37.19083969465649,-7.1586629638671875,1.3383587280273437,3.806780639648437,31.633587786259543,7.145038167938932,-14.854961832061068,0.0
14.000000238418579,-5.796362219238281,-1.886630908203125,-12.54561669921875,95.8473282442748,-224.9770992366412,23.221374045801525,-4.153939880371094,5.267243652343749,0.239420166015625,-4.015267175572519,2.9923664122137406,-11.007633587786259,0.0
14.010000705718994,-7.359775903320312,1.6543933471679686,-8.458714465332031,82.1526717557252,-180.76335877862596,18.9618320610687,-6.665457421875,3.660734338378906,-2.8131869506835936,-35.51145038167939,21.114503816793892,0.9618320610687023,0.0
14.02000093460083,-7.414842541503906,2.5737667846679684,-3.909731311035156,75.02290076335878,-143.38931297709922,17.51145038167939,-6.706158850097656,3.1938650146484373,-5.032611889648437,-88.80916030534351,31.709923664122137,6.488549618320611,0.0
14.030000925064087,-7.184999182128906,2.664746447753906,-0.9816226806640624,64.59541984732824,-106.0,17.52671755725191,-10.479420666503906,-3.5913024902343746,-2.379836450195312,-96.97709923664122,59.16030534351145,18.076335877862597,0.0
14.040000677108765,-7.505822204589843,2.9831752685546875,0.076614453125,54.0,-84.04580152671755,16.213740458015266,-11.954248889160155,-8.291120349121094,-2.4301146850585935,-69.00763358778626,58.0,16.519083969465647,0.0
14.050000667572021,-8.79150849609375,4.010287780761718,0.19632453613281248,30.702290076335878,-67.72519083969466,14.0,-12.100295190429687,-9.993397729492187,-1.4245499877929686,-36.88549618320611,70.30534351145039,10.351145038167939,0.0
14.0600004196167,-6.291961962890625,3.0502129150390624,-1.714248388671875,-2.5343511450381677,-61.51145038167939,15.068702290076336,-11.274295617675781,-8.279149340820313,-1.9608511596679685,6.229007633587786,68.97709923664122,6.824427480916031,0.0
14.070001125335693,-6.777984899902344,2.817975354003906,-0.814028564453125,-22.061068702290076,-50.18320610687023,14.030534351145038,-11.226411584472656,-4.946420629882812,-0.8355763793945312,30.732824427480917,77.45038167938931,5.709923664122138,0.0
14.080000400543213,-5.195417602539062,1.7405846069335937,-1.3072341064453123,-35.93893129770992,-46.274809160305345,15.251908396946565,-7.089231115722656,3.641580725097656,-3.1483751831054687,44.900763358778626,74.54961832061069,4.580152671755725,0.0
14.090000867843628,-4.774038110351563,1.6424223388671875,-0.967257470703125,-32.916030534351144,-31.17557251908397,17.31297709923664,-7.936778503417968,5.111620544433594,-1.5921441040039062,19.282442748091604,92.58015267175573,12.549618320610687,0.0
14.100000619888306,-3.39018955078125,-0.32082302246093747,-0.9337386474609375,-22.83969465648855,-17.740458015267176,19.923664122137403,-10.08677159423828,4.6830584472656245,0.9169792358398436,4.076335877862595,107.41984732824427,28.213740458015266,0.0
14.110000610351562,-1.659181750488281,-2.442085693359375,-1.13006318359375,-23.099236641221374,-14.83969465648855,17.954198473282442,-6.2201359130859375,7.074865905761718,-2.592920397949219,-8.381679389312977,97.19083969465649,29.267175572519083,0.0
14.12000060081482,-3.411737365722656,-1.0869675537109373,0.507570751953125,-24.580152671755727,-0.549618320610687,12.50381679389313,-7.951143713378905,5.925649108886718,-2.4779987182617185,-38.396946564885496,105.00763358778626,34.2442748091603,0.0
14.130000352859497,-3.181894006347656,-1.24498486328125,1.47482822265625,-37.343511450381676,5.786259541984733,7.3893129770992365,-11.403582507324218,0.8858546142578124,0.814028564453125,-43.41984732824427,111.00763358778626,44.50381679389313,0.0
14.140000581741333,-2.77727392578125,-2.1978771240234374,3.1866824096679687,-36.58015267175573,21.0381679389313,3.8625954198473282,-12.411541406249999,-3.9695863525390624,1.1324573852539062,-27.282442748091604,102.59541984732824,49.099236641221374,0.0
14.15000033378601,-2.272097375488281,-3.782838623046875,3.361459130859375,-30.83969465648855,28.137404580152673,-1.9083969465648856,-6.744466076660156,-0.565031591796875,-2.6384102294921874,-15.664122137404581,82.30534351145039,36.38167938931298,0.0
14.160000562667847,-0.842758984375,-3.0238766967773434,4.039018200683594,-3.3282442748091605,46.534351145038165,-6.977099236641221,-8.12113203125,0.7589619262695312,-2.379836450195312,-41.70992366412214,94.6412213740458,32.74809160305343,0.0
14.170000553131104,-1.8722656982421875,-0.41419688720703124,5.473144995117187,7.435114503816794,56.19847328244275,-15.435114503816793,-9.983820922851562,-1.0414777221679687,0.3136404174804687,-42.88549618320611,101.2824427480916,36.33587786259542,0.0
14.180000305175781,-2.7150246826171873,0.699106884765625,6.0884548217773435,11.694656488549619,56.38167938931298,-20.091603053435115,-11.044452258300781,-2.91134921875,0.7637503295898437,-17.801526717557252,86.97709923664122,37.55725190839695,0.0
14.190000534057617,-1.946485949707031,0.0,6.038176586914062,23.267175572519083,59.89312977099237,-18.427480916030536,-10.788272680664061,-2.7820623291015623,0.7038952880859375,-10.396946564885496,82.30534351145039,36.29007633587786,0.0
14.200000762939453,-2.9855694702148434,0.6153098266601562,7.283161450195312,38.213740458015266,68.80916030534351,-14.732824427480915,-10.235212097167969,-2.2194249389648437,1.2210428466796874,9.312977099236642,75.02290076335878,33.14503816793893,0.0
14.210000276565552,-5.1882349975585935,2.2481553588867187,9.437942944335937,39.11450381679389,71.19083969465649,-14.595419847328245,-9.828197814941406,-2.384624853515625,1.5945383056640625,6.900763358778626,77.46564885496183,30.091603053435115,0.0
14.220000505447388,-7.71890615234375,3.488351818847656,11.346121667480467,21.31297709923664,63.23664122137404,-14.549618320610687,-10.9175595703125,-3.921702319335937,3.5314474487304683,23.00763358778626,74.3969465648855,31.72519083969466,0.0
14.230000495910645,-11.173739147949219,4.874594580078124,15.215151550292967,9.49618320610687,51.19083969465649,-11.786259541984732,-9.440337145996093,-1.7621324218749999,2.6336218261718747,29.282442748091604,65.61832061068702,30.12213740458015,0.0
14.240000486373901,-12.758700646972656,6.284779357910156,16.12015977783203,4.870229007633588,32.25954198473283,-2.2900763358778624,-9.119514123535156,-1.0390835205078124,1.6903063720703124,28.259541984732824,56.25954198473283,28.229007633587788,0.0
14.250000238418579,-11.994950317382811,7.062894897460937,15.495273144531248,9.969465648854962,19.34351145038168,10.442748091603054,-9.014169250488282,-0.24660277099609373,0.967257470703125,19.72519083969466,51.282442748091604,27.053435114503817,0.0
14.260000705718994,-15.116989282226562,10.89122335205078,17.298106994628906,-0.6412213740458015,1.8015267175572518,18.30534351145038,-9.787496386718749,-0.15562310791015624,-0.3687070556640625,3.801526717557252,49.52671755725191,28.198473282442748,0.0
14.270000696182251,-12.600683337402343,5.772420202636718,18.473660009765624,26.977099236641223,-17.893129770992367,44.732824427480914,-10.754753857421875,-0.7757213378906249,-1.0103531005859374,0.0,46.534351145038165,31.770992366412212,0.0
14.280000686645508,-12.143390820312499,12.318167541503906,4.642357019042969,66.8854961832061,-8.717557251908397,80.3206106870229,-12.339715356445312,-1.8411410766601561,-0.9744400756835937,-3.8473282442748094,40.36641221374046,34.274809160305345,0.0
14.290000677108765,-14.010868115234373,12.820949890136719,0.7230489013671875,9.16030534351145,-25.603053435114504,82.99236641221374,-13.862427612304687,-0.9744400756835937,-1.1707646118164061,-15.267175572519085,38.045801526717554,34.76335877862596,0.0
14.300000667572021,-10.855310327148437,-0.6416460449218749,10.685322009277343,-30.03053435114504,-28.778625954198475,81.06870229007633,-16.39549296875,-0.9097966308593749,0.38786066894531246,-33.80152671755725,36.18320610687023,36.274809160305345,0.0
14.310000896453857,-7.331045483398437,-2.04943662109375,3.6535517333984373,-29.984732824427482,-21.267175572519083,68.18320610687023,-18.11213555908203,-2.2744915771484373,2.50912333984375,-30.763358778625953,22.916030534351144,38.10687022900763,0.0
14.320000410079956,-8.875305554199219,1.2808978881835937,-4.690241052246093,-27.129770992366414,-0.6870229007633588,60.51908396946565,-15.107412475585937,2.7581203125,1.5658078857421873,-42.68702290076336,7.603053435114504,28.366412213740457,0.0
14.330000638961792,-3.0334535034179684,-8.123526232910155,-7.048529687499999,-14.213740458015268,23.16030534351145,51.66412213740458,-13.527239379882811,7.247248425292969,-0.11731588134765625,-60.38167938931298,-0.8091603053435115,18.27480916030534,0.0
14.34000039100647,-2.645592834472656,-7.783549597167968,-3.0166940917968748,-8.488549618320612,34.778625954198475,28.27480916030534,-14.441824414062499,6.0525417968749995,1.3958195678710936,-81.48091603053435,-0.13740458015267176,22.595419847328245,0.0
14.350000858306885,-6.543353137207031,-3.1387983764648437,-2.2266075439453124,41.954198473282446,66.67175572519083,18.931297709923665,-15.184026928710937,6.5577183471679685,-0.39983167724609375,-83.6030534351145,-15.679389312977099,27.31297709923664,0.0
14.360000610351562,-12.62223115234375,0.4381389038085937,-0.9624690673828125,51.74045801526717,79.12977099236642,5.7251908396946565,-15.950171459960936,2.9640216552734375,-1.2425906616210938,-95.12977099236642,-21.083969465648856,32.29007633587786,0.0
14.37000036239624,-16.010026501464843,2.0877438476562498,-0.8978256225585937,23.938931297709924,84.62595419847328,-6.305343511450381,-15.500061547851562,-1.2928688964843749,-1.8004396484374998,-86.54961832061069,-33.87786259541985,34.80916030534351,0.0
14.380000591278076,-13.077129467773437,1.3287819213867187,-1.5873557006835937,11.374045801526718,84.13740458015268,-9.969465648854962,-15.600618017578125,-5.329492895507812,-0.7541735229492187,-61.83206106870229,-39.7557251908397,31.083969465648856,0.0
14.390000343322754,-11.449072338867186,-1.3646949462890625,-1.7310078002929687,18.519083969465647,94.18320610687023,-13.34351145038168,-13.654132067871092,-7.283161450195312,-0.4955997436523437,-8.213740458015268,-58.01526717557252,18.061068702290076,0.0
14.40000057220459,-11.891999645996092,-1.659181750488281,-1.9105729248046874,26.061068702290076,98.42748091603053,-25.61832061068702,-13.007697619628905,-7.343016491699219,-0.7637503295898437,42.06106870229008,-73.09923664122137,0.366412213740458,0.0
14.410000324249268,-12.85207451171875,1.4532804077148436,-1.8076222534179687,12.290076335877863,90.6412213740458,-38.18320610687023,-11.200075366210937,-2.0638018310546875,-2.9089550170898435,64.51908396946565,-85.83206106870229,-20.53435114503817,0.0
14.420000553131104,-7.189787585449218,-2.8514941772460936,-5.341463903808593,14.916030534351146,83.64885496183206,-33.02290076335878,-10.929530578613281,0.22744915771484372,-2.080561242675781,59.29770992366412,-78.65648854961832,-27.61832061068702,0.0
14.430000305175781,-3.9408559326171875,-7.153874560546875,-4.000710974121094,48.36641221374046,108.73282442748092,-35.74045801526717,-8.657433203124999,4.80755693359375,-5.327098693847656,54.19847328244275,-78.09160305343511,-38.229007633587784,0.0
14.440000534057617,-9.967061511230469,-1.2473790649414063,-2.2098481323242187,59.954198473282446,120.99236641221374,-54.412213740458014,-16.194380029296873,1.8602946899414061,-2.96881005859375,57.00763358778626,-56.778625954198475,-31.633587786259543,0.0
14.450000286102295,-10.321403356933594,0.9935936889648437,-1.7717092285156248,57.23664122137404,118.51908396946565,-57.74045801526717,-7.52737001953125,5.834669445800781,-6.277596752929687,39.61832061068702,-57.52671755725191,-34.70229007633588,0.0
14.46000075340271,-12.876016528320312,4.587290380859375,0.3806780639648437,51.74045801526717,121.1145038167939,-54.87022900763359,-7.60398447265625,6.1459156616210935,-6.773196496582031,17.587786259541986,-46.900763358778626,-34.58015267175573,0.0
14.470000505447388,-13.872004418945311,7.041347082519531,2.4253262817382812,24.229007633587788,114.35114503816794,-54.38167938931298,-7.843404638671874,4.189852905273438,-4.627991809082031,13.450381679389313,-36.94656488549618,-26.396946564885496,0.0
14.480000734329224,-13.769053747558592,6.423643054199219,2.446874096679687,-6.6106870229007635,102.2442748091603,-46.44274809160305,-9.251195214843749,5.6215854980468745,-3.775656018066406,5.038167938931298,-29.984732824427482,-20.33587786259542,0.0
14.490000486373901,-12.794613671875,4.496310717773437,3.7038299682617186,-28.778625954198475,90.85496183206106,-41.3587786259542,-8.166621862792969,6.4356140625,-2.0302830078125,-12.763358778625955,-18.091603053435115,-13.099236641221374,0.0
14.500000476837158,-9.667786303710937,0.9840168823242187,3.095702746582031,-40.62595419847328,77.96946564885496,-36.045801526717554,-7.096413720703125,5.80354482421875,-2.27927998046875,-17.206106870229007,-16.916030534351144,-10.198473282442748,0.0
14.510000705718994,-10.75714805908203,0.9935936889648437,4.1754876953124995,-39.52671755725191,72.8854961832061,-36.3206106870229,-8.992621435546875,3.7612908081054686,-2.6958710693359373,-12.885496183206106,-17.984732824427482,-6.5038167938931295,0.0
14.520000696182251,-8.80347950439453,-0.076614453125,3.7421371948242186,-41.587786259541986,65.00763358778626,-36.732824427480914,-7.3478048950195305,3.77326181640625,-1.9033903198242186,-12.702290076335878,-21.87786259541985,-7.374045801526718,0.0
14.530000448226929,-8.94473740234375,-0.105344873046875,3.2800562744140622,-29.129770992366414,66.9618320610687,-35.37404580152672,-8.2743609375,1.5514426757812498,-1.1276689819335937,-11.145038167938932,-19.862595419847327,-4.320610687022901,0.0
14.540000677108765,-9.179369165039063,0.3806780639648437,2.118868469238281,-21.49618320610687,63.81679389312977,-37.11450381679389,-8.80347950439453,0.16519991455078123,-1.8770541015625,7.175572519083969,-31.862595419847327,-4.916030534351145,0.0
14.550000429153442,-11.623849060058593,3.632003918457031,3.3207577026367185,-18.12213740458015,63.52671755725191,-39.20610687022901,-8.99501563720703,0.8212111694335937,-1.7310078002929687,16.65648854961832,-39.3587786259542,-8.01526717557252,0.0
14.5600004196167,-9.306261853027344,4.829104748535156,2.473210314941406,-28.30534351145038,55.17557251908397,-35.16030534351145,-7.592013464355468,2.0350714111328125,-1.7405846069335937,3.114503816793893,-39.49618320610687,-11.923664122137405,0.0
14.570000886917114,-10.527304699707031,7.015010864257812,3.5146880371093747,-41.465648854961835,54.213740458015266,-29.206106870229007,-8.875305554199219,-1.0510545288085937,-0.6919242797851562,4.2748091603053435,-40.274809160305345,-10.992366412213741,0.0
14.580000877380371,-8.98304462890625,5.236119030761718,1.5897499023437498,-58.54961832061068,41.23664122137404,-22.946564885496183,-7.3549875,0.7062894897460937,-1.2713210815429687,6.824427480916031,-48.900763358778626,-15.19083969465649,0.0
14.590000629425049,-9.87608184814453,4.958391638183594,1.5179238525390624,-61.083969465648856,39.6793893129771,-14.885496183206106,-9.026140258789061,-1.3192051147460937,0.14125789794921875,4.549618320610687,-46.10687022900763,-14.732824427480915,0.0
14.600000381469727,-8.863334545898438,2.020706201171875,0.9600748657226562,-55.06870229007634,40.99236641221374,-8.916030534351146,-7.9463553100585935,-0.5315127685546874,-0.2825157958984375,17.954198473282442,-55.61832061068702,-18.748091603053435,0.0
14.610000848770142,-9.509768994140625,1.9943699829101562,1.0582371337890624,-50.99236641221374,38.50381679389313,-7.633587786259542,-8.777143286132812,-1.369483349609375,0.9935936889648437,20.137404580152673,-55.770992366412216,-21.34351145038168,0.0
14.62000060081482,-9.785102185058593,1.446097802734375,1.0821791503906248,-49.74045801526717,37.51145038167939,-6.656488549618321,-9.205705383300781,-1.8722656982421875,0.5339069702148437,38.33587786259542,-66.51908396946565,-24.610687022900763,0.0
14.630000591278076,-11.803414184570311,2.5809493896484375,1.5155296508789062,-49.083969465648856,32.74809160305343,-7.435114503816794,-10.244788903808594,-0.8379705810546875,1.2785036865234374,41.49618320610687,-68.19847328244275,-27.633587786259543,0.0
14.640000581741333,-10.749965454101561,0.33039982910156246,1.24498486328125,-42.25954198473283,35.465648854961835,-5.038167938931298,-10.326191760253906,0.9433154541015625,0.7326257080078125,51.343511450381676,-78.47328244274809,-30.458015267175572,0.0
14.65000057220459,-12.061987963867187,0.8714894042968749,1.7357962036132812,-40.83969465648855,32.595419847328245,-8.030534351145038,-10.64222637939453,2.2960393920898436,1.7717092285156248,46.18320610687023,-77.70992366412214,-28.198473282442748,0.0
14.660000562667847,-10.314220751953124,-1.139639990234375,0.9624690673828125,-32.01526717557252,33.786259541984734,-9.053435114503817,-9.763554370117188,4.374206433105469,0.48123453369140623,44.778625954198475,-89.16030534351145,-29.572519083969464,0.0
14.670000553131104,-10.769119067382812,-0.076614453125,0.8212111694335937,-26.259541984732824,31.541984732824428,-12.793893129770993,-11.058817468261719,3.2800562744140622,1.5490484741210937,30.442748091603054,-85.02290076335878,-25.64885496183206,0.0
14.68000054359436,-9.318232861328125,-0.12449848632812499,1.0845733520507812,-18.427480916030536,34.19847328244275,-14.580152671755725,-9.332598071289063,4.716577270507813,0.5315127685546874,10.717557251908397,-87.7557251908397,-28.931297709923665,0.0
14.690000534057617,-8.13310303955078,0.296881005859375,0.8164227661132812,-11.725190839694656,36.51908396946565,-15.374045801526718,-10.931924780273437,3.27526787109375,0.19871873779296872,-0.21374045801526717,-85.6793893129771,-28.85496183206107,0.0
14.700000762939453,-10.828974108886719,5.025429284667968,2.47081611328125,-25.435114503816795,33.05343511450382,-20.748091603053435,-10.177751257324218,1.5682020874023437,0.47884033203125,-9.206106870229007,-79.34351145038168,-25.236641221374047,0.0
14.71000051498413,-10.364498986816406,4.73094248046875,1.93451494140625,-41.20610687022901,27.297709923664122,-14.625954198473282,-8.896853369140624,2.6575638427734374,-1.2617442749023438,-8.412213740458014,-82.65648854961832,-25.419847328244273,0.0
14.720000743865967,-7.898471276855468,0.7254431030273437,-0.033518823242187495,-32.88549618320611,30.18320610687023,-4.9465648854961835,-10.742782849121093,0.11252747802734374,-0.1580173095703125,-9.267175572519085,-72.58015267175573,-18.702290076335878,0.0
14.730000495910645,-8.844180932617187,0.2442085693359375,1.0486603271484374,-27.17557251908397,38.01526717557252,-7.603053435114504,-8.59997236328125,2.389413256835937,-1.0079588989257813,-1.9389312977099236,-73.57251908396947,-22.229007633587788,0.0
14.740000486373901,-9.196128576660156,-0.8786720092773437,0.11731588134765625,-15.007633587786259,39.282442748091604,-9.923664122137405,-9.892841259765625,0.2537853759765625,0.5913678100585937,-5.435114503816794,-61.93893129770992,-17.19083969465649,0.0
14.750000476837158,-9.184157568359375,-0.5315127685546874,-0.26336218261718747,-3.3587786259541983,42.2442748091603,-13.236641221374045,-9.78031378173828,0.023942016601562498,0.8738836059570312,-2.3206106870229006,-61.25190839694657,-20.931297709923665,0.0
14.760000467300415,-9.53131680908203,0.6272808349609375,-0.59376201171875,-0.7786259541984732,42.70229007633588,-15.801526717557252,-8.389282617187499,2.0374656127929685,0.6823474731445313,-5.297709923664122,-57.02290076335878,-22.68702290076336,0.0
14.770000696182251,-10.072406384277343,2.4516625,-0.05985504150390625,-5.145038167938932,43.64885496183206,-15.358778625954198,-7.886500268554687,2.655169641113281,-0.1867477294921875,-23.61832061068702,-49.14503816793893,-21.740458015267176,0.0
14.780000686645508,-10.000580334472655,2.3343466186523436,0.02633621826171875,-13.17557251908397,42.29007633587786,-12.80916030534351,-8.461108666992187,1.668758557128906,0.7062894897460937,-30.442748091603054,-34.74809160305343,-15.877862595419847,0.0
14.790000677108765,-9.502586389160156,1.4053963745117186,0.14125789794921875,-13.969465648854962,43.41984732824427,-9.679389312977099,-7.390900524902343,1.8171990600585937,0.3447650390625,-22.9618320610687,-34.717557251908396,-15.679389312977099,0.0
