timestamp,Thigh_L_Acc_X,Thigh_L_Acc_Y,Thigh_L_Acc_Z,Thigh_L_Gyr_X,Thigh_L_Gyr_Y,Thigh_L_Gyr_Z,Thigh_R_Acc_X,Thigh_R_Acc_Y,Thigh_R_Acc_Z,Thigh_R_Gyr_X,Thigh_R_Gyr_Y,Thigh_R_Gyr_Z,gpio_output
10.000000476837158,-10.548852514648438,3.69664736328125,8.659827404785156,58.97709923664122,119.09923664122137,17.114503816793892,-17.513585144042967,-0.17477672119140625,1.6472107421875,-52.51908396946565,6.0,30.68702290076336,0.0
10.010000467300415,-10.83376251220703,2.7844565307617186,3.3542765258789062,46.29007633587786,122.80916030534351,13.404580152671755,-15.804125158691406,3.189076611328125,1.0558429321289062,-51.98473282442748,1.099236641221374,27.328244274809162,1.0
10.020000457763672,-6.179434484863281,-1.2689268798828124,0.24181436767578124,27.267175572519083,118.90076335877863,6.8396946564885495,-17.11614766845703,4.165910888671875,0.51714755859375,-58.0,-2.519083969465649,28.0,1.0
10.030000925064087,-9.540893615722656,-1.4820108276367188,4.393360046386719,36.85496183206107,127.98473282442748,-1.0534351145038168,-19.47204210205078,2.0877438476562498,0.948103857421875,-47.80152671755725,-8.290076335877863,33.69465648854962,1.0
10.040000677108765,-1.350329736328125,-13.563152404785155,-3.6200329101562496,67.6030534351145,123.38931297709924,-0.24427480916030533,-19.929334619140622,-0.6416460449218749,2.070984436035156,-19.49618320610687,-24.870229007633586,36.06106870229008,1.0
10.0500009059906,-3.854664672851562,-12.028469140624999,-0.23702596435546874,134.91603053435114,164.5801526717557,-18.732824427480917,-14.633360546874998,1.62805712890625,1.149216796875,-12.335877862595419,-47.48091603053435,25.786259541984734,1.0
10.060000658035278,-4.613626599121093,-6.351817004394531,-5.159504577636718,165.06870229007635,168.68702290076337,-40.18320610687023,-11.473014355468749,1.6615759521484375,1.2832920898437499,-18.03053435114504,-50.33587786259542,13.725190839694656,1.0
10.070000886917114,-10.996568225097656,3.0310593017578125,0.7541735229492187,180.53435114503816,190.03053435114504,-54.80916030534351,-11.082759484863281,-0.7230489013671875,0.9241618408203125,-10.65648854961832,-56.732824427480914,7.450381679389313,1.0
10.080000400543213,-15.562310791015625,8.985438830566405,0.5602431884765625,127.92366412213741,172.33587786259542,-67.78625954198473,-9.423577734375,-1.3072341064453123,1.3000515014648437,-9.16030534351145,-61.908396946564885,-4.885496183206107,1.0
10.090000629425049,-14.061146350097655,11.980585107421874,5.461173986816406,82.9618320610687,155.4351145038168,-67.14503816793894,-8.892064965820312,-1.4724340209960938,1.0031704956054688,-3.7557251908396947,-70.19847328244275,-15.709923664122137,1.0
10.100000619888306,-9.272743029785156,4.292803576660156,0.82360537109375,28.793893129770993,132.36641221374046,-62.47328244274809,-10.723629235839843,-0.9792284790039062,2.0757728393554684,-3.0229007633587788,-69.78625954198473,-28.366412213740457,1.0
10.110000610351562,-11.865663427734374,3.9264907226562498,2.5713725830078125,33.89312977099237,132.7175572519084,-62.030534351145036,-8.243236315917969,-4.642357019042969,-1.4149731811523436,33.61832061068702,-96.01526717557252,-38.83969465648855,1.0
10.12000036239624,-8.499415893554687,1.8435352783203125,0.25139117431640623,27.297709923664122,125.54198473282443,-59.81679389312977,-10.211270080566406,-0.28730419921875,-2.4660277099609376,33.89312977099237,-91.22137404580153,-51.343511450381676,1.0
10.130000591278076,-11.015721838378905,2.626439221191406,1.8626888916015625,31.16030534351145,125.86259541984732,-61.25190839694657,-11.575965026855467,1.1109095703125,-4.584896179199219,55.00763358778626,-83.95419847328245,-52.80916030534351,1.0
10.140000581741333,-9.287108239746093,4.007893579101562,1.8195932617187498,20.85496183206107,120.74809160305344,-64.65648854961832,-11.135431921386719,2.3032219970703123,-4.043806604003906,41.43511450381679,-70.22900763358778,-54.30534351145038,1.0
10.15000057220459,-11.420341918945311,3.907337109375,1.0726023437499999,-2.9618320610687023,109.00763358778626,-62.99236641221374,-11.540052001953125,2.6479870361328124,-2.7629087158203123,45.87786259541985,-66.59541984732824,-51.32824427480916,1.0
10.160000801086426,-10.20169327392578,6.9336080078124995,2.0183119995117185,-4.854961832061068,106.42748091603053,-56.54961832061068,-9.184157568359375,6.241683728027343,-2.8467057739257813,19.770992366412212,-59.725190839694655,-47.81679389312977,1.0
10.170000314712524,-8.243236315917969,2.1906945190429687,1.838746875,-19.541984732824428,105.57251908396947,-50.61068702290076,-6.112396838378906,6.744466076660156,-2.27927998046875,4.061068702290076,-45.725190839694655,-38.29007633587786,1.0
10.18000054359436,-12.650961572265624,6.8593877563476555,4.556165759277343,-31.83206106870229,102.91603053435115,-53.9236641221374,-6.4739212890625,4.261678955078125,-0.031124621582031248,3.0381679389312977,-38.35114503816794,-25.938931297709924,1.0
10.190000534057617,-10.601524951171875,2.6791116577148437,2.4349030883789062,-59.52671755725191,83.90839694656489,-49.57251908396947,-6.8569935546875,0.9528922607421875,0.201112939453125,23.206106870229007,-44.33587786259542,-24.931297709923665,1.0
10.200001001358032,-13.223175769042967,6.509834313964843,5.753266589355468,-67.02290076335878,76.85496183206106,-49.7557251908397,-7.742848168945312,0.5410895751953124,1.3838485595703125,27.709923664122137,-53.69465648854962,-25.69465648854962,1.0
10.210000276565552,-10.579977136230468,2.5809493896484375,3.4811692138671875,-106.56488549618321,55.11450381679389,-45.083969465648856,-7.637503295898437,4.3263223999023435,-0.2657563842773437,23.206106870229007,-62.67175572519084,-33.603053435114504,0.0
10.220000505447388,-17.42260548095703,4.146757275390625,6.591237170410156,-77.09923664122137,74.41221374045801,-45.19083969465649,-8.441955053710936,2.712630480957031,1.1420341918945311,-1.3587786259541985,-57.23664122137404,-30.717557251908396,0.0
10.230000495910645,-11.389217297363281,0.948103857421875,5.003881469726562,-79.14503816793894,57.7557251908397,-41.48091603053435,-9.5384994140625,1.9656395629882812,0.15322890625,14.396946564885496,-70.22900763358778,-33.603053435114504,0.0
10.240000486373901,-9.619902270507811,-1.2282254516601563,1.915361328125,-62.47328244274809,52.10687022900763,-37.099236641221374,-10.998962426757812,2.3056161987304686,1.7022773803710936,11.969465648854962,-74.56488549618321,-28.732824427480917,0.0
10.250000238418579,-7.539341027832031,-0.8643067993164062,1.0749965454101562,-48.0763358778626,53.51145038167939,-36.091603053435115,-9.277531433105468,2.8730419921875,0.6177040283203125,15.17557251908397,-86.94656488549619,-30.35114503816794,0.0
10.260000944137573,-9.713276135253906,4.235342736816406,3.9791631591796874,-58.656488549618324,43.969465648854964,-37.19083969465649,-8.853757739257812,4.80755693359375,0.32561142578124996,8.51908396946565,-92.03053435114504,-32.30534351145038,0.0
10.270000457763672,-7.982268334960937,1.9656395629882812,0.5530605834960938,-68.53435114503817,39.786259541984734,-33.908396946564885,-9.272743029785156,3.0023288818359375,0.5746083984375,-6.763358778625954,-90.65648854961832,-29.267175572519083,0.0
10.280000686645508,-18.818425048828125,14.571111303710937,13.225569970703123,-84.09160305343511,55.12977099236641,-41.3587786259542,-9.33978067626953,2.384624853515625,1.4125789794921875,-22.65648854961832,-85.08396946564885,-26.03053435114504,0.0
10.290000915527344,-12.861651318359375,10.651803186035156,5.930437512207031,-188.65648854961833,-9.633587786259541,-33.32824427480916,-7.582436657714843,2.9376854370117185,0.11252747802734374,-22.27480916030534,-89.14503816793894,-27.709923664122137,0.0
10.300000667572021,-16.110582971191405,8.832209924316405,6.172251879882812,-191.9236641221374,-18.580152671755727,-14.961832061068701,-8.678981018066406,3.3973721557617185,-0.430956298828125,-39.847328244274806,-90.3969465648855,-23.099236641221374,0.0
10.310000658035278,-12.351686364746094,2.454056701660156,1.1540052001953125,-193.49618320610688,-41.9236641221374,0.9312977099236641,-10.127473022460936,1.927332336425781,-0.7158662963867187,-26.99236641221374,-92.50381679389314,-21.14503816793893,0.0
10.320000886917114,-13.951013073730469,0.6488286499023437,3.399766357421875,-146.93129770992365,-32.38167938931298,16.15267175572519,-11.477802758789062,-0.7278373046875,1.2521674682617188,-12.580152671755725,-91.72519083969466,-13.389312977099237,0.0
10.330000877380371,-9.588777648925781,-3.9839515624999997,1.7693150268554687,-109.20610687022901,-40.412213740458014,23.6793893129771,-9.947907897949218,-1.2689268798828124,1.5562310791015623,23.328244274809162,-98.67175572519083,-12.977099236641221,0.0
10.340019941329956,-7.596801867675781,-6.87614716796875,2.2002713256835937,-54.12213740458015,-24.702290076335878,25.938931297709924,-9.873687646484374,-2.3582886352539063,1.7573440185546874,42.091603053435115,-104.04580152671755,-9.801526717557252,0.0
10.350000619888306,-3.7397429931640622,-7.295132458496093,0.8475473876953125,-0.7633587786259542,-10.793893129770993,12.549618320610687,-7.287949853515625,-2.446874096679687,2.636016027832031,59.29770992366412,-105.55725190839695,-13.83206106870229,0.0
10.360000610351562,-6.888118176269531,-2.3965958618164063,1.924938134765625,8.534351145038167,-6.290076335877862,-4.427480916030534,-6.423643054199219,-2.1715409057617188,3.782838623046875,68.44274809160305,-99.78625954198473,-17.51145038167939,0.0
10.37000036239624,-5.003881469726562,-1.7118541870117185,-0.07900865478515624,34.274809160305345,9.740458015267176,-4.625954198473282,-4.240131140136718,-1.13006318359375,3.134009973144531,60.83969465648855,-93.77099236641222,-22.549618320610687,0.0
10.380000352859497,-4.273649963378906,-1.1468225952148436,-0.3902548706054687,48.94656488549618,35.48091603053435,-14.83969465648855,-2.616862414550781,0.46208092041015625,1.9823989746093749,57.847328244274806,-85.34351145038168,-27.251908396946565,0.0
10.390000343322754,-7.769184387207031,3.3446997192382812,0.430956298828125,39.847328244274806,47.81679389312977,-26.50381679389313,-5.530605834960937,-0.4261678955078125,3.35188232421875,46.961832061068705,-67.7557251908397,-24.595419847328245,0.0
10.400052309036255,-10.041281762695311,4.6255976074218745,1.2114660400390624,27.236641221374047,55.38931297709924,-25.587786259541986,-4.4819455078125,2.882618798828125,1.7980454467773437,32.35114503816794,-64.35114503816794,-29.297709923664122,0.0
10.410000562667847,-9.605537060546874,2.511517541503906,1.4963760375976562,21.267175572519083,61.69465648854962,-21.603053435114504,-7.857769848632812,1.438915197753906,3.162740393066406,9.770992366412214,-47.48091603053435,-24.35114503816794,0.0
10.420000791549683,-9.945513696289062,2.5546131713867184,2.176329309082031,17.297709923664122,67.25190839694656,-23.72519083969466,-6.912060192871094,1.3287819213867187,1.9584569580078124,5.0534351145038165,-50.229007633587784,-26.35114503816794,0.0
10.430000305175781,-10.046070166015625,1.8914193115234375,1.5634136840820312,14.82442748091603,66.10687022900764,-24.229007633587788,-10.251971508789062,0.49799394531249996,2.7054478759765623,9.893129770992367,-46.97709923664122,-22.946564885496183,0.0
10.440000534057617,-10.62307276611328,1.8626888916015625,1.838746875,15.038167938931299,64.91603053435115,-24.3206106870229,-9.05965908203125,1.0390835205078124,2.6048914062499997,9.49618320610687,-44.62595419847328,-22.3206106870229,0.0
10.450000286102295,-10.01733974609375,1.3718775512695311,1.3718775512695311,22.213740458015266,60.79389312977099,-23.64885496183206,-10.196904870605469,1.3335703247070312,2.978386865234375,9.236641221374045,-41.541984732824424,-20.106870229007633,0.0
10.46000051498413,-11.051634863281249,2.8658593872070313,1.9105729248046874,23.603053435114504,58.732824427480914,-23.786259541984734,-10.330980163574218,0.7924807495117187,3.265691064453125,10.763358778625955,-39.31297709923664,-17.541984732824428,0.0
10.470000505447388,-10.541669909667968,2.389413256835937,1.3239935180664062,19.66412213740458,49.725190839694655,-22.50381679389313,-10.730811840820312,1.1731588134765625,4.127603662109375,23.572519083969464,-38.25954198473283,-16.106870229007633,0.0
10.480042695999146,-10.328585961914062,2.0757728393554684,1.2234370483398436,25.923664122137403,47.12977099236641,-19.61832061068702,-9.689334118652344,2.2601263671875,2.511517541503906,34.091603053435115,-49.20610687022901,-16.793893129770993,0.0
10.490000486373901,-9.8449572265625,2.2170307373046874,0.5626373901367188,27.053435114503817,45.49618320610687,-20.442748091603054,-10.026916552734374,2.8227637573242186,3.411737365722656,31.267175572519083,-45.52671755725191,-13.267175572519085,0.0
10.500000238418579,-10.177751257324218,3.833116857910156,0.6488286499023437,18.12213740458015,40.85496183206107,-19.709923664122137,-6.794744311523437,4.987122058105468,2.185906115722656,11.49618320610687,-44.56488549618321,-13.17557251908397,0.0
10.510001182556152,-8.765172277832031,3.066972326660156,0.13168109130859373,14.946564885496183,44.47328244274809,-14.900763358778626,-9.074024291992187,2.6599580444335937,2.8658593872070313,-10.198473282442748,-32.68702290076336,-5.541984732824427,0.0
10.520000696182251,-9.840168823242188,3.9360675292968748,1.6232687255859375,0.015267175572519083,46.06106870229008,-17.633587786259543,-6.9144543945312495,2.683900061035156,1.6256629272460936,-14.51908396946565,-34.94656488549618,-7.679389312977099,0.0
10.530000925064087,-10.067617980957031,3.5290532470703124,1.637633935546875,-11.206106870229007,44.87022900763359,-17.87786259541985,-7.766790185546874,1.0582371337890624,3.0789433349609374,-22.259541984732824,-25.374045801526716,-5.511450381679389,0.0
10.540000677108765,-9.208099584960937,1.43652099609375,1.6998831787109374,-16.47328244274809,47.541984732824424,-15.83206106870229,-5.626373901367187,3.366247534179687,1.0797849487304687,-28.748091603053435,-27.64885496183206,-9.664122137404581,0.0
10.550034284591675,-8.020575561523437,1.0941501586914062,1.189918225097656,-25.19083969465649,44.68702290076336,-18.68702290076336,-8.20971749267578,0.5219359619140624,3.1675287963867187,-39.12977099236641,-8.946564885496183,-6.0458015267175576,0.0
10.56019115447998,-10.766724865722656,3.0933085449218747,3.2728736694335936,-31.984732824427482,54.916030534351144,-23.938931297709924,-7.510610607910156,0.086191259765625,1.9488801513671874,-30.916030534351144,-14.366412213740459,-7.099236641221374,0.0
10.570000886917114,-9.888052856445311,3.2058360229492187,2.205059729003906,-38.79389312977099,47.404580152671755,-22.15267175572519,-8.872911352539061,-0.8954314208984374,3.1507693847656246,-21.66412213740458,-7.206106870229007,-6.0,0.0
10.580000638961792,-12.263100903320312,4.165910888671875,3.5386300537109374,-40.67175572519084,45.603053435114504,-18.763358778625953,-7.125144140624999,0.28969840087890625,2.43250888671875,-22.427480916030536,-8.061068702290076,-10.83969465648855,0.0
10.590000629425049,-10.896011755371093,4.139574670410156,3.086125939941406,-47.603053435114504,36.99236641221374,-15.969465648854962,-7.972691528320312,-0.430956298828125,2.214636535644531,-21.17557251908397,-2.4580152671755724,-11.770992366412214,0.0
10.600000381469727,-11.219228979492186,2.4205378784179685,3.660734338378906,-42.091603053435115,30.977099236641223,-11.740458015267176,-6.196193896484375,0.5339069702148437,1.3407529296874998,-22.12213740458015,3.49618320610687,-14.320610687022901,0.0
10.610244989395142,-9.68454571533203,0.5003881469726562,4.390965844726562,-24.549618320610687,28.47328244274809,-11.022900763358779,-6.950367419433594,-0.16519991455078123,2.806004345703125,-25.267175572519083,9.389312977099237,-15.16030534351145,0.0
10.62000036239624,-9.9215716796875,0.8379705810546875,6.179434484863281,-14.13740458015267,20.30534351145038,-14.641221374045802,-5.157110375976562,-0.35194764404296874,3.5793314819335937,-29.419847328244273,13.145038167938932,-17.770992366412212,0.0
10.630000591278076,-11.702857714843748,1.7788918334960937,8.152256652832031,-2.4122137404580153,7.786259541984733,-17.14503816793893,-5.238513232421875,-4.082113830566406,0.5961562133789062,-21.603053435114504,19.64885496183206,-15.267175572519085,0.0
10.640000343322754,-12.411541406249999,2.360682836914062,9.612719665527344,17.480916030534353,-5.740458015267175,-14.916030534351146,-1.9943699829101562,-4.697423657226563,-4.589684582519531,3.8931297709923665,33.49618320610687,-16.916030534351144,0.0
10.65000033378601,-12.933477368164061,1.0223241088867188,11.583147631835937,38.29007633587786,-21.46564885496183,-9.725190839694656,-1.7166425903320313,-2.925714428710937,-11.037269653320312,37.51145038167939,59.29770992366412,-15.969465648854962,0.0
10.660001039505005,-13.156138122558593,-0.23702596435546874,14.401122985839843,66.13740458015268,-38.68702290076336,-7.099236641221374,-0.3591302490234375,4.295197778320312,-14.736311218261719,55.267175572519086,87.87786259541984,-16.702290076335878,0.0
10.670098066329956,-14.992490795898437,0.5315127685546874,16.831237670898435,85.2824427480916,-68.94656488549619,-7.694656488549619,-4.46279189453125,3.6272155151367187,-8.774749084472656,44.412213740458014,120.44274809160305,-10.83969465648855,0.0
10.680080652236938,-18.94052933349609,0.5746083984375,20.573374865722656,97.70992366412214,-102.38167938931298,-5.801526717557252,-9.945513696289062,2.252943762207031,1.3910311645507811,25.64885496183206,115.74045801526718,-6.595419847328245,0.0
10.690000295639038,-21.677101831054685,2.003946789550781,21.96201182861328,112.76335877862596,-143.206106870229,-1.297709923664122,-16.91264052734375,-1.4413093994140624,9.327809667968749,1.633587786259542,132.18320610687022,-4.854961832061068,0.0
10.700000762939453,-24.38254970703125,5.190629199218749,21.339519396972655,112.35114503816794,-189.6946564885496,4.732824427480916,-20.87025587158203,0.8547299926757812,7.714117749023437,-4.0,132.82442748091603,-15.893129770992367,0.0
10.71000051498413,-25.79273448486328,9.085995300292968,18.964471350097654,114.7175572519084,-231.61832061068702,27.236641221374047,-19.436129077148436,-0.26815058593749996,5.767631799316406,-0.8549618320610687,113.5114503816794,-10.045801526717558,0.0
10.720000505447388,-26.163835742187498,9.72285294189453,13.670891479492187,96.82442748091603,-266.0763358778626,51.51145038167939,-13.939042065429687,6.064512805175781,0.143652099609375,16.595419847328245,81.7557251908397,-6.748091603053435,0.0
10.730000734329224,-23.16868946533203,5.494692810058593,8.657433203124999,67.55725190839695,-296.2290076335878,73.14503816793894,-7.790732202148437,8.856151940917968,1.1013327636718748,-11.679389312977099,96.36641221374046,5.923664122137405,0.0
10.740020036697388,-20.365079321289063,2.6910826660156246,3.414131567382812,18.18320610687023,-299.23664122137404,91.16030534351145,-3.5051112304687497,11.786654772949218,-5.485116003417969,-42.82442748091603,88.51908396946565,19.64885496183206,0.0
10.750000238418579,-15.394716674804686,-1.9800047729492187,-1.1635820068359375,-11.49618320610687,-293.74045801526717,103.38931297709924,-0.8762778076171874,9.524134204101562,-4.120421057128906,-114.91603053435115,121.09923664122137,29.984732824427482,0.0
10.760000705718994,-10.790666882324219,-7.845798840332031,-8.013392956542969,-29.267175572519083,-274.5496183206107,102.97709923664122,0.13168109130859373,11.156979736328124,-7.754819177246094,-171.80152671755727,130.74809160305344,37.14503816793893,0.0
10.770000457763672,-7.304709265136719,-8.585607153320312,-9.124302526855468,-44.56488549618321,-260.0458015267176,79.5114503816794,-7.249642626953125,10.32379755859375,-7.0078282592773435,-271.55725190839695,174.33587786259542,40.091603053435115,0.0
10.78019118309021,-6.785167504882812,-9.854534033203125,-6.191405493164062,-18.045801526717558,-231.6793893129771,62.19847328244275,-4.070142822265625,6.53138212890625,-11.786654772949218,-314.3206106870229,167.75572519083968,31.908396946564885,0.0
10.790000915527344,-8.774749084472656,-7.331045483398437,-0.17956512451171874,50.83969465648855,-189.74045801526717,48.19847328244275,-16.704344982910154,-4.802768530273437,-7.785943798828124,-397.48091603053433,205.55725190839695,25.374045801526716,0.0
10.800000667572021,-9.696516723632811,-4.163516687011718,2.6767174560546874,100.62595419847328,-172.15267175572518,38.16793893129771,-16.244658264160154,-23.58288635253906,0.105344873046875,-295.31297709923666,175.3587786259542,24.900763358778626,0.0
10.810000658035278,-12.59589493408203,-1.1276689819335937,2.6192566162109374,122.93129770992367,-159.3587786259542,34.916030534351144,-16.172832214355466,-27.674576989746093,4.989516259765625,-101.70992366412214,116.85496183206106,43.11450381679389,0.0
10.820189237594604,-15.459360119628906,1.8363526733398436,2.39420166015625,113.58778625954199,-156.44274809160305,31.083969465648856,-11.283872424316405,-18.875885888671874,2.6384102294921874,72.10687022900764,70.0,52.61068702290076,0.0
10.830000638961792,-14.595053320312498,2.0254946044921875,-0.06464344482421874,72.53435114503817,-174.50381679389312,33.17557251908397,-7.055712292480468,0.2825157958984375,-7.034164477539062,147.95419847328245,26.061068702290076,51.19083969465649,0.0
10.84000039100647,-12.15536182861328,3.172317199707031,-1.0223241088867188,39.465648854961835,-177.66412213740458,39.02290076335878,-10.340556970214843,10.146626635742187,-4.8314989501953125,55.14503816793893,53.64885496183206,42.916030534351144,0.0
10.850000619888306,-10.709264025878905,5.923254907226562,-0.6272808349609375,0.732824427480916,-178.93129770992365,40.25954198473283,-8.67658681640625,12.648567370605468,-3.0645781249999997,-12.244274809160306,77.96946564885496,32.0763358778626,0.0
10.860000610351562,-5.216965417480468,1.7477672119140624,-2.4875755249023435,-28.0,-176.27480916030535,48.091603053435115,-12.808978881835937,-1.0773907470703123,2.5737667846679684,-47.19083969465649,98.44274809160305,48.42748091603053,0.0
10.870014667510986,-0.047884033203124995,-3.4859576171874997,-2.93050283203125,-16.671755725190838,-151.1145038167939,44.88549618320611,-9.993397729492187,-1.1851298217773436,0.16041151123046873,6.885496183206107,79.17557251908397,56.06106870229008,0.0
10.880008697509766,3.0310593017578125,-6.600813977050781,-3.902548706054687,15.465648854961833,-128.06106870229007,36.961832061068705,-11.159373937988281,-4.886565588378906,1.687912170410156,26.213740458015266,78.18320610687023,60.2442748091603,0.0
10.890000581741333,1.2976572998046874,-3.825934252929687,-2.2481553588867187,50.717557251908396,-88.50381679389314,26.625954198473284,-10.50815108642578,-4.034229797363281,-0.181959326171875,71.49618320610686,63.41984732824427,58.0763358778626,0.0
10.90000057220459,-1.2976572998046874,2.3247698120117186,-0.21787235107421873,50.656488549618324,-69.61832061068702,18.9618320610687,-8.82981572265625,2.231395947265625,-3.4261025756835934,66.99236641221374,59.11450381679389,48.94656488549618,0.0
10.910000562667847,-1.8195932617187498,6.124367846679687,0.7230489013671875,22.015267175572518,-57.41984732824427,19.908396946564885,-8.353369592285155,-0.8499415893554687,1.687912170410156,34.50381679389313,79.78625954198473,51.51145038167939,0.0
10.920000791549683,-1.189918225097656,6.306327172851562,1.6615759521484375,-18.625954198473284,-50.67175572519084,22.396946564885496,-14.362815759277343,-7.208941198730468,2.70065947265625,93.16030534351145,64.1526717557252,59.19083969465649,0.0
10.93000054359436,-0.4381389038085937,3.0119056884765625,2.925714428710937,-42.48854961832061,-39.969465648854964,22.68702290076336,-7.082048510742187,1.7429788085937499,-3.0142998901367184,95.1145038167939,46.56488549618321,53.343511450381676,0.0
10.940101861953735,0.8092401611328125,1.0031704956054688,3.308786694335937,-42.19847328244275,-35.725190839694655,24.366412213740457,-15.466542724609374,-5.729324572753906,4.058171813964844,104.13740458015268,53.43511450381679,59.083969465648856,0.0
10.950000524520874,-0.4860229370117187,2.6240450195312497,5.623979699707031,-33.20610687022901,-17.862595419847327,24.18320610687023,-7.48906279296875,0.3112462158203125,-2.906560815429687,126.54961832061069,21.51145038167939,53.61832061068702,0.0
10.96000051498413,-1.024718310546875,4.122815258789062,6.256048937988281,-27.893129770992367,-14.229007633587786,25.96946564885496,-7.192181787109375,6.694187841796874,-5.121197351074218,65.29770992366412,31.297709923664122,37.908396946564885,0.0
10.970000505447388,-0.8259995727539062,5.197811804199218,6.399701037597656,-27.740458015267176,-9.694656488549619,31.786259541984734,-17.13530128173828,-2.612074011230469,4.067748620605468,36.99236641221374,57.74045801526717,45.969465648854964,0.0
10.980084419250488,-1.848323681640625,5.987898352050781,7.668627917480468,-30.793893129770993,-2.7022900763358777,36.0,-13.84806240234375,-7.513004809570312,5.772420202636718,70.91603053435115,36.595419847328245,46.44274809160305,0.0
10.990000486373901,-0.8379705810546875,4.170699291992188,4.630386010742187,-24.0,3.480916030534351,45.70992366412214,-10.522516296386717,0.18435352783203124,-0.016759411621093748,86.59541984732824,10.122137404580153,39.17557251908397,0.0
11.000000476837158,-0.6344634399414062,5.386953735351562,3.3877953491210935,-17.81679389312977,24.076335877862597,48.213740458015266,-9.392453112792968,8.032546569824218,-3.038241906738281,20.82442748091603,15.648854961832061,25.557251908396946,0.0
11.010000705718994,-1.7310078002929687,5.4707507934570305,2.683900061035156,-34.06106870229008,37.25190839694657,48.778625954198475,-16.620547924804686,-5.05655390625,8.59278975830078,-28.885496183206108,56.732824427480914,37.02290076335878,0.0
11.020000696182251,-1.7693150268554687,0.4070142822265625,0.181959326171875,-57.00763358778626,50.79389312977099,48.36641221374046,-16.18480322265625,-12.58392392578125,8.789114294433594,63.86259541984733,-1.1145038167938932,41.25190839694657,0.0
11.030000925064087,-6.737283471679687,-5.183446594238281,10.141838232421874,-37.099236641221374,64.41221374045801,45.23664122137404,-13.6756798828125,-2.999934680175781,2.0254946044921875,78.27480916030534,-44.76335877862596,24.83969465648855,0.0
11.040000677108765,-13.63737265625,2.4779987182617185,9.93354268798828,11.099236641221374,68.33587786259542,50.595419847328245,-15.418658691406248,2.454056701660156,1.1252747802734375,27.480916030534353,-49.48091603053435,11.206106870229007,0.0
11.05005693435669,-14.10903038330078,7.826645227050781,2.152387292480469,-6.656488549618321,73.40458015267176,45.11450381679389,-17.187973718261716,3.3638533325195312,0.7398083129882812,-6.564885496183206,-58.534351145038165,17.770992366412212,0.0
11.060000658035278,-14.068328955078124,6.49307490234375,1.3646949462890625,-49.69465648854962,71.08396946564885,38.274809160305345,-16.079458349609375,-0.11731588134765625,4.015076184082031,-48.6412213740458,-55.06870229007634,24.290076335877863,0.0
11.070000886917114,-10.237606298828124,-2.133233679199219,4.924872814941406,-56.54961832061068,72.3206106870229,37.43511450381679,-16.661249353027344,3.6296097167968746,3.801992236328125,-60.47328244274809,-54.961832061068705,23.740458015267176,0.0
11.080000638961792,-9.720458740234374,-3.3016040893554686,6.6271501953125,-24.137404580152673,90.93129770992367,29.786259541984734,-13.335703247070311,4.4819455078125,0.6368576416015624,-74.90076335877863,-52.93129770992366,16.625954198473284,0.0
11.090000629425049,-7.156268762207031,-4.80755693359375,0.5027823486328125,12.870229007633588,106.79389312977099,21.69465648854962,-13.57272921142578,5.568913061523437,0.6775590698242188,-79.93893129770993,-39.465648854961835,20.48854961832061,0.0
11.100064754486084,2.0973206542968748,-11.1474029296875,-3.9432501342773434,33.02290076335878,101.77099236641222,16.045801526717558,-13.51526837158203,2.779668127441406,0.2825157958984375,-81.38931297709924,-29.81679389312977,24.458015267175572,0.0
11.110007047653198,-1.0438719238281249,-12.425906616210936,1.1755530151367186,115.02290076335878,169.2824427480916,-5.404580152671755,-15.612589025878906,-0.9241618408203125,0.36391865234375,-60.656488549618324,-34.12213740458015,29.435114503816795,0.0
11.12000036239624,-13.038822241210937,-1.158793603515625,1.5777788940429687,133.0229007633588,176.54961832061068,-40.67175572519084,-14.013262316894531,0.2442085693359375,0.1388636962890625,-40.61068702290076,-38.900763358778626,24.259541984732824,0.0
11.130000591278076,-13.951013073730469,0.9121908325195311,0.3232172241210937,120.47328244274809,161.86259541984734,-44.534351145038165,-13.615824841308592,-1.4508862060546874,-0.737414111328125,-22.12213740458015,-50.458015267175576,17.908396946564885,0.0
11.140181064605713,-12.777854260253905,6.2009822998046875,6.210559106445312,109.80152671755725,160.68702290076337,-45.954198473282446,-11.93270107421875,-0.9935936889648437,-1.1827356201171875,-19.572519083969464,-59.9236641221374,6.5038167938931295,0.0
11.15007495880127,-14.595053320312498,11.473014355468749,6.449979272460937,47.87786259541985,131.8320610687023,-54.67175572519084,-10.022128149414062,-1.218648645019531,-2.473210314941406,-8.763358778625955,-66.68702290076335,-11.251908396946565,0.0
11.160000801086426,-15.576676000976562,10.85291612548828,4.477157104492187,-11.572519083969466,100.90076335877863,-50.396946564885496,-7.536946826171874,1.6807295654296874,-1.9488801513671874,-20.900763358778626,-66.04580152671755,-24.793893129770993,0.0
11.170000314712524,5.609614489746093,-13.64934366455078,-3.327940307617187,-10.916030534351146,72.91603053435115,-25.6793893129771,-10.338162768554687,0.20350714111328125,0.44053310546874996,-13.48091603053435,-62.29007633587786,-30.641221374045802,0.0
11.18000078201294,12.150573425292968,-30.341717639160155,-11.415553515625,161.2824427480916,155.81679389312978,-25.6793893129771,-9.167398156738281,-2.4971523315429685,-0.9361328491210937,26.244274809160306,-62.44274809160305,-31.129770992366414,0.0
11.190187931060791,-4.005499377441406,-11.473014355468749,-5.05655390625,293.70992366412213,214.74809160305344,-69.00763358778626,-5.260061047363281,-5.228936425781249,-2.0470424194335934,51.64885496183206,-57.847328244274806,-38.091603053435115,0.0
11.200000762939453,-11.283872424316405,4.096479040527344,-7.395688928222656,310.0763358778626,205.9083969465649,-84.51908396946565,-8.058882788085937,-1.714248388671875,-3.1962592163085937,85.02290076335878,-54.82442748091603,-36.61068702290076,0.0
11.210020542144775,-21.116858642578123,16.563087084960937,1.199495031738281,293.1297709923664,210.8854961832061,-76.79389312977099,-8.319850769042969,3.1268273681640624,-4.946420629882812,64.29007633587786,-49.89312977099237,-49.282442748091604,0.0
11.220000505447388,-18.255787658691403,26.238055993652342,2.987963671875,125.17557251908397,159.2824427480916,-69.05343511450381,-7.532158422851562,7.125144140624999,-4.053383410644531,24.061068702290076,-37.786259541984734,-51.32824427480916,0.0
11.230000495910645,-14.207192651367187,19.438523278808592,3.0789433349609374,-10.473282442748092,113.5114503816794,-71.86259541984732,-9.361328491210937,6.2009822998046875,-3.782838623046875,3.053435114503817,-25.053435114503817,-35.7557251908397,0.0
11.240000247955322,-14.168885424804687,15.1313544921875,3.7301661865234372,-126.70229007633588,68.22900763358778,-76.45801526717557,-10.71884083251953,4.271255761718749,-1.3383587280273437,1.5419847328244274,-13.19083969465649,-15.908396946564885,0.0
11.250000238418579,-3.9719805541992184,-4.876988781738281,-3.0933085449218747,-141.1145038167939,48.85496183206107,-56.091603053435115,-8.259995727539062,7.364564306640625,-2.9089550170898435,-0.061068702290076333,-24.885496183206108,-10.961832061068701,0.0
11.260143280029297,-3.641580725097656,-10.599130749511717,-1.0295067138671874,-65.8473282442748,71.80152671755725,-45.221374045801525,-8.743624462890624,7.335833886718749,-2.1715409057617188,-22.061068702290076,-17.328244274809162,-6.2748091603053435,0.0
11.270000696182251,-15.650896252441406,6.505045910644531,8.0828248046875,-18.48854961832061,94.35114503816794,-56.74809160305343,-11.015721838378905,1.8722656982421875,0.7230489013671875,-11.16030534351145,-7.938931297709924,-1.1603053435114503,0.0
11.280000448226929,-12.236764685058594,4.608838195800781,2.3582886352539063,-66.91603053435115,65.92366412213741,-54.412213740458014,-11.288660827636718,1.0223241088867188,0.5458779785156249,3.5267175572519083,-19.34351145038168,-6.748091603053435,0.0
11.290018081665039,-6.2392895263671875,-5.530605834960937,-0.3136404174804687,-45.80152671755725,67.98473282442748,-49.43511450381679,-9.758765966796874,1.8746598999023436,0.3902548706054687,-4.122137404580153,-26.778625954198475,-13.083969465648854,0.0
11.300000667572021,-7.146691955566406,-4.977545251464844,-0.42377369384765623,11.98473282442748,91.23664122137404,-52.85496183206107,-9.265560424804686,-0.737414111328125,1.8195932617187498,1.5877862595419847,-27.099236641221374,-16.80916030534351,0.0
11.31004285812378,-8.942343200683593,0.3902548706054687,0.32561142578124996,35.908396946564885,100.45801526717557,-59.083969465648856,-8.118737829589843,0.055066638183593745,0.4955997436523437,17.633587786259543,-42.900763358778626,-21.81679389312977,0.0
11.320000648498535,-10.850521923828124,4.651933825683593,1.4987702392578124,36.10687022900763,105.2824427480916,-60.36641221374046,-6.335057592773437,3.861847277832031,0.6153098266601562,-4.412213740458015,-44.47328244274809,-26.290076335877863,0.0
11.330000638961792,-15.006856005859374,11.504138977050781,3.2345664428710936,-9.312977099236642,94.82442748091603,-64.65648854961832,-7.467514978027343,0.6248866333007812,2.379836450195312,-8.65648854961832,-38.80916030534351,-19.84732824427481,0.0
11.34000039100647,-18.033126904296875,17.405846069335936,8.614337573242187,-83.6793893129771,73.8473282442748,-69.32824427480917,-8.635885388183594,-0.33758243408203126,2.288856787109375,11.358778625954198,-54.3206106870229,-18.137404580152673,0.0
11.350163459777832,-5.528211633300781,-0.9504980590820312,-1.62805712890625,-138.77862595419847,38.6412213740458,-50.93129770992366,-7.544129431152343,3.6846763549804686,1.3575123413085937,-7.450381679389313,-59.38931297709924,-20.625954198473284,0.0
11.360000371932983,-6.828263134765624,-3.5984850952148437,-0.7924807495117187,-88.36641221374046,48.25954198473283,-43.00763358778626,-8.341398583984375,0.8379705810546875,1.637633935546875,-20.198473282442748,-55.725190839694655,-17.51145038167939,0.0
11.37000060081482,-17.37232724609375,9.842563024902343,4.671087438964843,-89.34351145038168,45.05343511450382,-45.786259541984734,-9.572018237304688,-0.15322890625,1.9297265380859374,-8.122137404580153,-60.50381679389313,-18.18320610687023,0.0
11.380000591278076,-18.222268835449217,15.447389111328125,9.102754711914063,-147.98473282442748,23.572519083969464,-42.58015267175573,-10.9175595703125,-2.6096798095703124,2.1739351074218747,12.595419847328245,-73.06870229007633,-18.717557251908396,0.0
11.390000581741333,-10.551246716308594,4.364629626464843,-0.011971008300781249,-204.33587786259542,-16.290076335877863,-27.068702290076335,-10.283096130371094,0.5770026000976562,1.7693150268554687,16.50381679389313,-86.22900763358778,-25.52671755725191,0.0
11.40000033378601,-21.727380065917966,13.836091394042969,10.919953771972656,-201.2824427480916,-13.267175572519085,-20.9618320610687,-11.018116040039061,0.38786066894531246,1.68551796875,14.610687022900763,-92.07633587786259,-28.564885496183205,0.0
11.410000324249268,-16.594211706542968,10.292672937011718,4.709394665527343,-258.59541984732823,-66.50381679389314,-5.526717557251908,-11.420341918945311,2.398990063476562,0.7350199096679687,26.412213740458014,-105.5114503816794,-34.48854961832061,0.0
11.420000314712524,-12.416329809570312,-2.530671154785156,-0.49799394531249996,-206.8854961832061,-72.6412213740458,33.70992366412214,-10.108319409179687,2.940079638671875,0.24181436767578124,16.0,-117.48091603053435,-32.595419847328245,0.0
11.43000054359436,-10.180145458984374,-9.083601098632812,2.042254016113281,-116.62595419847328,-50.88549618320611,46.6412213740458,-10.740388647460938,2.1212626708984375,1.8363526733398436,29.16030534351145,-115.66412213740458,-30.82442748091603,0.0
11.440000772476196,-4.680664245605469,-12.361263171386717,-0.9097966308593749,-75.12977099236642,-55.55725190839695,32.030534351145036,-11.645396875,1.1611878051757811,0.9983820922851562,57.81679389312977,-119.23664122137404,-22.99236641221374,0.0
11.450000286102295,1.4700398193359374,-8.930372192382812,-3.749319799804687,-26.793893129770993,-60.25954198473283,15.893129770992367,-8.453926062011718,-1.6831237670898436,1.2593500732421874,77.09923664122137,-129.86259541984734,-18.18320610687023,0.0
11.46000051498413,-3.2441432495117186,-6.605602380371093,-1.4915876342773438,18.015267175572518,-23.450381679389313,5.282442748091603,-6.579266162109374,-0.6200982299804687,3.277662072753906,85.31297709923665,-115.19083969465649,-18.47328244274809,0.0
11.470011472702026,-3.1387983764648437,-3.0238766967773434,-1.1851298217773436,44.229007633587784,8.80916030534351,-5.3893129770992365,-5.329492895507812,-0.15083470458984374,2.0063409912109376,81.52671755725191,-109.02290076335878,-26.12213740458015,0.0
11.480000495910645,-4.553771557617187,0.4070142822265625,-0.9002198242187499,51.587786259541986,35.86259541984733,-20.763358778625953,-6.351817004394531,-0.6871358764648438,2.262520568847656,67.8473282442748,-92.65648854961832,-21.0381679389313,0.0
11.490000486373901,-8.882488159179687,3.7900212280273435,-0.09816226806640624,38.01526717557252,51.954198473282446,-30.3206106870229,-3.5146880371093747,4.836287353515624,-0.011971008300781249,46.87022900763359,-81.23664122137404,-25.923664122137403,0.0
11.500000476837158,-8.418013037109375,1.7238251953125,0.2825157958984375,34.274809160305345,62.44274809160305,-26.68702290076336,-7.096413720703125,4.07971962890625,0.3687070556640625,21.358778625954198,-64.62595419847328,-20.03053435114504,0.0
11.510142803192139,-8.379705810546875,0.8355763793945312,0.9002198242187499,38.99236641221374,69.5114503816794,-29.083969465648856,-7.678204724121093,3.8283284545898435,-0.6057330200195312,2.6412213740458017,-57.52671755725191,-22.045801526717558,0.0
11.520000696182251,-9.648632690429688,2.2002713256835937,1.2018892333984375,41.282442748091604,72.73282442748092,-33.02290076335878,-9.801861596679688,2.8323405639648436,0.15083470458984374,-10.51908396946565,-52.38167938931298,-19.282442748091604,0.0
11.530000925064087,-10.75714805908203,4.582501977539062,0.7326257080078125,37.64885496183206,70.56488549618321,-31.786259541984734,-11.274295617675781,1.16837041015625,0.9600748657226562,-13.969465648854962,-41.954198473282446,-14.01526717557252,0.0
11.540000438690186,-10.63025537109375,5.248090039062499,0.9983820922851562,28.82442748091603,67.1145038167939,-26.03053435114504,-8.508992700195313,1.9416975463867185,0.10773907470703124,-14.0,-43.69465648854962,-15.297709923664122,0.0
11.5500009059906,-10.58476553955078,4.697423657226563,1.0031704956054688,24.091603053435115,61.83206106870229,-18.977099236641223,-10.180145458984374,1.2976572998046874,0.9528922607421875,-11.450381679389313,-38.88549618320611,-12.122137404580153,0.0
11.560000658035278,-10.378864196777343,3.5601778686523438,1.4245499877929686,17.557251908396946,56.36641221374046,-16.015267175572518,-9.777919580078125,1.0917559570312498,1.0941501586914062,-9.908396946564885,-35.48091603053435,-12.183206106870228,0.0
11.570000886917114,-10.144232434082031,3.1771056030273437,1.8507178833007811,13.389312977099237,48.85496183206107,-14.900763358778626,-9.751583361816406,1.5035586425781249,1.8363526733398436,-8.580152671755725,-30.16793893129771,-14.641221374045802,0.0
11.580000638961792,-10.110713610839843,2.4013842651367185,1.369483349609375,12.763358778625955,42.93129770992366,-13.526717557251908,-8.813056311035156,1.9943699829101562,1.8219874633789062,-11.236641221374045,-25.49618320610687,-16.35114503816794,0.0
11.590000629425049,-10.065223779296874,2.6862942626953124,1.8028338500976562,13.007633587786259,42.6412213740458,-15.145038167938932,-9.943119494628906,1.0223241088867188,2.849099975585937,-10.381679389312977,-19.297709923664122,-14.50381679389313,0.0
11.600000619888306,-9.926360083007811,2.518700146484375,1.455674609375,7.419847328244275,39.19083969465649,-16.946564885496183,-10.137049829101562,1.4413093994140624,2.398990063476562,2.687022900763359,-23.19083969465649,-14.793893129770993,0.0
11.610000371932983,-10.474632263183594,1.9105729248046874,2.1021090576171875,5.450381679389313,40.10687022900763,-18.99236641221374,-8.94473740234375,2.1404162841796874,4.072537023925781,-7.450381679389313,-12.122137404580153,-12.0,0.0
11.620329856872559,-10.749965454101561,2.492363928222656,3.1411925781249996,-3.66412213740458,37.954198473282446,-20.580152671755727,-7.6279264892578125,2.5067291381835934,2.3319524169921872,-7.343511450381679,-20.03053435114504,-12.01526717557252,0.0
11.630000829696655,-10.180145458984374,1.9416975463867185,1.9776105712890624,-11.312977099236642,31.52671755725191,-20.30534351145038,-8.307879760742187,2.3726538452148436,2.748543505859375,-6.6106870229007635,-17.51145038167939,-8.748091603053435,0.0
11.640000581741333,-11.420341918945311,2.214636535644531,2.243366955566406,-7.847328244274809,35.786259541984734,-18.33587786259542,-6.787561706542968,2.9281086303710935,1.9488801513671874,-13.053435114503817,-16.213740458015266,-8.702290076335878,0.0
11.650032043457031,-8.973467822265624,1.9991583862304687,0.6655880615234374,-9.694656488549619,32.16793893129771,-18.82442748091603,-8.70771143798828,1.0869675537109373,2.4756045166015626,-14.122137404580153,-12.091603053435115,-5.480916030534351,0.0
11.660000801086426,-11.350910070800781,3.162740393066406,2.0566192260742184,-13.404580152671755,35.49618320610687,-21.541984732824428,-6.777984899902344,1.7357962036132812,1.9009961181640624,-19.633587786259543,-9.221374045801527,-7.206106870229007,0.0
11.670000553131104,-11.044452258300781,3.296815686035156,1.3239935180664062,-21.51145038167939,28.16793893129771,-20.366412213740457,-8.904035974121093,-0.33518823242187495,2.3630770385742186,-18.229007633587788,-4.961832061068702,-4.931297709923665,0.0
11.68016767501831,-10.922347973632812,2.0829554443359375,2.1835119140624997,-17.6793893129771,26.076335877862597,-17.419847328244273,-7.445967163085937,-0.033518823242187495,2.4013842651367185,-17.69465648854962,-0.6564885496183206,-6.793893129770993,0.0
11.690000534057617,-11.585541833496093,2.6312276245117188,3.5051112304687497,-23.938931297709924,21.114503816793892,-18.427480916030536,-7.326257080078125,-0.3495534423828125,2.0733786376953125,-12.961832061068701,2.519083969465649,-7.526717557251908,0.0
11.700576066970825,-12.243947290039062,2.128445275878906,5.159504577636718,-19.435114503816795,19.786259541984734,-19.801526717557252,-6.828263134765624,-0.36391865234375,1.697488977050781,-8.335877862595419,5.908396946564886,-7.603053435114504,0.0
11.71000051498413,-13.584700219726562,3.5697546752929687,7.331045483398437,-18.519083969465647,13.801526717557252,-21.282442748091604,-6.45476767578125,-0.16041151123046873,1.0965443603515623,-4.977099236641221,10.65648854961832,-9.267175572519085,0.0
11.720000505447388,-12.876016528320312,2.5570073730468748,7.838616235351562,-27.862595419847327,-7.679389312977099,-19.862595419847327,-6.950367419433594,-0.6512228515624999,1.0295067138671874,-1.9389312977099236,15.954198473282442,-8.51908396946565,0.0
11.730000495910645,-11.200075366210937,0.7541735229492187,8.12113203125,-6.5038167938931295,-17.022900763358777,-14.442748091603054,-5.6311623046875,0.16519991455078123,-0.3064578125,-0.22900763358778625,20.931297709923665,-9.16030534351145,0.0
11.740000486373901,-14.214375256347655,3.7205893798828122,10.905588562011719,-6.824427480916031,-28.778625954198475,-17.893129770992367,-4.319139794921875,1.484405029296875,-1.0606313354492187,-6.473282442748092,36.88549618320611,-7.709923664122138,0.0
11.750000476837158,-14.654908361816405,4.673481640625,12.746729638671875,-21.770992366412212,-60.33587786259542,-15.221374045801527,-5.0182466796875,1.0342951171875,-0.93852705078125,-6.564885496183206,43.81679389312977,-4.33587786259542,0.0
11.760000467300415,-14.47294903564453,3.394977954101562,14.099453576660155,-12.595419847328245,-84.51908396946565,-4.473282442748092,-4.53940634765625,3.39018955078125,2.844311572265625,-23.328244274809162,46.274809160305345,-6.198473282442748,0.0
11.770000696182251,-15.08586466064453,2.5905261962890624,15.00925020751953,-8.488549618320612,-110.77862595419847,1.816793893129771,-6.6319385986328125,-3.3016040893554686,3.9432501342773434,-51.908396946564885,68.2442748091603,3.5419847328244276,0.0
11.780000686645508,-16.443377001953124,1.5921441040039062,16.71392178955078,0.3053435114503817,-139.80152671755727,4.702290076335878,-2.3822306518554686,0.047884033203124995,-7.146691955566406,-35.06870229007634,78.21374045801527,-1.7557251908396947,0.0
11.790000438690186,-16.639701538085937,0.928950244140625,16.55590447998047,16.290076335877863,-172.0763358778626,9.49618320610687,-7.232883215332031,0.8714894042968749,-7.668627917480468,-15.465648854961833,104.58015267175573,6.6106870229007635,0.0
11.800000667572021,-18.32761370849609,1.1085153686523437,16.237475659179687,33.80152671755725,-200.53435114503816,12.580152671755725,-6.5960255737304685,9.102754711914063,-4.675875842285156,-32.44274809160305,104.6412213740458,-3.6030534351145036,0.0
11.810000658035278,-18.59097589111328,1.7094599853515624,10.625466967773438,44.656488549618324,-232.3053435114504,14.564885496183207,-11.674127294921874,4.932055419921875,3.5817256835937497,-99.6030534351145,143.95419847328245,1.0687022900763359,0.0
11.820000648498535,-18.729839587402342,1.6328455322265625,10.927136376953124,39.17557251908397,-252.70229007633588,13.908396946564885,-11.322179650878905,-2.109291662597656,0.40462008056640625,-129.45038167938932,141.58778625954199,3.969465648854962,0.0
11.830000877380371,-17.99721387939453,1.0486603271484374,5.817910034179687,53.786259541984734,-264.1374045801527,28.885496183206108,-17.650054638671875,-4.65432802734375,8.985438830566405,-119.02290076335878,153.64885496183206,6.396946564885496,0.0
11.84000039100647,-13.022062829589842,-2.655169641113281,-0.4213794921875,74.6412213740458,-255.23664122137404,56.030534351145036,-16.443377001953124,-8.63827958984375,8.98304462890625,-75.23664122137404,117.8473282442748,19.801526717557252,0.0
11.850000619888306,-11.149797131347656,-6.715735656738281,-2.7533319091796873,91.54198473282443,-232.13740458015266,64.42748091603053,-5.796362219238281,-1.1516109985351561,-0.34715924072265625,-24.259541984732824,74.27480916030534,13.465648854961833,0.0
11.860000610351562,-11.729193933105469,-5.652710119628906,-7.438784558105469,92.33587786259542,-220.27480916030535,60.6412213740458,-4.0988732421875,12.514492077636717,-3.9719805541992184,-89.74045801526718,92.51908396946565,9.419847328244275,0.0
11.87000060081482,-12.241553088378906,-1.9033903198242186,-8.913612780761719,56.06106870229008,-215.1908396946565,51.64885496183206,-9.294290844726563,10.644620581054687,-2.932897033691406,-162.90076335877862,113.05343511450381,23.923664122137403,0.0
11.880000352859497,-13.022062829589842,-0.5003881469726562,-3.4715924072265625,34.88549618320611,-200.61068702290078,46.778625954198475,4.508281726074219,15.246276171875,-15.593435412597655,-191.3740458015267,86.77862595419847,13.083969465648854,0.0
11.890000581741333,-13.567940808105467,3.0741549316406247,3.1124621582031247,37.49618320610687,-182.70229007633588,44.33587786259542,-10.912771166992187,12.033257543945313,-13.632584252929687,-363.00763358778624,158.13740458015266,16.427480916030536,0.0
11.90000057220459,-11.080365283203124,2.77727392578125,6.768408093261718,31.114503816793892,-175.0381679389313,50.10687022900763,-13.936647863769531,-6.6702458251953125,-5.305550878906249,-304.6412213740458,153.89312977099237,31.34351145038168,0.0
11.910000562667847,-10.649408984374999,0.5386953735351562,5.6191912963867185,40.6412213740458,-165.49618320610688,49.20610687022901,-17.60217060546875,-30.317775622558592,-0.00239420166015625,-216.51908396946564,146.8091603053435,42.656488549618324,0.0
11.920000314712524,-8.372523205566406,-3.9815573608398434,2.061407629394531,44.54961832061068,-163.46564885496184,42.274809160305345,-15.557522387695311,-25.90765616455078,3.8235400512695312,-35.87786259541985,96.68702290076335,46.85496183206107,0.0
11.93000054359436,-9.222464794921875,-6.1842228881835934,1.0989385620117187,51.05343511450382,-153.08396946564886,27.541984732824428,-10.376469995117187,-10.967837805175781,1.8052280517578123,82.35114503816794,65.6793893129771,52.656488549618324,0.0
11.940000534057617,-8.951920007324219,-6.119579443359375,-0.7134720947265625,59.51145038167939,-149.95419847328245,21.16030534351145,-8.003816149902343,-3.1866824096679687,0.009576806640625,131.89312977099237,46.396946564885496,51.83206106870229,0.0
11.950000524520874,-8.489839086914062,-1.3670891479492187,1.0917559570312498,56.85496183206107,-135.16030534351145,18.82442748091603,-9.430760339355468,4.651933825683593,-1.1755530151367186,107.93893129770993,41.770992366412216,44.76335877862596,0.0
11.96000075340271,-5.889736083984375,1.9416975463867185,1.3527239379882812,38.717557251908396,-132.51908396946564,20.259541984732824,-11.585541833496093,3.3710359375,1.5825672973632812,48.091603053435115,63.57251908396947,43.603053435114504,0.0
11.970000505447388,-5.679046337890624,3.6583401367187496,2.3630770385742186,11.236641221374045,-119.55725190839695,19.31297709923664,-10.723629235839843,1.2713210815429687,-0.3687070556640625,57.847328244274806,52.0763358778626,46.961832061068705,0.0
11.980000495910645,-3.478775012207031,1.7693150268554687,1.8531120849609375,-1.7099236641221374,-115.1145038167939,19.374045801526716,-16.041151123046873,-3.986345764160156,1.465251416015625,69.66412213740458,49.29770992366412,56.97709923664122,0.0
11.990000486373901,-2.9089550170898435,0.040701428222656245,2.703053674316406,-0.549618320610687,-97.80152671755725,18.396946564885496,-10.39322940673828,-0.6631938598632812,-2.750937707519531,65.52671755725191,46.54961832061068,50.61068702290076,0.0
12.000000238418579,-2.24097275390625,-0.26336218261718747,1.3742717529296875,3.053435114503817,-89.89312977099236,16.244274809160306,-12.191274853515624,-3.754108203125,0.06703764648437499,74.3206106870229,49.81679389312977,48.85496183206107,0.0
12.010000705718994,-1.7693150268554687,0.9983820922851562,1.7262193969726563,15.32824427480916,-68.79389312977099,17.740458015267176,-9.119514123535156,-0.17238251953125,-2.0446482177734375,58.900763358778626,50.68702290076336,42.0763358778626,0.0
12.020000696182251,-1.0223241088867188,1.467645617675781,1.6328455322265625,20.106870229007633,-59.6793893129771,20.0,-12.248735693359373,-4.80755693359375,3.1411925781249996,71.3587786259542,56.396946564885496,46.58015267175573,0.0
12.030000925064087,-1.5179238525390624,2.1787235107421874,2.7557261108398436,16.610687022900763,-43.12977099236641,20.18320610687023,-10.0748005859375,-2.3535002319335936,-0.33758243408203126,118.03053435114504,25.72519083969466,48.274809160305345,0.0
12.040000677108765,-1.0199299072265624,2.8658593872070313,3.7804444213867185,10.992366412213741,-37.61832061068702,19.267175572519083,-12.375628381347655,-2.308010400390625,2.185906115722656,113.1145038167939,29.908396946564885,48.33587786259542,0.0
12.0500009059906,-2.583343591308594,5.9208607055664055,5.853823059082031,-2.8091603053435112,-30.16793893129771,20.015267175572518,-9.038111267089842,2.703053674316406,-0.105344873046875,114.79389312977099,13.404580152671755,42.25954198473283,0.0
12.060000658035278,-2.4875755249023435,7.5537062377929685,6.744466076660156,-23.541984732824428,-29.46564885496183,27.022900763358777,-12.334926953124999,-0.2059013427734375,2.8107927490234372,72.90076335877863,38.045801526717554,40.6412213740458,0.0
12.070000886917114,-2.877830395507812,7.740453967285156,7.582436657714843,-40.33587786259542,-27.52671755725191,35.93893129770992,-10.259154113769531,-0.5099649536132812,0.8307879760742187,92.06106870229007,19.755725190839694,36.76335877862596,0.0
12.080000400543213,-0.8643067993164062,5.125985754394531,6.301538769531249,-53.343511450381676,-28.12213740458015,42.12213740458015,-12.51928048095703,-5.173869787597656,1.5514426757812498,90.7175572519084,18.290076335877863,41.55725190839695,0.0
12.090000629425049,-1.0438719238281249,4.556165759277343,5.42047255859375,-58.68702290076336,-15.404580152671755,44.778625954198475,-7.639897497558593,1.2785036865234374,0.296881005859375,105.26717557251908,2.763358778625954,27.206106870229007,0.0
12.100000619888306,1.8291700683593748,2.2194249389648437,2.8754361938476563,-57.29770992366412,-3.8625954198473282,46.778625954198475,-9.368511096191405,4.053383410644531,-2.7724855224609373,62.19847328244275,4.763358778625954,24.12213740458015,0.0
12.110000371932983,-0.0,2.6408044311523438,1.7190367919921874,-51.954198473282446,19.954198473282442,46.83969465648855,-10.793061083984375,5.9208607055664055,-2.3726538452148436,12.80916030534351,29.404580152671755,24.15267175572519,0.0
12.12000060081482,2.319981408691406,-1.465251416015625,-3.9983167724609374,-42.58015267175573,46.36641221374046,49.770992366412216,-12.306196533203124,4.580107775878906,-1.4939818359375,-19.17557251908397,37.80152671755725,33.343511450381676,0.0
12.130000591278076,-4.46279189453125,0.7015010864257812,0.8307879760742187,-56.42748091603053,80.13740458015268,35.00763358778626,-11.310208642578125,5.2456958374023435,-1.7956512451171873,-45.725190839694655,42.01526717557252,40.61068702290076,0.0
12.140000581741333,-6.0525417968749995,-6.639121203613281,11.982979309082031,-36.19847328244275,67.78625954198473,40.38167938931298,-15.842432385253906,0.74699091796875,1.5442600708007812,-52.229007633587784,49.64885496183206,58.19847328244275,0.0
12.15000033378601,-7.134720947265625,-3.450044592285156,8.195352282714843,52.38167938931298,85.12977099236642,45.57251908396947,-15.799336755371092,1.254561669921875,-0.16519991455078123,-47.786259541984734,37.37404580152672,58.091603053435115,0.0
12.160000801086426,-12.854468713378905,9.411606726074218,0.6655880615234374,29.480916030534353,94.76335877862596,34.42748091603053,-15.988478686523436,2.636016027832031,-1.9776105712890624,-66.35114503816794,32.29007633587786,54.778625954198475,0.0
12.170000553131104,-17.69075606689453,13.194445349121093,1.5346832641601562,-0.8244274809160306,79.23664122137404,32.19847328244275,-21.985953845214844,-3.584119885253906,1.2018892333984375,-78.19847328244275,33.038167938931295,56.778625954198475,0.0
12.18000078201294,-16.61336531982422,6.488286499023437,8.350975390624999,-42.595419847328245,76.19847328244275,33.770992366412216,-19.20389151611328,-2.925714428710937,4.690241052246093,-84.87022900763358,25.34351145038168,53.7557251908397,0.0
12.190000534057617,-14.00129130859375,2.2577321655273437,4.017470385742187,-50.35114503816794,75.66412213740458,39.80152671755725,-17.176002709960937,-3.8283284545898435,4.44363828125,-61.61832061068702,9.435114503816793,48.458015267175576,0.0
12.200001001358032,-8.415618835449218,-4.07971962890625,-1.0223241088867188,-43.11450381679389,76.19847328244275,34.916030534351144,-15.265429785156249,0.45489831542968745,4.386177441406249,-43.954198473282446,-2.564885496183206,42.091603053435115,0.0
12.21000051498413,-6.758831286621094,-6.349422802734375,0.9840168823242187,-17.206106870229007,89.40458015267176,27.633587786259543,-14.633360546874998,0.14125789794921875,2.8036101440429686,-38.51908396946565,-9.374045801526718,35.89312977099237,0.0
12.220000505447388,-8.767566479492187,-2.7724855224609373,2.3295582153320313,11.297709923664122,103.19083969465649,18.50381679389313,-13.869610217285155,2.365471240234375,0.2561795776367187,-24.290076335877863,-27.755725190839694,29.52671755725191,0.0
12.230000495910645,-5.137956762695312,-8.034940771484374,0.3495534423828125,35.55725190839695,105.96946564885496,15.969465648854962,-15.974113476562499,2.272097375488281,3.0406361083984375,-24.076335877862597,-23.053435114503817,27.893129770992367,0.0
12.24000072479248,-4.534617944335937,-9.490615380859374,0.1005564697265625,77.40458015267176,133.40458015267177,0.16793893129770993,-12.794613671875,-1.9321207397460936,1.6831237670898436,-5.984732824427481,-37.63358778625954,23.923664122137403,0.0
12.250000476837158,-9.82580361328125,-2.703053674316406,1.6807295654296874,103.52671755725191,158.38167938931298,-30.9618320610687,-11.250353601074218,-1.6400281372070311,2.133233679199219,20.198473282442748,-51.45038167938932,12.50381679389313,0.0
12.260000467300415,-15.662867260742187,7.9463553100585935,3.4955344238281247,86.3969465648855,151.09923664122138,-45.66412213740458,-9.753977563476562,-0.8044517578125,1.8938135131835936,12.351145038167939,-56.01526717557252,-1.5267175572519085,0.0
12.270000696182251,-8.75320126953125,-0.076614453125,-1.3239935180664062,68.12213740458016,133.66412213740458,-33.7557251908397,-9.200916979980468,-1.7645266235351562,1.7525556152343749,7.1603053435114505,-61.954198473282446,-12.763358778625955,0.0
12.280000448226929,-7.498639599609374,-1.8818425048828125,-0.44053310546874996,86.30534351145039,159.7709923664122,-40.79389312977099,-10.572794531249999,-2.9376854370117185,2.454056701660156,17.053435114503817,-65.2824427480916,-23.450381679389313,0.0
12.290000915527344,-12.600683337402343,4.917690209960937,2.7724855224609373,70.09160305343511,148.83969465648855,-61.221374045801525,-8.346186987304687,0.2825157958984375,0.8164227661132812,28.778625954198475,-74.36641221374046,-33.70992366412214,0.0
12.3000009059906,2.5258827514648434,-11.781866369628906,-7.481880187988281,90.82442748091603,135.96946564885496,-42.732824427480914,-9.794678991699218,0.16280571289062498,0.2753331909179687,17.633587786259543,-73.37404580152672,-37.89312977099237,0.0
12.310000896453857,-3.3351229125976563,-9.710881933593749,-1.7525556152343749,188.42748091603053,194.42748091603053,-54.51908396946565,-9.995791931152343,0.08379705810546874,-1.5658078857421873,31.328244274809162,-73.55725190839695,-44.25954198473283,0.0
12.320000886917114,-0.26815058593749996,-9.090783703613281,-5.767631799316406,233.55725190839695,198.70229007633588,-68.70229007633588,-8.98304462890625,1.7525556152343749,-2.731784094238281,32.56488549618321,-67.29770992366412,-52.54961832061068,0.0
12.330000638961792,-12.892775939941405,5.453991381835937,-1.5155296508789062,273.9236641221374,220.0763358778626,-76.53435114503817,-10.548852514648438,0.5626373901367188,-2.085349645996094,32.93129770992366,-63.908396946564885,-51.7557251908397,0.0
12.340000629425049,-17.44175909423828,19.15361328125,2.0350714111328125,191.12977099236642,182.59541984732823,-78.83969465648855,-10.388441003417968,0.9241618408203125,-1.0773907470703123,42.87022900763359,-65.38931297709924,-55.43511450381679,0.0
12.350000619888306,-18.11213555908203,22.467188378906247,7.4411787597656245,70.74809160305344,152.87022900763358,-66.54961832061069,-10.55364091796875,7.302315063476562,-1.9776105712890624,16.3206106870229,-63.43511450381679,-58.99236641221374,0.0
12.360000610351562,-9.406818322753905,11.44667813720703,2.9544448486328125,-50.29007633587786,105.64885496183206,-64.38167938931298,-9.414000927734374,7.438784558105469,-2.920926025390625,-21.282442748091604,-48.396946564885496,-52.25954198473283,0.0
12.37000060081482,-8.932766394042968,4.817133740234374,2.231395947265625,-86.01526717557252,83.16030534351145,-66.01526717557252,-8.099584216308592,6.069301208496094,-3.3399113159179685,-31.267175572519083,-43.12977099236641,-39.541984732824424,0.0
12.380000352859497,-11.288660827636718,1.3670891479492187,1.4915876342773438,-92.01526717557252,75.87786259541984,-58.274809160305345,-9.782707983398437,1.8195932617187498,-0.143652099609375,-28.091603053435115,-33.725190839694655,-31.46564885496183,0.0
12.390000581741333,-7.307103466796875,-4.989516259765625,0.5626373901367188,-57.908396946564885,82.22900763358778,-50.961832061068705,-11.985373510742187,-2.2074539306640624,0.8475473876953125,11.86259541984733,-42.99236641221374,-34.76335877862596,0.0
12.40000057220459,-8.571241943359375,-4.493916516113281,1.0486603271484374,-18.83969465648855,90.7175572519084,-51.57251908396947,-12.198457458496094,-2.0254946044921875,2.4660277099609376,45.49618320610687,-56.42748091603053,-39.57251908396947,0.0
12.410000324249268,-10.66137999267578,-0.3064578125,2.817975354003906,19.923664122137403,105.1145038167939,-55.23664122137404,-10.060435375976562,1.3287819213867187,2.2673089721679687,56.88549618320611,-67.0381679389313,-42.35114503816794,0.0
12.420000314712524,-13.831302990722655,7.850587243652344,4.8889597900390624,-5.969465648854962,94.44274809160305,-61.404580152671755,-11.068394274902342,1.5777788940429687,3.3351229125976563,60.97709923664122,-70.9618320610687,-42.50381679389313,0.0
12.43000054359436,-10.781090075683593,2.4205378784179685,2.4971523315429685,-30.68702290076336,85.6030534351145,-60.61068702290076,-8.145074047851562,5.930437512207031,0.8954314208984374,51.98473282442748,-82.07633587786259,-46.44274809160305,0.0
12.440000772476196,-9.083601098632812,0.2920926025390625,1.2976572998046874,-31.374045801526716,80.01526717557252,-58.87022900763359,-8.05648858642578,5.6766521362304685,1.659181750488281,26.48854961832061,-77.32824427480917,-39.49618320610687,0.0
12.450000524520874,-7.663839514160156,-3.584119885253906,-1.4053963745117186,-12.854961832061068,80.91603053435115,-55.49618320610687,-7.766790185546874,6.6893994384765625,1.7525556152343749,5.603053435114504,-75.1145038167939,-37.786259541984734,0.0
12.46000051498413,-11.841721411132811,3.6176387084960937,1.7597382202148437,5.1603053435114505,86.36641221374046,-58.67175572519084,-9.65342109375,2.93050283203125,3.5769372802734374,-1.450381679389313,-69.89312977099236,-29.87786259541985,0.0
12.470000505447388,-10.256759912109374,2.6575638427734374,-0.21787235107421873,-24.458015267175572,72.13740458015268,-56.656488549618324,-7.694964135742187,4.170699291992188,1.2234370483398436,3.267175572519084,-84.54961832061069,-31.81679389312977,0.0
12.480000257492065,-24.77759298095703,20.09214033203125,9.409212524414063,-62.50381679389313,69.20610687022901,-65.87786259541984,-11.075576879882812,0.6967126831054687,3.5290532470703124,-3.099236641221374,-79.02290076335878,-23.129770992366414,0.0
12.49000072479248,-10.663774194335938,2.89219560546875,-0.5889736083984375,-138.51908396946564,27.480916030534353,-52.47328244274809,-8.731653454589843,3.318363500976562,1.1180921752929687,-8.183206106870228,-87.8473282442748,-30.061068702290076,0.0
12.500000476837158,-16.352397338867185,5.774814404296874,4.237736938476562,-109.80152671755725,31.053435114503817,-48.13740458015267,-10.998962426757812,1.7477672119140624,0.5961562133789062,-13.603053435114504,-92.38167938931298,-29.297709923664122,0.0
12.510000467300415,-10.386046801757812,2.3511060302734372,-0.5243301635742187,-137.57251908396947,7.465648854961832,-40.79389312977099,-12.272677709960936,0.6296750366210937,1.4221557861328125,-6.656488549618321,-91.19083969465649,-29.770992366412212,0.0
12.520000696182251,-18.595764294433593,11.307814440917968,8.947131604003905,-128.94656488549617,15.557251908396946,-37.099236641221374,-12.176909643554687,-0.9145850341796874,1.7286135986328124,-10.01526717557252,-92.62595419847328,-28.625954198473284,0.0
12.530000448226929,-11.77947216796875,6.438008264160156,3.2632968627929686,-181.72519083969465,-28.900763358778626,-22.916030534351144,-9.485826977539062,1.4772224243164063,0.35194764404296874,7.740458015267175,-99.72519083969466,-33.16030534351145,0.0
12.540000438690186,-7.697358337402343,-4.929661218261718,-2.360682836914062,-130.24427480916032,-23.801526717557252,2.50381679389313,-10.472238061523436,2.128445275878906,-0.5147533569335937,5.862595419847328,-106.3969465648855,-29.72519083969466,0.0
12.5500009059906,-12.488155859374999,-2.3127988037109373,3.2537200561523436,-75.41984732824427,-2.6106870229007635,-3.312977099236641,-9.995791931152343,-0.0047884033203125,1.0797849487304687,22.641221374045802,-100.62595419847328,-28.671755725190838,0.0
12.560000658035278,-12.59589493408203,3.3686417358398435,3.0430303100585934,-81.23664122137404,-14.0,-12.396946564885496,-8.394071020507813,-0.8834604125976562,1.8698714965820311,42.916030534351144,-105.72519083969466,-28.213740458015266,0.0
12.570000886917114,-10.831368310546875,0.9816226806640624,0.6105214233398437,-62.61068702290076,-22.625954198473284,0.6412213740458015,-7.319074475097656,-0.967257470703125,2.0877438476562498,47.64885496183206,-108.51908396946565,-26.99236641221374,0.0
12.580000638961792,-7.369352709960937,-4.395754248046875,-0.0047884033203125,-18.916030534351144,-4.33587786259542,7.709923664122138,-6.8210805297851556,-0.055066638183593745,1.898601916503906,46.61068702290076,-105.34351145038168,-28.778625954198475,0.0
12.59000039100647,-9.514557397460937,-0.46686932373046874,2.032677209472656,0.6717557251908397,16.106870229007633,-6.198473282442748,-5.219359619140625,-0.8978256225585937,1.8914193115234375,58.51908396946565,-98.9618320610687,-29.893129770992367,0.0
12.600000619888306,-7.697358337402343,-0.05027823486328125,-0.9600748657226562,-4.213740458015267,12.213740458015268,-13.145038167938932,-3.907337109375,1.1563994018554686,1.8124106567382812,64.9618320610687,-95.46564885496183,-31.358778625954198,0.0
12.610000371932983,-4.560954162597656,2.003946789550781,-2.8802245971679685,-3.3587786259541983,9.648854961832061,-11.786259541984732,-7.3094976684570305,0.9911994873046874,2.7533319091796873,52.900763358778626,-81.31297709923665,-26.580152671755727,0.0
12.62000060081482,-7.721300354003906,-0.93852705078125,-0.3136404174804687,15.893129770992367,32.82442748091603,-9.938931297709924,-2.683900061035156,7.264007836914062,-0.18435352783203124,23.328244274809162,-75.34351145038168,-32.19847328244275,0.0
12.630000352859497,-7.977479931640625,-0.6631938598632812,0.8786720092773437,21.587786259541986,46.36641221374046,-20.198473282442748,-7.970297326660156,3.210624426269531,2.1308394775390624,-8.931297709923664,-45.847328244274806,-24.625954198473284,0.0
12.640000581741333,-9.370905297851563,1.0893617553710937,1.697488977050781,22.53435114503817,48.70229007633588,-27.480916030534353,-7.345410693359375,2.6048914062499997,1.3359645263671873,-19.358778625954198,-41.86259541984733,-22.916030534351144,0.0
12.65000057220459,-9.169792358398437,-0.16041151123046873,2.0159177978515626,36.2442748091603,53.099236641221374,-27.923664122137403,-9.737218151855469,0.13646949462890623,1.649604943847656,-6.625954198473282,-41.9236641221374,-20.519083969465647,0.0
12.660000801086426,-10.754753857421875,1.2042834350585936,3.6080619018554687,49.14503816793893,55.61832061068702,-34.30534351145038,-9.356540087890625,-0.229843359375,2.3032219970703123,1.9541984732824427,-36.58015267175573,-20.610687022900763,0.0
12.670000553131104,-11.949460485839843,3.1938650146484373,4.707000463867187,46.80916030534351,48.44274809160305,-37.87786259541985,-8.647856396484375,-0.47165772705078124,2.01112939453125,9.938931297709924,-36.42748091603053,-22.564885496183205,0.0
12.68000078201294,-14.010868115234373,7.189787585449218,5.693411547851563,32.732824427480914,36.19847328244275,-35.343511450381676,-11.123460913085937,-1.6639701538085936,2.5354595581054684,28.53435114503817,-37.98473282442748,-19.66412213740458,0.0
12.690000295639038,-11.85608662109375,6.246472131347656,4.584896179199219,24.16793893129771,22.946564885496183,-23.572519083969464,-8.166621862792969,0.38307226562499996,2.109291662597656,40.916030534351144,-42.47328244274809,-21.740458015267176,0.0
12.700000762939453,-12.82573829345703,6.136338854980468,5.801150622558594,20.244274809160306,13.541984732824428,-15.633587786259541,-6.500257507324219,3.5027170288085934,0.7517793212890624,41.43511450381679,-42.38167938931298,-23.374045801526716,0.0
12.71000051498413,-12.361263171386717,5.906495495605468,5.5832782714843745,-1.0229007633587786,-3.6030534351145036,-12.580152671755725,-4.951209033203125,4.687846850585937,0.23702596435546874,13.801526717557252,-25.19083969465649,-22.30534351145038,0.0
12.720000505447388,-11.75313594970703,4.575319372558593,5.65031591796875,-10.732824427480915,-16.427480916030536,-6.6106870229007635,-6.313509777832031,2.408566870117187,0.4213794921875,-1.5877862595419847,-12.687022900763358,-16.0,0.0
12.730000257492065,-9.674968908691406,1.8555062866210936,5.418078356933593,-0.9007633587786259,-22.83969465648855,-3.5419847328244276,-6.885723974609375,1.139639990234375,0.8762778076171874,2.564885496183206,-6.3816793893129775,-12.717557251908397,0.0
12.740000486373901,-10.62307276611328,2.8467057739257813,7.659051110839843,-0.7022900763358778,-29.51145038167939,-7.114503816793893,-6.244077929687499,0.9720458740234375,0.9217676391601562,3.9389312977099236,0.2900763358778626,-12.778625954198473,0.0
12.750000476837158,-10.838550915527343,2.7365724975585937,8.346186987304687,-1.6793893129770991,-43.52671755725191,-7.9541984732824424,-6.121973645019531,0.9648632690429687,0.488417138671875,1.3893129770992367,6.076335877862595,-11.664122137404581,0.0
12.760000705718994,-12.358868969726561,3.9456443359374997,10.627861169433594,2.122137404580153,-55.541984732824424,-4.824427480916031,-4.508281726074219,2.6312276245117188,-0.9816226806640624,-8.687022900763358,19.64885496183206,-11.969465648854962,0.0
12.770000457763672,-11.903970654296874,3.4811692138671875,11.662156286621093,-0.8702290076335878,-73.70992366412214,-0.44274809160305345,-3.057395520019531,2.5570073730468748,-2.5474305664062498,-17.389312977099237,31.984732824427482,-9.34351145038168,0.0
12.780000925064087,-13.342885852050781,4.450820886230469,13.891158032226562,1.7099236641221374,-90.2442748091603,4.351145038167939,-0.4261678955078125,4.809951135253906,-5.032611889648437,-25.603053435114504,44.10687022900763,-6.67175572519084,0.0
12.790000438690186,-14.68363878173828,5.549759448242187,15.27740079345703,-5.770992366412214,-119.63358778625954,10.83969465648855,-3.526659045410156,3.679887951660156,-1.62805712890625,-44.3206106870229,76.04580152671755,5.221374045801527,0.0
12.800000667572021,-16.3571857421875,6.155492468261718,16.54153927001953,-10.320610687022901,-147.1908396946565,17.984732824427482,-5.070919116210937,5.219359619140625,6.777984899902344,-76.83969465648855,70.41221374045801,5.435114503816794,0.0
12.810001134872437,-15.090653063964844,4.735730883789063,13.189656945800781,-14.381679389312977,-181.1145038167939,28.106870229007633,-4.805162731933594,-5.1140147460937495,3.555389465332031,-97.1145038167939,74.77862595419847,11.48091603053435,0.0
12.820000648498535,-17.89426320800781,5.023035083007812,11.130643518066405,-25.14503816793893,-207.38931297709922,30.732824427480917,-6.993463049316406,-9.18655177001953,-5.597643481445312,-32.900763358778626,86.80916030534351,9.053435114503817,0.0
12.830000638961792,-17.247828759765625,0.6871358764648438,9.698910925292969,-29.31297709923664,-235.61832061068702,36.2442748091603,-12.241553088378906,-3.076549133300781,-0.16041151123046873,3.6793893129770994,83.89312977099236,-1.0076335877862594,0.0
12.840000629425049,-16.646884143066405,-4.946420629882812,6.129156249999999,1.1450381679389312,-246.29007633587787,43.969465648854964,-13.723563916015625,2.319981408691406,5.9017070922851556,-0.9618320610687023,70.33587786259542,-5.755725190839694,0.0
12.850000619888306,-14.329296936035155,-8.169016064453125,1.7477672119140624,52.93129770992366,-250.8091603053435,44.51908396946565,-15.255852978515625,-3.0885201416015624,6.833051538085937,-5.358778625954199,61.19083969465649,-10.625954198473282,0.0
12.860005140304565,-13.242329382324218,-5.5258174316406246,-1.6232687255859375,78.99236641221374,-238.1679389312977,41.282442748091604,-11.499350573730467,-0.7206546997070312,4.0988732421875,-21.297709923664122,40.12213740458015,-22.396946564885496,0.0
12.87000060081482,-14.03959853515625,-1.8459294799804686,-4.836287353515624,83.43511450381679,-230.21374045801528,46.656488549618324,-11.310208642578125,1.2425906616210938,2.1739351074218747,-30.106870229007633,37.725190839694655,-4.442748091603053,0.0
12.880000352859497,-13.038822241210937,1.369483349609375,-6.244077929687499,60.83969465648855,-214.76335877862596,61.221374045801525,1.0773907470703123,9.619902270507811,-9.255983618164063,-75.52671755725191,19.801526717557252,-8.610687022900763,0.0
12.890000581741333,-12.172121240234373,4.946420629882812,-2.882618798828125,18.03053435114504,-199.16030534351145,64.99236641221374,-0.11252747802734374,14.654908361816405,-8.916006982421875,-193.40458015267177,108.1526717557252,8.01526717557252,0.0
12.90000057220459,-15.60301221923828,7.378929516601562,4.089296435546875,-33.83206106870229,-185.84732824427482,67.90839694656489,0.6607996582031249,10.876858142089842,-16.364368347167968,-260.03053435114504,128.6259541984733,33.66412213740458,0.0
12.910000324249268,-16.38831036376953,5.111620544433594,6.021417175292968,-47.61832061068702,-184.82442748091603,74.22900763358778,-13.601459631347655,5.118803149414062,-9.184157568359375,-339.57251908396944,183.4351145038168,45.89312977099237,0.0
12.920000791549683,-15.928623645019531,-1.1731588134765625,6.074089611816406,-36.229007633587784,-177.32824427480915,73.22137404580153,-13.63737265625,-6.093243225097656,-8.128314636230469,-308.68702290076334,174.41221374045801,39.12977099236641,0.0
12.93000054359436,-13.24711778564453,-7.747636572265624,4.151545678710937,-5.435114503816794,-172.25954198473283,61.038167938931295,-18.057068920898438,-12.361263171386717,-0.689530078125,-281.7557251908397,189.66412213740458,30.595419847328245,0.0
12.940000534057617,-11.92551846923828,-11.219228979492186,2.384624853515625,24.50381679389313,-164.82442748091603,45.74045801526717,-14.604630126953124,-15.102624072265623,-2.741360900878906,-144.25954198473283,141.0381679389313,19.64885496183206,0.0
12.950000524520874,-11.171344946289063,-9.847351428222655,1.4604630126953124,50.961832061068705,-158.59541984732823,31.908396946564885,-13.747505932617187,-10.876858142089842,1.8076222534179687,-105.31297709923665,135.206106870229,29.450381679389313,0.0
12.96000051498413,-8.068459594726562,-8.300697155761718,0.9959878906249999,69.58778625954199,-152.01526717557252,28.35114503816794,-10.043675964355469,-7.536946826171874,1.8602946899414061,-15.083969465648854,102.09160305343511,39.6793893129771,0.0
12.970000505447388,-7.771578588867187,-2.978386865234375,2.549824768066406,72.1526717557252,-140.793893129771,20.641221374045802,-13.031639636230468,-4.283226770019531,1.668758557128906,32.54961832061068,84.3969465648855,50.36641221374046,0.0
12.980000495910645,-4.127603662109375,-1.7453730102539062,2.2744915771484373,66.59541984732824,-136.59541984732823,17.114503816793892,-10.867281335449219,0.8451531860351562,-0.28490999755859375,69.20610687022901,61.770992366412216,52.82442748091603,0.0
12.990000486373901,-5.609614489746093,1.5849614990234373,3.3303345092773435,49.80152671755725,-120.3969465648855,7.938931297709924,-9.763554370117188,6.713341455078124,-2.7198130859375,37.19083969465649,60.99236641221374,53.14503816793893,0.0
13.000000476837158,-4.209006518554688,1.4867992309570313,1.924938134765625,31.14503816793893,-115.45038167938931,6.488549618320611,-9.121908325195312,2.626439221191406,-2.195482922363281,17.709923664122137,65.96946564885496,53.32824427480916,0.0
13.010000467300415,-4.627991809082031,2.2936451904296873,2.8658593872070313,10.076335877862595,-97.0381679389313,1.0076335877862594,-11.279084020996093,-0.2561795776367187,-1.0558429321289062,15.49618320610687,69.87786259541984,58.54961832061068,0.0
13.020000696182251,-4.589684582519531,2.6048914062499997,1.438915197753906,-3.450381679389313,-89.23664122137404,-0.366412213740458,-8.765172277832031,3.4859576171874997,-3.67749375,2.2900763358778624,67.37404580152672,55.343511450381676,0.0
13.030000925064087,-1.6711527587890624,1.177947216796875,-0.43574470214843747,-6.885496183206107,-79.7557251908397,4.259541984732825,-10.606313354492187,-0.6560112548828124,-1.0486603271484374,-26.68702290076336,84.2442748091603,58.396946564885496,0.0
13.040000677108765,0.8738836059570312,-0.9600748657226562,-1.3623007446289062,15.694656488549619,-56.045801526717554,9.526717557251908,-11.540052001953125,-5.568913061523437,0.9409212524414062,13.618320610687023,76.62595419847328,65.92366412213741,0.0
13.050000667572021,-0.2561795776367187,1.1228805786132812,0.6584054565429687,30.396946564885496,-36.54961832061068,4.534351145038168,-8.858546142578124,0.047884033203124995,-1.1372457885742187,37.16030534351145,65.45038167938931,67.63358778625954,0.0
13.0600004196167,0.7062894897460937,2.655169641113281,0.9552864624023437,33.93893129770992,-32.61068702290076,6.106870229007634,-13.2926076171875,-8.14028564453125,4.077325427246094,40.94656488549618,81.77099236641222,78.01526717557252,0.0
13.070000886917114,-1.3096283081054687,5.863399865722656,3.3159692993164063,23.129770992366414,-18.38167938931298,6.702290076335878,-8.465897070312499,-2.1404162841796874,-0.4261678955078125,110.45801526717557,46.01526717557252,74.62595419847328,0.0
13.080000638961792,-1.5777788940429687,6.325480786132812,3.727771984863281,10.274809160305344,-17.053435114503817,12.82442748091603,-16.639701538085937,-5.238513232421875,2.806004345703125,114.61068702290076,51.954198473282446,76.85496183206106,0.0
13.090000629425049,-2.1978771240234374,6.7803791015625,5.257666845703125,-5.862595419847328,-10.732824427480915,21.81679389312977,-8.125920434570313,1.9129671264648436,0.011971008300781249,91.49618320610686,52.79389312977099,66.13740458015268,0.0
13.100000619888306,-1.89620771484375,6.193799694824218,5.410895751953125,-12.030534351145038,-4.977099236641221,33.221374045801525,-7.3861121215820305,2.1260510742187497,-0.10773907470703124,79.69465648854961,47.23664122137404,61.61832061068702,0.0
13.110000610351562,-0.6009446166992187,4.9823336547851556,4.714183068847656,-19.114503816793892,1.2671755725190839,40.900763358778626,-14.130578198242187,-4.6351744140625,3.612850305175781,85.14503816793894,52.42748091603053,65.98473282442748,0.0
13.12000060081482,-0.679953271484375,5.72693037109375,4.46279189453125,-26.717557251908396,11.450381679389313,44.19847328244275,-14.822502478027342,-5.248090039062499,4.7022120605468745,82.85496183206106,56.56488549618321,66.56488549618321,0.0
13.130000591278076,-0.7206546997070312,6.208164904785156,3.0597897216796874,-22.870229007633586,27.801526717557252,50.42748091603053,-9.363722692871093,0.6919242797851562,0.6512228515624999,100.1526717557252,33.05343511450382,60.85496183206107,0.0
13.140000581741333,0.4213794921875,5.559336254882812,-1.7501614135742187,-26.045801526717558,41.31297709923664,54.87022900763359,-19.929334619140622,-7.635109094238281,8.164227661132813,79.16030534351145,54.412213740458014,66.80916030534351,0.0
13.15000057220459,3.2321722412109373,-2.4564509033203126,-6.45476767578125,-45.63358778625954,65.52671755725191,55.908396946564885,-13.1393787109375,-5.904101293945312,5.322310290527343,143.54198473282443,5.541984732824427,63.00763358778626,0.0
13.160000801086426,1.1372457885742187,-10.524910498046875,2.1021090576171875,-41.16030534351145,92.80916030534351,40.82442748091603,-14.62617794189453,-2.6695348510742187,2.379836450195312,121.52671755725191,-3.0381679389312977,48.06106870229008,0.0
13.170000791549683,-11.908759057617187,-11.822567797851562,34.945767431640625,33.61832061068702,76.97709923664122,26.732824427480917,-11.987767712402343,5.6191912963867185,-0.4477157104492187,94.01526717557252,-14.977099236641221,32.10687022900763,0.0
13.18000078201294,-14.470554833984375,7.71890615234375,9.70369932861328,91.37404580152672,88.58015267175573,28.259541984732824,-12.483367456054687,8.051700183105469,0.6200982299804687,24.85496183206107,-0.5343511450381679,25.64885496183206,0.0
13.190000534057617,-17.271770776367187,15.559916589355467,-0.9935936889648437,16.946564885496183,82.41221374045801,30.412213740458014,-12.229582080078124,9.038111267089842,-0.23702596435546874,-31.87786259541985,-7.00763358778626,24.091603053435115,0.0
13.200000762939453,-13.227964172363281,6.746860278320312,-0.7517793212890624,-39.45038167938932,62.29007633587786,31.16030534351145,-14.719551806640624,5.085284326171875,2.5426421630859375,-88.8854961832061,1.4198473282442747,31.87786259541985,0.0
13.210000276565552,-13.59188282470703,1.3335703247070312,10.139444030761718,-43.847328244274806,75.95419847328245,27.450381679389313,-15.77539473876953,0.7565677246093749,2.868253588867187,-96.22900763358778,-7.450381679389313,37.282442748091604,0.0
13.220000505447388,-8.01818135986328,-8.164227661132813,-0.05985504150390625,-23.84732824427481,63.17557251908397,30.244274809160306,-16.678008764648435,0.2537853759765625,3.210624426269531,-82.22900763358778,-15.694656488549619,36.44274809160305,0.0
13.230000495910645,-5.9208607055664055,-8.099584216308592,-3.248931652832031,15.725190839694656,97.90839694656489,9.541984732824428,-15.351621044921874,-0.7326257080078125,1.9752163696289062,-68.9618320610687,-21.14503816793893,32.44274809160305,0.0
13.240000486373901,-12.176909643554687,1.0989385620117187,1.5227122558593749,30.427480916030536,105.54198473282443,-7.4961832061068705,-15.708357092285155,0.277727392578125,1.1635820068359375,-48.79389312977099,-19.786259541984734,30.80916030534351,0.0
13.250000476837158,-9.991003527832031,-1.0295067138671874,2.703053674316406,33.98473282442748,106.33587786259542,-0.8396946564885496,-16.42661759033203,4.448426684570312,-2.446874096679687,-36.534351145038165,-28.48854961832061,28.091603053435115,0.0
13.260000467300415,-6.868964562988281,-6.1076084350585935,0.3758896606445312,63.267175572519086,127.22137404580153,-2.1068702290076335,-15.806519360351562,1.2306196533203124,-1.5275006591796874,-35.89312977099237,-25.358778625954198,26.16793893129771,0.0
13.270000696182251,-8.556876733398436,-3.356670727539062,2.4851813232421875,93.87786259541984,141.4198473282443,-21.267175572519083,-14.437036010742187,-0.39743747558593745,-0.24181436767578124,-21.221374045801525,-26.427480916030536,25.129770992366414,0.0
13.280000686645508,-9.062053283691405,-0.26336218261718747,0.20350714111328125,102.1526717557252,132.36641221374046,-30.717557251908396,-13.80975517578125,-1.9919757812499999,0.32561142578124996,-0.12213740458015267,-32.2442748091603,19.786259541984734,0.0
13.290000438690186,-10.79545528564453,3.318363500976562,2.224213342285156,107.17557251908397,146.85496183206106,-41.38931297709924,-12.71081661376953,-3.0837317382812497,1.0773907470703123,18.9618320610687,-40.6412213740458,11.114503816793894,0.0
13.300000667572021,1.177947216796875,-10.263942517089843,-7.941566906738281,123.08396946564885,135.0381679389313,-31.862595419847327,-10.639832177734375,-3.076549133300781,1.0726023437499999,42.85496183206107,-52.36641221374046,-2.351145038167939,0.0
13.310000658035278,-3.6822821533203123,-7.024587670898437,-3.897760302734375,204.4885496183206,184.3053435114504,-42.99236641221374,-10.371681591796875,-4.3622354248046875,1.4891934326171874,50.62595419847328,-59.465648854961835,-14.67175572519084,0.0
13.320000648498535,-6.5768719604492185,0.24899697265624998,-1.0534487304687499,226.3206106870229,189.22137404580153,-66.27480916030534,-9.674968908691406,-3.612850305175781,1.7262193969726563,72.30534351145039,-66.54961832061069,-27.96946564885496,0.0
13.330000638961792,-16.864756494140625,10.654197387695312,2.3295582153320313,216.87022900763358,191.08396946564886,-72.61068702290076,-16.275782885742185,-5.2648494506835934,4.563348364257812,87.3587786259542,-65.77099236641222,-32.30534351145038,0.0
13.340000629425049,-20.010737475585938,20.93968771972656,6.382941625976562,113.25190839694656,154.68702290076337,-77.32824427480917,-10.019733947753906,3.1579519897460937,0.316034619140625,66.62595419847328,-86.6412213740458,-52.213740458015266,0.0
13.350000381469727,-9.430760339355468,7.618349682617187,0.15322890625,5.4961832061068705,110.79389312977099,-59.32824427480916,-8.954314208984375,6.169857678222656,-2.379836450195312,15.053435114503817,-80.54961832061069,-62.79389312977099,0.0
13.360000610351562,-8.185775476074218,0.6919242797851562,0.9552864624023437,5.648854961832061,105.93893129770993,-59.93893129770992,-11.405976708984374,3.7325603881835936,-3.5721488769531247,9.908396946564885,-67.87786259541984,-61.17557251908397,0.0
13.37000060081482,-9.181763366699219,3.7708676147460936,1.9919757812499999,13.969465648854962,107.05343511450381,-60.88549618320611,-10.096348400878906,5.3199160888671875,-5.384559533691406,12.763358778625955,-64.73282442748092,-59.847328244274806,0.0
13.380000591278076,-9.131485131835937,2.1643583007812497,1.7334020019531249,16.458015267175572,107.41984732824427,-57.3587786259542,-12.514492077636717,2.877830395507812,-1.3910311645507811,20.015267175572518,-52.3206106870229,-49.31297709923664,0.0
13.390000581741333,-6.964732629394531,0.8020575561523438,0.6703764648437499,20.137404580152673,105.0381679389313,-54.29007633587786,-11.860875024414062,1.2928688964843749,-0.7900865478515624,43.969465648854964,-56.29007633587786,-41.87786259541985,0.0
13.40000057220459,-12.19366905517578,6.835445739746094,3.27526787109375,7.297709923664122,102.7175572519084,-55.038167938931295,-9.411606726074218,5.367800122070312,-0.7134720947265625,40.412213740458014,-59.221374045801525,-41.87786259541985,0.0
13.410000562667847,-10.726023437499999,5.549759448242187,3.861847277832031,-12.65648854961832,95.72519083969466,-53.87786259541985,-6.471527087402343,8.279149340820313,-1.0869675537109373,15.32824427480916,-51.404580152671755,-37.38931297709924,0.0
13.420000791549683,-11.145008728027342,3.0550013183593747,2.4684219116210935,-33.80152671755725,85.09923664122137,-55.221374045801525,-6.816292126464844,4.546588952636719,0.00239420166015625,6.412213740458015,-42.229007633587784,-26.793893129770993,0.0
13.43000054359436,-9.272743029785156,-0.076614453125,2.3774422485351563,-27.068702290076335,82.22900763358778,-54.83969465648855,-7.3286512817382805,3.7325603881835936,-0.8283937744140625,9.969465648854962,-49.969465648854964,-24.931297709923665,0.0
13.440000772476196,-11.774683764648437,3.1100679565429687,3.9049429077148434,-18.671755725190838,85.78625954198473,-56.900763358778626,-7.79552060546875,4.094084838867187,-0.07900865478515624,-10.549618320610687,-45.847328244274806,-25.984732824427482,0.0
13.450000524520874,-8.568847741699217,0.7326257080078125,1.956062756347656,-19.31297709923664,79.6793893129771,-53.725190839694655,-7.728482958984374,2.437297290039062,-0.5386953735351562,-18.870229007633586,-44.44274809160305,-27.0381679389313,0.0
13.460000991821289,-7.71890615234375,0.34715924072265625,1.2425906616210938,-11.465648854961833,79.08396946564885,-54.656488549618324,-9.612719665527344,0.1867477294921875,0.23702596435546874,-11.312977099236642,-47.63358778625954,-27.923664122137403,0.0
13.470000743865967,-13.563152404785155,8.564059338378906,4.687846850585937,-20.30534351145038,82.09160305343511,-59.099236641221374,-8.33182177734375,2.2673089721679687,0.10295067138671875,-15.358778625954198,-50.778625954198475,-29.51145038167939,0.0
13.480000495910645,-8.40125362548828,5.506663818359375,1.8028338500976562,-65.93893129770993,62.6412213740458,-52.0,-8.877699755859375,1.5825672973632812,0.7134720947265625,-14.778625954198473,-48.76335877862596,-26.702290076335878,0.0
13.490000247955322,-6.725312463378906,0.277727392578125,0.20829554443359374,-59.83206106870229,64.09160305343511,-45.603053435114504,-9.167398156738281,1.936909143066406,0.229843359375,-5.175572519083969,-58.56488549618321,-24.65648854961832,0.0
13.500000476837158,-7.592013464355468,-0.8164227661132812,0.028730419921875,-30.763358778625953,72.99236641221374,-40.58015267175573,-7.805097412109374,3.6655227416992187,0.38307226562499996,-17.404580152671755,-55.29770992366412,-25.068702290076335,0.0
13.510001182556152,-19.67794344482422,16.187197424316405,7.0102224609374995,-55.9236641221374,65.0381679389313,-48.16793893129771,-11.425130322265625,-1.70467158203125,3.308786694335937,-6.412213740458015,-49.6793893129771,-18.671755725190838,0.0
13.520000696182251,-15.890316418457031,10.970232006835937,5.05655390625,-121.31297709923665,44.44274809160305,-41.14503816793893,-9.052476477050782,0.6943184814453125,1.3479355346679687,8.16793893129771,-66.0,-23.068702290076335,0.0
13.530000925064087,-9.255983618164063,-1.6136919189453125,1.16837041015625,-117.16030534351145,36.94656488549618,-27.49618320610687,-10.330980163574218,0.18914193115234373,0.9457096557617187,7.129770992366412,-71.55725190839695,-22.610687022900763,0.0
13.540000677108765,-7.711723547363281,-5.743689782714843,-0.033518823242187495,-54.3206106870229,55.23664122137404,-24.595419847328245,-9.203311181640624,0.201112939453125,1.22583125,0.32061068702290074,-69.38931297709924,-24.85496183206107,0.0
13.55000114440918,-25.17263625488281,17.867926989746092,10.184933862304687,-86.85496183206106,46.51908396946565,-41.41984732824427,-10.160991845703125,-0.36391865234375,1.1156979736328125,13.84732824427481,-72.82442748091603,-25.938931297709924,0.0
13.560000658035278,-20.776882006835937,20.98517755126953,8.276755139160155,-244.77862595419847,-24.30534351145038,-40.16793893129771,-12.210428466796873,-0.40462008056640625,2.059013427734375,31.755725190839694,-80.65648854961832,-23.72519083969466,0.0
13.570000886917114,-12.732364428710937,2.4971523315429685,-1.0917559570312498,-260.30534351145036,-50.82442748091603,-2.8244274809160306,-10.273519323730468,2.1212626708984375,1.6472107421875,11.84732824427481,-83.2824427480916,-24.091603053435115,0.0
13.580000638961792,-7.484274389648437,-11.286266625976562,-3.2225954345703123,-178.70229007633588,-30.50381679389313,21.206106870229007,-9.588777648925781,2.913743420410156,1.39821376953125,8.198473282442748,-83.3587786259542,-26.702290076335878,0.0
13.59000039100647,-14.281412902832031,-4.613626599121093,4.8650177734375,-112.58015267175573,-3.480916030534351,6.732824427480916,-9.68454571533203,-0.6560112548828124,2.1811177124023438,20.80916030534351,-85.72519083969466,-24.244274809160306,0.0
13.600000381469727,-13.153743920898437,0.40462008056640625,1.1420341918945311,-115.64885496183206,-23.297709923664122,-8.15267175572519,-10.182539660644531,-1.2976572998046874,3.1316157714843746,53.23664122137404,-94.54961832061069,-22.03053435114504,0.0
13.610191106796265,-6.387730029296875,-8.013392956542969,-2.3223756103515623,-47.06870229007634,-10.80916030534351,13.068702290076336,-9.598354455566406,0.00718260498046875,2.896984008789062,51.587786259541986,-102.18320610687023,-17.96946564885496,0.0
13.62000060081482,-6.871358764648437,-5.686228942871093,0.43574470214843747,-21.81679389312977,2.3969465648854964,1.1297709923664123,-10.407594616699217,-0.51714755859375,3.7229835815429686,56.3206106870229,-98.0,-21.00763358778626,0.0
13.630000591278076,-5.403713146972656,-3.248931652832031,-0.8068459594726562,6.5038167938931295,16.610687022900763,-9.587786259541986,-8.173804467773436,-2.291250988769531,4.623203405761719,57.83206106870229,-96.85496183206106,-18.717557251908396,0.0
13.640000581741333,-3.6367923217773437,-2.133233679199219,-1.2593500732421874,23.603053435114504,36.74809160305343,-20.82442748091603,-6.406883642578125,-0.7565677246093749,4.299986181640625,60.091603053435115,-93.63358778625954,-25.709923664122137,0.0
13.65000033378601,-5.899312890625,1.1085153686523437,-0.22744915771484372,25.0381679389313,50.99236641221374,-31.328244274809162,-5.566518859863281,0.3280056274414062,4.161122485351562,44.18320610687023,-80.51908396946565,-26.580152671755727,0.0
13.660000324249268,-8.049305981445311,2.090138049316406,0.7015010864257812,24.12213740458015,62.99236641221374,-35.603053435114504,-3.318363500976562,4.975151049804687,2.27927998046875,14.473282442748092,-75.54198473282443,-33.083969465648856,0.0
13.670000553131104,-8.820238916015624,2.1787235107421874,0.9504980590820312,23.068702290076335,70.91603053435115,-33.11450381679389,-8.305485559082031,3.0789433349609374,3.4524387939453125,-12.366412213740459,-58.458015267175576,-25.923664122137403,0.0
13.68000078201294,-9.344569079589844,2.6216508178710938,1.3263877197265623,24.18320610687023,75.40458015267176,-33.06870229007634,-7.089231115722656,3.3159692993164063,1.20667763671875,-24.50381679389313,-59.969465648854964,-26.732824427480917,0.0
13.690000534057617,-10.09395419921875,3.1004911499023438,1.0534487304687499,23.61832061068702,74.87022900763358,-31.66412213740458,-10.307038146972655,0.21787235107421873,3.038241906738281,-26.85496183206107,-48.458015267175576,-20.427480916030536,0.0
13.700000762939453,-10.565611926269531,3.4644098022460934,1.3934253662109375,22.16793893129771,72.54961832061069,-29.51145038167939,-8.552088330078124,0.3184288208007812,2.6479870361328124,-21.16030534351145,-49.725190839694655,-21.923664122137403,0.0
13.71000051498413,-10.541669909667968,2.7246014892578123,1.2976572998046874,24.137404580152673,69.19083969465649,-25.755725190839694,-9.583989245605467,0.09816226806640624,3.1747114013671873,-17.206106870229007,-48.29007633587786,-20.076335877862597,0.0
13.720000267028809,-10.89122335205078,2.923320227050781,1.0893617553710937,20.213740458015266,61.45038167938932,-24.33587786259542,-9.253589416503905,0.9193734375,1.209071838378906,-5.099236641221374,-59.11450381679389,-23.450381679389313,0.0
13.730000495910645,-10.735600244140624,2.176329309082031,0.4525041137695312,19.114503816793892,54.045801526717554,-20.68702290076336,-11.518504187011718,0.8451531860351562,3.6439749267578123,2.6412213740458017,-49.38931297709924,-16.30534351145038,0.0
13.740000247955322,-11.765106958007811,2.901772412109375,1.22583125,13.908396946564885,51.48091603053435,-20.47328244274809,-8.513781103515624,2.3223756103515623,1.68551796875,4.076335877862595,-57.19083969465649,-19.0381679389313,0.0
13.750000476837158,-12.11705460205078,4.42448466796875,1.5131354492187499,2.687022900763359,44.97709923664122,-20.99236641221374,-9.267954626464844,2.8658593872070313,2.559401574707031,-4.8396946564885495,-47.603053435114504,-13.954198473282442,0.0
13.760000705718994,-10.462661254882812,2.5761609863281247,0.7134720947265625,-0.07633587786259542,41.49618320610687,-17.129770992366414,-10.098742602539062,0.34715924072265625,2.7269956909179687,-4.305343511450381,-47.847328244274806,-10.931297709923664,0.0
13.770000696182251,-9.904812268066406,1.8938135131835936,0.5865794067382812,-5.511450381679389,37.221374045801525,-16.702290076335878,-8.44674345703125,1.7238251953125,1.936909143066406,2.4885496183206106,-54.35114503816794,-14.83969465648855,0.0
13.780000686645508,-9.648632690429688,0.5865794067382812,0.49320554199218747,-0.366412213740458,36.82442748091603,-18.442748091603054,-6.732495068359374,2.6048914062499997,2.4492682983398435,-17.435114503816795,-43.343511450381676,-15.19083969465649,0.0
13.790000915527344,-10.465055456542968,2.8371289672851563,1.5155296508789062,-6.67175572519084,39.45038167938932,-21.984732824427482,-7.785943798828124,0.6105214233398437,3.0645781249999997,-25.87786259541985,-31.17557251908397,-12.732824427480915,0.0
13.8000009059906,-8.578424548339843,1.2330138549804688,0.5626373901367188,-13.801526717557252,35.98473282442748,-20.290076335877863,-8.580818749999999,-1.01514150390625,3.4668040039062498,-10.595419847328245,-31.740458015267176,-9.465648854961833,0.0
13.810000896453857,-10.857704528808593,2.693476867675781,2.0278888061523435,-8.870229007633588,43.51145038167939,-19.541984732824428,-6.1650692749023435,1.0582371337890624,1.6615759521484375,2.50381679389313,-39.05343511450382,-12.641221374045802,0.0
13.820000410079956,-10.414777221679687,4.218583325195312,1.446097802734375,-18.015267175572518,37.55725190839695,-21.221374045801525,-6.277596752929687,2.310404602050781,1.7405846069335937,-7.221374045801527,-25.786259541984734,-14.870229007633588,0.0
13.830000638961792,-11.889605444335936,3.892971899414062,2.39420166015625,-31.69465648854962,34.48854961832061,-18.50381679389313,-7.338228088378906,-0.4333505004882812,2.375048046875,-26.412213740458014,-6.656488549618321,-11.908396946564885,0.0
13.840000629425049,-9.057264880371093,1.879448303222656,1.407790576171875,-30.3206106870229,27.480916030534353,-13.49618320610687,-6.787561706542968,-0.9217676391601562,1.0965443603515623,-11.938931297709924,-10.961832061068701,-13.34351145038168,0.0
13.850000381469727,-13.302184423828125,4.7189714721679685,4.378994836425781,-34.961832061068705,27.419847328244273,-16.625954198473284,-5.473144995117187,-0.22505495605468748,0.9050082275390624,-6.137404580152672,-2.8396946564885495,-15.541984732824428,0.0
13.860000610351562,-13.88636962890625,3.687070556640625,5.863399865722656,-46.51908396946565,6.549618320610687,-12.992366412213741,-4.838681555175781,0.6631938598632812,-0.43574470214843747,-5.9541984732824424,3.5572519083969465,-16.65648854961832,0.0
13.87000060081482,-11.896788049316406,0.8858546142578124,5.6215854980468745,-22.137404580152673,0.3816793893129771,-2.5343511450381677,-4.972756848144531,-0.7565677246093749,0.7996633544921875,-11.541984732824428,19.328244274809162,-16.061068702290076,0.0
13.880000591278076,-10.886434948730468,0.565031591796875,6.725312463378906,-1.9541984732824427,-5.6183206106870225,-0.4580152671755725,-5.506663818359375,-0.9552864624023437,0.7134720947265625,-6.8396946564885495,25.801526717557252,-16.229007633587788,0.0
13.890000343322754,-14.68363878173828,5.1523219726562495,9.375693701171874,-3.0381679389312977,-17.053435114503817,-6.427480916030534,-6.591237170410156,-0.47884033203125,3.5410242553710933,-4.290076335877862,29.129770992366414,-15.938931297709924,0.0
13.90000057220459,-14.896722729492186,6.157886669921875,10.498574279785156,-15.694656488549619,-42.656488549618324,-3.816793893129771,-5.7700260009765625,-0.41419688720703124,5.125985754394531,-16.641221374045802,34.10687022900763,-14.564885496183207,0.0
13.910000562667847,-14.755464831542968,4.163516687011718,11.729193933105469,-14.122137404580153,-66.03053435114504,7.419847328244275,-5.274426257324219,-4.058171813964844,-1.6807295654296874,-15.694656488549619,48.79389312977099,-10.320610687022901,0.0
13.920000791549683,-15.765817932128906,1.3192051147460937,13.175291735839844,1.1603053435114503,-90.06106870229007,14.51908396946565,-4.122815258789062,-3.4261025756835934,-10.589553942871094,22.870229007633586,69.48091603053435,-10.885496183206106,0.0
13.93000078201294,-16.08903515625,-2.7557261108398436,14.877569116210937,34.412213740458014,-114.09160305343511,13.633587786259541,-4.3071687866210935,2.2577321655273437,-11.477802758789062,63.61832061068702,87.74045801526718,-10.992366412213741,0.0
13.940000772476196,-15.98608448486328,-4.623203405761719,14.482525842285156,72.2442748091603,-138.7175572519084,10.870229007633588,-9.138667736816405,4.924872814941406,0.9217676391601562,54.0763358778626,104.27480916030534,-5.740458015267175,0.0
13.950000524520874,-17.386692456054686,-3.6487633300781246,15.004461804199218,101.1145038167939,-165.5114503816794,3.7251908396946565,-0.7206546997070312,8.291120349121094,1.0390835205078124,-26.427480916030536,83.05343511450381,-20.33587786259542,0.0
13.96000075340271,-22.278046447753905,3.9743747558593747,17.76018791503906,113.66412213740458,-189.55725190839695,-1.4198473282442747,-6.078878015136718,15.91665263671875,0.076614453125,-186.7175572519084,175.4351145038168,-17.770992366412212,0.0
13.970000505447388,-23.910891979980466,14.238317272949217,17.05150422363281,73.20610687022901,-224.9770992366412,16.83969465648855,-14.118607189941406,9.469067565917967,-2.7437551025390623,-256.3206106870229,220.82442748091603,22.82442748091603,0.0
13.980000495910645,-23.008277954101562,9.581595043945311,15.045163232421874,40.16793893129771,-259.74045801526717,49.404580152671755,-18.363526733398437,3.375824340820312,-1.1156979736328125,-213.1145038167939,201.54198473282443,49.282442748091604,0.0
13.990000486373901,-17.362750439453123,-2.5570073730468748,8.049305981445311,54.030534351145036,-270.76335877862596,68.18320610687023,-19.179949499511718,-5.793968017578124,7.417236743164062,-169.40458015267177,191.17557251908397,53.587786259541986,0.0
14.000000476837158,-15.816096166992187,-10.029310754394531,2.829946362304687,64.29007633587786,-262.381679389313,65.6030534351145,-11.027692846679686,-11.528080993652344,7.110778930664062,-86.56488549618321,150.3969465648855,46.56488549618321,0.0
14.010000705718994,-13.816937780761718,-13.951013073730469,-3.88818349609375,98.27480916030534,-257.69465648854964,59.41984732824427,-11.030087048339842,-10.716446630859375,4.814739538574218,-55.70992366412214,123.83206106870229,41.221374045801525,0.0
14.02000093460083,-12.552799304199217,-8.894459167480468,-8.17859287109375,116.79389312977099,-248.82442748091603,50.900763358778626,4.132392065429687,8.111555224609374,-6.938396411132812,-43.587786259541986,65.61832061068702,28.076335877862597,0.0
14.030000925064087,-13.144167114257812,0.6967126831054687,-8.008604553222655,85.23664122137404,-237.25190839694656,44.48854961832061,-6.121973645019531,10.496180078124999,-5.724536169433593,-165.78625954198472,106.9618320610687,33.83206106870229,0.0
14.040000677108765,-11.748347546386718,3.660734338378906,-4.991910461425781,53.038167938931295,-222.5801526717557,49.69465648854962,-8.269572534179687,7.429207751464843,-4.290409374999999,-192.83969465648855,108.51908396946565,29.19083969465649,0.0
14.0500009059906,-11.882422839355469,2.882618798828125,-1.16837041015625,44.045801526717554,-204.90076335877862,52.717557251908396,-14.714763403320312,-7.252036828613281,-3.076549133300781,-215.25190839694656,118.9618320610687,33.23664122137404,0.0
14.060000658035278,-10.263942517089843,1.8914193115234375,2.133233679199219,38.97709923664122,-194.4885496183206,51.80152671755725,-15.433023901367186,-16.840814477539062,-1.4149731811523436,-140.21374045801528,91.6030534351145,36.35114503816794,0.0
14.070001125335693,-11.252747802734374,2.2194249389648437,4.115632653808594,35.89312977099237,-186.33587786259542,47.51145038167939,-17.72188068847656,-18.397045556640624,1.2234370483398436,-42.68702290076336,67.66412213740458,45.847328244274806,0.0
14.080000400543213,-10.54645831298828,-0.20829554443359374,1.9800047729492187,39.19083969465649,-183.45038167938932,45.25190839694657,-10.8409451171875,-8.128314636230469,-1.4437036010742186,19.0381679389313,54.38167938931298,43.48091603053435,0.0
14.09000039100647,-11.310208642578125,-1.7525556152343749,1.0989385620117187,39.221374045801525,-174.93129770992365,41.37404580152672,-10.47702646484375,-5.346252307128906,-0.05985504150390625,43.31297709923664,57.57251908396947,40.778625954198475,0.0
14.100000381469727,-10.639832177734375,-1.8626888916015625,-0.7661445312499999,29.206106870229007,-174.42748091603053,39.541984732824424,-6.842628344726562,3.028665100097656,-2.288856787109375,43.847328244274806,57.66412213740458,35.12977099236641,0.0
14.110000848770142,-11.056423266601563,1.1109095703125,0.33518823242187495,16.3206106870229,-164.03053435114504,40.045801526717554,-8.604760766601562,3.294421484375,-1.0223241088867188,16.427480916030536,68.2442748091603,37.282442748091604,0.0
14.12000060081482,-7.7787611938476555,-0.20350714111328125,-1.9512743530273435,12.82442748091603,-159.64885496183206,45.587786259541986,-10.773907470703124,-1.3168109130859373,1.4125789794921875,24.595419847328245,72.42748091603053,43.6793893129771,0.0
14.130000591278076,-4.393360046386719,-0.9720458740234375,-1.24498486328125,15.282442748091603,-142.77862595419847,46.06106870229008,-9.770736975097655,-1.1013327636718748,0.0718260498046875,23.267175572519083,72.77862595419847,45.9236641221374,0.0
14.140000581741333,-4.687846850585937,0.43574470214843747,0.19871873779296872,10.15267175572519,-132.45801526717557,39.404580152671755,-10.141838232421874,-1.1324573852539062,-0.82360537109375,44.717557251908396,64.45801526717557,46.58015267175573,0.0
14.15000057220459,-1.3718775512695311,-2.384624853515625,0.3591302490234375,17.14503816793893,-122.01526717557252,40.458015267175576,-13.838485595703125,-5.614402893066406,2.346317626953125,62.79389312977099,65.17557251908397,55.23664122137404,0.0
14.160000801086426,-0.7685387329101562,-2.04943662109375,0.229843359375,29.068702290076335,-102.91603053435115,37.52671755725191,-13.49611475830078,-2.5809493896484375,0.2825157958984375,106.3206106870229,41.89312977099237,58.16793893129771,0.0
14.170000553131104,-2.059013427734375,1.0917559570312498,1.189918225097656,38.61068702290076,-79.40458015267176,33.87786259541985,-10.881646545410156,2.4013842651367185,-1.4245499877929686,80.58015267175573,42.88549618320611,54.68702290076336,0.0
14.18000078201294,-0.18914193115234373,1.4437036010742186,1.5777788940429687,36.16793893129771,-68.53435114503817,36.35114503816794,-13.110648291015623,-5.157110375976562,3.2249896362304686,86.8854961832061,45.74045801526717,59.29770992366412,0.0
14.190000534057617,-0.5961562133789062,2.920926025390625,2.7557261108398436,25.00763358778626,-52.030534351145036,35.3587786259542,-8.82981572265625,0.2059013427734375,-1.6831237670898436,122.27480916030534,16.0,56.82442748091603,0.0
14.200000762939453,-0.05985504150390625,3.778050219726562,3.8379052612304685,12.122137404580153,-41.89312977099237,33.083969465648856,-10.577582934570312,1.5586252807617187,0.26336218261718747,80.73282442748092,29.72519083969466,49.31297709923664,0.0
14.210000276565552,-0.8068459594726562,7.242460021972656,5.456385583496093,-2.33587786259542,-32.82442748091603,34.50381679389313,-10.728417639160156,5.999869360351562,-2.3487118286132813,53.80152671755725,29.87786259541985,40.51908396946565,0.0
14.220000505447388,-1.9871873779296874,8.552088330078124,6.8569935546875,-23.587786259541986,-33.343511450381676,39.64885496183206,-16.551116076660154,-3.497928625488281,3.3710359375,27.46564885496183,51.02290076335878,43.98473282442748,0.0
14.230000495910645,-2.0278888061523435,7.1395093505859375,6.756437084960937,-44.67175572519084,-31.51145038167939,46.62595419847328,-11.726799731445311,-2.195482922363281,1.886630908203125,64.62595419847328,27.938931297709924,42.25954198473283,0.0
14.240000486373901,-1.9943699829101562,5.219359619140625,5.425260961914062,-54.62595419847328,-27.72519083969466,51.038167938931295,-14.037204333496092,-6.653486413574218,5.193023400878906,66.94656488549619,32.35114503816794,45.267175572519086,0.0
14.250000476837158,-1.5131354492187499,4.817133740234374,5.030217687988281,-56.74809160305343,-19.87786259541985,52.97709923664122,-10.12507882080078,-5.312733483886719,3.3542765258789062,120.56488549618321,-1.3435114503816794,43.70992366412214,0.0
14.260000467300415,1.209071838378906,2.2290017456054687,0.5267243652343749,-46.396946564885496,-5.648854961832061,56.01526717557252,-7.218518005371093,3.3542765258789062,-5.087678527832031,81.96946564885496,-4.305343511450381,30.900763358778626,0.0
14.27000117301941,2.5665841796874997,1.8938135131835936,-3.921702319335937,-47.786259541984734,18.580152671755727,51.786259541984734,-13.378798876953125,-1.637633935546875,1.0558429321289062,39.98473282442748,37.69465648854962,38.900763358778626,0.0
14.280000448226929,4.340687609863281,-6.042964990234375,-6.414066247558593,-55.969465648854964,52.900763358778626,49.61832061068702,-12.15536182861328,-7.690175732421874,3.210624426269531,98.9618320610687,6.244274809160306,45.70992366412214,0.0
14.290000438690186,-5.580884069824219,-8.834604125976561,11.966219897460936,-59.587786259541986,63.32824427480916,30.9618320610687,-11.288660827636718,-1.7118541870117185,-1.8100164550781248,83.0381679389313,-12.687022900763358,32.0,0.0
14.300000667572021,-5.894524487304687,-4.261678955078125,14.228740466308594,49.038167938931295,75.72519083969466,42.87022900763359,-12.373234179687499,5.954379528808594,-2.461239306640625,31.083969465648856,7.32824427480916,21.938931297709924,0.0
14.310000896453857,-8.688557824707031,8.33182177734375,0.36631285400390623,23.49618320610687,87.08396946564885,31.114503816793892,-11.204863769531249,11.200075366210937,-2.4349030883789062,-21.31297709923664,24.290076335877863,23.6793893129771,0.0
14.320000648498535,-16.991649182128906,13.51526837158203,0.4429273071289062,-22.610687022900763,80.44274809160305,28.396946564885496,-11.286266625976562,6.928819604492187,-1.6136919189453125,-45.282442748091604,20.793893129770993,35.57251908396947,0.0
14.330000638961792,-16.457742211914063,5.4707507934570305,5.724536169433593,-54.778625954198475,78.16793893129771,35.343511450381676,-16.007632299804687,2.6719290527343746,2.868253588867187,-94.53435114503817,26.427480916030536,43.20610687022901,0.0
14.340000629425049,-15.478513732910155,0.4740519287109375,8.82981572265625,-56.25954198473283,75.95419847328245,35.14503816793893,-17.413028674316404,0.21787235107421873,6.193799694824218,-105.52671755725191,27.755725190839694,44.595419847328245,0.0
14.350000381469727,-10.812214697265624,-1.177947216796875,0.2442085693359375,-43.29770992366412,76.4885496183206,29.374045801526716,-17.544709765624997,-0.7326257080078125,6.919242797851562,-91.25190839694656,14.427480916030534,45.86259541984733,0.0
14.360000371932983,-1.668758557128906,-11.291055029296874,0.3806780639648437,-18.702290076335878,81.7557251908397,23.984732824427482,-16.479290026855466,0.0383072265625,5.829881042480468,-81.57251908396947,0.8244274809160306,40.42748091603053,0.0
14.37000036239624,-2.7198130859375,-13.426682910156249,-0.5315127685546874,59.00763358778626,122.44274809160305,12.946564885496183,-17.207127331542967,2.085349645996094,3.9719805541992184,-57.541984732824424,-14.992366412213741,34.10687022900763,0.0
14.380000591278076,-11.724405529785155,-0.373495458984375,2.3391350219726563,85.87786259541984,140.7175572519084,-19.297709923664122,-13.972560888671874,-1.0079588989257813,2.7341782958984373,-35.32824427480916,-32.99236641221374,27.022900763358777,0.0
14.390000581741333,-10.539275708007812,0.36152445068359373,4.316745593261719,72.10687022900764,125.98473282442748,-24.33587786259542,-13.397952490234374,1.5131354492187499,1.024718310546875,-27.61832061068702,-44.030534351145036,21.893129770992367,0.0
14.40000057220459,-8.418013037109375,-2.8467057739257813,1.0630255371093749,88.13740458015268,142.44274809160305,-26.885496183206108,-11.889605444335936,-0.373495458984375,-0.86191259765625,-26.99236641221374,-53.55725190839695,12.0,0.0
14.410000324249268,-11.738770739746093,2.0159177978515626,2.712630480957031,86.2442748091603,150.68702290076337,-43.19083969465649,-11.671733093261718,-2.7078420776367187,-0.086191259765625,-12.427480916030534,-56.83969465648855,3.954198473282443,0.0
14.420000314712524,-15.732299108886718,9.279925634765624,3.6176387084960937,57.12977099236641,134.27480916030535,-52.67175572519084,-11.188104357910156,-2.712630480957031,0.507570751953125,9.236641221374045,-64.73282442748092,-7.4961832061068705,0.0
14.430000305175781,-10.084377392578125,5.164292980957031,2.7748797241210936,28.229007633587788,117.55725190839695,-44.44274809160305,-10.723629235839843,-0.5985504150390625,1.180341418457031,8.702290076335878,-70.33587786259542,-15.786259541984732,0.0
14.440000772476196,-3.347093920898437,-4.434061474609375,-1.3144167114257812,45.11450381679389,125.41984732824427,-37.55725190839695,-7.709329345703124,0.8690952026367187,-0.26815058593749996,22.18320610687023,-78.85496183206106,-28.65648854961832,0.0
14.450000524520874,-9.208099584960937,-0.8499415893554687,-0.06703764648437499,74.53435114503817,141.74045801526717,-50.19847328244275,-10.352527978515624,0.8882488159179687,-1.0295067138671874,17.34351145038168,-78.16793893129771,-33.23664122137404,0.0
14.46000075340271,3.6750995483398436,-14.43464180908203,-4.355052819824219,126.25954198473282,151.48091603053436,-46.54961832061068,-11.592724438476562,0.47644613037109373,-1.426944189453125,35.86259541984733,-70.87022900763358,-31.480916030534353,0.0
14.470000743865967,-1.927332336425781,-11.073182678222656,-5.204994409179688,241.45038167938932,204.90076335877862,-59.038167938931295,-10.83376251220703,0.20829554443359374,-2.7916391357421872,35.099236641221374,-66.90076335877863,-38.97709923664122,0.0
14.480000495910645,-8.882488159179687,2.04943662109375,-3.308786694335937,270.62595419847327,209.2824427480916,-78.79389312977099,-12.313379138183594,-0.5793968017578125,-1.429338391113281,55.63358778625954,-63.14503816793893,-43.52671755725191,0.0
14.490000247955322,-19.354726220703125,18.569428076171874,1.886630908203125,237.87786259541986,202.90076335877862,-75.09923664122137,-9.995791931152343,3.284844677734375,-2.3678654418945313,44.01526717557252,-66.74809160305344,-49.587786259541986,0.0
14.500000476837158,-13.129801904296874,19.27571756591797,1.9297265380859374,105.41984732824427,157.58778625954199,-59.93893129770992,-8.70771143798828,7.254431030273437,-2.0350714111328125,10.977099236641221,-50.48854961832061,-50.396946564885496,0.0
14.510000705718994,-14.221557861328124,14.820108276367186,4.867411975097656,20.213740458015266,130.36641221374046,-60.213740458015266,-7.8553756469726554,6.749254479980468,-3.0214824951171875,-7.114503816793893,-43.05343511450382,-37.20610687022901,0.0
14.520000696182251,-11.494562170410155,10.565611926269531,4.529829541015625,-64.82442748091603,89.31297709923665,-62.93129770992366,-7.208941198730468,6.279990954589843,-2.6192566162109374,-18.061068702290076,-37.69465648854962,-32.534351145038165,0.0
14.530000925064087,-6.301538769531249,-3.2225954345703123,0.5770026000976562,-85.45038167938931,70.41221374045801,-54.80916030534351,-8.781931689453124,3.919308117675781,-1.2401964599609374,-27.557251908396946,-30.80916030534351,-25.64885496183206,0.0
14.540000677108765,-8.161833459472655,-4.797980126953124,1.6543933471679686,-18.27480916030534,92.30534351145039,-53.404580152671755,-10.04846436767578,-0.7829039428710937,-0.21068974609375,-11.129770992366412,-33.93893129770992,-23.862595419847327,0.0
14.5500009059906,-8.10197841796875,-3.2130186279296873,-0.0430956298828125,17.221374045801525,100.54961832061069,-53.81679389312977,-10.249577307128906,-0.7445967163085937,0.7015010864257812,26.80916030534351,-44.030534351145036,-24.458015267175572,0.0
14.560000658035278,-9.265560424804686,0.7805097412109374,1.7860744384765623,43.02290076335878,110.82442748091603,-57.770992366412216,-9.270348828125,3.7517140014648436,-0.21308394775390624,30.106870229007633,-50.16793893129771,-27.404580152671755,0.0
14.570000886917114,-11.334150659179686,6.866570361328125,5.746083984375,24.549618320610687,113.32824427480917,-63.64885496183206,-9.112331518554686,4.347870214843749,1.0606313354492187,7.236641221374046,-41.51145038167939,-26.366412213740457,0.0
14.580000638961792,-11.647791076660155,6.256048937988281,3.430890979003906,-30.12213740458015,88.50381679389314,-65.96946564885496,-8.339004382324218,2.291250988769531,0.6057330200195312,3.2213740458015265,-46.50381679389313,-23.954198473282442,0.0
14.590000629425049,-9.313444458007812,1.4030021728515625,2.6096798095703124,-21.49618320610687,88.3969465648855,-65.12977099236642,-7.9104422851562495,2.9640216552734375,0.7278373046875,-0.21374045801526717,-51.23664122137404,-21.770992366412212,0.0
14.600000619888306,-14.362815759277343,8.303091357421874,4.209006518554688,-32.458015267175576,86.2442748091603,-67.02290076335878,-8.418013037109375,2.4875755249023435,1.1109095703125,-10.15267175572519,-47.43511450381679,-19.450381679389313,0.0
14.610000610351562,-9.516951599121093,1.9632453613281249,-0.4165910888671875,-62.0763358778626,68.9618320610687,-59.48091603053435,-9.528922607421874,-0.14125789794921875,1.9943699829101562,3.66412213740458,-50.595419847328245,-18.061068702290076,0.0
14.62000036239624,-18.947711938476562,14.049175341796873,6.629544396972656,-77.00763358778626,66.58015267175573,-65.2824427480916,-10.40041201171875,-0.612915625,2.1619640991210938,19.00763358778626,-57.786259541984734,-17.923664122137403,0.0
14.630000591278076,-7.034164477539062,-0.9457096557617187,-0.6823474731445313,-110.59541984732824,43.541984732824424,-47.83206106870229,-8.499415893554687,1.1228805786132812,1.350329736328125,26.870229007633586,-66.59541984732824,-21.206106870229007,0.0
14.640000581741333,-10.160991845703125,0.6272808349609375,1.3670891479492187,-79.86259541984732,46.29007633587786,-45.64885496183206,-10.108319409179687,0.18435352783203124,1.695094775390625,29.83206106870229,-71.22137404580153,-20.290076335877863,0.0
14.65000057220459,-9.160215551757812,0.5506663818359374,0.7637503295898437,-62.85496183206107,45.20610687022901,-41.43511450381679,-8.748412866210938,0.7422025146484375,1.8914193115234375,29.267175572519083,-72.70229007633588,-22.396946564885496,0.0
14.660000801086426,-8.281543542480469,-0.2920926025390625,0.4333505004882812,-47.93893129770992,48.229007633587784,-36.595419847328245,-7.132326745605468,2.480392919921875,0.8930372192382812,20.47328244274809,-79.20610687022901,-26.045801526717558,0.0
14.670000553131104,-13.560758203125,8.240842114257813,3.3207577026367185,-63.404580152671755,44.595419847328245,-42.152671755725194,-9.6917283203125,1.7573440185546874,1.7118541870117185,19.633587786259543,-75.90839694656489,-23.49618320610687,0.0
14.68000078201294,-13.941436267089843,9.131485131835937,3.7421371948242186,-121.80152671755725,19.0381679389313,-41.9236641221374,-8.0828248046875,1.4891934326171874,2.1021090576171875,9.49618320610687,-77.40458015267176,-23.419847328244273,0.0
14.690000295639038,-8.588001354980468,0.5482721801757812,-0.5602431884765625,-143.84732824427482,4.732824427480916,-31.938931297709924,-7.668627917480468,2.664746447753906,1.0319009155273438,3.2977099236641223,-85.0381679389313,-27.541984732824428,0.0
14.700000762939453,-6.210559106445312,-7.060500695800781,-2.310404602050781,-95.49618320610686,16.38167938931298,-23.557251908396946,-9.631873278808593,1.005564697265625,1.6232687255859375,-5.282442748091603,-77.72519083969466,-22.65648854961832,0.0
14.71000051498413,-17.69075606689453,7.510610607910156,5.327098693847656,-66.73282442748092,27.83206106870229,-33.23664122137404,-7.426813549804687,0.4860229370117187,2.5163059448242184,0.13740458015267176,-76.7175572519084,-25.84732824427481,0.0
14.720000505447388,-17.93975303955078,14.283807104492187,5.444414575195312,-151.09923664122138,-13.923664122137405,-31.81679389312977,-9.816226806640625,1.2785036865234374,1.9129671264648436,17.81679389312977,-83.6793893129771,-25.938931297709924,0.0
14.730000495910645,-14.022839123535155,5.384559533691406,0.8355763793945312,-164.77862595419847,-33.25190839694657,-4.458015267175573,-10.9175595703125,0.852335791015625,1.8267758666992187,4.3816793893129775,-82.61068702290076,-18.47328244274809,0.0
14.740000486373901,-14.573505505371093,0.9744400756835937,3.5290532470703124,-132.7175572519084,-31.419847328244273,12.229007633587786,-8.022969763183593,1.4604630126953124,0.9959878906249999,1.9389312977099236,-81.77099236641222,-22.18320610687023,0.0
14.750000476837158,-10.498574279785156,-2.3774422485351563,1.687912170410156,-115.86259541984732,-38.3206106870229,16.458015267175572,-7.651868505859374,0.7589619262695312,1.2856862915039062,17.51145038167939,-81.69465648854961,-20.625954198473284,0.0
14.760000467300415,-8.815450512695312,-4.000710974121094,-0.4644751220703125,-65.3587786259542,-31.389312977099237,19.557251908396946,-9.955090502929687,-0.24899697265624998,1.0917559570312498,28.27480916030534,-83.57251908396947,-17.31297709923664,0.0
14.770000696182251,-4.580107775878906,-9.1554271484375,-2.7341782958984373,-10.381679389312977,-20.15267175572519,14.778625954198473,-8.870517150878905,-0.7541735229492187,3.268085266113281,29.16030534351145,-68.79389312977099,-12.641221374045802,0.0
14.780000686645508,-7.922413293457031,-3.5889082885742187,0.3064578125,21.603053435114504,-4.931297709923665,-1.9389312977099236,-5.054159704589844,0.40940848388671874,2.7748797241210936,26.061068702290076,-68.21374045801527,-20.12213740458015,0.0
14.790000915527344,-7.050923889160156,-1.8459294799804686,-0.5889736083984375,32.412213740458014,5.541984732824427,-14.854961832061068,-5.882553479003906,0.737414111328125,3.268085266113281,27.16030534351145,-60.88549618320611,-19.236641221374047,0.0
