timestamp,Thigh_L_Acc_X,Thigh_L_Acc_Y,Thigh_L_Acc_Z,Thigh_L_Gyr_X,Thigh_L_Gyr_Y,Thigh_L_Gyr_Z,Thigh_R_Acc_X,Thigh_R_Acc_Y,Thigh_R_Acc_Z,Thigh_R_Gyr_X,Thigh_R_Gyr_Y,Thigh_R_Gyr_Z,gpio_output
10.000000476837158,-9.775525378417969,-1.0654197387695312,6.131550451660156,26.53435114503817,95.1145038167939,-15.16030534351145,-10.005368737792969,-2.6312276245117188,0.028730419921875,13.374045801526718,13.725190839694656,12.51908396946565,0.0
10.010000944137573,-10.453084448242187,-0.11013327636718749,6.4092778442382805,42.656488549618324,95.6793893129771,-10.82442748091603,-9.215282189941405,-1.7717092285156248,-0.37828386230468747,12.442748091603054,13.34351145038168,10.961832061068701,1.0
10.020000696182251,-11.405976708984374,1.407790576171875,6.327874987792969,40.85496183206107,91.63358778625954,-9.664122137404581,-10.972626208496093,-3.0502129150390624,-0.12689268798828124,9.770992366412214,18.580152671755727,12.83969465648855,1.0
10.030001163482666,-10.675745202636719,-1.3000515014648437,4.8889597900390624,48.656488549618324,85.0381679389313,-3.801526717557252,-10.307038146972655,-3.6367923217773437,0.47165772705078124,8.106870229007633,19.00763358778626,12.15267175572519,1.0
10.040000677108765,-12.267889306640624,0.3687070556640625,6.833051538085937,69.61832061068702,84.97709923664122,0.42748091603053434,-9.964667309570311,-3.5482068603515624,0.7900865478515624,14.13740458015267,17.297709923664122,10.351145038167939,1.0
10.050000667572021,-13.460201733398437,1.7118541870117185,7.448361364746093,69.06870229007633,74.93129770992367,1.2213740458015268,-9.789890588378906,-2.89219560546875,0.5434837768554687,14.458015267175572,15.282442748091603,8.244274809160306,1.0
10.060000658035278,-13.378798876953125,1.2737152832031249,6.564900952148437,60.0,58.0,3.5572519083969465,-9.878476049804688,-1.6352397338867186,0.22266075439453123,18.213740458015266,9.282442748091603,6.748091603053435,1.0
10.070000886917114,-14.805743066406249,2.7437551025390623,7.4770917846679685,48.94656488549618,46.61068702290076,3.5877862595419847,-9.138667736816405,-0.9457096557617187,0.13168109130859373,8.473282442748092,11.98473282442748,5.755725190839694,1.0
10.080000877380371,-14.322114331054687,5.054159704589844,7.764395983886718,29.87786259541985,29.81679389312977,5.312977099236641,-9.459490759277344,-1.0941501586914062,0.11731588134765625,3.5877862595419847,11.816793893129772,7.1603053435114505,1.0
10.090000629425049,-13.95580147705078,4.764461303710937,5.906495495605468,4.99236641221374,13.34351145038168,10.595419847328245,-10.005368737792969,-1.4053963745117186,0.05746083984375,-0.12213740458015267,11.603053435114504,9.17557251908397,1.0
10.100000381469727,-11.068394274902342,3.5242648437499997,3.912125512695312,-0.6259541984732825,8.13740458015267,16.47328244274809,-10.189722265624999,-1.7980454467773437,0.27293898925781246,-1.6030534351145038,10.442748091603054,10.580152671755725,1.0
10.110000610351562,-10.058041174316406,3.3207577026367185,2.6503812377929687,-4.33587786259542,7.374045801526718,17.00763358778626,-10.038887561035155,-1.5705962890624998,0.3447650390625,-2.213740458015267,8.396946564885496,10.83969465648855,1.0
10.12000060081482,-9.847351428222655,3.7325603881835936,2.250549560546875,-16.48854961832061,6.67175572519084,15.83206106870229,-10.089165795898436,-1.3335703247070312,0.22266075439453123,-2.9770992366412212,6.091603053435114,11.908396946564885,1.0
10.130000591278076,-8.664615808105468,2.3965958618164063,2.0087351928710935,-29.480916030534353,5.8320610687022905,15.450381679389313,-10.230423693847655,-0.8307879760742187,0.3495534423828125,-4.076335877862595,3.3282442748091605,12.977099236641221,1.0
10.140000581741333,-7.599196069335937,0.7972691528320313,1.8507178833007811,-36.961832061068705,8.030534351145038,14.458015267175572,-10.038887561035155,-0.2346317626953125,0.2561795776367187,-8.732824427480915,0.6564885496183206,12.931297709923664,1.0
10.150000810623169,-7.3094976684570305,-0.16041151123046873,1.9033903198242186,-38.916030534351144,10.946564885496183,12.488549618320612,-9.629479077148437,0.22026655273437498,0.21787235107421873,-15.312977099236642,-1.5725190839694656,12.412213740458014,1.0
10.160000801086426,-7.168239770507812,-1.1228805786132812,1.7717092285156248,-33.770992366412216,14.458015267175572,12.67175572519084,-9.502586389160156,0.4285620971679687,0.27293898925781246,-21.557251908396946,-2.2900763358778624,12.580152671755725,1.0
10.170000791549683,-7.187393383789062,-2.2266075439453124,1.4341267944335936,-21.587786259541986,19.389312977099237,13.969465648854962,-9.03332286376953,0.70868369140625,0.06943184814453125,-30.198473282442748,-3.236641221374046,12.396946564885496,1.0
10.18000078201294,-6.385335827636719,-1.8291700683593748,1.4341267944335936,-0.7480916030534351,28.12213740458015,14.992366412213741,-9.485826977539062,-0.0047884033203125,0.277727392578125,-36.48854961832061,-2.6259541984732824,12.625954198473282,1.0
10.190000534057617,-8.836998327636719,1.0103531005859374,2.540247961425781,7.770992366412214,35.80152671755725,12.106870229007633,-9.028534460449219,0.02633621826171875,0.23223756103515625,-40.458015267175576,-3.145038167938931,11.816793893129772,1.0
10.200000524520874,-10.079588989257813,1.8722656982421875,2.674323254394531,4.625954198473282,37.099236641221374,9.938931297709924,-9.622296472167967,-0.8643067993164062,0.3232172241210937,-41.66412213740458,-2.8091603053435112,12.549618320610687,1.0
10.21000051498413,-9.868899243164062,1.446097802734375,2.3295582153320313,0.42748091603053434,35.16030534351145,9.786259541984732,-9.361328491210937,-0.8451531860351562,0.21308394775390624,-41.541984732824424,-4.030534351145038,12.183206106870228,0.0
10.220000505447388,-10.160991845703125,2.0566192260742184,2.4660277099609376,-3.5267175572519083,32.3206106870229,8.67175572519084,-9.983820922851562,-1.446097802734375,0.22266075439453123,-38.97709923664122,-3.7709923664122136,12.396946564885496,0.0
10.230000495910645,-10.71884083251953,2.4899697265625,2.6958710693359373,-11.648854961832061,27.69465648854962,9.145038167938932,-9.543287817382812,-0.9935936889648437,0.031124621582031248,-36.50381679389313,-5.068702290076335,11.435114503816793,0.0
10.24000072479248,-10.036493359375,3.1196447631835937,3.337517114257812,-13.679389312977099,25.96946564885496,10.992366412213741,-9.89523546142578,-1.2880804931640624,0.08140285644531249,-32.97709923664122,-4.458015267175573,12.687022900763358,0.0
10.250000476837158,-10.242394702148436,2.8131869506835936,3.306392492675781,-18.83969465648855,23.358778625954198,11.86259541984733,-9.598354455566406,-1.0127473022460938,0.07422025146484375,-28.778625954198475,-4.427480916030534,12.977099236641221,0.0
10.260000705718994,-10.764330664062498,3.414131567382812,2.8706477905273435,-32.38167938931298,15.374045801526718,12.16793893129771,-9.945513696289062,-1.678335363769531,0.4740519287109375,-23.984732824427482,-2.5801526717557253,14.351145038167939,0.0
10.270000457763672,-9.76116016845703,1.5418658691406248,1.9967641845703124,-35.541984732824424,11.34351145038168,13.419847328244275,-10.254365710449218,-2.703053674316406,1.0199299072265624,-14.396946564885496,-3.5114503816793894,15.34351145038168,0.0
10.280000686645508,-9.516951599121093,1.2042834350585936,1.905784521484375,-29.603053435114504,12.50381679389313,12.763358778625955,-9.05965908203125,-1.5466542724609373,0.93852705078125,-5.419847328244275,-5.435114503816794,13.374045801526718,0.0
10.290001153945923,-9.698910925292969,2.1356278808593747,1.9871873779296874,-34.534351145038165,9.129770992366412,12.229007633587786,-8.810662109374999,0.411802685546875,0.22026655273437498,-3.5572519083969465,-9.236641221374045,11.282442748091603,0.0
10.300000667572021,-9.900023864746093,2.2601263671875,2.0350714111328125,-37.55725190839695,8.244274809160306,14.427480916030534,-9.991003527832031,-0.8212111694335937,0.7541735229492187,-9.679389312977099,-1.9694656488549618,14.717557251908397,0.0
10.310000658035278,-9.13627353515625,1.9393033447265624,2.138022082519531,-36.70229007633588,9.770992366412214,16.702290076335878,-10.005368737792969,-0.4572925170898437,1.0271125122070313,-4.778625954198473,-4.305343511450381,14.442748091603054,0.0
10.320000410079956,-9.344569079589844,1.6519991455078125,1.6256629272460936,-34.229007633587784,9.19083969465649,15.053435114503817,-10.390835205078124,-0.8810662109374999,1.2378022583007813,-4.366412213740458,-5.221374045801527,14.106870229007633,0.0
10.330000400543213,-8.463502868652343,1.0342951171875,1.3215993164062498,-30.977099236641223,9.801526717557252,15.374045801526718,-10.611101757812499,-0.9744400756835937,1.5682020874023437,-4.641221374045801,-8.076335877862595,11.786259541984732,0.0
10.34000039100647,-8.264784130859374,0.679953271484375,1.24498486328125,-27.908396946564885,11.129770992366412,13.251908396946565,-10.881646545410156,-0.59376201171875,2.2960393920898436,-6.137404580152672,-10.80916030534351,9.358778625954198,0.0
10.350000619888306,-8.990227233886719,0.5267243652343749,1.5658078857421873,-22.549618320610687,12.335877862595419,10.580152671755725,-10.838550915527343,-0.04548983154296875,2.5426421630859375,-9.877862595419847,-12.854961832061068,7.923664122137405,0.0
10.360000610351562,-9.423577734375,0.5003881469726562,1.5107412475585937,-18.3206106870229,12.213740458015268,9.282442748091603,-10.991779821777342,-0.5961562133789062,2.7844565307617186,-10.427480916030534,-16.045801526717558,8.396946564885496,0.0
10.370000839233398,-9.464279162597656,0.3112462158203125,1.4820108276367188,-10.381679389312977,13.038167938931299,7.786259541984733,-11.121066711425781,0.21308394775390624,2.252943762207031,-8.381679389312977,-19.755725190839694,8.366412213740459,0.0
10.380001068115234,-9.679757312011718,0.8068459594726562,1.5179238525390624,-1.2671755725190839,15.694656488549619,6.824427480916031,-8.939948999023438,0.0430956298828125,1.6208745239257811,-13.007633587786259,-25.81679389312977,7.526717557251908,0.0
10.390000581741333,-9.904812268066406,0.8475473876953125,1.2785036865234374,11.648854961832061,20.15267175572519,5.3893129770992365,-10.158597644042969,-1.8100164550781248,2.0254946044921875,-3.6946564885496183,-29.923664122137403,9.099236641221374,0.0
10.400000810623169,-11.080365283203124,2.4947581298828125,1.6735469604492186,15.740458015267176,22.30534351145038,0.6717557251908397,-10.244788903808594,-1.4221557861328125,1.01514150390625,7.7251908396946565,-40.6412213740458,6.5038167938931295,0.0
10.410000324249268,-10.376469995117187,3.3327287109375,1.6735469604492186,12.80916030534351,19.16030534351145,-1.1145038167938932,-8.662221606445312,1.5466542724609373,-0.2561795776367187,-2.7786259541984735,-44.88549618320611,0.1984732824427481,0.0
10.420000791549683,-10.697293017578124,4.132392065429687,1.9871873779296874,4.259541984732825,19.61832061068702,-1.251908396946565,-10.261548315429687,-1.0582371337890624,0.9720458740234375,-18.549618320610687,-33.25190839694657,2.564885496183206,0.0
10.43000054359436,-9.358934289550781,3.8091748413085935,1.39821376953125,-17.81679389312977,11.648854961832061,-0.4122137404580153,-10.788272680664061,-2.29843359375,1.189918225097656,-8.274809160305344,-35.3587786259542,5.4961832061068705,0.0
10.440000772476196,-10.022128149414062,3.0334535034179684,1.3383587280273437,-15.755725190839694,12.900763358778626,2.0,-10.967837805175781,-2.1691467041015624,0.5099649536132812,10.259541984732824,-37.725190839694655,3.786259541984733,0.0
10.450000524520874,-8.968679418945312,2.152387292480469,0.622492431640625,-12.610687022900763,12.351145038167939,3.801526717557252,-8.540117321777343,0.7685387329101562,-0.6655880615234374,15.251908396946565,-39.98473282442748,-1.7557251908396947,0.0
10.46000051498413,-9.447519750976562,2.834734765625,0.8092401611328125,-10.67175572519084,14.870229007633588,4.931297709923665,-8.195352282714843,1.618480322265625,-0.29448680419921874,0.9312977099236641,-31.0381679389313,-1.0229007633587786,0.0
10.470000505447388,-8.889670764160156,3.6391865234374996,1.0773907470703123,-22.9618320610687,14.259541984732824,6.33587786259542,-10.038887561035155,0.16759411621093748,-0.9959878906249999,-1.6488549618320612,-25.374045801526716,4.290076335877862,0.0
10.480000495910645,-8.391676818847655,0.82360537109375,0.28730419921875,-26.03053435114504,8.992366412213741,9.206106870229007,-11.990161914062499,-0.7517793212890624,-0.0383072265625,8.977099236641221,-19.083969465648856,7.022900763358779,0.0
10.490000247955322,-8.688557824707031,1.5131354492187499,1.254561669921875,-20.80916030534351,11.526717557251908,7.7251908396946565,-11.056423266601563,-1.20667763671875,-0.13407529296874998,20.15267175572519,-24.977099236641223,1.6946564885496183,0.0
10.500000476837158,-8.865728747558594,1.4987702392578124,1.4915876342773438,-15.725190839694656,11.221374045801527,7.419847328244275,-9.138667736816405,0.5578489868164063,-0.13646949462890623,20.427480916030536,-27.0381679389313,-2.946564885496183,0.0
10.510000467300415,-8.961496813964843,1.9512743530273435,1.867477294921875,-12.900763358778626,11.893129770992367,7.740458015267175,-8.552088330078124,0.30406361083984373,0.9911994873046874,11.19083969465649,-22.229007633587788,-4.473282442748092,0.0
10.520000696182251,-9.562441430664062,2.7581203125,2.252943762207031,-14.290076335877863,10.595419847328245,6.977099236641221,-8.372523205566406,1.924938134765625,0.51714755859375,-2.1374045801526718,-18.061068702290076,-6.824427480916031,0.0
10.530000686645508,-10.199299072265624,3.0071172851562498,2.518700146484375,-16.076335877862597,7.9541984732824424,6.6106870229007635,-10.749965454101561,-0.63206923828125,1.5658078857421873,-7.206106870229007,-10.82442748091603,-4.5038167938931295,0.0
10.540000438690186,-9.981426721191406,2.6815058593749996,2.346317626953125,-12.106870229007633,6.549618320610687,9.022900763358779,-10.0748005859375,-0.01915361328125,2.1499930908203124,-10.16793893129771,-10.473282442748092,-6.687022900763359,0.0
10.5500009059906,-9.560047229003906,2.1116858642578125,2.0733786376953125,-9.84732824427481,4.412213740458015,10.183206106870228,-9.193734375,-0.15083470458984374,2.518700146484375,-15.572519083969466,-13.908396946564885,-9.587786259541986,0.0
10.560000658035278,-9.457096557617186,1.8411410766601561,1.9919757812499999,-7.541984732824427,3.4198473282442747,9.587786259541986,-9.215282189941405,-0.12689268798828124,2.6288334228515624,-18.50381679389313,-15.83206106870229,-9.282442748091603,0.0
10.570000648498535,-9.131485131835937,1.2880804931640624,2.195482922363281,-7.206106870229007,2.900763358778626,7.648854961832061,-9.26316622314453,-0.4836287353515625,3.0119056884765625,-21.49618320610687,-17.236641221374047,-10.122137404580153,0.0
10.580000400543213,-9.143456140136719,1.0390835205078124,2.5067291381835934,-8.183206106870228,1.297709923664122,4.473282442748092,-8.674192614746094,-0.15562310791015624,2.7653029174804686,-25.374045801526716,-18.977099236641223,-11.32824427480916,0.0
10.590000629425049,-9.239224206542968,0.9409212524414062,2.710236279296875,-5.526717557251908,0.22900763358778625,2.366412213740458,-9.325415466308593,-0.928950244140625,2.7964275390625,-26.27480916030534,-20.38167938931298,-11.465648854961833,0.0
10.600000619888306,-9.10993731689453,0.7158662963867187,3.009511486816406,-2.4580152671755724,-1.3435114503816794,0.366412213740458,-9.380482104492186,-1.7310078002929687,3.1459809814453124,-24.946564885496183,-21.603053435114504,-12.320610687022901,0.0
10.610000610351562,-9.430760339355468,0.5363011718749999,3.124433166503906,0.9770992366412213,-3.267175572519084,-1.618320610687023,-8.662221606445312,-1.2832920898437499,3.708618371582031,-22.916030534351144,-23.297709923664122,-14.67175572519084,0.0
10.62000060081482,-9.088389501953124,0.9313444458007812,3.1866824096679687,5.526717557251908,-5.282442748091603,-3.4656488549618323,-8.71489404296875,-1.89620771484375,3.308786694335937,-24.68702290076336,-24.580152671755727,-15.938931297709924,0.0
10.630000352859497,-9.289502441406249,1.6615759521484375,3.6008792968749996,7.282442748091603,-7.572519083969466,-5.282442748091603,-9.516951599121093,-2.4851813232421875,3.763685009765625,-13.16030534351145,-29.923664122137403,-17.541984732824428,0.0
10.640001058578491,-9.244012609863281,1.905784521484375,3.6822821533203123,6.152671755725191,-12.549618320610687,-6.061068702290076,-7.687781530761718,-1.0175357055664063,2.8658593872070313,-8.80916030534351,-36.717557251908396,-21.374045801526716,0.0
10.65000057220459,-9.404424121093749,1.0486603271484374,3.778050219726562,6.854961832061068,-15.267175572519085,-5.282442748091603,-10.812214697265624,-4.034229797363281,3.5218706420898434,6.916030534351145,-36.58015267175573,-17.954198473282442,0.0
10.660000801086426,-8.573636145019531,0.49799394531249996,3.758896606445312,8.793893129770993,-17.801526717557252,-6.442748091603053,-6.648698010253906,-0.031124621582031248,2.2601263671875,13.526717557251908,-51.05343511450382,-25.862595419847327,0.0
10.670000553131104,-8.113949426269532,0.718260498046875,4.046200805664062,12.0,-19.61832061068702,-9.251908396946565,-6.4739212890625,0.7637503295898437,1.3934253662109375,-3.984732824427481,-39.282442748091604,-26.18320610687023,0.0
10.68000054359436,-8.279149340820313,1.5873557006835937,4.853046765136718,7.068702290076335,-22.717557251908396,-11.938931297709924,-7.568071447753906,-0.21068974609375,1.1180921752929687,-14.763358778625955,-36.916030534351144,-22.977099236641223,0.0
10.690000534057617,-8.47786807861328,1.20667763671875,5.185840795898438,1.1908396946564885,-28.412213740458014,-15.206106870229007,-8.595183959960938,-1.5921441040039062,1.7190367919921874,-17.17557251908397,-30.50381679389313,-20.946564885496183,0.0
10.700000524520874,-8.123526232910155,0.3447650390625,5.013458276367187,4.778625954198473,-34.76335877862596,-17.099236641221374,-8.123526232910155,-1.16837041015625,1.8267758666992187,-12.916030534351146,-31.389312977099237,-24.045801526717558,0.0
10.71000051498413,-7.977479931640625,-0.9600748657226562,5.511452221679687,9.740458015267176,-42.67175572519084,-18.396946564885496,-7.704540942382812,-0.948103857421875,1.9416975463867185,-9.770992366412214,-30.83969465648855,-26.99236641221374,0.0
10.720000505447388,-8.25520732421875,0.4644751220703125,5.635950708007812,21.267175572519083,-46.534351145038165,-19.282442748091604,-7.498639599609374,-0.3184288208007812,1.5179238525390624,-8.870229007633588,-31.14503816793893,-28.18320610687023,0.0
10.730000257492065,-7.465120776367187,2.70065947265625,3.373430139160156,26.48854961832061,-50.01526717557252,-19.374045801526716,-8.329427575683594,-0.3399766357421875,1.3575123413085937,-9.083969465648854,-28.65648854961832,-27.740458015267176,0.0
10.740000247955322,-9.222464794921875,6.742071875,3.1579519897460937,11.755725190839694,-53.465648854961835,-21.984732824427482,-8.461108666992187,-0.0430956298828125,1.458068811035156,-8.854961832061068,-26.82442748091603,-27.69465648854962,0.0
10.750000476837158,-8.427589843749999,6.0333881835937495,2.6767174560546874,-10.595419847328245,-65.31297709923665,-19.0381679389313,-8.710105639648438,0.12689268798828124,1.3215993164062498,-9.374045801526718,-26.580152671755727,-27.419847328244273,0.0
10.760000467300415,-7.6470801025390625,2.959233251953125,1.120486376953125,-22.65648854961832,-68.25954198473282,-14.381679389312977,-8.406042028808594,0.1867477294921875,1.2330138549804688,-12.396946564885496,-25.480916030534353,-25.587786259541986,0.0
10.77000093460083,-6.725312463378906,1.7549498168945312,-0.6009446166992187,-23.923664122137403,-66.87022900763358,-11.374045801526718,-7.917624890136718,0.15322890625,1.4796166259765624,-14.320610687022901,-22.9618320610687,-24.18320610687023,0.0
10.780000925064087,-7.64229169921875,2.6336218261718747,0.0718260498046875,-14.885496183206106,-61.05343511450382,-8.763358778625955,-7.671022119140624,-0.258573779296875,1.7597382202148437,-14.702290076335878,-19.908396946564885,-21.938931297709924,0.0
10.790000677108765,-8.571241943359375,3.019088293457031,0.51714755859375,-4.6106870229007635,-54.33587786259542,-2.427480916030534,-8.532934716796875,-2.6623522460937497,2.767697119140625,-8.396946564885496,-16.82442748091603,-18.061068702290076,0.0
10.800000667572021,-9.392453112792968,2.750937707519531,0.7589619262695312,5.251908396946565,-45.80152671755725,3.435114503816794,-9.279925634765624,-3.517082238769531,2.583343591308594,8.091603053435115,-22.885496183206108,-17.282442748091604,0.0
10.810000896453857,-9.49300958251953,2.6431986328124997,1.0893617553710937,13.282442748091603,-41.14503816793893,6.183206106870229,-9.720458740234374,-3.5410242553710933,2.961627453613281,26.9618320610687,-29.862595419847327,-18.870229007633586,0.0
10.820000648498535,-8.67658681640625,1.7118541870117185,2.0278888061523435,16.977099236641223,-37.48091603053435,6.412213740458015,-8.303091357421874,-0.8307879760742187,2.4756045166015626,36.47328244274809,-37.16030534351145,-23.709923664122137,0.0
10.830000638961792,-10.752359655761719,3.7134067749023436,2.578555187988281,12.0,-30.9618320610687,3.312977099236641,-7.7979148071289055,0.7206546997070312,3.0885201416015624,24.793893129770993,-29.31297709923664,-23.587786259541986,0.0
10.840000629425049,-10.685322009277343,5.267243652343749,2.346317626953125,-6.809160305343512,-31.419847328244273,1.3282442748091603,-10.137049829101562,-0.5434837768554687,2.817975354003906,12.900763358778626,-24.931297709923665,-17.17557251908397,0.0
10.850000858306885,-9.062053283691405,2.3343466186523436,2.0757728393554684,-23.083969465648856,-36.25954198473283,1.6946564885496183,-10.812214697265624,-0.5099649536132812,2.5737667846679684,12.274809160305344,-24.83969465648855,-14.045801526717558,0.0
10.860000610351562,-7.0461354858398435,-1.618480322265625,1.7525556152343749,-12.045801526717558,-32.412213740458014,1.4961832061068703,-10.694898815917968,-1.3958195678710936,3.1579519897460937,14.213740458015268,-22.641221374045802,-14.183206106870228,0.0
10.870000839233398,-7.951143713378905,-1.0965443603515623,2.7533319091796873,6.0,-19.755725190839694,-5.343511450381679,-10.486603271484375,-1.465251416015625,3.8953661010742184,21.389312977099237,-21.740458015267176,-14.778625954198473,0.0
10.880000591278076,-8.552088330078124,1.1133037719726562,2.24097275390625,14.732824427480915,-16.610687022900763,-9.083969465648854,-9.65342109375,-1.1276689819335937,3.6008792968749996,21.954198473282442,-21.49618320610687,-15.32824427480916,0.0
10.890000581741333,-8.327033374023436,1.8531120849609375,2.0446482177734375,11.297709923664122,-16.458015267175572,-7.923664122137405,-9.13627353515625,0.4213794921875,2.3295582153320313,16.061068702290076,-18.717557251908396,-14.732824427480915,0.0
10.900000810623169,-9.074024291992187,2.9759926635742184,2.003946789550781,8.961832061068701,-8.274809160305344,-10.259541984732824,-8.432378247070313,1.1037269653320312,1.3024457031249999,6.824427480916031,-13.664122137404581,-13.267175572519085,0.0
10.910000324249268,-9.49300958251953,4.266467358398438,2.2170307373046874,-3.0381679389312977,-5.511450381679389,-13.48091603053435,-9.94072529296875,-1.4939818359375,1.8698714965820311,1.5114503816793894,1.8931297709923665,-7.3893129770992365,0.0
10.920000791549683,-9.981426721191406,4.2521021484374995,3.0142998901367184,-17.908396946564885,-4.809160305343512,-12.687022900763358,-10.084377392578125,-0.6703764648437499,1.7860744384765623,11.053435114503817,2.1068702290076335,-6.2748091603053435,0.0
10.93000054359436,-10.307038146972655,3.23696064453125,3.4811692138671875,-24.65648854961832,-3.618320610687023,-11.648854961832061,-9.624690673828125,-0.28969840087890625,2.2026655273437497,10.80916030534351,9.32824427480916,-8.198473282442748,0.0
10.940000772476196,-9.265560424804686,2.147598889160156,3.2728736694335936,-25.572519083969464,-1.3129770992366412,-10.763358778625955,-9.481038574218749,-1.5753846923828123,1.8746598999023436,12.534351145038167,9.664122137404581,-5.862595419847328,0.0
10.950000286102295,-9.34696328125,2.492363928222656,2.8993782104492185,-26.3206106870229,2.33587786259542,-12.885496183206106,-8.765172277832031,0.34237083740234375,1.1372457885742187,16.0,13.801526717557252,-5.206106870229007,0.0
10.96000051498413,-10.072406384277343,3.8187516479492185,4.144363073730468,-28.68702290076336,3.1297709923664123,-14.16793893129771,-8.288726147460936,1.1061211669921875,1.7812860351562498,0.33587786259541985,27.66412213740458,-5.419847328244275,0.0
10.970000505447388,-10.283096130371094,3.768473413085937,5.137956762695312,-31.923664122137403,2.213740458015267,-11.938931297709924,-10.663774194335938,0.18914193115234373,2.770091320800781,-14.595419847328245,39.06870229007634,-6.656488549618321,0.0
10.980000495910645,-10.484209069824217,3.303998291015625,5.4899044067382805,-37.93893129770992,-0.6412213740458015,-11.236641221374045,-12.667720983886719,-1.0869675537109373,4.043806604003906,-23.923664122137403,42.534351145038165,-6.916030534351145,0.0
10.990000486373901,-10.433930834960936,2.070984436035156,5.777208605957031,-39.954198473282446,-4.0,-11.465648854961833,-15.349226843261718,-2.43250888671875,4.517858532714843,-43.48091603053435,55.17557251908397,-5.358778625954199,0.0
11.000000715255737,-10.874463940429687,0.603338818359375,6.3973068359375,-40.58015267175573,-9.49618320610687,-13.48091603053435,-16.412252380371093,-3.545812658691406,5.432443566894531,-33.31297709923664,37.64885496183206,-9.34351145038168,0.0
11.010000944137573,-10.927136376953124,-2.5761609863281247,7.1395093505859375,-22.442748091603054,-18.03053435114504,-15.679389312977099,-15.191209533691405,-4.498704919433593,5.252878442382812,-30.091603053435115,39.20610687022901,-16.198473282442748,0.0
11.020000457763672,-12.62223115234375,-3.574543078613281,8.588001354980468,7.465648854961832,-22.870229007633586,-16.83969465648855,-16.199168432617185,-4.781220715332031,4.388571643066406,-3.5419847328244276,26.137404580152673,-15.633587786259541,0.0
11.030000925064087,-14.803348864746093,-1.5658078857421873,9.605537060546874,35.465648854961835,-33.282442748091604,-19.022900763358777,-10.86009873046875,0.076614453125,2.5043349365234375,8.396946564885496,12.931297709923664,-15.801526717557252,0.0
11.040000438690186,-15.43062969970703,-1.458068811035156,9.909600671386718,62.13740458015267,-44.56488549618321,-15.648854961832061,-8.635885388183594,1.889025109863281,0.507570751953125,-0.015267175572519083,9.022900763358779,-11.86259541984733,0.0
11.050001382827759,-14.958971972656249,-0.9409212524414062,9.253589416503905,81.69465648854961,-57.083969465648856,-13.16030534351145,-6.682216833496093,3.2034418212890623,-0.4333505004882812,-13.511450381679388,11.19083969465649,-6.977099236641221,0.0
11.060000896453857,-16.13931339111328,2.1715409057617188,9.469067565917967,67.69465648854961,-72.79389312977099,-15.954198473282442,-6.313509777832031,1.6448165405273436,-1.1348515869140625,-32.229007633587784,20.80916030534351,-0.9770992366412213,0.0
11.070000410079956,-16.15846700439453,3.77326181640625,8.315062365722655,31.541984732824428,-99.72519083969466,-17.709923664122137,-9.332598071289063,-3.7229835815429686,-0.35194764404296874,-32.62595419847328,29.053435114503817,4.1679389312977095,0.0
11.080000638961792,-15.655684655761718,2.2553379638671873,6.600813977050781,3.480916030534351,-122.58015267175573,-18.641221374045802,-10.050858569335936,-6.572083557128906,-0.12210428466796874,-6.0458015267175576,28.793893129770993,1.5877862595419847,0.0
11.090000629425049,-13.623007446289062,0.20350714111328125,4.158728283691406,-5.022900763358779,-137.23664122137404,-19.46564885496183,-8.164227661132813,-5.930437512207031,-1.3958195678710936,18.259541984732824,24.47328244274809,-5.236641221374046,0.0
11.100000619888306,-12.555193505859375,-1.1707646118164061,3.0621839233398433,-4.870229007633588,-143.7709923664122,-20.9618320610687,-9.442731347656249,-5.475539196777343,-1.8411410766601561,41.31297709923664,26.045801526717558,-6.519083969465649,0.0
11.110000610351562,-10.836156713867187,-2.3870190551757813,0.8451531860351562,2.0,-145.48091603053436,-21.282442748091604,-8.046911779785155,-2.31758720703125,-2.4756045166015626,53.52671755725191,27.893129770992367,-8.061068702290076,0.0
11.12000060081482,-9.512163195800781,-2.166752502441406,0.18914193115234373,17.603053435114504,-138.82442748091603,-20.3206106870229,-8.741230261230468,-1.9512743530273435,-2.4947581298828125,52.35114503816794,35.00763358778626,-6.809160305343512,0.0
11.130000352859497,-8.279149340820313,-1.0845733520507812,-0.1867477294921875,30.717557251908396,-126.42748091603053,-18.68702290076336,-8.097190014648437,-0.009576806640625,-2.4133552734375,45.38931297709924,38.717557251908396,-8.458015267175572,0.0
11.140000343322754,-6.598419775390624,-0.8930372192382812,-1.0630255371093749,45.099236641221374,-110.91603053435115,-14.351145038167939,-8.559270935058594,1.0989385620117187,-1.4796166259765624,28.0,48.56488549618321,-5.816793893129771,0.0
11.15000057220459,-5.552153649902343,0.0383072265625,-1.0342951171875,48.06106870229008,-91.83206106870229,-11.49618320610687,-9.991003527832031,-0.565031591796875,-0.076614453125,9.541984732824428,58.045801526717554,1.2213740458015268,0.0
11.160000801086426,-4.989516259765625,-0.967257470703125,-1.0558429321289062,49.9236641221374,-74.4885496183206,-8.01526717557252,-11.681309899902343,-3.347093920898437,0.7038952880859375,17.099236641221374,55.25190839694657,6.3816793893129775,0.0
11.170000553131104,-5.999869360351562,-1.0893617553710937,-0.5003881469726562,59.786259541984734,-49.02290076335878,-6.427480916030534,-11.075576879882812,-2.2577321655273437,0.689530078125,29.64885496183206,48.67175572519084,4.183206106870229,0.0
11.18000078201294,-6.289567761230469,-0.07422025146484375,-1.13006318359375,59.98473282442748,-35.9236641221374,-5.587786259541985,-10.335768566894531,-0.11013327636718749,0.2825157958984375,25.053435114503817,46.717557251908396,3.7557251908396947,0.0
11.190000772476196,-6.938396411132812,1.7932570434570312,-0.40222587890625,51.66412213740458,-19.14503816793893,-4.473282442748092,-10.560823522949217,-0.9552864624023437,0.4525041137695312,12.183206106870228,46.06106870229008,10.778625954198473,0.0
11.200000524520874,-8.415618835449218,3.5817256835937497,0.4836287353515625,26.229007633587788,-11.206106870229007,-4.687022900763359,-11.470620153808593,-2.7246014892578123,0.737414111328125,17.17557251908397,39.541984732824424,15.48091603053435,0.0
11.21000051498413,-8.425195642089843,3.5338416503906247,0.3902548706054687,8.458015267175572,-4.1679389312977095,-1.6793893129770991,-11.305420239257812,-1.618480322265625,0.7948749511718749,21.022900763358777,36.732824427480914,13.48091603053435,0.0
11.220000505447388,-6.746860278320312,1.8722656982421875,-0.28012159423828126,2.6106870229007635,2.2290076335877864,2.5801526717557253,-10.43871923828125,-0.5267243652343749,-0.13407529296874998,13.664122137404581,29.236641221374047,10.717557251908397,0.0
11.230000495910645,-7.1035963256835934,3.066972326660156,-0.0909796630859375,-8.854961832061068,13.465648854961833,1.4351145038167938,-9.79946739501953,0.14604630126953125,-0.47884033203125,-1.6641221374045803,28.015267175572518,10.83969465648855,0.0
11.240000486373901,-6.294356164550781,2.3415292236328122,-0.36631285400390623,-30.65648854961832,18.610687022900763,0.9618320610687023,-8.44674345703125,-0.19153613281249998,0.29448680419921874,-16.091603053435115,31.328244274809162,11.007633587786259,0.0
11.250000476837158,-6.83783994140625,2.664746447753906,0.16519991455078123,-50.595419847328245,24.50381679389313,-0.5190839694656488,-10.421959826660157,-1.3766659545898436,-0.46208092041015625,-23.61832061068702,31.083969465648856,11.465648854961833,0.0
11.260000705718994,-6.155492468261718,0.9600748657226562,0.105344873046875,-62.16793893129771,29.87786259541985,0.4580152671755725,-9.550470422363281,-2.39420166015625,0.0526724365234375,-21.786259541984734,28.99236641221374,10.244274809160306,0.0
11.27000093460083,-6.098031628417968,-0.22026655273437498,-0.10295067138671875,-68.36641221374046,36.717557251908396,-0.1984732824427481,-10.134655627441406,-3.047818713378906,0.11013327636718749,-11.511450381679388,22.30534351145038,9.068702290076336,0.0
11.280000686645508,-5.772420202636718,-1.5753846923828123,0.4261678955078125,-55.52671755725191,51.969465648854964,-0.21374045801526717,-9.411606726074218,-2.3247698120117186,0.24660277099609373,-12.595419847328245,24.595419847328245,8.83969465648855,0.0
11.290000915527344,-5.078101721191406,-2.6240450195312497,-0.17477672119140625,-45.86259541984733,59.770992366412216,-1.816793893129771,-9.543287817382812,-2.2290017456054687,0.39264907226562495,-12.13740458015267,23.923664122137403,10.183206106870228,0.0
11.300000667572021,-4.75009609375,-3.497928625488281,0.45489831542968745,-32.93129770992366,74.06106870229007,-4.198473282442748,-10.081983190917969,-2.674323254394531,0.6871358764648438,-8.900763358778626,21.69465648854962,11.725190839694656,0.0
11.310000896453857,-5.899312890625,-3.2417490478515623,1.1659762084960936,-17.328244274809162,86.3969465648855,-6.748091603053435,-10.014945544433592,-3.0980969482421874,0.9911994873046874,-3.480916030534351,19.419847328244273,11.48091603053435,0.0
11.320000886917114,-6.193799694824218,-2.6886884643554687,1.5514426757812498,-5.129770992366412,95.6030534351145,-8.061068702290076,-10.12507882080078,-3.0693665283203124,0.97683427734375,2.885496183206107,17.221374045801525,11.221374045801527,0.0
11.330000400543213,-6.842628344726562,-1.6400281372070311,1.7501614135742187,5.450381679389313,103.32824427480917,-8.641221374045802,-10.386046801757812,-3.086125939941406,0.7733271362304687,7.282442748091603,15.404580152671755,10.442748091603054,0.0
11.340000629425049,-7.072471704101562,-0.5506663818359374,1.9297265380859374,13.923664122137405,109.89312977099236,-8.473282442748092,-10.383652600097655,-2.901772412109375,0.4261678955078125,9.282442748091603,15.17557251908397,8.961832061068701,0.0
11.350000619888306,-7.8170684204101555,0.2825157958984375,2.0374656127929685,21.251908396946565,115.26717557251908,-7.190839694656488,-10.168174450683592,-2.5330653564453125,0.3687070556640625,11.435114503816793,13.664122137404581,8.458015267175572,0.0
11.360000610351562,-8.418013037109375,1.2425906616210938,2.70065947265625,25.435114503816795,118.27480916030534,-5.770992366412214,-10.098742602539062,-1.93451494140625,0.3399766357421875,12.305343511450381,12.534351145038167,8.198473282442748,0.0
11.37000060081482,-9.354145886230468,1.9033903198242186,3.0933085449218747,28.9618320610687,120.51908396946565,-3.7709923664122136,-9.943119494628906,-1.2306196533203124,0.3184288208007812,9.679389312977099,11.725190839694656,8.045801526717558,0.0
11.380000591278076,-9.670180505371093,1.4030021728515625,3.306392492675781,28.442748091603054,117.86259541984732,-2.4122137404580153,-9.765948571777344,-0.5363011718749999,0.3232172241210937,4.656488549618321,11.236641221374045,8.534351145038167,0.0
11.390000581741333,-10.08677159423828,0.316034619140625,3.622427111816406,28.0,116.10687022900764,-1.5725190839694656,-10.091559997558592,-0.44532150878906246,0.39983167724609375,-0.8549618320610687,12.122137404580153,8.885496183206106,0.0
11.400000810623169,-10.479420666503906,-0.7829039428710937,4.163516687011718,29.221374045801525,111.83206106870229,-2.6259541984732824,-10.187328063964843,-0.6248866333007812,0.6057330200195312,-6.778625954198473,12.80916030534351,9.86259541984733,0.0
11.410000324249268,-11.789048974609374,-0.26815058593749996,5.456385583496093,30.778625954198475,107.31297709923665,-3.6793893129770994,-10.110713610839843,-1.2138602416992186,0.277727392578125,-11.969465648854962,13.17557251908397,10.732824427480915,0.0
11.420000791549683,-12.294225524902343,-0.22744915771484372,5.793968017578124,29.557251908396946,101.64885496183206,-4.244274809160306,-10.184933862304687,-1.7405846069335937,-0.047884033203124995,-14.610687022900763,13.34351145038168,11.389312977099237,0.0
11.43000054359436,-12.947842578125,0.09337386474609374,6.256048937988281,23.557251908396946,93.45038167938931,-6.748091603053435,-10.20887587890625,-2.39420166015625,-0.411802685546875,-11.083969465648854,14.702290076335878,11.755725190839694,0.0
11.440001010894775,-14.791377856445312,0.8810662109374999,7.857769848632812,18.35114503816794,84.18320610687023,-7.206106870229007,-9.701305126953125,-3.1651345947265623,-0.8882488159179687,-6.656488549618321,16.870229007633586,12.610687022900763,0.0
11.450000286102295,-15.50724415283203,0.16998831787109375,7.182604980468749,15.84732824427481,70.56488549618321,0.15267175572519084,-9.636661682128906,-3.9336733276367184,-1.3048399047851562,-0.4122137404580153,17.893129770992367,13.969465648854962,0.0
11.46000051498413,-15.172055920410155,0.2609679809570312,6.641515405273437,25.374045801526716,67.58778625954199,4.33587786259542,-10.175357055664062,-3.928884924316406,-1.3670891479492187,8.931297709923664,18.763358778625953,14.290076335877863,0.0
11.470000743865967,-14.45379542236328,0.8595183959960937,6.53138212890625,25.893129770992367,58.35114503816794,2.763358778625954,-9.639055883789062,-3.6942531616210936,-1.455674609375,15.618320610687023,19.419847328244273,14.0,0.0
11.480000495910645,-13.582306018066406,1.1324573852539062,6.078878015136718,18.290076335877863,47.64885496183206,-0.061068702290076333,-9.610325463867188,-2.9544448486328125,-1.4604630126953124,22.900763358778626,19.328244274809162,14.50381679389313,0.0
11.490000486373901,-12.073958972167969,1.8148048583984373,4.714183068847656,9.694656488549619,35.587786259541986,-2.4732824427480917,-9.050082275390624,-1.6472107421875,-1.3096283081054687,24.045801526717558,20.458015267175572,14.15267175572519,0.0
11.500000476837158,-10.534487304687499,1.1731588134765625,3.0502129150390624,-4.702290076335878,24.580152671755727,-3.6946564885496183,-9.842563024902343,-1.2473790649414063,-1.0558429321289062,23.786259541984734,20.885496183206108,14.763358778625955,0.0
11.510000467300415,-8.547299926757812,1.16837041015625,3.3016040893554686,-14.80916030534351,22.259541984732824,-6.213740458015267,-9.0788126953125,-0.8810662109374999,-0.028730419921875,23.206106870229007,22.50381679389313,15.038167938931299,0.0
11.520000457763672,-7.465120776367187,-0.7350199096679687,2.73896669921875,-25.46564885496183,17.083969465648856,-6.33587786259542,-9.9215716796875,-0.7924807495117187,-0.10773907470703124,23.69465648854962,18.412213740458014,14.030534351145038,0.0
11.530000925064087,-6.751648681640624,-1.254561669921875,3.0693665283203124,-16.885496183206108,19.61832061068702,-4.99236641221374,-10.065223779296874,-0.48123453369140623,-0.016759411621093748,20.85496183206107,15.648854961832061,13.435114503816793,0.0
11.540000438690186,-5.566518859863281,-2.3535002319335936,2.693476867675781,-3.450381679389313,22.427480916030536,-3.2519083969465647,-10.175357055664062,-0.08858546142578125,0.1292868896484375,16.732824427480917,12.65648854961832,13.053435114503817,0.0
11.55000114440918,-5.57370146484375,-1.197100830078125,2.3415292236328122,7.267175572519084,24.53435114503817,-2.6106870229007635,-10.192116467285155,0.17956512451171874,0.12449848632812499,10.244274809160306,10.198473282442748,13.633587786259541,0.0
11.560000658035278,-6.189011291503906,0.028730419921875,1.9943699829101562,15.419847328244275,30.229007633587788,-0.9923664122137404,-10.129867224121092,0.36152445068359373,0.29927520751953124,3.2213740458015265,8.030534351145038,13.32824427480916,0.0
11.570000410079956,-7.884106066894531,1.8219874633789062,2.023100402832031,25.6793893129771,35.69465648854962,1.4198473282442747,-10.031704956054687,0.4165910888671875,0.3327940307617187,-6.015267175572519,6.137404580152672,13.129770992366412,0.0
11.580000638961792,-8.647856396484375,3.1842882080078123,1.6424223388671875,24.50381679389313,37.57251908396947,2.351145038167939,-9.931148486328125,0.4165910888671875,0.39264907226562495,-13.770992366412214,4.916030534351145,12.564885496183207,0.0
11.59000039100647,-8.86812294921875,3.5697546752929687,1.7286135986328124,7.847328244274809,32.900763358778626,4.748091603053435,-9.821015209960937,0.6177040283203125,0.28969840087890625,-23.6793893129771,3.0381679389312977,12.534351145038167,0.0
11.600000619888306,-9.119514123535156,3.2345664428710936,1.6400281372070311,-2.7938931297709924,29.786259541984734,8.335877862595419,-9.85692823486328,0.5793968017578125,0.09576806640624999,-33.80152671755725,2.2748091603053435,12.931297709923664,0.0
11.610000848770142,-10.536881506347656,4.015076184082031,2.896984008789062,-12.778625954198473,32.2442748091603,9.007633587786259,-9.689334118652344,0.46686932373046874,-0.0383072265625,-42.54961832061068,2.183206106870229,12.625954198473282,0.0
11.62000060081482,-12.413935607910156,5.248090039062499,3.8690298828125,-28.564885496183205,27.81679389312977,9.312977099236642,-10.137049829101562,-0.1484405029296875,-0.1388636962890625,-49.6793893129771,3.0381679389312977,13.572519083969466,0.0
11.630000591278076,-10.836156713867187,1.6208745239257811,3.0454245117187497,-41.31297709923664,17.87786259541985,14.045801526717558,-9.871293444824218,-0.4644751220703125,-0.13646949462890623,-54.19847328244275,2.8244274809160306,13.374045801526718,0.0
11.640000343322754,-11.077971081542968,0.6584054565429687,2.81558115234375,-33.66412213740458,18.16793893129771,15.389312977099237,-10.266336718749999,-1.5442600708007812,0.08379705810546874,-56.01526717557252,4.015267175572519,14.778625954198473,0.0
11.65000033378601,-10.702081420898438,0.7637503295898437,2.693476867675781,-31.31297709923664,17.14503816793893,13.572519083969466,-9.782707983398437,-1.6831237670898436,0.229843359375,-53.969465648854964,4.396946564885496,13.908396946564885,0.0
11.660000324249268,-11.044452258300781,1.6136919189453125,2.123656872558594,-34.778625954198475,15.083969465648854,10.931297709923664,-10.062829577636718,-2.2577321655273437,0.2609679809570312,-48.76335877862596,3.480916030534351,14.80916030534351,0.0
11.670000553131104,-11.118672509765624,2.4133552734375,2.1068974609374997,-41.14503816793893,12.51908396946565,9.877862595419847,-10.295067138671874,-2.664746447753906,0.45010991210937495,-41.52671755725191,2.687022900763359,15.374045801526718,0.0
11.68000054359436,-10.338162768554687,2.0757728393554684,1.678335363769531,-44.396946564885496,10.534351145038167,10.274809160305344,-9.923965881347655,-2.1715409057617188,0.5578489868164063,-35.06870229007634,1.8931297709923665,14.931297709923664,0.0
11.690000295639038,-9.6151138671875,1.8842367065429686,1.6352397338867186,-47.465648854961835,8.977099236641221,11.389312977099237,-9.849745629882811,-1.9632453613281249,0.6943184814453125,-30.106870229007633,1.251908396946565,14.641221374045802,0.0
11.700000524520874,-9.481038574218749,2.0542250244140625,1.5131354492187499,-50.87022900763359,8.82442748091603,12.15267175572519,-10.244788903808594,-1.9009961181640624,0.7829039428710937,-23.984732824427482,0.5954198473282443,14.82442748091603,0.0
11.71000051498413,-8.489839086914062,0.93852705078125,1.2665326782226562,-49.847328244274806,8.687022900763358,14.259541984732824,-9.809044201660155,-1.6017209106445311,0.8020575561523438,-18.80916030534351,-1.099236641221374,13.740458015267176,0.0
11.720000505447388,-8.987833032226561,1.0534487304687499,1.2856862915039062,-48.76335877862596,9.618320610687023,14.763358778625955,-10.060435375976562,-1.9225439331054686,0.9050082275390624,-15.389312977099237,-0.732824427480916,13.816793893129772,0.0
11.730000495910645,-9.22485899658203,0.9648632690429687,1.4437036010742186,-50.44274809160305,9.450381679389313,15.32824427480916,-10.627861169433594,-2.35589443359375,1.16837041015625,-7.206106870229007,-2.9618320610687023,13.007633587786259,0.0
11.740000486373901,-8.968679418945312,-0.15083470458984374,1.1061211669921875,-59.32824427480916,3.7099236641221376,14.961832061068701,-9.674968908691406,-0.833182177734375,1.0582371337890624,-4.8396946564885495,-5.801526717557252,10.091603053435115,0.0
11.750000238418579,-8.487444885253906,-2.2481553588867187,0.5674257934570313,-48.045801526717554,3.2061068702290076,18.3206106870229,-10.388441003417968,-1.8291700683593748,1.22583125,-5.938931297709924,-4.091603053435114,12.183206106870228,0.0
11.760000705718994,-8.588001354980468,-2.4301146850585935,0.8738836059570312,-21.64885496183206,12.793893129770993,17.419847328244273,-9.119514123535156,0.06703764648437499,1.0103531005859374,-2.7022900763358777,-10.427480916030534,8.106870229007633,0.0
11.77000093460083,-9.823409411621093,-0.3280056274414062,1.218648645019531,-12.610687022900763,14.977099236641221,12.442748091603054,-10.101136804199218,-1.139639990234375,1.465251416015625,-9.022900763358779,-4.641221374045801,9.053435114503817,0.0
11.780000686645508,-10.594342346191405,0.8259995727539062,1.6615759521484375,-17.52671755725191,11.755725190839694,10.229007633587786,-10.266336718749999,-0.5817910034179687,1.467645617675781,-6.702290076335878,-8.870229007633588,8.412213740458014,0.0
11.790000677108765,-10.263942517089843,0.44532150878906246,1.8459294799804686,-12.870229007633588,10.13740458015267,10.290076335877863,-11.640608471679688,-2.5570073730468748,2.2170307373046874,-4.900763358778626,-7.206106870229007,10.427480916030534,0.0
11.800000667572021,-9.830592016601562,0.0,1.9871873779296874,-8.320610687022901,7.938931297709924,9.98473282442748,-10.115502014160155,-2.1116858642578125,1.678335363769531,-0.183206106870229,-16.99236641221374,6.198473282442748,0.0
11.810000896453857,-10.539275708007812,0.4525041137695312,2.2936451904296873,-4.213740458015267,6.0458015267175576,8.335877862595419,-11.0707884765625,-3.766079211425781,2.3343466186523436,7.541984732824427,-21.19083969465649,5.022900763358779,0.0
11.820000410079956,-10.196904870605469,0.612915625,2.308010400390625,0.22900763358778625,4.809160305343512,7.801526717557252,-10.165780249023436,-2.4684219116210935,2.829946362304687,15.511450381679388,-31.404580152671755,1.3740458015267176,0.0
11.830000400543213,-9.871293444824218,1.0366893188476562,2.042254016113281,1.8625954198473282,3.236641221374046,7.221374045801527,-9.016563452148437,0.09576806640624999,1.908178723144531,4.625954198473282,-37.038167938931295,-3.145038167938931,0.0
11.840000629425049,-10.146626635742187,2.1930887207031247,1.9656395629882812,-3.954198473282443,1.1603053435114503,6.656488549618321,-9.22485899658203,-0.36391865234375,3.028665100097656,-13.19083969465649,-33.038167938931295,-3.1755725190839694,0.0
11.850000619888306,-10.137049829101562,2.463633508300781,1.7310078002929687,-8.732824427480915,-0.44274809160305345,6.5038167938931295,-9.536105212402344,-0.11013327636718749,2.272097375488281,-18.47328244274809,-40.045801526717554,-4.396946564885496,0.0
11.860000610351562,-10.338162768554687,2.50912333984375,1.4173673828125,-12.061068702290076,-3.068702290076336,7.038167938931298,-9.727641345214844,-1.6328455322265625,2.6001030029296874,-20.977099236641223,-43.64885496183206,-7.175572519083969,0.0
11.87000060081482,-9.773131176757811,1.8722656982421875,1.24498486328125,-8.702290076335878,-4.122137404580153,8.870229007633588,-11.149797131347656,-3.545812658691406,3.2345664428710936,-7.1603053435114505,-48.99236641221374,-9.053435114503817,0.0
11.880000591278076,-9.504980590820312,1.68551796875,1.0845733520507812,-4.916030534351145,-5.282442748091603,9.801526717557252,-11.01332763671875,-2.7629087158203123,2.2098481323242187,10.992366412213741,-64.36641221374046,-13.038167938931299,0.0
11.890000581741333,-9.267954626464844,1.9033903198242186,1.0965443603515623,-1.5572519083969465,-3.877862595419847,12.854961832061068,-8.341398583984375,1.2952630981445312,0.7972691528320313,5.251908396946565,-71.2824427480916,-18.99236641221374,0.0
11.900000810623169,-9.447519750976562,3.5146880371093747,0.9840168823242187,-2.198473282442748,-0.8091603053435115,17.053435114503817,-10.68053360595703,-0.03591302490234375,0.737414111328125,-0.22900763358778625,-64.4885496183206,-15.694656488549619,0.0
11.910000324249268,-9.619902270507811,4.412513659667969,1.0295067138671874,-7.9541984732824424,0.7175572519083969,21.572519083969464,-9.95987890625,1.6328455322265625,-0.7733271362304687,7.221374045801527,-71.72519083969466,-16.12213740458015,0.0
11.920000791549683,-9.80665,3.047818713378906,1.8411410766601561,-14.15267175572519,0.44274809160305345,25.83206106870229,-7.692569934082031,3.754108203125,-1.886630908203125,-11.038167938931299,-62.01526717557252,-14.83969465648855,0.0
11.93000054359436,-10.409988818359375,3.7038299682617186,2.1930887207031247,-9.053435114503817,2.687022900763359,32.70229007633588,-9.504980590820312,0.8571241943359375,-2.2002713256835937,-17.297709923664122,-50.12213740458015,-6.229007633587786,0.0
11.940000772476196,-9.794678991699218,5.5258174316406246,-0.3399766357421875,-2.9770992366412212,4.977099236641221,41.9236641221374,-9.3852705078125,1.707065783691406,-2.549824768066406,-11.877862595419847,-47.57251908396947,-7.786259541984733,0.0
11.950000286102295,-8.441955053710936,4.848258361816406,-1.8100164550781248,-16.0,3.7099236641221376,41.69465648854962,-9.157821350097656,1.0342951171875,-2.8754361938476563,-26.35114503816794,-34.74809160305343,-11.83206106870229,0.0
11.96000051498413,-6.964732629394531,2.0278888061523435,-2.1260510742187497,-40.29007633587786,6.213740458015267,34.35114503816794,-9.813832604980469,-1.218648645019531,-1.4939818359375,-31.16030534351145,-26.83969465648855,-10.412213740458014,0.0
11.970000505447388,-6.5409589355468745,-1.3120225097656248,-1.695094775390625,-63.541984732824424,12.870229007633588,18.610687022900763,-10.649408984374999,-2.389413256835937,0.02633621826171875,-23.14503816793893,-23.923664122137403,-9.221374045801527,0.0
11.980000257492065,-7.436390356445312,-2.442085693359375,-0.8858546142578124,-60.045801526717554,17.404580152671755,9.755725190839694,-10.216058483886718,-2.032677209472656,1.0031704956054688,-16.427480916030536,-24.091603053435115,-12.793893129770993,0.0
11.990000247955322,-7.376535314941406,-0.13168109130859373,-0.6655880615234374,-41.25190839694657,19.17557251908397,6.717557251908397,-10.735600244140624,-2.5354595581054684,2.114080065917969,-10.854961832061068,-23.450381679389313,-14.82442748091603,0.0
12.000000476837158,-11.123460913085937,2.597708801269531,1.3431471313476562,-48.82442748091603,20.9618320610687,4.198473282442748,-9.356540087890625,-0.3902548706054687,2.4660277099609376,-9.022900763358779,-28.18320610687023,-19.541984732824428,0.0
12.010000944137573,-9.80665,-0.19871873779296872,2.118868469238281,-35.51145038167939,20.47328244274809,8.50381679389313,-10.105925207519531,-1.0893617553710937,3.3255461059570313,-15.358778625954198,-24.53435114503817,-17.755725190839694,0.0
12.020000696182251,-9.809044201660155,0.35194764404296874,3.459621398925781,-22.977099236641223,21.19083969465649,5.526717557251908,-7.4028715332031245,0.8068459594726562,2.834734765625,-19.87786259541985,-29.64885496183206,-20.671755725190838,0.0
12.030000925064087,-11.628637463378906,1.5370774658203123,3.8379052612304685,-20.12213740458015,11.84732824427481,1.6946564885496183,-10.376469995117187,-1.9919757812499999,4.333505004882812,-23.419847328244273,-22.580152671755727,-16.977099236641223,0.0
12.040000915527344,-10.08677159423828,1.218648645019531,4.589684582519531,-15.709923664122137,3.312977099236641,0.015267175572519083,-10.024522351074218,-1.9488801513671874,3.517082238769531,-12.381679389312977,-35.343511450381676,-18.458015267175572,0.0
12.0500009059906,-10.66137999267578,1.3407529296874998,5.482721801757812,-16.35114503816794,-9.34351145038168,-1.9236641221374047,-9.897629663085937,-1.9512743530273435,3.7301661865234372,-6.5038167938931295,-39.69465648854962,-20.717557251908396,0.0
12.0600004196167,-10.649408984374999,0.7661445312499999,6.768408093261718,-4.458015267175573,-22.061068702290076,-1.2213740458015268,-9.497797985839844,-1.6998831787109374,3.4069489624023435,-6.259541984732825,-42.38167938931298,-21.87786259541985,0.0
12.070000648498535,-9.861716638183593,0.2920926025390625,7.960720520019531,19.00763358778626,-30.3206106870229,3.2213740458015265,-8.315062365722655,0.49320554199218747,3.162740393066406,-6.061068702290076,-50.412213740458014,-28.99236641221374,0.0
12.080000877380371,-10.213664282226562,3.754108203125,7.71890615234375,25.603053435114504,-47.31297709923664,5.877862595419847,-8.080430603027343,-0.8020575561523438,2.6048914062499997,-20.977099236641223,-42.61068702290076,-28.076335877862597,0.0
12.09000039100647,-9.246406811523437,3.687070556640625,7.323862878417969,15.145038167938932,-67.46564885496183,11.86259541984733,-8.722076647949219,-1.9033903198242186,2.96881005859375,-17.022900763358777,-42.13740458015267,-25.96946564885496,0.0
12.100000619888306,-8.197746484375,3.303998291015625,5.1523219726562495,9.16030534351145,-82.13740458015268,14.442748091603054,-6.907271789550781,-1.4987702392578124,2.2649147705078123,-6.931297709923665,-46.19847328244275,-28.412213740458014,0.0
12.110000371932983,-5.592855078125,-0.1149216796875,2.518700146484375,1.6641221374045803,-91.26717557251908,12.106870229007633,-5.157110375976562,-0.9193734375,2.4971523315429685,-4.442748091603053,-42.213740458015266,-30.16793893129771,0.0
12.12000036239624,-4.515464331054687,2.4875755249023435,1.6041151123046875,-22.16793893129771,-100.54961832061069,2.0916030534351147,-6.471527087402343,-1.6232687255859375,2.2026655273437497,-2.427480916030534,-37.55725190839695,-26.83969465648855,0.0
12.130000591278076,-5.130774157714844,0.011971008300781249,-0.033518823242187495,-26.366412213740457,-105.78625954198473,-0.8702290076335878,-5.085284326171875,-0.6392518432617187,2.3535002319335936,-8.702290076335878,-22.564885496183205,-25.16030534351145,0.0
12.140000581741333,-5.238513232421875,-0.9720458740234375,0.19153613281249998,-13.541984732824428,-98.47328244274809,-1.2061068702290076,-4.537012145996093,-0.5506663818359374,1.407790576171875,-0.4122137404580153,-31.221374045801525,-23.00763358778626,0.0
12.150000810623169,-5.767631799316406,-2.8514941772460936,0.48123453369140623,-1.3893129770992367,-88.97709923664122,-2.366412213740458,-5.0757075195312495,-1.4221557861328125,1.5634136840820312,10.229007633587786,-25.6793893129771,-20.885496183206108,0.0
12.160000801086426,-6.215347509765625,-2.6695348510742187,0.6440402465820312,20.442748091603054,-74.59541984732824,-2.7786259541984735,-5.05655390625,-1.7812860351562498,1.6927005737304686,22.213740458015266,-22.977099236641223,-19.923664122137403,0.0
12.170000553131104,-8.382100012207031,0.17238251953125,0.6655880615234374,40.01526717557252,-60.18320610687023,-4.015267175572519,-5.702988354492187,-1.7501614135742187,1.678335363769531,33.6793893129771,-22.458015267175572,-18.27480916030534,0.0
12.18000054359436,-7.9295958984374995,1.9009961181640624,0.48123453369140623,47.603053435114504,-49.7557251908397,-3.404580152671756,-6.488286499023437,-0.928950244140625,1.4604630126953124,43.06870229007634,-20.885496183206108,-17.572519083969464,0.0
12.190000534057617,-8.537723120117187,2.5163059448242184,0.8188169677734375,40.50381679389313,-43.02290076335878,-4.702290076335878,-8.489839086914062,-1.7214309936523438,1.85790048828125,49.70992366412214,-17.709923664122137,-14.320610687022901,0.0
12.200000524520874,-9.828197814941406,3.5506010620117183,2.4971523315429685,31.908396946564885,-41.00763358778626,-6.885496183206107,-8.245630517578125,-0.09576806640624999,1.7166425903320313,58.274809160305345,-20.076335877862597,-14.335877862595419,0.0
12.210000276565552,-8.520963708496094,1.5586252807617187,2.578555187988281,34.18320610687023,-39.63358778625954,-6.488549618320611,-8.221688500976562,0.7781155395507812,1.5945383056640625,50.87022900763359,-14.045801526717558,-12.15267175572519,0.0
12.220000505447388,-8.312668164062499,1.3646949462890625,2.6767174560546874,35.83206106870229,-37.19083969465649,-9.114503816793894,-9.931148486328125,-0.3687070556640625,0.9433154541015625,50.19847328244275,-13.251908396946565,-7.877862595419847,0.0
12.230000734329224,-8.595183959960938,2.01112939453125,3.430890979003906,37.06870229007634,-36.0763358778626,-11.923664122137405,-9.469067565917967,-0.3399766357421875,1.8004396484374998,46.458015267175576,-6.1679389312977095,-6.595419847328245,0.0
12.240000247955322,-9.064447485351561,4.707000463867187,4.328716601562499,25.480916030534353,-41.20610687022901,-12.580152671755725,-9.356540087890625,0.2920926025390625,1.5107412475585937,44.76335877862596,-7.00763358778626,-5.435114503816794,0.0
12.250000476837158,-10.357316381835936,5.4707507934570305,3.9552211425781247,8.931297709923664,-46.76335877862596,-11.145038167938932,-10.120290417480469,-0.488417138671875,2.1021090576171875,34.93129770992366,0.3816793893129771,-3.0229007633587788,0.0
12.260000705718994,-10.151415039062499,4.3071687866210935,2.1811177124023438,-6.366412213740458,-48.80916030534351,-10.16793893129771,-9.883264453125,0.5817910034179687,1.9297265380859374,26.946564885496183,1.1145038167938932,-2.6412213740458017,0.0
12.270000457763672,-9.076418493652342,3.394977954101562,1.5945383056640625,-10.473282442748092,-46.732824427480914,-10.961832061068701,-11.417947717285156,0.3806780639648437,1.915361328125,18.12213740458015,3.5267175572519083,-2.33587786259542,0.0
12.280000925064087,-9.004592443847656,3.0645781249999997,1.24498486328125,-9.954198473282442,-39.29770992366412,-11.709923664122137,-12.241553088378906,0.5793968017578125,2.398990063476562,5.465648854961832,8.290076335877863,-6.99236641221374,0.0
12.290000915527344,-8.580818749999999,3.402160559082031,1.7429788085937499,-4.290076335877862,-30.50381679389313,-10.732824427480915,-12.720393420410156,-0.7541735229492187,2.770091320800781,-4.580152671755725,11.694656488549619,-8.122137404580153,0.0
12.300000667572021,-9.904812268066406,4.857835168457031,3.105279553222656,-0.6259541984732825,-16.47328244274809,-11.511450381679388,-11.858480822753906,0.11252747802734374,2.3343466186523436,-9.923664122137405,9.84732824427481,-6.427480916030534,0.0
12.310000896453857,-9.89523546142578,5.559336254882812,3.1076737548828124,1.4198473282442747,-8.351145038167939,-9.450381679389313,-11.741164941406248,2.461239306640625,1.8052280517578123,-33.221374045801525,18.83969465648855,-9.725190839694656,0.0
12.320000648498535,-11.145008728027342,8.626308581542968,3.7229835815429686,-19.64885496183206,-5.694656488549619,-9.664122137404581,-11.690886706542969,1.5514426757812498,3.3494881225585935,-63.16030534351145,32.44274809160305,-12.916030534351146,0.0
12.330000638961792,-11.604695446777344,7.750030773925781,4.235342736816406,-44.030534351145036,-9.374045801526718,-6.33587786259542,-15.497667346191406,-2.8802245971679685,4.910507604980468,-68.3969465648855,37.038167938931295,-9.603053435114504,0.0
12.34000039100647,-10.390835205078124,3.7924154296875,4.395754248046875,-54.274809160305345,-10.534351145038167,-2.6717557251908395,-14.994884997558593,-3.7924154296875,4.8650177734375,-52.94656488549618,23.709923664122137,-13.068702290076336,0.0
12.350000619888306,-10.254365710449218,1.0989385620117187,5.046977099609375,-49.02290076335878,-9.312977099236642,-1.9694656488549618,-13.498508959960937,-2.454056701660156,5.193023400878906,-47.70992366412214,21.6793893129771,-15.572519083969466,0.0
12.360000610351562,-10.924742175292968,0.565031591796875,4.7884033203125,-37.908396946564885,-8.412213740458014,-3.7099236641221376,-15.691597680664062,-4.73094248046875,5.013458276367187,-40.56488549618321,21.954198473282442,-12.473282442748092,0.0
12.37000060081482,-12.330138549804687,-0.04548983154296875,4.912901806640625,-33.55725190839695,-10.122137404580153,-7.00763358778626,-15.107412475585937,-4.027047192382812,4.50109912109375,-11.374045801526718,8.244274809160306,-11.068702290076336,0.0
12.380001068115234,-13.081917871093749,-1.0606313354492187,5.999869360351562,-17.557251908396946,-13.129770992366412,-8.854961832061068,-12.349292163085936,-1.2234370483398436,2.3630770385742186,6.656488549618321,-1.7099236641221374,-10.916030534351146,0.0
12.390000581741333,-13.031639636230468,-1.5562310791015623,6.931213806152344,1.9236641221374047,-14.67175572519084,-10.473282442748092,-9.150638745117186,1.2641384765625,0.5482721801757812,0.7786259541984732,-3.6946564885496183,-5.282442748091603,0.0
12.400000810623169,-13.831302990722655,-0.6416460449218749,7.934384301757812,13.053435114503817,-18.85496183206107,-12.732824427480915,-8.20971749267578,1.0821791503906248,-0.17956512451171874,-12.641221374045802,4.977099236641221,2.33587786259542,0.0
12.410000562667847,-14.073117358398436,-0.22505495605468748,8.70771143798828,20.259541984732824,-27.17557251908397,-13.267175572519085,-6.892906579589844,2.090138049316406,-1.1372457885742187,-23.572519083969464,15.648854961832061,5.374045801526718,0.0
12.420001029968262,-13.524845178222655,-1.180341418457031,9.368511096191405,26.83969465648855,-36.412213740458014,-12.67175572519084,-5.406107348632812,1.2378022583007813,-1.2617442749023438,-39.29770992366412,31.068702290076335,7.374045801526718,0.0
12.43000054359436,-12.045228552246092,-3.114856359863281,9.054870678710937,42.030534351145036,-45.61832061068702,-12.183206106870228,-7.541735229492187,-3.2728736694335936,-0.9816226806640624,-44.87022900763359,45.282442748091604,11.664122137404581,0.0
12.440000534057617,-12.579135522460938,-3.9408559326171875,8.535328918457031,55.06870229007634,-55.87786259541985,-16.30534351145038,-8.846575134277343,-5.106832141113281,-1.3910311645507811,-25.17557251908397,46.30534351145038,10.748091603053435,0.0
12.450000286102295,-12.74912384033203,-2.128445275878906,8.104372619628906,66.04580152671755,-66.06106870229007,-22.946564885496183,-7.0269818725585935,-4.134786267089844,-0.9552864624023437,-13.114503816793894,58.534351145038165,4.320610687022901,0.0
12.46000051498413,-14.11621298828125,1.0319009155273438,6.8569935546875,50.85496183206107,-84.9618320610687,-30.595419847328245,-10.692504614257812,-6.459556079101562,-0.28012159423828126,4.961832061068702,61.770992366412216,8.366412213740459,0.0
12.470000267028809,-12.203245861816406,-0.02154781494140625,5.1523219726562495,29.786259541984734,-106.90076335877863,-32.54961832061068,-9.181763366699219,-3.1675287963867187,-1.0678139404296874,28.412213740458014,51.86259541984733,4.076335877862595,0.0
12.480000257492065,-10.675745202636719,-0.3495534423828125,3.450044592285156,30.99236641221374,-115.17557251908397,-32.85496183206107,-8.712499841308594,-1.915361328125,0.29927520751953124,24.290076335877863,60.900763358778626,4.8396946564885495,0.0
12.490000247955322,-9.911994873046874,0.36631285400390623,2.6144682128906247,26.366412213740457,-121.2824427480916,-33.9236641221374,-10.673351000976561,-4.058171813964844,1.9129671264648436,35.267175572519086,55.038167938931295,10.67175572519084,0.0
12.500000476837158,-9.0788126953125,0.34715924072265625,1.7693150268554687,20.748091603053435,-125.86259541984732,-35.282442748091604,-8.920795385742187,-2.3630770385742186,1.7741034301757812,55.038167938931295,44.25954198473283,9.389312977099237,0.0
12.510000944137573,-7.283161450195312,-0.5410895751953124,0.7972691528320313,29.16030534351145,-122.53435114503817,-32.0763358778626,-9.488221179199218,-2.365471240234375,2.3391350219726563,58.091603053435115,41.267175572519086,6.0458015267175576,0.0
12.520000696182251,-6.440402465820312,-0.7398083129882812,0.3112462158203125,39.66412213740458,-112.62595419847328,-29.236641221374047,-9.682151513671874,-0.4429273071289062,1.5634136840820312,57.282442748091604,32.61068702290076,5.450381679389313,0.0
12.530000925064087,-6.888118176269531,0.948103857421875,0.7613561279296874,43.083969465648856,-100.07633587786259,-29.81679389312977,-8.734047656249999,0.373495458984375,1.6927005737304686,42.67175572519084,30.412213740458014,4.916030534351145,0.0
12.540000677108765,-6.299144567871093,1.0869675537109373,0.28012159423828126,38.93129770992366,-90.36641221374046,-27.84732824427481,-10.740388647460938,0.7445967163085937,0.9576806640625,27.786259541984734,35.099236641221374,6.8396946564885495,0.0
12.5500009059906,-6.438008264160156,1.668758557128906,0.12689268798828124,39.20610687022901,-76.01526717557252,-24.442748091603054,-10.963049401855468,-1.7310078002929687,1.1444283935546875,12.82442748091603,34.030534351145036,6.8396946564885495,0.0
12.560000658035278,-6.677428430175781,1.3575123413085937,-0.09576806640624999,32.76335877862596,-64.6412213740458,-23.87786259541985,-11.834538806152343,-3.497928625488281,0.9744400756835937,15.618320610687023,28.85496183206107,4.99236641221374,0.0
12.570000648498535,-7.572859851074218,1.4101847778320311,0.2657563842773437,31.557251908396946,-52.732824427480914,-22.076335877862597,-11.329362255859374,-4.206612316894531,1.1372457885742187,24.15267175572519,21.587786259541986,0.8549618320610687,0.0
12.580000638961792,-7.580042456054687,2.4013842651367185,0.3854664672851562,24.717557251908396,-43.89312977099237,-21.19083969465649,-9.440337145996093,-2.35589443359375,0.5051765502929687,22.85496183206107,17.34351145038168,-4.015267175572519,0.0
12.59000039100647,-8.95670841064453,2.1404162841796874,1.4772224243164063,22.900763358778626,-26.625954198473284,-18.30534351145038,-9.327809667968749,-1.3431471313476562,0.2154781494140625,15.908396946564885,15.267175572519085,-3.572519083969466,0.0
12.600000619888306,-7.592013464355468,2.5857377929687497,-0.062249243164062495,18.18320610687023,-20.48854961832061,-14.076335877862595,-9.612719665527344,-1.0941501586914062,0.031124621582031248,8.702290076335878,15.374045801526718,-2.198473282442748,0.0
12.610000848770142,-7.058106494140625,4.302380383300781,0.43574470214843747,0.6717557251908397,-12.320610687022901,-14.778625954198473,-9.2320416015625,-1.3048399047851562,0.13646949462890623,2.0916030534351147,15.786259541984732,-1.8931297709923665,0.0
12.62000060081482,-8.540117321777343,4.220977526855468,0.08140285644531249,-15.572519083969466,-3.7099236641221376,-10.83969465648855,-9.758765966796874,-1.8148048583984373,0.2346317626953125,-0.9465648854961832,15.648854961832061,-1.1297709923664123,0.0
12.630000591278076,-7.3669585083007805,3.9432501342773434,0.239420166015625,-23.236641221374047,8.305343511450381,-5.893129770992366,-9.457096557617186,-1.8818425048828125,0.28969840087890625,-2.732824427480916,15.282442748091603,-0.9465648854961832,0.0
12.640000581741333,-5.813121630859374,1.867477294921875,-0.833182177734375,-35.19083969465649,15.435114503816793,-5.129770992366412,-9.689334118652344,-2.1619640991210938,0.19153613281249998,-2.4427480916030535,16.18320610687023,-0.2748091603053435,0.0
12.65000057220459,-6.119579443359375,2.5139117431640625,-0.7541735229492187,-54.656488549618324,28.259541984732824,-7.862595419847328,-10.110713610839843,-2.5426421630859375,0.15562310791015624,-1.1450381679389312,16.671755725190838,1.0687022900763359,0.0
12.660000801086426,-8.046911779785155,2.0973206542968748,-0.7015010864257812,-69.26717557251908,43.16030534351145,-10.305343511450381,-10.184933862304687,-2.7844565307617186,0.20829554443359374,2.4580152671755724,16.580152671755727,1.9694656488549618,0.0
12.670000553131104,-6.526593725585937,3.459621398925781,-0.10773907470703124,-100.01526717557252,43.02290076335878,-11.709923664122137,-9.794678991699218,-2.4444798950195312,0.13646949462890623,5.190839694656488,14.778625954198473,2.6259541984732824,0.0
12.68000078201294,-5.233724829101562,-0.9600748657226562,-0.2059013427734375,-87.86259541984732,56.54961832061068,0.6259541984732825,-9.521740002441407,-2.051830822753906,0.21308394775390624,6.137404580152672,15.053435114503817,4.213740458015267,0.0
12.690000534057617,-3.744531396484375,-3.373430139160156,-0.033518823242187495,-64.19847328244275,75.02290076335878,5.374045801526718,-9.890447058105469,-2.398990063476562,0.5434837768554687,8.580152671755725,16.213740458015266,5.221374045801527,0.0
12.700000762939453,-4.398148449707031,-4.762067102050781,0.6847416748046875,-40.06106870229008,91.40458015267176,4.351145038167939,-9.4618849609375,-2.1883003173828124,0.7709329345703124,10.061068702290076,16.458015267175572,5.358778625954199,0.0
12.71000051498413,-4.553771557617187,-5.03740029296875,1.714248388671875,-18.641221374045802,104.70229007633588,0.2595419847328244,-9.629479077148437,-2.243366955566406,0.9816226806640624,11.618320610687023,15.664122137404581,5.587786259541985,0.0
12.720000505447388,-5.719747766113281,-3.9264907226562498,3.1028853515624997,1.8625954198473282,115.37404580152672,-3.0839694656488548,-9.811438403320311,-1.9728221679687499,1.1755530151367186,12.213740458015268,14.793893129770993,5.938931297709924,0.0
12.730000495910645,-6.069301208496094,-2.4133552734375,3.6056677001953124,22.900763358778626,124.3206106870229,-3.404580152671756,-10.20169327392578,-1.8626888916015625,1.3048399047851562,11.511450381679388,13.98473282442748,6.625954198473282,0.0
12.740000486373901,-6.924031201171875,-1.218648645019531,3.6918589599609373,39.70992366412214,130.4885496183206,-1.9083969465648856,-9.801861596679688,-1.3814543579101561,1.37906015625,7.6183206106870225,12.595419847328245,5.984732824427481,0.0
12.750000715255737,-9.18655177001953,2.7629087158203123,4.936843823242187,42.79389312977099,134.73282442748092,-2.50381679389313,-9.854534033203125,-1.2401964599609374,1.1947066284179686,4.351145038167939,11.358778625954198,6.1679389312977095,0.0
12.760000705718994,-8.700528833007812,-0.5363011718749999,3.878606689453125,23.96946564885496,124.09160305343511,-0.04580152671755725,-9.773131176757811,-1.2617442749023438,0.9816226806640624,1.4351145038167938,9.908396946564885,6.854961832061068,0.0
12.77000093460083,-7.340622290039062,-1.0582371337890624,4.534617944335937,39.29770992366412,129.34351145038167,4.213740458015267,-9.390058911132812,-0.49799394531249996,0.5770026000976562,-3.816793893129771,9.16030534351145,6.656488549618321,0.0
12.780000686645508,-9.325415466308593,1.2473790649414063,5.140350964355468,27.00763358778626,124.19847328244275,-1.7099236641221374,-9.900023864746093,-1.879448303222656,1.350329736328125,-6.412213740458015,12.15267175572519,8.625954198473282,0.0
12.790001153945923,-10.694898815917968,0.7134720947265625,4.963180041503906,11.267175572519085,118.35114503816794,-4.687022900763359,-10.101136804199218,-1.7166425903320313,0.7398083129882812,-2.717557251908397,6.015267175572519,8.885496183206106,0.0
12.800000667572021,-11.870451831054687,0.9744400756835937,5.2648494506835934,5.465648854961832,113.22137404580153,-6.793893129770993,-9.696516723632811,-1.66636435546875,0.33758243408203126,-3.450381679389313,5.343511450381679,8.305343511450381,0.0
12.810000896453857,-11.815385192871092,-0.16998831787109375,5.303156677246093,8.763358778625955,106.12213740458016,-5.114503816793893,-9.708487731933593,-1.8171990600585937,-0.05746083984375,-5.450381679389313,5.908396946564886,8.961832061068701,0.0
12.820000648498535,-11.17852755126953,-1.1228805786132812,4.316745593261719,18.3206106870229,103.2824427480916,-2.4732824427480917,-9.76116016845703,-1.915361328125,-0.46686932373046874,-6.793893129770993,6.641221374045801,9.786259541984732,0.0
12.830000400543213,-11.92551846923828,-0.43574470214843747,4.024652990722656,21.49618320610687,103.05343511450381,-4.748091603053435,-9.617508068847656,-2.023100402832031,-0.6631938598632812,-5.8320610687022905,8.854961832061068,9.526717557251908,0.0
12.840000629425049,-12.488155859374999,-0.18914193115234373,3.816357446289062,14.992366412213741,98.35114503816794,-8.717557251908397,-8.975862023925782,-1.4604630126953124,-0.8762778076171874,-5.190839694656488,11.312977099236642,9.587786259541986,0.0
12.850000858306885,-11.678915698242188,-1.419761584472656,4.627991809082031,10.244274809160306,91.20610687022901,-13.129770992366412,-9.950302099609374,-1.8698714965820311,-0.7852981445312499,-13.007633587786259,22.229007633587788,12.0,0.0
12.860000848770142,-12.437877624511717,-2.2864625854492187,5.590460876464843,10.091603053435115,84.90076335877863,-17.129770992366414,-9.14824454345703,-1.1180921752929687,-1.3407529296874998,-13.16030534351145,20.045801526717558,11.541984732824428,0.0
12.87000060081482,-13.80257257080078,-1.0558429321289062,6.023811376953125,14.992366412213741,77.55725190839695,-18.732824427480917,-8.626308581542968,-2.4444798950195312,-0.016759411621093748,-14.229007633587786,26.229007633587788,10.961832061068701,0.0
12.880000591278076,-14.35802735595703,0.7900865478515624,5.343858105468749,13.48091603053435,68.68702290076335,-15.068702290076336,-9.14824454345703,-2.114080065917969,-0.3064578125,-17.099236641221374,27.81679389312977,11.358778625954198,0.0
12.890000581741333,-13.68765089111328,1.7980454467773437,4.972756848144531,4.5038167938931295,61.6793893129771,-10.65648854961832,-9.497797985839844,-2.808398547363281,-0.009576806640625,-22.244274809160306,32.16793893129771,13.419847328244275,0.0
12.900000810623169,-14.061146350097655,0.49320554199218747,5.027823486328125,-1.4351145038167938,55.86259541984733,-6.6106870229007635,-10.819397302246093,-3.4524387939453125,0.1005564697265625,-10.412213740458014,28.18320610687023,14.83969465648855,0.0
12.910000801086426,-13.800178369140625,0.584185205078125,5.216965417480468,2.33587786259542,50.97709923664122,-9.679389312977099,-10.46984385986328,-4.096479040527344,0.6296750366210937,0.12213740458015267,25.17557251908397,15.435114503816793,0.0
12.920000791549683,-12.140996618652343,1.3575123413085937,3.8857892944335934,-3.7251908396946565,40.47328244274809,-13.083969465648854,-10.409988818359375,-1.1252747802734375,0.4381389038085937,16.50381679389313,14.992366412213741,12.076335877862595,0.0
12.93000054359436,-10.192116467285155,2.6288334228515624,2.7174188842773437,-12.076335877862595,34.18320610687023,-14.229007633587786,-10.81460889892578,-1.7573440185546874,0.7829039428710937,5.419847328244275,14.961832061068701,15.16030534351145,0.0
12.940000772476196,-9.315838659667968,2.3415292236328122,2.5450363647460934,-23.297709923664122,33.9236641221374,-9.572519083969466,-9.299079248046874,0.21068974609375,0.2561795776367187,-0.8244274809160306,7.175572519083969,15.114503816793894,0.0
12.950000524520874,-6.303932971191406,0.469263525390625,1.886630908203125,-20.671755725190838,28.65648854961832,-0.5190839694656488,-9.600748657226562,-0.2825157958984375,-0.031124621582031248,-8.946564885496183,6.717557251908397,16.198473282442748,0.0
12.960000276565552,-8.224082702636718,0.7637503295898437,2.858676782226562,-12.030534351145038,34.82442748091603,4.198473282442748,-9.787496386718749,-0.47884033203125,0.047884033203124995,-15.648854961832061,5.1603053435114505,16.137404580152673,0.0
12.970000505447388,-7.728482958984374,1.3742717529296875,3.6391865234374996,-5.755725190839694,33.587786259541986,8.259541984732824,-10.034099157714843,-0.8810662109374999,0.031124621582031248,-20.549618320610687,4.3816793893129775,15.251908396946565,0.0
12.980000495910645,-8.14028564453125,1.7812860351562498,3.373430139160156,-6.015267175572519,30.290076335877863,10.67175572519084,-9.797073193359374,-0.8259995727539062,0.016759411621093748,-25.572519083969464,4.580152671755725,13.221374045801527,0.0
12.990000486373901,-9.76116016845703,2.2649147705078123,4.299986181640625,-8.320610687022901,30.946564885496183,11.32824427480916,-9.354145886230468,-0.74699091796875,-0.143652099609375,-28.931297709923665,3.145038167938931,11.709923664122137,0.0
13.000000476837158,-9.624690673828125,1.4125789794921875,3.5051112304687497,-14.213740458015268,20.16793893129771,13.908396946564885,-9.528922607421874,-0.82360537109375,-0.45010991210937495,-30.076335877862597,2.3969465648854964,11.099236641221374,0.0
13.010000944137573,-9.306261853027344,1.4006079711914061,3.778050219726562,-19.450381679389313,14.427480916030534,14.030534351145038,-10.211270080566406,-1.2401964599609374,-0.41898529052734373,-28.65648854961832,2.6259541984732824,11.801526717557252,0.0
13.020000457763672,-10.797849487304687,2.272097375488281,4.077325427246094,-31.61832061068702,8.15267175572519,13.34351145038168,-9.435548742675781,-0.967257470703125,-0.040701428222656245,-27.358778625954198,2.6259541984732824,11.206106870229007,0.0
13.030000925064087,-10.345345373535155,0.7589619262695312,2.6671406494140624,-27.633587786259543,6.748091603053435,16.702290076335878,-9.53131680908203,-0.9983820922851562,-0.023942016601562498,-24.793893129770993,1.4809160305343512,11.755725190839694,0.0
13.040000677108765,-10.505756884765624,1.0007762939453124,1.7190367919921874,-25.81679389312977,7.32824427480916,17.984732824427482,-9.81862100830078,-1.1468225952148436,0.1292868896484375,-21.16030534351145,1.6946564885496183,12.412213740458014,0.0
13.0500009059906,-10.436325036621094,1.4987702392578124,1.254561669921875,-27.14503816793893,8.50381679389313,17.755725190839694,-9.861716638183593,-0.9337386474609375,0.143652099609375,-18.045801526717558,1.297709923664122,13.083969465648854,0.0
13.060000658035278,-10.649408984374999,1.3742717529296875,0.8307879760742187,-32.16793893129771,8.458015267175572,16.885496183206108,-10.014945544433592,-1.0007762939453124,0.2705447875976562,-14.732824427480915,1.6946564885496183,14.259541984732824,0.0
13.070000648498535,-10.014945544433592,1.20667763671875,0.46208092041015625,-35.6793893129771,7.374045801526718,15.419847328244275,-9.701305126953125,-0.8092401611328125,0.08140285644531249,-13.312977099236642,1.0687022900763359,14.67175572519084,0.0
13.080000400543213,-10.304643945312499,1.5466542724609373,0.7350199096679687,-40.29007633587786,6.656488549618321,14.091603053435115,-9.935936889648437,-0.7422025146484375,-0.0526724365234375,-12.030534351145038,1.9541984732824427,15.938931297709924,0.0
13.09000039100647,-9.873687646484374,1.5538368774414062,0.2059013427734375,-40.2442748091603,7.175572519083969,14.885496183206106,-9.749189160156249,-0.699106884765625,-0.12210428466796874,-11.86259541984733,2.1068702290076335,16.50381679389313,0.0
13.100000381469727,-9.421183532714844,1.8650830932617186,-0.1484405029296875,-41.80152671755725,7.267175572519084,16.732824427480917,-9.567229833984374,-0.7254431030273437,-0.03591302490234375,-10.977099236641221,2.2900763358778624,17.14503816793893,0.0
13.110000610351562,-9.13627353515625,1.9416975463867185,-0.15083470458984374,-42.54961832061068,9.267175572519085,18.931297709923665,-9.548076220703125,-0.8547299926757812,0.09576806640624999,-10.259541984732824,2.885496183206107,17.51145038167939,0.0
13.12000060081482,-9.191340173339842,1.659181750488281,-0.24181436767578124,-45.14503816793893,11.099236641221374,21.31297709923664,-9.476250170898437,-0.8188169677734375,0.3591302490234375,-8.977099236641221,3.480916030534351,17.786259541984734,0.0
13.130000591278076,-9.181763366699219,0.8092401611328125,-0.3184288208007812,-46.70229007633588,13.618320610687023,22.244274809160306,-9.9215716796875,-0.7829039428710937,0.488417138671875,-7.66412213740458,4.152671755725191,17.557251908396946,0.0
13.140000581741333,-8.947131604003905,0.143652099609375,-0.32082302246093747,-47.404580152671755,14.045801526717558,21.587786259541986,-9.81862100830078,-0.5434837768554687,0.32082302246093747,-7.145038167938932,3.312977099236641,16.290076335877863,0.0
13.15000057220459,-8.89924757080078,-0.29927520751953124,-0.07422025146484375,-44.900763358778626,16.85496183206107,19.83206106870229,-9.955090502929687,-0.63206923828125,0.82360537109375,-6.458015267175573,4.427480916030534,16.778625954198475,0.0
13.160001039505005,-9.167398156738281,-0.316034619140625,-0.12210428466796874,-43.23664122137404,17.83206106870229,17.893129770992367,-9.964667309570311,-0.7158662963867187,0.8092401611328125,-6.229007633587786,3.7099236641221376,15.389312977099237,0.0
13.170000553131104,-9.5001921875,-0.1388636962890625,-0.05027823486328125,-38.97709923664122,19.358778625954198,15.908396946564885,-10.390835205078124,-0.8714894042968749,1.0558429321289062,-7.32824427480916,4.259541984732825,14.442748091603054,0.0
13.18000078201294,-9.167398156738281,-1.0797849487304687,-0.1484405029296875,-33.51145038167939,20.99236641221374,15.206106870229007,-10.417171423339843,-0.7445967163085937,1.6304513305664061,-7.7251908396946565,1.3740458015267176,13.068702290076336,0.0
13.190000534057617,-8.702923034667968,-0.6392518432617187,-0.105344873046875,-20.427480916030536,25.404580152671755,13.557251908396946,-10.486603271484375,-1.1013327636718748,2.1595698974609374,-10.488549618320612,-1.83206106870229,11.114503816793894,0.0
13.200000762939453,-9.935936889648437,0.46208092041015625,0.2657563842773437,-19.786259541984734,26.625954198473284,8.427480916030534,-10.70686982421875,-1.0845733520507812,2.7940333374023436,-16.061068702290076,-6.549618320610687,6.305343511450381,0.0
13.21000051498413,-9.873687646484374,-0.6464344482421874,0.06703764648437499,-4.687022900763359,28.33587786259542,7.694656488549619,-11.609483850097655,-1.7860744384765623,3.392583752441406,-23.740458015267176,-11.923664122137405,2.8244274809160306,0.0
13.220000505447388,-8.963891015625,0.5961562133789062,0.1867477294921875,2.0610687022900764,28.595419847328245,5.297709923664122,-11.180921752929686,0.34715924072265625,3.469198205566406,-34.85496183206107,-21.740458015267176,-3.801526717557252,0.0
13.230000495910645,-10.199299072265624,1.4413093994140624,-0.19393033447265623,0.5343511450381679,27.61832061068702,3.1755725190839694,-10.924742175292968,0.40462008056640625,2.932897033691406,-47.80152671755725,-26.900763358778626,-4.030534351145038,0.0
13.240000247955322,-9.253589416503905,1.3670891479492187,0.06943184814453125,3.145038167938931,29.083969465648856,3.49618320610687,-10.206481677246094,-0.6512228515624999,1.8602946899414061,-43.49618320610687,-38.595419847328245,-3.2061068702290076,0.0
13.250000476837158,-9.94072529296875,2.114080065917969,0.06703764648437499,7.633587786259542,30.290076335877863,2.4122137404580153,-9.686939916992188,0.9935936889648437,1.2234370483398436,-41.267175572519086,-44.44274809160305,-5.526717557251908,0.0
13.260000705718994,-10.960655200195312,3.296815686035156,0.0047884033203125,-5.419847328244275,25.450381679389313,3.1603053435114505,-10.13226142578125,0.09576806640624999,0.9911994873046874,-42.87022900763359,-44.88549618320611,-3.7557251908396947,0.0
13.27000093460083,-10.575188732910156,2.9640216552734375,0.29448680419921874,-11.770992366412214,23.480916030534353,4.8396946564885495,-11.085153686523437,-2.4109610717773435,0.49799394531249996,-26.244274809160306,-52.51908396946565,-2.3053435114503817,0.0
13.280000686645508,-10.031704956054687,3.0119056884765625,0.6416460449218749,-19.801526717557252,22.38167938931298,3.450381679389313,-8.779537487792968,0.3950432739257812,-1.2713210815429687,-20.946564885496183,-60.44274809160305,-9.954198473282442,0.0
13.290000915527344,-10.211270080566406,2.8754361938476563,1.189918225097656,-31.404580152671755,20.427480916030536,3.099236641221374,-10.781090075683593,-1.9632453613281249,-1.7693150268554687,-20.396946564885496,-55.66412213740458,-11.877862595419847,0.0
13.300000667572021,-10.105925207519531,2.2457611572265623,1.7812860351562498,-35.38931297709924,20.9618320610687,1.984732824427481,-9.70369932861328,-0.8930372192382812,-2.4133552734375,-21.770992366412212,-55.87786259541985,-19.51145038167939,0.0
13.310000658035278,-11.042058056640624,2.7461493041992187,2.2673089721679687,-38.82442748091603,18.50381679389313,1.0381679389312977,-11.880028637695311,-4.623203405761719,-1.120486376953125,-20.549618320610687,-43.86259541984733,-20.80916030534351,0.0
13.320000648498535,-9.981426721191406,1.4772224243164063,2.138022082519531,-39.099236641221374,13.49618320610687,3.3435114503816794,-9.945513696289062,-3.5529952636718747,-0.5219359619140624,-7.206106870229007,-49.45038167938932,-25.129770992366414,0.0
13.330000638961792,-9.97903251953125,1.7645266235351562,2.0877438476562498,-33.43511450381679,11.541984732824428,3.6030534351145036,-9.0021982421875,-2.0087351928710935,0.36152445068359373,-10.977099236641221,-39.89312977099237,-27.96946564885496,0.0
13.340000629425049,-9.382876306152344,0.82360537109375,1.70467158203125,-26.50381679389313,9.022900763358779,5.251908396946565,-9.153032946777342,-3.5769372802734374,1.7453730102539062,-5.66412213740458,-36.900763358778626,-25.282442748091604,0.0
13.350000619888306,-9.660603698730467,0.7445967163085937,1.7357962036132812,-21.0381679389313,6.900763358778626,5.862595419847328,-10.153809240722655,-3.7421371948242186,2.2170307373046874,12.473282442748092,-40.396946564885496,-25.52671755725191,0.0
13.360000848770142,-10.115502014160155,1.3718775512695311,1.838746875,-17.419847328244273,2.1374045801526718,8.488549618320612,-9.255983618164063,-2.0757728393554684,2.868253588867187,30.610687022900763,-43.541984732824424,-28.198473282442748,0.0
13.37000060081482,-9.83777462158203,1.0390835205078124,2.1260510742187497,-10.51908396946565,-1.0076335877862594,12.030534351145038,-7.44357296142578,0.9624690673828125,2.6240450195312497,29.770992366412212,-42.38167938931298,-29.52671755725191,0.0
13.380000591278076,-10.04846436767578,0.296881005859375,2.8036101440429686,-0.2748091603053435,-2.6106870229007635,15.770992366412214,-8.240842114257813,1.3623007446289062,3.134009973144531,11.801526717557252,-32.58015267175573,-25.053435114503817,0.0
13.390000820159912,-10.28549033203125,0.1867477294921875,3.3542765258789062,6.99236641221374,-6.748091603053435,16.53435114503817,-9.205705383300781,0.8451531860351562,2.5857377929687497,3.984732824427481,-33.43511450381679,-20.53435114503817,0.0
13.400000810623169,-11.10191309814453,0.718260498046875,3.7517140014648436,16.625954198473284,-13.404580152671755,17.450381679389313,-8.36294639892578,-0.3902548706054687,2.916137622070312,-0.0916030534351145,-35.343511450381676,-19.862595419847327,0.0
13.410000562667847,-11.204863769531249,0.5626373901367188,4.292803576660156,31.221374045801525,-19.358778625954198,20.366412213740457,-9.119514123535156,-2.3774422485351563,4.534617944335937,1.6030534351145038,-32.961832061068705,-18.519083969465647,0.0
13.420001029968262,-11.757924353027343,1.5945383056640625,5.324704492187499,33.66412213740458,-31.129770992366414,21.435114503816795,-9.208099584960937,-3.356670727539062,3.9887399658203124,10.717557251908397,-44.33587786259542,-19.81679389312977,0.0
13.43000054359436,-8.9255837890625,-0.5578489868164063,6.224924316406249,59.786259541984734,-41.12977099236641,27.603053435114504,-6.787561706542968,-1.0438719238281249,3.2704794677734372,13.206106870229007,-56.06106870229008,-24.442748091603054,0.0
13.440000772476196,-11.449072338867186,5.760449194335937,6.804321118164062,63.63358778625954,-51.847328244274806,31.450381679389313,-6.469132885742187,0.40462008056640625,3.2561142578125,-6.412213740458015,-45.099236641221374,-24.931297709923665,0.0
13.450000524520874,-10.73799444580078,9.200916979980468,5.791573815917968,31.267175572519083,-72.67175572519083,36.656488549618324,-7.8362220336914055,0.0143652099609375,2.5426421630859375,-18.47328244274809,-42.3206106870229,-20.47328244274809,0.0
13.460000276565552,-9.014169250488282,6.9910688476562495,4.103661645507812,0.7938931297709924,-91.2824427480916,41.587786259541986,-6.794744311523437,0.6703764648437499,2.2601263671875,-28.870229007633586,-38.229007633587784,-19.61832061068702,0.0
13.470000505447388,-5.753266589355468,0.6009446166992187,2.1978771240234374,-18.717557251908396,-98.61068702290076,40.67175572519084,-7.42441934814453,-0.7493851196289062,2.418143676757812,-26.885496183206108,-37.099236641221374,-18.900763358778626,0.0
13.480000495910645,-4.055777612304687,0.06464344482421874,0.6296750366210937,-47.86259541984733,-113.43511450381679,26.0,-8.336610180664062,-1.9823989746093749,2.6527754394531247,-18.076335877862597,-36.595419847328245,-19.068702290076335,0.0
13.490000486373901,-4.065354418945312,-1.9632453613281249,-1.4053963745117186,-45.099236641221374,-110.58015267175573,19.49618320610687,-6.069301208496094,-1.3096283081054687,2.6503812377929687,-10.244274809160306,-38.152671755725194,-20.15267175572519,0.0
13.500000476837158,-3.5098996337890624,-2.7198130859375,-2.5043349365234375,-29.862595419847327,-99.25190839694656,16.641221374045802,-6.8569935546875,-0.9840168823242187,1.8746598999023436,-2.2290076335877864,-39.57251908396947,-21.022900763358777,0.0
13.510000944137573,-5.080495922851562,-1.9105729248046874,-0.028730419921875,-16.076335877862597,-84.12213740458016,9.618320610687023,-6.804321118164062,-0.9983820922851562,1.3551181396484375,3.5572519083969465,-36.58015267175573,-21.51145038167939,0.0
13.520000696182251,-6.612784985351562,-2.480392919921875,1.9536685546875,-6.580152671755725,-74.9618320610687,3.6946564885496183,-7.319074475097656,-1.9201497314453124,1.2689268798828124,13.297709923664122,-32.19847328244275,-21.00763358778626,0.0
13.530000925064087,-8.197746484375,-1.7717092285156248,2.935291235351562,10.748091603053435,-67.52671755725191,-3.404580152671756,-8.334215979003906,-2.7653029174804686,0.6967126831054687,33.083969465648856,-36.152671755725194,-20.03053435114504,0.0
13.540000677108765,-9.215282189941405,-1.1827356201171875,0.9265560424804687,23.801526717557252,-61.3587786259542,-6.961832061068702,-8.152256652832031,-2.4588451049804685,1.5155296508789062,52.74809160305343,-34.961832061068705,-20.793893129770993,0.0
13.550000667572021,-8.511386901855468,-0.076614453125,0.3184288208007812,34.3206106870229,-57.57251908396947,-8.916030534351146,-7.271190441894531,-0.8643067993164062,0.8930372192382812,60.38167938931298,-36.62595419847328,-22.85496183206107,0.0
13.560000658035278,-8.717288244628906,1.16837041015625,1.149216796875,34.961832061068705,-56.83969465648855,-11.893129770992367,-9.928754284667969,-0.040701428222656245,-0.1197100830078125,65.45038167938931,-29.801526717557252,-20.793893129770993,0.0
13.570000648498535,-9.028534460449219,2.7653029174804686,2.308010400390625,29.480916030534353,-55.083969465648856,-14.732824427480915,-7.285555651855469,2.8610709838867185,-0.40462008056640625,53.43511450381679,-24.290076335877863,-20.9618320610687,0.0
13.580000400543213,-8.054094384765625,3.536235852050781,1.1540052001953125,19.053435114503817,-56.06106870229008,-16.15267175572519,-6.299144567871093,2.9089550170898435,-0.5889736083984375,42.19847328244275,-19.282442748091604,-16.85496183206107,0.0
13.590000629425049,-8.540117321777343,3.038241906738281,0.016759411621093748,9.374045801526718,-56.94656488549618,-17.480916030534353,-9.892841259765625,-0.062249243164062495,0.5961562133789062,37.603053435114504,-5.175572519083969,-8.15267175572519,0.0
13.600000619888306,-9.191340173339842,1.5490484741210937,0.45489831542968745,9.267175572519085,-54.48854961832061,-16.778625954198475,-8.327033374023436,0.229843359375,1.2282254516601563,40.656488549618324,-1.0229007633587786,-6.595419847328245,0.0
13.610000610351562,-9.382876306152344,1.4508862060546874,1.2785036865234374,21.221374045801525,-48.70229007633588,-15.664122137404581,-8.736441857910156,-0.16519991455078123,1.5011644409179687,39.221374045801525,2.8244274809160306,-3.648854961832061,0.0
13.62000060081482,-9.447519750976562,2.6216508178710938,1.7477672119140624,29.87786259541985,-44.18320610687023,-14.366412213740459,-8.717288244628906,0.5626373901367188,1.2832920898437499,32.62595419847328,5.770992366412214,-2.9770992366412212,0.0
13.630000591278076,-9.763554370117188,3.7708676147460936,1.8914193115234375,30.580152671755727,-39.81679389312977,-14.580152671755725,-10.309432348632813,-1.1611878051757811,1.8938135131835936,26.82442748091603,11.511450381679388,-0.3969465648854962,0.0
13.640000581741333,-8.990227233886719,3.2249896362304686,2.4396914916992185,27.84732824427481,-33.786259541984734,-13.923664122137405,-9.840168823242188,-0.06464344482421874,1.5514426757812498,25.16030534351145,11.511450381679388,-2.6259541984732824,0.0
13.65000057220459,-10.876858142089842,5.269637854003906,2.0542250244140625,23.389312977099237,-28.47328244274809,-16.33587786259542,-11.1474029296875,-0.5410895751953124,2.1691467041015624,17.69465648854962,16.35114503816794,-6.259541984732825,0.0
13.660000801086426,-9.318232861328125,4.299986181640625,1.1468225952148436,9.679389312977099,-29.786259541984734,-14.274809160305344,-13.699621899414062,-2.9544448486328125,3.3973721557617185,17.297709923664122,21.14503816793893,-6.5038167938931295,0.0
13.670000553131104,-9.277531433105468,3.6822821533203123,2.0638018310546875,6.564885496183206,-23.022900763358777,-14.595419847328245,-12.157756030273436,-2.9185318237304685,3.1555577880859373,23.72519083969466,13.236641221374045,-6.977099236641221,0.0
13.680001020431519,-8.856151940917968,2.920926025390625,2.375048046875,13.404580152671755,-14.67175572519084,-15.19083969465649,-11.425130322265625,-0.22026655273437498,2.5163059448242184,21.099236641221374,12.702290076335878,-10.16793893129771,0.0
13.690000772476196,-10.117896215820313,5.252878442382812,2.530671154785156,5.282442748091603,-10.977099236641221,-17.49618320610687,-11.954248889160155,1.9584569580078124,3.2417490478515623,-4.656488549618321,25.053435114503817,-16.396946564885496,0.0
13.700000762939453,-11.042058056640624,6.478709692382812,3.976768957519531,-10.244274809160306,-11.511450381679388,-15.48091603053435,-14.137760803222655,1.1324573852539062,5.157110375976562,-27.770992366412212,31.84732824427481,-16.244274809160306,0.0
13.71000051498413,-11.470620153808593,5.540182641601562,4.912901806640625,-20.458015267175572,-12.870229007633588,-10.82442748091603,-14.688427185058593,-0.27293898925781246,5.209782812499999,-36.01526717557252,27.083969465648856,-14.900763358778626,0.0
13.720000505447388,-11.01332763671875,3.7804444213867185,5.2624552490234375,-26.732824427480917,-13.358778625954198,-6.244274809160306,-11.015721838378905,1.6208745239257811,4.163516687011718,-41.63358778625954,13.969465648854962,-16.778625954198475,0.0
13.730000257492065,-12.188880651855468,3.3111808959960936,5.585672473144531,-29.954198473282442,-14.183206106870228,-5.0534351145038165,-16.967707165527344,-2.4875755249023435,5.528211633300781,-45.86259541984733,19.587786259541986,-6.534351145038168,0.0
13.740000486373901,-12.899958544921875,2.578555187988281,6.586448767089843,-32.213740458015266,-18.625954198473284,-4.33587786259542,-14.506467858886717,-0.565031591796875,3.8139632446289062,-40.19847328244275,11.099236641221374,-9.19083969465649,0.0
13.750000476837158,-13.666103076171874,0.8786720092773437,7.211335400390625,-24.610687022900763,-24.48854961832061,-3.1603053435114505,-13.266271398925781,-2.0446482177734375,2.568978381347656,-36.82442748091603,9.572519083969466,-6.198473282442748,0.0
13.760000705718994,-13.838485595703125,-1.4317325927734375,8.667010009765624,-9.770992366412214,-30.244274809160306,-3.312977099236641,-9.502586389160156,-1.2138602416992186,0.229843359375,-17.00763358778626,-7.038167938931298,-4.549618320610687,0.0
13.77000093460083,-13.421894506835937,-3.071760729980469,8.882488159179687,17.435114503816795,-36.778625954198475,-5.1603053435114505,-7.501033801269531,-0.9840168823242187,-0.8499415893554687,-9.511450381679388,-4.519083969465649,-2.6412213740458017,0.0
13.780000686645508,-13.287819213867186,-3.5098996337890624,8.836998327636719,37.05343511450382,-44.19847328244275,-8.15267175572519,-6.574477758789062,-0.5339069702148437,-1.429338391113281,-6.412213740458015,1.618320610687023,0.9618320610687023,0.0
13.790000915527344,-14.353238952636717,-0.9840168823242187,9.210493786621093,49.221374045801525,-53.37404580152672,-13.404580152671755,-6.1650692749023435,-0.239420166015625,-2.068590234375,-5.358778625954199,9.587786259541986,2.0763358778625953,0.0
13.8000009059906,-14.365209960937499,0.5913678100585937,8.590395556640624,36.0763358778626,-74.25954198473282,-18.916030534351144,-6.153098266601562,-0.2920926025390625,-2.8323405639648436,-10.381679389312977,18.83969465648855,1.9541984732824427,0.0
13.810000896453857,-13.225569970703123,0.9433154541015625,7.371746911621093,23.17557251908397,-90.4885496183206,-19.862595419847327,-7.0102224609374995,0.1580173095703125,-2.626439221191406,-22.65648854961832,35.98473282442748,1.984732824427481,0.0
13.820000648498535,-11.956643090820311,0.6703764648437499,5.379771130371093,10.931297709923664,-105.69465648854961,-21.6793893129771,-9.066841687011719,-2.2074539306640624,-1.3623007446289062,-34.83969465648855,56.74809160305343,6.122137404580153,0.0
13.830000638961792,-11.286266625976562,0.2705447875976562,3.6391865234374996,0.5038167938931297,-118.79389312977099,-24.748091603053435,-11.252747802734374,-4.405331054687499,-0.8164227661132812,-18.061068702290076,56.12213740458015,9.022900763358779,0.0
13.840000629425049,-9.150638745117186,-2.272097375488281,1.618480322265625,4.33587786259542,-127.6793893129771,-25.938931297709924,-8.765172277832031,-2.243366955566406,-0.6584054565429687,-2.6106870229007635,55.63358778625954,3.984732824427481,0.0
13.850000619888306,-8.195352282714843,-3.2058360229492187,0.086191259765625,26.519083969465647,-124.35114503816794,-24.702290076335878,-11.171344946289063,-4.479551306152343,0.6727706665039062,5.755725190839694,60.29007633587786,8.534351145038167,0.0
13.860000610351562,-7.453149768066406,-3.318363500976562,-0.7900865478515624,40.916030534351144,-117.7557251908397,-26.748091603053435,-11.298237634277344,-4.070142822265625,0.6871358764648438,26.549618320610687,50.030534351145036,8.793893129770993,0.0
13.87000060081482,-7.702146740722656,-1.4173673828125,-0.9792284790039062,48.12213740458015,-109.31297709923665,-29.480916030534353,-8.894459167480468,-2.540247961425781,0.8116343627929687,37.37404580152672,40.51908396946565,5.679389312977099,0.0
13.880000591278076,-6.150704064941406,-1.8219874633789062,-1.9991583862304687,53.52671755725191,-98.83969465648855,-27.46564885496183,-9.143456140136719,-1.2808978881835937,-0.10295067138671875,39.86259541984733,33.89312977099237,5.145038167938932,0.0
13.890000343322754,-6.0525417968749995,-1.2018892333984375,-1.7166425903320313,60.534351145038165,-79.14503816793894,-25.709923664122137,-8.719682446289061,-1.3024457031249999,0.1867477294921875,31.00763358778626,34.25954198473283,8.625954198473282,0.0
13.900000810623169,-7.050923889160156,0.5267243652343749,-0.9433154541015625,60.091603053435115,-62.47328244274809,-25.34351145038168,-10.089165795898436,-1.120486376953125,0.105344873046875,22.99236641221374,34.16793893129771,11.34351145038168,0.0
13.910000562667847,-7.982268334960937,1.3407529296874998,-0.2825157958984375,54.0,-49.20610687022901,-24.12213740458015,-11.334150659179686,-2.7365724975585937,0.5506663818359374,20.99236641221374,36.458015267175576,15.129770992366412,0.0
13.920000791549683,-9.543287817382812,1.8914193115234375,-0.03591302490234375,52.030534351145036,-33.63358778625954,-21.72519083969466,-10.761936462402343,-3.871424084472656,1.158793603515625,31.099236641221374,32.045801526717554,14.229007633587786,0.0
13.93000054359436,-8.315062365722655,1.7334020019531249,-0.8044517578125,45.61832061068702,-27.236641221374047,-20.396946564885496,-9.502586389160156,-2.375048046875,0.1292868896484375,38.13740458015267,24.12213740458015,9.664122137404581,0.0
13.940000772476196,-6.955155822753905,1.867477294921875,-1.448492004394531,34.58015267175573,-20.610687022900763,-17.96946564885496,-8.552088330078124,-1.1635820068359375,-0.4860229370117187,29.099236641221374,24.427480916030536,6.229007633587786,0.0
13.950000762939453,-7.773972790527344,2.521094348144531,-1.3287819213867187,40.10687022900763,1.83206106870229,-14.625954198473282,-9.052476477050782,-1.0582371337890624,-0.5626373901367188,17.633587786259543,27.389312977099237,7.068702290076335,0.0
13.960000276565552,-8.595183959960938,5.9974751586914055,-0.44053310546874996,11.725190839694656,8.473282442748092,-18.198473282442748,-9.265560424804686,-0.8978256225585937,-0.3064578125,11.404580152671755,27.450381679389313,7.083969465648855,0.0
13.970000267028809,-6.742071875,4.225765930175781,-1.0199299072265624,-14.67175572519084,10.15267175572519,-13.679389312977099,-8.702923034667968,-0.201112939453125,-0.201112939453125,0.21374045801526717,28.977099236641223,6.8396946564885495,0.0
13.980000495910645,-6.983886242675781,4.716577270507813,-0.3232172241210937,-31.435114503816795,20.412213740458014,-9.557251908396946,-10.678139404296875,-2.6886884643554687,0.5051765502929687,2.7938931297709924,27.862595419847327,9.282442748091603,0.0
13.990000486373901,-5.099649536132812,1.9321207397460936,-1.7717092285156248,-44.62595419847328,28.763358778625953,-6.2748091603053435,-10.280701928710936,-1.3096283081054687,0.44532150878906246,5.374045801526718,26.702290076335878,6.702290076335878,0.0
14.000000476837158,-5.928043310546875,2.8323405639648436,-1.608903515625,-59.267175572519086,40.656488549618324,-5.450381679389313,-10.369287390136718,-1.5586252807617187,0.4740519287109375,3.633587786259542,25.19083969465649,7.00763358778626,0.0
14.010000467300415,-6.100425830078125,1.8028338500976562,-1.3479355346679687,-67.69465648854961,55.45038167938932,-5.908396946564886,-10.20887587890625,-1.407790576171875,0.7062894897460937,3.2061068702290076,23.17557251908397,8.732824427480915,0.0
14.020000696182251,-6.756437084960937,1.8626888916015625,0.4525041137695312,-100.8854961832061,57.14503816793893,-10.16793893129771,-10.115502014160155,-1.1085153686523437,0.6081272216796875,3.404580152671756,19.52671755725191,11.145038167938932,0.0
14.030000925064087,-5.786785412597656,-2.5426421630859375,0.7589619262695312,-88.2442748091603,68.73282442748092,-4.67175572519084,-9.440337145996093,-0.8595183959960937,0.814028564453125,0.3969465648854962,17.84732824427481,12.793893129770993,0.0
14.040000677108765,-4.7022120605468745,-4.477157104492187,1.4149731811523436,-62.18320610687023,80.09160305343511,-5.0534351145038165,-9.349357482910156,-1.1372457885742187,1.0678139404296874,0.42748091603053434,16.748091603053435,13.541984732824428,0.0
14.050000667572021,-4.668693237304687,-4.778826513671874,2.655169641113281,-32.213740458015266,92.27480916030534,-7.3893129770992365,-9.507374792480467,-1.8148048583984373,1.2018892333984375,1.4045801526717556,16.870229007633586,14.320610687022901,0.0
14.060000658035278,-5.5832782714843745,-4.754884497070313,3.5098996337890624,0.5190839694656488,102.16793893129771,-6.137404580152672,-10.117896215820313,-2.6599580444335937,1.2785036865234374,5.32824427480916,16.38167938931298,14.351145038167939,0.0
14.070000648498535,-5.887341882324218,-4.04141240234375,3.9504327392578125,35.31297709923664,113.23664122137404,-4.015267175572519,-9.97184991455078,-2.8562825805664063,1.254561669921875,8.274809160305344,14.778625954198473,12.992366412213741,0.0
14.080000400543213,-6.8785413696289055,-0.7230489013671875,3.7924154296875,62.68702290076336,122.04580152671755,-2.6106870229007635,-10.072406384277343,-2.8754361938476563,1.0606313354492187,12.717557251908397,12.900763358778626,11.908396946564885,0.0
14.090000629425049,-8.578424548339843,1.886630908203125,4.627991809082031,71.46564885496183,125.37404580152672,0.0916030534351145,-10.134655627441406,-2.5450363647460934,0.9624690673828125,15.83206106870229,10.381679389312977,10.916030534351146,0.0
14.100000381469727,-10.16338604736328,5.315127685546875,4.809951135253906,60.70229007633588,124.01526717557252,2.763358778625954,-9.967061511230469,-1.695094775390625,0.9648632690429687,12.564885496183207,11.068702290076336,10.091603053435115,0.0
14.110000610351562,-10.002974536132811,1.9321207397460936,4.774038110351563,62.916030534351144,128.50381679389312,11.526717557251908,-11.987767712402343,-2.461239306640625,0.6607996582031249,11.007633587786259,11.236641221374045,10.748091603053435,0.0
14.120000839233398,-10.594342346191405,5.130774157714844,4.256890551757812,53.465648854961835,122.7175572519084,9.32824427480916,-10.766724865722656,-0.8834604125976562,0.8499415893554687,8.992366412213741,7.282442748091603,6.885496183206107,0.0
14.130000829696655,-12.39238779296875,6.277596752929687,6.665457421875,21.053435114503817,108.22900763358778,8.030534351145038,-10.527304699707031,-0.24660277099609373,0.35194764404296874,-6.290076335877862,9.816793893129772,6.366412213740458,0.0
14.140000581741333,-12.366051574707031,3.2824504760742186,6.057330200195312,2.9160305343511452,94.38167938931298,20.045801526717558,-10.034099157714843,-1.3407529296874998,0.143652099609375,-16.213740458015266,12.396946564885496,9.84732824427481,0.0
14.15000057220459,-12.85207451171875,1.7693150268554687,5.118803149414062,-3.7557251908396947,90.06106870229007,26.412213740458014,-9.617508068847656,-1.6448165405273436,-0.8571241943359375,-22.3206106870229,12.335877862595419,9.709923664122137,0.0
14.160000801086426,-15.241487768554686,1.656787548828125,6.940790612792968,-15.145038167938932,82.16793893129771,26.68702290076336,-8.84178673095703,-1.4317325927734375,-1.2282254516601563,-22.82442748091603,10.763358778625955,6.641221374045801,0.0
14.170000553131104,-18.392257153320312,1.927332336425781,10.417171423339843,-17.6793893129771,65.1145038167939,29.587786259541986,-9.603142858886718,-5.221753820800781,-0.13168109130859373,-23.31297709923664,15.83206106870229,9.709923664122137,0.0
14.18000078201294,-18.82800185546875,0.5458779785156249,10.740388647460938,-12.80916030534351,46.213740458015266,35.38931297709924,-11.669338891601562,-5.968744738769531,0.30406361083984373,-2.595419847328244,13.221374045801527,10.030534351145038,0.0
14.190000534057617,-17.25740556640625,-0.29448680419921874,9.555258825683593,-10.916030534351146,28.47328244274809,32.29007633587786,-9.560047229003906,-3.8379052612304685,-0.5195417602539062,3.969465648854962,6.442748091603053,4.763358778625954,0.0
14.200000286102295,-14.022839123535155,-2.1811177124023438,6.9360022094726554,-7.557251908396947,10.595419847328245,26.366412213740457,-10.036493359375,-2.693476867675781,-0.0383072265625,8.80916030534351,7.129770992366412,4.717557251908397,0.0
14.21000051498413,-10.172962854003906,-3.574543078613281,3.758896606445312,4.8396946564885495,3.3893129770992365,20.549618320610687,-8.609549169921875,0.15562310791015624,-0.4860229370117187,3.7709923664122136,5.419847328244275,3.9389312977099236,0.0
14.220000505447388,-7.979874133300781,-2.6408044311523438,2.2960393920898436,6.916030534351145,3.282442748091603,11.053435114503817,-9.907206469726562,-0.2705447875976562,-0.105344873046875,0.5190839694656488,9.297709923664122,7.480916030534351,0.0
14.230000495910645,-6.110002636718749,-1.2282254516601563,1.2689268798828124,2.0610687022900764,4.030534351145038,2.4122137404580153,-9.849745629882811,0.05027823486328125,-0.1149216796875,1.1908396946564885,7.923664122137405,9.068702290076336,0.0
14.24000072479248,-5.758054992675781,0.8571241943359375,0.47884033203125,-2.4885496183206106,7.587786259541985,-1.9694656488549618,-9.964667309570311,-0.2561795776367187,0.1197100830078125,2.2748091603053435,7.1603053435114505,11.17557251908397,0.0
14.250000715255737,-5.389347937011719,2.176329309082031,0.15083470458984374,-6.580152671755725,14.473282442748092,0.2595419847328244,-9.677363110351562,0.0,-0.07900865478515624,1.9236641221374047,5.206106870229007,12.641221374045802,0.0
14.260000705718994,-6.035782385253906,3.6152445068359373,0.143652099609375,-13.694656488549619,20.82442748091603,4.534351145038168,-9.739612353515625,0.16519991455078123,-0.3447650390625,0.12213740458015267,2.9618320610687023,14.122137404580153,0.0
14.27000093460083,-7.345410693359375,4.050989208984375,0.7278373046875,-26.65648854961832,25.52671755725191,8.244274809160306,-9.648632690429688,0.3902548706054687,-0.4333505004882812,-3.404580152671756,1.1297709923664123,15.038167938931299,0.0
14.280000686645508,-8.078036401367187,3.5793314819335937,0.8786720092773437,-33.541984732824424,28.229007633587788,12.641221374045802,-9.361328491210937,0.3950432739257812,-0.3447650390625,-8.122137404580153,-0.42748091603053434,15.49618320610687,0.0
14.290001153945923,-7.302315063476562,0.17238251953125,-0.105344873046875,-28.9618320610687,31.00763358778626,18.03053435114504,-9.425971936035156,0.16280571289062498,-0.21308394775390624,-13.786259541984732,0.2595419847328244,16.442748091603054,0.0
14.300000667572021,-7.682993127441406,-1.4413093994140624,0.3950432739257812,-3.2061068702290076,45.29770992366412,19.206106870229007,-9.069235888671875,-0.2705447875976562,-0.12449848632812499,-18.778625954198475,1.5419847328244274,16.641221374045802,0.0
14.310000896453857,-9.1554271484375,-0.9169792358398436,1.2856862915039062,10.80916030534351,51.66412213740458,15.114503816793894,-9.382876306152344,-0.5889736083984375,0.05027823486328125,-20.580152671755727,2.6412213740458017,16.83969465648855,0.0
14.320000648498535,-10.934318981933593,1.0366893188476562,2.592920397949219,16.0,54.93129770992366,10.290076335877863,-9.552864624023437,-1.139639990234375,0.28969840087890625,-22.83969465648855,3.572519083969466,16.3206106870229,0.0
14.330000877380371,-11.269507214355468,1.0007762939453124,2.73896669921875,10.992366412213741,50.44274809160305,6.900763358778626,-9.78031378173828,-1.1851298217773436,0.3280056274414062,-23.31297709923664,3.068702290076336,16.610687022900763,0.0
14.340000629425049,-11.487379565429686,2.2457611572265623,2.9735984619140625,2.50381679389313,46.50381679389313,5.541984732824427,-9.823409411621093,-1.0438719238281249,0.44532150878906246,-24.83969465648855,2.9160305343511452,16.18320610687023,0.0
14.350000858306885,-11.403582507324218,3.4620156005859375,2.5713725830078125,-11.786259541984732,41.31297709923664,4.8396946564885495,-9.651026892089844,-1.2473790649414063,0.7254431030273437,-25.114503816793892,2.3053435114503817,16.0,0.0
14.360000848770142,-11.25514200439453,3.9935283691406247,1.7501614135742187,-33.83206106870229,33.083969465648856,4.8396946564885495,-9.94072529296875,-1.0414777221679687,0.8188169677734375,-25.404580152671755,2.1526717557251906,14.0,0.0
14.37000060081482,-9.562441430664062,2.6886884643554687,1.0031704956054688,-46.656488549618324,25.114503816793892,7.1603053435114505,-10.63025537109375,-1.149216796875,0.8906430175781249,-24.763358778625953,1.1908396946564885,14.687022900763358,0.0
14.380000591278076,-10.038887561035155,3.7038299682617186,1.0414777221679687,-52.74809160305343,24.53435114503817,6.5038167938931295,-10.603919152832031,-0.7493851196289062,1.2641384765625,-25.389312977099237,1.3435114503816794,15.083969465648854,0.0
14.390000820159912,-8.058882788085937,0.9026140258789062,0.055066638183593745,-51.587786259541986,23.51145038167939,8.687022900763358,-10.340556970214843,-0.39264907226562495,0.9552864624023437,-25.236641221374047,-0.6412213740458015,15.541984732824428,0.0
14.400000810623169,-7.44357296142578,0.21308394775390624,0.14125789794921875,-41.587786259541986,28.458015267175572,8.610687022900763,-10.103531005859374,-0.5386953735351562,1.1923124267578125,-24.65648854961832,-0.7175572519083969,15.435114503816793,0.0
14.410000562667847,-8.95670841064453,0.5363011718749999,0.9097966308593749,-37.465648854961835,32.534351145038165,6.824427480916031,-10.139444030761718,-0.4477157104492187,1.209071838378906,-22.931297709923665,-2.2900763358778624,15.022900763358779,0.0
14.420000791549683,-7.68059892578125,-0.565031591796875,0.8690952026367187,-33.12977099236641,30.68702290076336,5.358778625954199,-10.398017810058594,-0.7278373046875,1.2904746948242187,-20.213740458015266,-3.2213740458015265,14.396946564885496,0.0
14.430000305175781,-7.8721350585937495,-1.1827356201171875,1.199495031738281,-28.16793893129771,28.015267175572518,3.5114503816793894,-10.366893188476562,-0.6679822631835937,1.2689268798828124,-17.87786259541985,-4.824427480916031,13.511450381679388,0.0
14.440000534057617,-10.374075793457031,-0.9433154541015625,2.281674182128906,-20.564885496183205,30.16793893129771,-0.015267175572519083,-10.156203442382813,-0.5386953735351562,1.5538368774414062,-15.923664122137405,-6.977099236641221,13.007633587786259,0.0
14.450000524520874,-10.517727893066406,-0.21787235107421873,2.070984436035156,-11.083969465648854,25.755725190839694,-1.297709923664122,-10.137049829101562,-0.5003881469726562,1.6998831787109374,-16.015267175572518,-8.992366412213741,13.114503816793894,0.0
14.46000051498413,-10.369287390136718,0.9169792358398436,2.042254016113281,-6.870229007633588,20.778625954198475,-2.2595419847328246,-9.883264453125,-0.076614453125,1.5418658691406248,-18.717557251908396,-10.82442748091603,11.923664122137405,0.0
14.470000267028809,-10.244788903808594,0.35194764404296874,1.7764976318359373,8.381679389312977,23.389312977099237,-2.183206106870229,-9.816226806640625,-0.33039982910156246,1.4532804077148436,-21.450381679389313,-11.801526717557252,11.541984732824428,0.0
14.480000495910645,-9.878476049804688,0.3327940307617187,1.22583125,14.763358778625955,18.641221374045802,-3.3740458015267176,-9.852139831542969,-0.3495534423828125,1.4796166259765624,-22.763358778625953,-14.396946564885496,10.198473282442748,0.0
14.490000486373901,-11.142614526367186,2.549824768066406,1.5466542724609373,16.946564885496183,14.305343511450381,-4.656488549618321,-10.271125122070313,-2.205059729003906,1.8148048583984373,-19.96946564885496,-13.84732824427481,11.17557251908397,0.0
14.500000715255737,-10.328585961914062,2.370259643554687,1.1851298217773436,28.015267175572518,15.633587786259541,-2.0916030534351147,-10.40041201171875,-1.4987702392578124,1.4700398193359374,-7.175572519083969,-19.068702290076335,9.251908396946565,0.0
14.510000944137573,-10.297461340332031,4.369418029785156,1.3287819213867187,28.3206106870229,13.435114503816793,-1.450381679389313,-8.341398583984375,-0.21787235107421873,0.82360537109375,-7.343511450381679,-24.900763358778626,5.755725190839694,0.0
14.520000696182251,-10.809820495605468,5.410895751953125,1.3215993164062498,4.717557251908397,3.7404580152671754,1.5267175572519085,-10.184933862304687,-1.1109095703125,0.679953271484375,-8.564885496183207,-18.763358778625953,7.938931297709924,0.0
14.530000925064087,-9.710881933593749,3.679887951660156,1.1037269653320312,2.2900763358778624,3.1603053435114505,5.709923664122138,-10.216058483886718,-1.24498486328125,0.239420166015625,-5.770992366412214,-17.221374045801525,8.870229007633588,0.0
14.540000677108765,-9.327809667968749,3.0621839233398433,0.7948749511718749,1.618320610687023,2.946564885496183,7.587786259541985,-11.142614526367186,-1.707065783691406,-0.6631938598632812,4.3816793893129775,-15.312977099236642,8.488549618320612,0.0
14.5500009059906,-9.907206469726562,2.980781066894531,0.7062894897460937,-1.7557251908396947,2.4427480916030535,7.282442748091603,-9.916783276367187,-1.9991583862304687,0.30885201416015623,18.458015267175572,-15.98473282442748,6.916030534351145,0.0
14.560000658035278,-9.253589416503905,1.4245499877929686,0.45968671875,-1.3435114503816794,1.5725190839694656,8.076335877862595,-10.026916552734374,-1.0414777221679687,-0.5626373901367188,34.61068702290076,-19.083969465648856,3.9236641221374047,0.0
14.570000648498535,-9.311050256347656,1.7573440185546874,0.4572925170898437,4.061068702290076,4.122137404580153,8.458015267175572,-9.674968908691406,0.8858546142578124,-1.1252747802734375,35.16030534351145,-19.31297709923664,-0.366412213740458,0.0
14.580000877380371,-9.543287817382812,3.1411925781249996,0.6248866333007812,0.9618320610687023,5.770992366412214,7.877862595419847,-10.058041174316406,1.6136919189453125,-0.3806780639648437,23.87786259541985,-12.610687022900763,-1.633587786259542,0.0
14.590000629425049,-8.999804040527343,2.47081611328125,0.040701428222656245,-16.229007633587788,0.4732824427480916,8.198473282442748,-10.40041201171875,1.0773907470703123,0.5434837768554687,7.480916030534351,-6.977099236641221,1.4809160305343512,0.0
14.600000619888306,-9.471461767578125,1.5059528442382812,0.03591302490234375,-23.770992366412212,-1.8931297709923665,6.824427480916031,-10.912771166992187,0.12449848632812499,1.1875240234375,7.786259541984733,-8.442748091603054,2.595419847328244,0.0
14.610000610351562,-9.509768994140625,0.23702596435546874,0.00718260498046875,-16.580152671755727,0.9007633587786259,4.809160305343512,-10.144232434082031,0.3399766357421875,1.8626888916015625,4.2748091603053435,-8.82442748091603,-0.07633587786259542,0.0
14.62000036239624,-9.507374792480467,0.16759411621093748,0.20350714111328125,4.67175572519084,8.213740458015268,3.633587786259542,-10.024522351074218,-0.4261678955078125,2.3535002319335936,1.6946564885496183,-9.435114503816793,-0.7938931297709924,0.0
14.630000591278076,-10.395623608398436,2.123656872558594,0.3950432739257812,2.6259541984732824,7.694656488549619,-0.15267175572519084,-11.240776794433593,-2.6240450195312497,3.418919970703125,6.687022900763359,-11.114503816793894,-0.6106870229007634,0.0
14.640000581741333,-10.053252770996092,1.62805712890625,0.51714755859375,0.16793893129770993,6.366412213740458,-2.2442748091603053,-10.081983190917969,-1.6208745239257811,2.6144682128906247,14.030534351145038,-22.396946564885496,-4.9465648854961835,0.0
14.65000033378601,-9.873687646484374,0.9217676391601562,0.6584054565429687,3.114503816793893,5.557251908396947,-3.480916030534351,-11.18571015625,-2.281674182128906,3.1771056030273437,23.954198473282442,-26.671755725190838,-5.801526717557252,0.0
14.660000801086426,-9.504980590820312,0.7805097412109374,0.7206546997070312,9.893129770992367,6.183206106870229,-4.244274809160306,-10.335768566894531,-1.3527239379882812,2.6767174560546874,34.70229007633588,-40.01526717557252,-10.183206106870228,0.0
14.670000553131104,-9.145850341796875,1.158793603515625,0.689530078125,14.641221374045802,7.114503816793893,-5.221374045801527,-7.896077075195312,1.6112977172851561,1.5394716674804687,21.083969465648856,-42.2442748091603,-16.702290076335878,0.0
14.68000078201294,-9.586383447265625,1.9967641845703124,0.9361328491210937,13.404580152671755,7.32824427480916,-5.816793893129771,-9.167398156738281,-0.2657563842773437,1.8626888916015625,7.099236641221374,-37.282442748091604,-12.564885496183207,0.0
14.690000534057617,-9.737218151855469,2.437297290039062,1.0175357055664063,11.816793893129772,6.473282442748092,-4.961832061068702,-10.752359655761719,-0.6200982299804687,2.068590234375,13.312977099236642,-40.396946564885496,-10.977099236641221,0.0
14.700000524520874,-9.79946739501953,2.3295582153320313,0.689530078125,12.992366412213741,5.251908396946565,-3.7099236641221376,-8.116343627929687,0.9026140258789062,1.9536685546875,10.473282442748092,-44.091603053435115,-16.106870229007633,0.0
14.71000051498413,-9.323021264648437,2.446874096679687,0.5506663818359374,11.923664122137405,5.190839694656488,-2.8091603053435112,-7.697358337402343,1.7190367919921874,1.1348515869140625,-7.893129770992366,-36.16793893129771,-17.893129770992367,0.0
14.720000743865967,-9.406818322753905,2.703053674316406,0.9002198242187499,4.824427480916031,4.732824427480916,-2.946564885496183,-8.070853796386718,0.9959878906249999,1.4532804077148436,-22.442748091603054,-30.03053435114504,-13.908396946564885,0.0
14.730000495910645,-9.828197814941406,2.597708801269531,1.1827356201171875,-1.3893129770992367,2.8091603053435112,-4.091603053435114,-9.085995300292968,-0.16759411621093748,1.120486376953125,-20.366412213740457,-30.885496183206108,-12.198473282442748,0.0
14.740000486373901,-9.789890588378906,1.908178723144531,1.3000515014648437,-1.1603053435114503,1.297709923664122,-3.2061068702290076,-8.750807067871094,-1.3455413330078123,1.5969325073242187,-14.305343511450381,-29.893129770992367,-12.763358778625955,0.0
14.750000476837158,-9.847351428222655,1.4173673828125,1.458068811035156,1.0229007633587786,0.366412213740458,-2.2290076335877864,-9.445125549316407,-2.6144682128906247,1.9823989746093749,-1.0229007633587786,-33.17557251908397,-13.664122137404581,0.0
14.760000705718994,-9.866505041503906,1.678335363769531,1.8555062866210936,6.198473282442748,-0.24427480916030533,-2.3053435114503817,-9.255983618164063,-1.3000515014648437,1.7549498168945312,7.480916030534351,-34.82442748091603,-16.366412213740457,0.0
14.770000457763672,-9.82580361328125,2.4109610717773435,1.9847931762695312,8.442748091603054,-0.2595419847328244,-0.4122137404580153,-8.339004382324218,0.9265560424804687,0.4070142822265625,2.33587786259542,-33.19083969465649,-18.702290076335878,0.0
