timestamp,Thigh_L_Acc_X,Thigh_L_Acc_Y,Thigh_L_Acc_Z,Thigh_L_Gyr_X,Thigh_L_Gyr_Y,Thigh_L_Gyr_Z,Thigh_R_Acc_X,Thigh_R_Acc_Y,Thigh_R_Acc_Z,Thigh_R_Gyr_X,Thigh_R_Gyr_Y,Thigh_R_Gyr_Z,gpio_output
10.000000476837158,-7.426813549804687,-5.066130712890625,5.499481213378906,3.450381679389313,122.12213740458016,4.564885496183206,-10.333374365234375,-3.0238766967773434,-0.2609679809570312,-8.488549618320612,6.412213740458015,5.847328244274809,0.0
10.010000705718994,-9.466673364257812,-0.7709329345703124,8.030152368164062,19.893129770992367,122.41221374045801,-0.2595419847328244,-10.283096130371094,-2.9448680419921875,-0.02154781494140625,3.7709923664122136,3.3740458015267176,7.419847328244275,1.0
10.02000117301941,-10.204087475585936,0.7206546997070312,8.51617530517578,27.862595419847327,114.54961832061069,2.9618320610687023,-8.916006982421875,-0.1580173095703125,-1.0510545288085937,8.641221374045802,-0.061068702290076333,6.33587786259542,1.0
10.030001401901245,-10.867281335449219,2.5953145996093747,8.43956085205078,29.17557251908397,104.74809160305344,4.916030534351145,-9.866505041503906,-0.699106884765625,-0.679953271484375,2.183206106870229,5.374045801526718,9.557251908396946,1.0
10.040000915527344,-10.764330664062498,2.461239306640625,7.922413293457031,26.9618320610687,93.08396946564885,8.793893129770993,-10.20887587890625,-0.3495534423828125,-0.5746083984375,1.3282442748091603,6.931297709923665,11.954198473282442,1.0
10.05000114440918,-10.108319409179687,1.6807295654296874,6.382941625976562,23.083969465648856,83.08396946564885,11.068702290076336,-10.115502014160155,-0.3854664672851562,-0.5506663818359374,-2.4732824427480917,9.34351145038168,12.778625954198473,1.0
10.060000896453857,-9.7683427734375,1.2761094848632812,5.549759448242187,12.412213740458014,73.38931297709924,9.419847328244275,-10.089165795898436,-0.46686932373046874,-0.55545478515625,-5.145038167938932,9.969465648854962,13.312977099236642,1.0
10.070000648498535,-9.648632690429688,1.3024457031249999,5.145139367675781,5.862595419847328,68.99236641221374,8.977099236641221,-9.931148486328125,-0.39983167724609375,-0.45968671875,-7.511450381679389,11.48091603053435,14.870229007633588,1.0
10.080000638961792,-8.760383874511719,0.35194764404296874,3.4620156005859375,-5.603053435114504,62.67175572519084,8.610687022900763,-10.137049829101562,-0.4525041137695312,-0.5339069702148437,-8.061068702290076,12.900763358778626,16.30534351145038,1.0
10.090000867843628,-7.240065820312499,-2.01112939453125,2.0350714111328125,-0.44274809160305345,64.51908396946565,10.061068702290076,-9.490615380859374,-0.6943184814453125,-0.22744915771484372,-9.664122137404581,14.045801526717558,17.419847328244273,1.0
10.100000619888306,-6.260837341308593,-3.394977954101562,1.4030021728515625,4.183206106870229,69.5114503816794,3.816793893129771,-9.909600671386718,-1.5849614990234373,-0.33758243408203126,-8.595419847328245,16.83969465648855,19.450381679389313,1.0
10.110000848770142,-7.762001782226562,-1.8842367065429686,1.189918225097656,17.389312977099237,77.09923664122137,-2.8091603053435112,-10.196904870605469,-1.8818425048828125,-0.1197100830078125,-7.022900763358779,17.129770992366414,19.984732824427482,1.0
10.120000839233398,-9.732429748535155,-0.49320554199218747,2.1308394775390624,26.53435114503817,85.8473282442748,-3.2977099236641223,-10.364498986816406,-2.0183119995117185,0.1484405029296875,-5.267175572519084,15.877862595419847,19.81679389312977,1.0
10.130000829696655,-14.288595507812499,1.0989385620117187,5.717353564453124,40.93129770992366,90.41221374045801,4.366412213740458,-10.424354028320312,-2.4133552734375,0.5243301635742187,-3.5877862595419847,15.954198473282442,19.206106870229007,1.0
10.140001058578491,-16.979678173828123,2.2768857788085937,8.01818135986328,57.49618320610687,90.30534351145039,20.15267175572519,-10.601524951171875,-1.7741034301757812,0.1388636962890625,-3.5267175572519083,12.641221374045802,17.923664122137403,1.0
10.150000810623169,-18.152836987304685,4.211400720214844,8.353369592285155,45.16030534351145,76.59541984732824,20.83969465648855,-10.230423693847655,-0.6105214233398437,-0.055066638183593745,-10.885496183206106,11.725190839694656,15.435114503816793,1.0
10.160001039505005,-17.896657409667966,3.9264907226562498,7.900865478515625,11.86259541984733,52.68702290076336,9.86259541984733,-11.85608662109375,-1.3239935180664062,0.1771709228515625,-16.38167938931298,10.259541984732824,15.908396946564885,1.0
10.170000791549683,-15.866374401855468,2.9975404785156248,6.476315490722656,-22.137404580152673,29.480916030534353,-4.091603053435114,-10.838550915527343,-0.9409212524414062,0.16041151123046873,-21.938931297709924,7.129770992366412,14.259541984732824,1.0
10.180001258850098,-12.485761657714843,1.3096283081054687,4.256890551757812,-38.47328244274809,11.83206106870229,-9.389312977099237,-11.106701501464842,-1.5251064575195312,0.2753331909179687,-23.81679389312977,4.0458015267175576,14.259541984732824,1.0
10.190001010894775,-8.458714465332031,-0.5027823486328125,1.7118541870117185,-31.328244274809162,8.229007633587786,-9.587786259541986,-8.9255837890625,0.22026655273437498,0.21787235107421873,-26.27480916030534,0.8854961832061069,11.32824427480916,1.0
10.200001001358032,-8.463502868652343,1.70467158203125,2.090138049316406,-27.16030534351145,12.198473282442748,-11.938931297709924,-9.70369932861328,-0.49799394531249996,-0.49320554199218747,-28.015267175572518,0.4732824427480916,11.893129770992367,1.0
10.21000075340271,-8.20971749267578,2.7341782958984373,1.7836802368164062,-31.114503816793892,12.045801526717558,-9.86259541984733,-9.813832604980469,-0.6296750366210937,-0.5985504150390625,-24.580152671755727,-0.2748091603053435,10.16793893129771,0.0
10.220000743865967,-7.563283044433593,1.70467158203125,1.6112977172851561,-32.48854961832061,12.82442748091603,-4.152671755725191,-10.888829150390624,-2.7844565307617186,0.26336218261718747,-12.458015267175572,-2.030534351145038,10.961832061068701,0.0
10.230000734329224,-7.395688928222656,0.9241618408203125,1.8291700683593748,-28.412213740458014,14.610687022900763,-0.6564885496183206,-9.184157568359375,-0.5051765502929687,-1.0630255371093749,5.175572519083969,-13.801526717557252,5.358778625954199,0.0
10.24000072479248,-8.030152368164062,0.9864110839843749,2.3582886352539063,-20.549618320610687,14.50381679389313,1.3282442748091603,-9.9215716796875,1.0127473022460938,-1.1611878051757811,7.969465648854962,-10.854961832061068,4.122137404580153,0.0
10.250000476837158,-8.655039001464843,1.1013327636718748,2.7269956909179687,-11.34351145038168,12.748091603053435,2.213740458015267,-9.236830004882812,1.9201497314453124,-1.6136919189453125,-1.251908396946565,-5.694656488549619,5.557251908396947,0.0
10.260001182556152,-9.141061938476563,1.2425906616210938,3.1364041748046874,-1.9389312977099236,10.106870229007633,4.458015267175573,-8.046911779785155,3.749319799804687,-2.1068974609374997,-8.763358778625955,-2.4885496183206106,9.725190839694656,0.0
10.27000117301941,-9.81862100830078,1.3144167114257812,3.1555577880859373,9.389312977099237,7.755725190839694,8.183206106870228,-9.323021264648437,2.4013842651367185,-1.235408056640625,-13.32824427480916,2.366412213740458,14.67175572519084,0.0
10.280000925064087,-9.943119494628906,1.7525556152343749,2.5330653564453125,17.801526717557252,6.534351145038168,10.274809160305344,-9.916783276367187,2.0781670410156248,-0.7230489013671875,-17.61832061068702,6.183206106870229,14.458015267175572,0.0
10.290001153945923,-9.56962403564453,2.3487118286132813,1.5370774658203123,19.66412213740458,5.114503816793893,10.870229007633588,-10.366893188476562,1.0582371337890624,0.031124621582031248,-20.99236641221374,6.290076335877862,13.511450381679388,0.0
10.3000009059906,-9.265560424804686,3.2704794677734372,0.9241618408203125,17.206106870229007,5.419847328244275,10.106870229007633,-10.70686982421875,0.1388636962890625,0.16041151123046873,-21.14503816793893,4.824427480916031,13.572519083969466,0.0
10.310001134872437,-9.246406811523437,3.6535517333984373,0.948103857421875,13.16030534351145,6.702290076335878,12.13740458015267,-10.220846887207031,0.16998831787109375,0.5219359619140624,-19.87786259541985,1.4961832061068703,12.458015267175572,0.0
10.320000886917114,-9.323021264648437,3.6343981201171873,0.8786720092773437,8.65648854961832,7.893129770992366,14.061068702290076,-10.424354028320312,-0.033518823242187495,0.49799394531249996,-17.83206106870229,-0.7480916030534351,12.13740458015267,0.0
10.330000877380371,-9.334992272949219,3.744531396484375,1.3024457031249999,2.213740458015267,8.106870229007633,15.053435114503817,-9.919177478027343,0.33758243408203126,0.3280056274414062,-16.12213740458015,-2.3053435114503817,10.82442748091603,0.0
10.340000867843628,-9.545682019042967,3.6008792968749996,1.24498486328125,-6.229007633587786,6.717557251908397,14.83969465648855,-9.605537060546874,0.49320554199218747,0.5602431884765625,-13.770992366412214,-3.7557251908396947,9.923664122137405,0.0
10.350000619888306,-9.701305126953125,2.6791116577148437,0.9959878906249999,-15.786259541984732,4.870229007633588,13.740458015267176,-9.708487731933593,0.43574470214843747,0.47884033203125,-12.732824427480915,-3.312977099236641,9.221374045801527,0.0
10.360000848770142,-9.557653027343749,1.4532804077148436,0.7541735229492187,-22.885496183206108,3.8625954198473282,10.80916030534351,-9.555258825683593,0.28490999755859375,0.35673604736328124,-11.755725190839694,-2.8244274809160306,8.641221374045802,0.0
10.370000839233398,-9.382876306152344,0.6512228515624999,0.4165910888671875,-25.31297709923664,4.076335877862595,7.572519083969466,-9.502586389160156,-0.21308394775390624,0.45968671875,-7.648854961832061,-3.984732824427481,9.34351145038168,0.0
10.380000591278076,-9.464279162597656,0.33039982910156246,0.4572925170898437,-25.786259541984734,4.687022900763359,4.687022900763359,-9.543287817382812,-0.507570751953125,0.6105214233398437,-3.3893129770992365,-3.8473282442748094,9.49618320610687,0.0
10.390000820159912,-9.445125549316407,-0.35673604736328124,0.7541735229492187,-24.35114503816794,6.0458015267175576,1.984732824427481,-9.459490759277344,-0.6488286499023437,0.6248866333007812,1.9389312977099236,-5.083969465648855,8.946564885496183,0.0
10.400001287460327,-9.306261853027344,-0.6536170532226562,0.82360537109375,-19.862595419847327,7.251908396946565,-1.3893129770992367,-9.868899243164062,-0.9337386474609375,0.6464344482421874,8.091603053435115,-6.900763358778626,9.32824427480916,0.0
10.410000801086426,-8.844180932617187,-1.6543933471679686,0.51714755859375,-9.694656488549619,8.854961832061068,-2.885496183206107,-9.945513696289062,-0.9600748657226562,0.24899697265624998,12.473282442748092,-8.67175572519084,8.687022900763358,0.0
10.420001029968262,-9.744400756835937,-0.842758984375,1.0845733520507812,9.068702290076336,16.732824427480917,-5.099236641221374,-10.050858569335936,-0.5793968017578125,0.8068459594726562,17.709923664122137,-11.099236641221374,7.129770992366412,0.0
10.43000078201294,-8.367734802246094,0.24181436767578124,0.08379705810546874,25.52671755725191,20.595419847328245,-4.824427480916031,-9.533711010742186,1.0319009155273438,-0.47884033203125,20.27480916030534,-13.770992366412214,4.442748091603053,0.0
10.440001010894775,-10.589553942871094,2.5474305664062498,1.1875240234375,23.297709923664122,23.31297709923664,-8.366412213740459,-10.66137999267578,-1.3838485595703125,1.3431471313476562,19.251908396946565,-12.610687022900763,6.137404580152672,0.0
10.450000762939453,-8.743624462890624,1.6807295654296874,0.17238251953125,20.9618320610687,17.69465648854962,-7.022900763358779,-9.94072529296875,-1.0965443603515623,-0.20350714111328125,18.35114503816794,-16.3206106870229,4.244274809160306,0.0
10.46000075340271,-10.603919152832031,1.9584569580078124,0.6081272216796875,21.129770992366414,20.732824427480917,-5.7251908396946565,-10.465055456542968,-1.4532804077148436,1.1348515869140625,41.81679389312977,-30.27480916030534,1.6793893129770991,0.0
10.470000743865967,-9.847351428222655,2.8730419921875,0.4285620971679687,19.69465648854962,21.282442748091604,-7.633587786259542,-9.694122521972655,-0.17956512451171874,-0.6272808349609375,46.10687022900763,-28.80916030534351,-1.8625954198473282,0.0
10.480000734329224,-10.778695874023438,4.129997863769531,1.5658078857421873,8.16793893129771,22.580152671755727,-9.877862595419847,-8.640673791503906,2.3678654418945313,-0.9911994873046874,37.57251908396947,-25.709923664122137,-2.030534351145038,0.0
10.49000072479248,-11.247959399414063,4.675875842285156,2.1308394775390624,-5.969465648854962,17.221374045801525,-9.358778625954198,-8.202534887695313,3.3973721557617185,-1.5322890624999999,10.351145038167939,-18.076335877862597,0.2900763358778626,0.0
10.500000715255737,-8.530540515136718,0.7326257080078125,0.9217676391601562,-3.7404580152671754,15.374045801526718,-3.9083969465648853,-10.376469995117187,0.5147533569335937,0.316034619140625,7.145038167938932,-12.916030534351146,5.419847328244275,0.0
10.510001420974731,-9.239224206542968,-0.12689268798828124,1.8555062866210936,7.755725190839694,20.18320610687023,-5.343511450381679,-8.896853369140624,0.8379705810546875,-0.5219359619140624,4.824427480916031,-12.67175572519084,1.465648854961832,0.0
10.52000093460083,-8.904035974121093,0.05027823486328125,1.8363526733398436,18.076335877862597,19.51145038167939,-5.801526717557252,-8.973467822265624,-0.07422025146484375,1.0630255371093749,5.114503816793893,-15.587786259541986,0.22900763358778625,0.0
10.530001163482666,-10.455478649902343,1.4604630126953124,3.105279553222656,17.87786259541985,18.427480916030536,-9.770992366412214,-10.63025537109375,-1.7334020019531249,1.1851298217773436,12.67175572519084,-20.946564885496183,0.7633587786259542,0.0
10.540000915527344,-11.504138977050781,2.5354595581054684,3.3446997192382812,11.450381679389313,9.16030534351145,-11.022900763358779,-10.43153663330078,-1.3263877197265623,0.03591302490234375,31.374045801526716,-23.236641221374047,-0.6259541984732825,0.0
10.55000114440918,-10.453084448242187,1.4867992309570313,3.5242648437499997,17.221374045801525,6.931297709923665,-9.49618320610687,-9.004592443847656,-0.5961562133789062,-0.3591302490234375,37.38931297709924,-26.610687022900763,-2.1374045801526718,0.0
10.560001134872437,-9.87608184814453,1.3263877197265623,2.8562825805664063,12.473282442748092,-1.9694656488549618,-9.358778625954198,-8.200140686035155,1.6711527587890624,0.047884033203124995,34.42748091603053,-27.053435114503817,-4.0,0.0
10.570000886917114,-9.514557397460937,1.254561669921875,2.300827795410156,21.236641221374047,-2.7480916030534353,-7.022900763358779,-8.40843623046875,2.3343466186523436,-1.8195932617187498,26.442748091603054,-21.61832061068702,-3.0229007633587788,0.0
10.580000877380371,-9.962273107910155,2.032677209472656,2.0638018310546875,22.519083969465647,-4.6106870229007635,-6.977099236641221,-8.875305554199219,1.465251416015625,0.4165910888671875,7.099236641221374,-10.183206106870228,1.3435114503816794,0.0
10.590000867843628,-9.835380419921874,2.039859814453125,1.66636435546875,21.16030534351145,-6.595419847328245,-5.679389312977099,-9.476250170898437,0.05985504150390625,-0.8403647827148437,10.748091603053435,-11.786259541984732,2.595419847328244,0.0
10.600000619888306,-9.804255798339844,2.2457611572265623,1.3646949462890625,21.66412213740458,-7.893129770992366,-3.7404580152671754,-9.13627353515625,0.2609679809570312,0.5315127685546874,7.419847328244275,-9.770992366412214,2.030534351145038,0.0
10.610011339187622,-9.3086560546875,1.9991583862304687,1.4628572143554686,21.72519083969466,-7.4961832061068705,-1.2366412213740459,-9.124302526855468,-0.6296750366210937,0.51714755859375,10.259541984732824,-11.312977099236642,1.0229007633587786,0.0
10.620000839233398,-9.215282189941405,2.0063409912109376,1.3239935180664062,23.114503816793892,-7.00763358778626,-0.04580152671755725,-9.423577734375,-0.1771709228515625,0.6057330200195312,13.725190839694656,-11.251908396946565,-0.07633587786259542,0.0
10.630000829696655,-9.390058911132812,1.915361328125,1.4149731811523436,23.022900763358777,-7.129770992366412,0.7786259541984732,-9.483432775878907,-0.5602431884765625,1.0223241088867188,16.68702290076336,-11.526717557251908,0.2900763358778626,0.0
10.640001058578491,-9.509768994140625,1.7477672119140624,1.4030021728515625,22.916030534351144,-7.282442748091603,1.3435114503816794,-9.253589416503905,-0.2059013427734375,0.7829039428710937,21.34351145038168,-12.198473282442748,-0.42748091603053434,0.0
10.65000057220459,-9.469067565917967,1.5418658691406248,1.0845733520507812,20.83969465648855,-7.755725190839694,1.4198473282442747,-10.146626635742187,-1.8746598999023436,1.5921441040039062,27.419847328244273,-12.412213740458014,0.7022900763358778,0.0
10.660001039505005,-9.220070593261719,1.3120225097656248,1.0510545288085937,20.885496183206108,-7.099236641221374,0.916030534351145,-9.363722692871093,-1.0702081420898437,0.9744400756835937,34.091603053435115,-18.259541984732824,-2.4580152671755724,0.0
10.670000791549683,-9.299079248046874,1.139639990234375,1.2904746948242187,20.229007633587788,-6.0,-0.21374045801526717,-9.234435803222656,-0.8164227661132812,1.4796166259765624,29.31297709923664,-18.763358778625953,-2.5801526717557253,0.0
10.680001020431519,-9.555258825683593,1.0486603271484374,1.6352397338867186,19.068702290076335,-6.473282442748092,-3.236641221374046,-10.81460889892578,-0.8667010009765624,0.47644613037109373,39.64885496183206,-20.717557251908396,-2.7786259541984735,0.0
10.690000772476196,-9.89523546142578,0.9864110839843749,1.695094775390625,21.129770992366414,-7.145038167938932,-4.900763358778626,-9.414000927734374,1.5945383056640625,-0.016759411621093748,49.55725190839695,-20.564885496183205,-5.8320610687022905,0.0
10.700001001358032,-9.93354268798828,1.1635820068359375,2.013523596191406,23.46564885496183,-6.656488549618321,-5.6183206106870225,-8.262389929199218,3.5003228271484375,-0.2705447875976562,34.0,-18.076335877862597,-7.038167938931298,0.0
10.71000075340271,-9.773131176757811,1.5825672973632812,1.637633935546875,24.198473282442748,-7.450381679389313,-6.015267175572519,-10.527304699707031,1.3359645263671873,0.4740519287109375,18.076335877862597,-11.389312977099237,-2.2595419847328246,0.0
10.720000743865967,-9.550470422363281,1.3096283081054687,1.1180921752929687,24.9618320610687,-7.847328244274809,-7.801526717557252,-9.418789331054686,2.3056161987304686,-0.055066638183593745,16.870229007633586,-12.366412213740459,-3.66412213740458,0.0
10.730000734329224,-8.353369592285155,-0.51714755859375,0.05746083984375,34.76335877862596,-4.870229007633588,-6.748091603053435,-10.967837805175781,-0.6464344482421874,0.7661445312499999,11.145038167938932,-9.511450381679388,-1.2061068702290076,0.0
10.74000072479248,-7.4028715332031245,-0.507570751953125,-0.1771709228515625,43.908396946564885,-1.8015267175572518,-7.969465648854962,-9.813832604980469,0.28012159423828126,0.852335791015625,11.801526717557252,-11.541984732824428,-4.137404580152672,0.0
10.750000715255737,-9.574412438964844,2.1643583007812497,1.3646949462890625,48.48854961832061,6.778625954198473,-11.129770992366412,-9.840168823242188,0.2920926025390625,0.6943184814453125,10.977099236641221,-13.099236641221374,-4.549618320610687,0.0
10.760000944137573,-9.983820922851562,3.380612744140625,1.1372457885742187,42.458015267175576,4.061068702290076,-11.98473282442748,-10.041281762695311,0.4429273071289062,0.5051765502929687,11.587786259541986,-13.251908396946565,-5.297709923664122,0.0
10.77000117301941,-8.772354882812499,2.5809493896484375,1.0821791503906248,32.82442748091603,-0.42748091603053434,-10.061068702290076,-9.909600671386718,0.5482721801757812,0.5003881469726562,11.34351145038168,-13.206106870229007,-5.740458015267175,0.0
10.780000925064087,-8.932766394042968,2.104503259277344,1.3479355346679687,24.580152671755727,-0.732824427480916,-9.099236641221374,-9.770736975097655,0.6584054565429687,0.44532150878906246,10.13740458015267,-12.290076335877863,-6.885496183206107,0.0
10.790000915527344,-10.096348400878906,3.347093920898437,2.04943662109375,10.259541984732824,-6.442748091603053,-11.358778625954198,-9.758765966796874,0.5243301635742187,0.35194764404296874,9.022900763358779,-12.198473282442748,-7.648854961832061,0.0
10.8000009059906,-9.696516723632811,1.448492004394531,1.9105729248046874,6.213740458015267,-9.053435114503817,-9.923664122137405,-9.852139831542969,0.062249243164062495,0.51714755859375,10.274809160305344,-12.412213740458014,-8.305343511450381,0.0
10.810001134872437,-9.481038574218749,0.5315127685546874,2.1499930908203124,11.450381679389313,-8.732824427480915,-9.893129770992367,-9.770736975097655,0.6607996582031249,0.2657563842773437,12.351145038167939,-13.114503816793894,-9.893129770992367,0.0
10.820000648498535,-9.311050256347656,0.5315127685546874,2.157175695800781,16.38167938931298,-8.702290076335878,-10.335877862595419,-8.678981018066406,1.209071838378906,-0.2059013427734375,12.793893129770993,-14.366412213740459,-10.900763358778626,0.0
10.830000877380371,-9.239224206542968,1.0103531005859374,1.8531120849609375,19.96946564885496,-9.374045801526718,-11.572519083969466,-9.244012609863281,0.32561142578124996,0.19871873779296872,10.900763358778626,-10.595419847328245,-9.450381679389313,0.0
10.840001106262207,-9.160215551757812,1.3742717529296875,1.8339584716796873,21.938931297709924,-9.893129770992367,-13.19083969465649,-8.769960681152343,0.4836287353515625,0.11252747802734374,11.557251908396946,-9.114503816793894,-9.419847328244275,0.0
10.850000858306885,-9.198522778320312,1.1133037719726562,1.7190367919921874,23.633587786259543,-10.473282442748092,-12.51908396946565,-9.014169250488282,-0.09337386474609374,0.1197100830078125,12.65648854961832,-8.320610687022901,-8.83969465648855,0.0
10.86000108718872,-7.505822204589843,-1.01514150390625,0.5793968017578125,37.17557251908397,-7.694656488549619,-9.725190839694656,-8.858546142578124,-0.45010991210937495,0.45010991210937495,15.770992366412214,-9.007633587786259,-9.129770992366412,0.0
10.870000839233398,-7.8553756469726554,0.5770026000976562,0.7278373046875,43.14503816793893,-5.206106870229007,-12.473282442748092,-10.342951171874999,-1.618480322265625,0.4908113403320312,28.564885496183205,-13.038167938931299,-9.19083969465649,0.0
10.880001068115234,-8.94473740234375,2.47081611328125,1.3958195678710936,32.412213740458014,-8.65648854961832,-14.229007633587786,-9.509768994140625,-1.0031704956054688,0.55545478515625,31.587786259541986,-13.618320610687023,-11.572519083969466,0.0
10.890000820159912,-10.103531005859374,3.9887399658203124,2.3726538452148436,23.14503816793893,-7.648854961832061,-11.770992366412214,-9.483432775878907,-0.9145850341796874,1.0869675537109373,30.900763358778626,-13.389312977099237,-11.725190839694656,0.0
10.900001049041748,-9.313444458007812,3.488351818847656,2.379836450195312,14.320610687022901,-11.572519083969466,-7.557251908396947,-7.893682873535155,1.0893617553710937,0.21068974609375,24.595419847328245,-13.48091603053435,-13.526717557251908,0.0
10.910000801086426,-8.693346228027343,2.8945898071289062,1.668758557128906,14.702290076335878,-12.122137404580153,-4.0,-8.13310303955078,1.5705962890624998,-0.2753331909179687,19.374045801526716,-16.15267175572519,-12.83969465648855,0.0
10.92000126838684,-8.84178673095703,2.3678654418945313,2.0733786376953125,11.938931297709924,-12.305343511450381,-4.396946564885496,-8.690952026367187,0.7278373046875,0.3854664672851562,6.091603053435114,-8.534351145038167,-11.816793893129772,0.0
10.93000054359436,-8.825027319335938,2.212242333984375,2.5905261962890624,10.717557251908397,-13.801526717557252,-2.854961832061069,-8.480262280273436,0.8882488159179687,0.565031591796875,3.0229007633587788,-10.122137404580153,-12.396946564885496,0.0
10.940001249313354,-8.63827958984375,1.8267758666992187,2.896984008789062,10.931297709923664,-14.763358778625955,-0.3511450381679389,-8.52335791015625,0.5051765502929687,0.5315127685546874,-1.618320610687023,-8.717557251908397,-13.48091603053435,0.0
10.950001001358032,-8.494627490234375,1.5921441040039062,3.1004911499023438,10.80916030534351,-15.34351145038168,-0.4122137404580153,-8.513781103515624,0.29927520751953124,0.41898529052734373,-3.801526717557252,-8.030534351145038,-14.213740458015268,0.0
10.96000075340271,-8.56166513671875,1.93451494140625,3.0933085449218747,11.816793893129772,-16.519083969465647,0.3816793893129771,-8.233659509277343,0.5458779785156249,0.15083470458984374,-5.847328244274809,-7.969465648854962,-15.068702290076336,0.0
10.970000505447388,-8.595183959960938,2.0877438476562498,3.1555577880859373,9.34351145038168,-18.53435114503817,1.4351145038167938,-8.329427575683594,0.41419688720703124,0.08140285644531249,-7.206106870229007,-6.885496183206107,-15.251908396946565,0.0
10.980000734329224,-8.664615808105468,2.2601263671875,3.1172505615234374,9.267175572519085,-20.396946564885496,1.9083969465648856,-8.530540515136718,0.062249243164062495,0.1292868896484375,-7.511450381679389,-5.557251908396947,-15.648854961832061,0.0
10.99000072479248,-8.892064965820312,1.7525556152343749,3.411737365722656,8.0,-22.03053435114504,2.030534351145038,-8.568847741699217,-0.033518823242187495,0.10295067138671875,-6.67175572519084,-5.099236641221374,-15.938931297709924,0.0
11.000000715255737,-8.834604125976561,1.2569558715820313,2.85388837890625,9.099236641221374,-23.129770992366414,1.9694656488549618,-8.51617530517578,0.11731588134765625,0.12449848632812499,-6.687022900763359,-4.8396946564885495,-16.625954198473284,0.0
11.010001182556152,-8.808267907714843,1.7621324218749999,2.104503259277344,6.793893129770993,-23.114503816793892,0.366412213740458,-8.94473740234375,0.13168109130859373,0.11013327636718749,-5.7251908396946565,-3.1908396946564888,-16.793893129770993,0.0
11.02000093460083,-8.55448253173828,2.2170307373046874,1.7429788085937499,3.5114503816793894,-23.389312977099237,-1.6030534351145038,-8.853757739257812,0.488417138671875,0.0430956298828125,-5.786259541984733,-1.7251908396946565,-17.053435114503817,0.0
11.030001163482666,-8.853757739257812,2.1978771240234374,1.6519991455078125,0.12213740458015267,-21.541984732824428,-0.9465648854961832,-8.959102612304687,0.7398083129882812,0.05985504150390625,-6.641221374045801,-0.10687022900763359,-16.12213740458015,0.0
11.040000915527344,-8.616731774902343,2.2385785522460937,0.9792284790039062,-4.641221374045801,-20.229007633587788,-0.04580152671755725,-8.726865051269531,0.9576806640625,0.09816226806640624,-9.312977099236642,1.1145038167938932,-15.938931297709924,0.0
11.05000114440918,-8.786720092773438,2.2960393920898436,0.679953271484375,-8.396946564885496,-18.12213740458015,0.9007633587786259,-9.260772021484375,0.1149216796875,0.45010991210937495,-11.786259541984732,3.0381679389312977,-15.053435114503817,0.0
11.060000896453857,-9.289502441406249,2.5905261962890624,1.1133037719726562,-11.740458015267176,-14.977099236641221,0.7480916030534351,-9.026140258789061,0.4477157104492187,0.3495534423828125,-13.740458015267176,2.183206106870229,-15.389312977099237,0.0
11.070000648498535,-9.469067565917967,2.482787121582031,1.6352397338867186,-14.198473282442748,-13.083969465648854,2.687022900763359,-9.306261853027344,0.49799394531249996,0.229843359375,-19.34351145038168,3.480916030534351,-15.511450381679388,0.0
11.080000638961792,-9.636661682128906,2.214636535644531,1.3383587280273437,-16.30534351145038,-11.007633587786259,3.8931297709923665,-10.43871923828125,-0.8954314208984374,1.2234370483398436,-28.061068702290076,10.595419847328245,-14.335877862595419,0.0
11.090000629425049,-9.514557397460937,2.128445275878906,1.5418658691406248,-22.748091603053435,-10.01526717557252,1.9541984732824427,-10.184933862304687,-1.005564697265625,1.5298948608398437,-28.15267175572519,9.114503816793894,-14.091603053435115,0.0
11.100000858306885,-9.624690673828125,2.7916391357421872,1.936909143066406,-29.69465648854962,-9.374045801526718,0.15267175572519084,-9.842563024902343,0.5961562133789062,0.39983167724609375,-24.27480916030534,3.0839694656488548,-15.679389312977099,0.0
11.110000610351562,-11.087547888183593,4.285620971679688,2.3367408203125,-48.54961832061068,-14.198473282442748,-2.33587786259542,-10.371681591796875,-0.19871873779296872,1.0342951171875,-29.053435114503817,3.786259541984733,-13.877862595419847,0.0
11.12000060081482,-9.370905297851563,1.0749965454101562,1.6328455322265625,-44.534351145038165,-8.870229007633588,-0.7175572519083969,-10.740388647460938,-0.373495458984375,0.7038952880859375,-30.198473282442748,5.297709923664122,-12.50381679389313,0.0
11.130000829696655,-10.319009155273436,2.9975404785156248,3.411737365722656,-45.41984732824427,-5.251908396946565,-4.9465648854961835,-10.350133776855468,0.48123453369140623,0.21068974609375,-32.961832061068705,8.854961832061068,-13.007633587786259,0.0
11.140000581741333,-11.01332763671875,4.108450048828125,3.9049429077148434,-51.81679389312977,-7.603053435114504,-4.2748091603053435,-8.774749084472656,1.407790576171875,-0.0718260498046875,-45.38931297709924,8.732824427480915,-10.885496183206106,0.0
11.15000057220459,-10.943895788574219,4.2329485351562495,4.6447512207031245,-55.099236641221374,-9.038167938931299,-1.984732824427481,-8.520963708496094,2.1930887207031247,0.26815058593749996,-57.770992366412216,19.17557251908397,-9.145038167938932,0.0
11.160000801086426,-11.188104357910156,4.4005426513671875,5.580884069824219,-69.64885496183206,-20.48854961832061,-1.2213740458015268,-9.868899243164062,-0.6296750366210937,0.2705447875976562,-61.343511450381676,22.18320610687023,-4.198473282442748,0.0
11.170000553131104,-11.750741748046874,2.231395947265625,7.395688928222656,-64.3969465648855,-28.595419847328245,4.2748091603053435,-11.161768139648437,-1.218648645019531,1.6543933471679686,-50.778625954198475,18.38167938931298,-4.137404580152672,0.0
11.18000078201294,-11.116278308105468,-0.2657563842773437,8.858546142578124,-41.80152671755725,-33.908396946564885,13.49618320610687,-9.80665,0.6847416748046875,2.4971523315429685,-42.51908396946565,11.938931297709924,-7.099236641221374,0.0
11.190000534057617,-9.591171850585937,-1.7836802368164062,8.726865051269531,-18.35114503816794,-42.916030534351144,15.083969465648854,-10.51533369140625,2.310404602050781,2.360682836914062,-53.41984732824427,11.893129770992367,-6.763358778625954,0.0
11.200001001358032,-9.282319836425781,-2.1883003173828124,8.82263311767578,3.0229007633587788,-51.587786259541986,12.641221374045802,-11.087547888183593,1.9919757812499999,4.46279189453125,-66.59541984732824,11.877862595419847,-6.824427480916031,0.0
11.21000075340271,-12.294225524902343,1.898601916503906,11.020510241699219,7.114503816793893,-69.0381679389313,3.572519083969466,-15.612589025878906,-2.5570073730468748,4.484339709472656,-61.51145038167939,9.84732824427481,-9.19083969465649,0.0
11.220000505447388,-13.606248034667967,4.13718046875,10.184933862304687,-5.679389312977099,-98.80916030534351,-0.21374045801526717,-18.313248498535156,-4.697423657226563,2.923320227050781,-38.25954198473283,-1.2671755725190839,-17.908396946564885,0.0
11.230000495910645,-13.558364001464843,3.5410242553710933,7.615955480957031,-18.396946564885496,-125.26717557251908,1.7557251908396947,-18.15044278564453,-4.173093493652344,1.2617442749023438,-16.015267175572518,-9.786259541984732,-25.84732824427481,0.0
11.240000486373901,-13.053187451171874,2.205059729003906,4.747701892089843,-32.16793893129771,-146.87022900763358,-0.48854961832061067,-14.69082138671875,-0.239420166015625,-2.1787235107421874,-11.648854961832061,-17.00763358778626,-27.114503816793892,0.0
11.250000476837158,-14.980519787597656,2.6096798095703124,3.4452561889648434,-38.2442748091603,-163.46564885496184,-3.8625954198473282,-11.461043347167967,1.7022773803710936,-3.754108203125,-11.679389312977099,-13.236641221374045,-17.72519083969466,0.0
11.260000944137573,-15.282189196777344,2.185906115722656,1.0031704956054688,-38.12213740458015,-172.1679389312977,-0.0,-8.640673791503906,3.883395092773437,-3.5506010620117183,-15.038167938931299,-3.5572519083969465,-7.694656488549619,0.0
11.27000117301941,-14.889540124511718,1.2976572998046874,-1.5442600708007812,-33.52671755725191,-168.68702290076337,8.67175572519084,-8.032546569824218,1.0127473022460938,-3.5218706420898434,-19.984732824427482,6.900763358778626,1.1908396946564885,0.0
11.280000686645508,-12.090718383789062,-0.181959326171875,-3.5960908935546874,-24.916030534351144,-153.6030534351145,18.27480916030534,-8.147468249511718,-2.901772412109375,-2.4660277099609376,-14.061068702290076,13.633587786259541,4.412213740458015,0.0
11.290000915527344,-9.471461767578125,-2.1691467041015624,-3.8474820678710935,-11.48091603053435,-132.7175572519084,24.213740458015266,-8.695740429687499,-5.568913061523437,-2.645592834472656,5.297709923664122,16.580152671755727,5.267175572519084,0.0
11.300000667572021,-8.532934716796875,-3.0454245117187497,-3.6679169433593746,2.1068702290076335,-109.48091603053435,27.068702290076335,-9.220070593261719,-4.996698864746094,-2.212242333984375,31.19083969465649,20.35114503816794,5.862595419847328,0.0
11.310001134872437,-7.9846625366210935,-3.83072265625,-4.096479040527344,22.80916030534351,-84.67175572519083,27.64885496183206,-10.151415039062499,-4.5968671875,-3.385401147460937,50.33587786259542,24.458015267175572,7.786259541984733,0.0
11.320000648498535,-7.3549875,-3.4931402221679684,-3.73495458984375,52.25954198473283,-54.68702290076336,30.442748091603054,-9.6151138671875,-2.844311572265625,-2.6503812377929687,61.603053435114504,28.16793893129771,9.007633587786259,0.0
11.330000638961792,-8.0828248046875,-1.5538368774414062,-3.181894006347656,65.7557251908397,-29.893129770992367,29.389312977099237,-9.713276135253906,-1.898601916503906,-2.0446482177734375,64.7175572519084,30.977099236641223,10.198473282442748,0.0
11.340000629425049,-7.232883215332031,-0.9624690673828125,-2.863465185546875,68.99236641221374,-8.213740458015268,27.801526717557252,-8.537723120117187,1.0702081420898437,-1.3910311645507811,55.267175572519086,32.54961832061068,9.740458015267176,0.0
11.350000619888306,-6.6702458251953125,0.9217676391601562,-2.4301146850585935,67.66412213740458,14.65648854961832,23.72519083969466,-8.82981572265625,1.9632453613281249,0.4477157104492187,32.42748091603053,37.98473282442748,13.145038167938932,0.0
11.360000610351562,-7.323862878417969,4.278438366699218,-1.7741034301757812,24.885496183206108,15.541984732824428,14.870229007633588,-9.258377819824219,3.220201232910156,0.47644613037109373,5.877862595419847,42.93129770992366,16.15267175572519,0.0
11.37000060081482,-6.402095239257812,3.2632968627929686,-1.7118541870117185,-8.51908396946565,21.893129770992367,14.80916030534351,-11.812990991210937,-0.2825157958984375,2.2170307373046874,-12.427480916030534,43.17557251908397,21.358778625954198,0.0
11.380000591278076,-5.655104321289063,2.636016027832031,-1.2473790649414063,-36.30534351145038,29.603053435114504,12.534351145038167,-12.344503759765624,-4.441244079589843,3.4811692138671875,-10.15267175572519,33.343511450381676,19.893129770992367,0.0
11.390000581741333,-3.835511059570312,0.8571241943359375,-1.16837041015625,-57.41984732824427,36.36641221374046,9.297709923664122,-10.242394702148436,-2.051830822753906,2.5617957763671875,-6.259541984732825,20.3206106870229,11.083969465648854,0.0
11.400001049041748,-3.347093920898437,-0.3184288208007812,-0.7637503295898437,-64.1526717557252,48.70229007633588,4.106870229007634,-11.133037719726563,-2.9185318237304685,1.675941162109375,-8.442748091603054,15.297709923664122,9.267175572519085,0.0
11.410000801086426,-3.5386300537109374,-0.21787235107421873,0.63206923828125,-72.68702290076335,59.404580152671755,-1.7404580152671756,-9.090783703613281,-0.5698199951171875,1.6400281372070311,-14.854961832061068,11.236641221374045,6.534351145038168,0.0
11.420000791549683,-3.6487633300781246,-2.2481553588867187,2.001552587890625,-67.58778625954199,71.74045801526718,-0.9618320610687023,-9.33978067626953,-0.5267243652343749,0.4429273071289062,-20.53435114503817,9.679389312977099,6.1679389312977095,0.0
11.43000054359436,-4.848258361816406,-2.5354595581054684,3.404554760742187,-64.83969465648855,81.54198473282443,-4.091603053435114,-9.459490759277344,-1.4413093994140624,0.6631938598632812,-24.595419847328245,7.923664122137405,4.687022900763359,0.0
11.440001010894775,-6.459556079101562,-2.602497204589844,4.809951135253906,-70.22900763358778,88.33587786259542,-10.961832061068701,-9.528922607421874,-2.427720483398437,0.46208092041015625,-23.450381679389313,5.938931297709924,2.9618320610687023,0.0
11.450000524520874,-7.206546997070312,-3.0813375366210938,4.9416322265625,-71.77099236641222,89.74045801526718,-17.72519083969466,-9.689334118652344,-2.913743420410156,0.32561142578124996,-19.480916030534353,3.2977099236641223,2.1068702290076335,0.0
11.46000051498413,-7.958326318359375,-2.8012159423828122,6.004657763671875,-56.961832061068705,91.63358778625954,-20.3206106870229,-10.043675964355469,-3.189076611328125,-0.15562310791015624,-12.106870229007633,0.07633587786259542,2.6412213740458017,0.0
11.470000505447388,-8.042123376464843,-1.8028338500976562,7.127538342285156,-20.47328244274809,96.80916030534351,-15.17557251908397,-10.029310754394531,-3.1004911499023438,0.20829554443359374,-6.030534351145038,-1.1603053435114503,3.7709923664122136,0.0
11.480000972747803,-8.935160595703124,-0.8212111694335937,7.261613635253906,11.251908396946565,100.83969465648855,-11.022900763358779,-10.522516296386717,-2.932897033691406,0.0383072265625,-0.6564885496183206,-1.3282442748091603,4.122137404580153,0.0
11.49000072479248,-10.27830772705078,-0.11013327636718749,7.417236743164062,34.213740458015266,101.17557251908397,-7.129770992366412,-10.43871923828125,-1.8650830932617186,0.21068974609375,1.7251908396946565,-1.5877862595419847,3.8931297709923665,0.0
11.500000476837158,-11.664550488281249,1.956062756347656,6.947973217773437,49.31297709923664,97.06870229007633,-1.099236641221374,-10.66137999267578,-1.5777788940429687,0.08140285644531249,0.15267175572519084,-1.1603053435114503,3.633587786259542,0.0
11.510000705718994,-12.48097325439453,2.7748797241210936,6.3901242309570305,50.56488549618321,89.80152671755725,4.687022900763359,-9.888052856445311,-0.2346317626953125,0.0047884033203125,-6.854961832061068,-0.5190839694656488,1.5572519083969465,0.0
11.520000696182251,-13.019668627929686,3.6248213134765623,6.421248852539062,38.717557251908396,79.90839694656489,8.534351145038167,-9.847351428222655,-0.8020575561523438,-0.2442085693359375,-16.061068702290076,2.122137404580153,2.045801526717557,0.0
11.530001401901245,-12.248735693359373,3.768473413085937,4.790797521972656,20.076335877862597,67.64885496183206,11.297709923664122,-9.536105212402344,-0.8475473876953125,-0.7852981445312499,-21.81679389312977,3.236641221374046,2.33587786259542,0.0
11.540000677108765,-13.098677282714842,4.594472985839843,3.6439749267578123,4.977099236641221,58.274809160305345,15.801526717557252,-10.352527978515624,-2.422932080078125,-0.5746083984375,-27.374045801526716,7.297709923664122,4.6106870229007635,0.0
11.550001382827759,-13.769053747558592,3.038241906738281,4.96078583984375,3.49618320610687,54.213740458015266,23.206106870229007,-10.608707556152343,-2.85388837890625,-0.2561795776367187,-26.717557251908396,7.068702290076335,5.3893129770992365,0.0
11.5600004196167,-16.316484313964843,2.655169641113281,7.582436657714843,5.022900763358779,50.82442748091603,24.885496183206108,-9.682151513671874,-2.0063409912109376,0.02154781494140625,-20.564885496183205,5.0534351145038165,3.4656488549618323,0.0
11.570000648498535,-15.875951208496092,3.5769372802734374,7.618349682617187,-10.366412213740459,31.236641221374047,21.96946564885496,-9.938331091308592,-2.6503812377929687,0.3711012573242187,-23.236641221374047,12.916030534351146,4.122137404580153,0.0
11.580000638961792,-14.216769458007812,0.7326257080078125,7.8338278320312495,-23.450381679389313,19.908396946564885,16.213740458015266,-9.622296472167967,-1.0678139404296874,-0.06703764648437499,-10.610687022900763,8.854961832061068,3.969465648854962,0.0
11.590000629425049,-11.3006318359375,-3.6200329101562496,5.820304235839844,-29.786259541984734,6.824427480916031,7.297709923664122,-10.426748229980468,-2.003946789550781,0.35673604736328124,-4.519083969465649,11.725190839694656,6.076335877862595,0.0
11.600000619888306,-8.820238916015624,-2.9927520751953125,3.1579519897460937,-15.969465648854962,6.198473282442748,-1.4045801526717556,-9.421183532714844,-0.7685387329101562,-0.33518823242187495,7.206106870229007,9.267175572519085,6.244274809160306,0.0
11.610000610351562,-8.295908752441406,-0.488417138671875,1.2904746948242187,-12.366412213740459,7.8320610687022905,-7.603053435114504,-9.205705383300781,-0.0383072265625,-0.9552864624023437,11.557251908396946,8.15267175572519,8.900763358778626,0.0
11.62000060081482,-7.319074475097656,1.4628572143554686,0.5027823486328125,-11.541984732824428,12.320610687022901,-6.33587786259542,-8.74601866455078,1.2401964599609374,-1.180341418457031,11.022900763358779,8.732824427480915,11.419847328244275,0.0
11.630000829696655,-7.364564306640625,1.4006079711914061,-0.5291185668945312,-12.687022900763358,15.358778625954198,-2.0916030534351147,-10.433930834960936,-0.411802685546875,-0.49320554199218747,14.992366412213741,9.083969465648854,16.366412213740457,0.0
11.640001058578491,-7.692569934082031,0.7948749511718749,-0.48123453369140623,-0.8854961832061069,24.16793893129771,1.9083969465648856,-9.351751684570312,1.1563994018554686,-0.5458779785156249,15.755725190839694,8.183206106870228,14.320610687022901,0.0
11.65000057220459,-8.214505895996094,1.24498486328125,0.22505495605468748,8.16793893129771,33.16030534351145,2.7022900763358777,-9.773131176757811,1.0606313354492187,-0.6368576416015624,11.908396946564885,6.244274809160306,15.282442748091603,0.0
11.660000801086426,-9.248801013183593,2.882618798828125,0.7254431030273437,10.473282442748092,35.19083969465649,3.6946564885496183,-9.943119494628906,0.9935936889648437,-0.8810662109374999,7.4961832061068705,5.770992366412214,15.877862595419847,0.0
11.670000553131104,-9.935936889648437,3.0789433349609374,1.2832920898437499,2.8244274809160306,32.62595419847328,5.801526717557252,-9.804255798339844,1.2042834350585936,-1.0223241088867188,0.5190839694656488,4.809160305343512,16.33587786259542,0.0
11.68000078201294,-8.920795385742187,1.9776105712890624,1.0797849487304687,-2.122137404580153,26.48854961832061,8.534351145038167,-9.773131176757811,0.8882488159179687,-1.2378022583007813,-5.847328244274809,5.083969465648855,15.877862595419847,0.0
11.690000534057617,-10.73799444580078,2.93050283203125,2.7820623291015623,-6.519083969465649,25.114503816793892,6.015267175572519,-9.749189160156249,0.48123453369140623,-1.3168109130859373,-9.694656488549619,5.465648854961832,15.816793893129772,0.0
11.700001001358032,-10.115502014160155,1.3479355346679687,2.2194249389648437,-17.557251908396946,12.595419847328245,7.129770992366412,-9.789890588378906,0.1771709228515625,-1.2521674682617188,-11.282442748091603,5.679389312977099,14.458015267175572,0.0
11.71000051498413,-9.330203869628905,-0.17477672119140625,2.104503259277344,-2.0916030534351147,14.610687022900763,8.229007633587786,-9.476250170898437,-0.36152445068359373,-0.8978256225585937,-11.068702290076336,6.473282442748092,12.992366412213741,0.0
11.720000505447388,-9.89523546142578,0.5458779785156249,2.760514514160156,7.786259541984733,14.183206106870228,7.694656488549619,-9.380482104492186,-0.5267243652343749,-1.0462661254882812,-7.648854961832061,5.862595419847328,12.061068702290076,0.0
11.730000495910645,-10.302249743652343,1.6400281372070311,2.5809493896484375,14.030534351145038,11.633587786259541,9.34351145038168,-9.153032946777342,-0.24660277099609373,-1.2018892333984375,-1.633587786259542,6.549618320610687,11.648854961832061,0.0
11.740000486373901,-10.187328063964843,1.5777788940429687,2.446874096679687,14.83969465648855,9.450381679389313,10.885496183206106,-9.215282189941405,0.1484405029296875,-1.0342951171875,2.9770992366412212,7.450381679389313,11.740458015267176,0.0
11.750000476837158,-9.564835632324218,1.2521674682617188,2.422932080078125,13.725190839694656,6.595419847328245,9.49618320610687,-9.2320416015625,0.11731588134765625,-0.9193734375,6.198473282442748,8.412213740458014,11.86259541984733,0.0
11.760000467300415,-9.583989245605467,0.8595183959960937,1.668758557128906,12.396946564885496,4.442748091603053,7.038167938931298,-9.641450085449218,-0.011971008300781249,-0.9121908325195311,8.442748091603054,9.19083969465649,12.427480916030534,0.0
11.77000117301941,-9.581595043945311,1.1013327636718748,1.0821791503906248,10.442748091603054,3.1297709923664123,4.137404580152672,-9.969455712890625,0.06943184814453125,-0.7637503295898437,9.923664122137405,8.65648854961832,11.86259541984733,0.0
11.780000686645508,-9.289502441406249,1.5203180541992187,0.8451531860351562,10.16793893129771,3.1297709923664123,2.366412213740458,-10.407594616699217,-0.0526724365234375,-0.03591302490234375,10.091603053435115,7.66412213740458,10.65648854961832,0.0
11.790000677108765,-9.131485131835937,1.7884686401367187,0.4429273071289062,11.374045801526718,3.786259541984733,2.3969465648854964,-10.560823522949217,-0.05027823486328125,0.2657563842773437,8.488549618320612,6.183206106870229,9.312977099236642,0.0
11.800000667572021,-9.514557397460937,2.2002713256835937,0.2059013427734375,10.13740458015267,5.190839694656488,2.427480916030534,-10.690110412597656,-0.04548983154296875,0.6512228515624999,6.854961832061068,3.969465648854962,8.50381679389313,0.0
11.810000896453857,-9.485826977539062,2.7246014892578123,0.22744915771484372,6.717557251908397,6.763358778625954,2.4885496183206106,-10.790666882324219,-0.06703764648437499,0.7493851196289062,5.3893129770992365,0.9312977099236641,6.687022900763359,0.0
11.820000648498535,-9.900023864746093,2.224213342285156,0.2346317626953125,2.595419847328244,8.01526717557252,2.427480916030534,-11.01332763671875,-0.18914193115234373,0.9409212524414062,4.763358778625954,-2.015267175572519,5.3893129770992365,0.0
11.830000877380371,-10.206481677246094,1.9847931762695312,0.430956298828125,0.1984732824427481,8.458015267175572,2.381679389312977,-11.403582507324218,-0.9241618408203125,1.455674609375,6.0,-5.358778625954199,4.5038167938931295,0.0
11.840000629425049,-9.801861596679688,2.2840683837890623,1.0797849487304687,0.030534351145038167,9.404580152671755,2.6412213740458017,-10.333374365234375,0.00239420166015625,1.908178723144531,5.66412213740458,-11.694656488549619,2.564885496183206,0.0
11.850000858306885,-10.072406384277343,2.24097275390625,1.2138602416992186,-1.1908396946564885,9.49618320610687,3.404580152671756,-10.87925234375,-1.0869675537109373,1.0510545288085937,3.480916030534351,-9.49618320610687,3.7251908396946565,0.0
11.860000610351562,-9.749189160156249,2.327164013671875,1.2880804931640624,-2.7938931297709924,9.099236641221374,3.5267175572519083,-10.939107385253905,-1.924938134765625,0.25139117431640623,14.076335877862595,-17.236641221374047,1.1908396946564885,0.0
11.87000060081482,-9.811438403320311,3.1603461914062496,1.6735469604492186,-4.961832061068702,9.129770992366412,4.5038167938931295,-9.564835632324218,-1.7836802368164062,0.27293898925781246,15.969465648854962,-16.83969465648855,-0.732824427480916,0.0
11.880000591278076,-8.99501563720703,3.1220389648437497,2.1021090576171875,-6.549618320610687,9.816793893129772,8.122137404580153,-8.537723120117187,0.316034619140625,-0.3711012573242187,20.9618320610687,-26.106870229007633,-3.5572519083969465,0.0
11.890000581741333,-9.315838659667968,4.031835595703125,2.5234885498046875,-6.33587786259542,9.786259541984732,11.32824427480916,-8.695740429687499,0.3399766357421875,0.07900865478515624,5.694656488549619,-19.297709923664122,-2.3053435114503817,0.0
11.900000810623169,-8.86094034423828,3.6750995483398436,2.501940734863281,-13.86259541984733,6.870229007633588,14.183206106870228,-8.999804040527343,0.2154781494140625,-0.01915361328125,7.129770992366412,-18.625954198473284,-0.5648854961832062,0.0
11.910000801086426,-9.236830004882812,2.8203695556640622,2.39420166015625,-19.34351145038168,5.679389312977099,15.709923664122137,-9.471461767578125,-0.9744400756835937,-0.5267243652343749,-1.0229007633587786,-14.061068702290076,0.22900763358778625,0.0
11.920001029968262,-7.881711865234375,-0.086191259765625,1.7429788085937499,-15.633587786259541,5.816793893129771,18.519083969465647,-9.193734375,0.016759411621093748,0.2705447875976562,1.5419847328244274,-15.877862595419847,-0.8396946564885496,0.0
11.93000054359436,-7.568071447753906,0.0383072265625,1.7238251953125,-4.99236641221374,9.068702290076336,15.709923664122137,-9.830592016601562,-0.9313444458007812,0.5123591552734374,7.267175572519084,-16.610687022900763,-0.5801526717557252,0.0
11.940000772476196,-9.629479077148437,0.7350199096679687,2.91134921875,-2.198473282442748,12.763358778625955,11.206106870229007,-9.64623848876953,-1.3910311645507811,1.2138602416992186,18.717557251908396,-25.557251908396946,-1.618320610687023,0.0
11.950000762939453,-9.217676391601563,0.603338818359375,2.2649147705078123,2.5343511450381677,9.038167938931299,11.98473282442748,-9.449913952636718,-1.467645617675781,1.446097802734375,19.96946564885496,-28.045801526717558,-3.7557251908396947,0.0
11.96000051498413,-9.81862100830078,1.4604630126953124,3.4093431640625,7.709923664122138,12.351145038167939,10.916030534351146,-10.328585961914062,-0.9959878906249999,1.0797849487304687,49.43511450381679,-42.74809160305343,-4.885496183206107,0.0
11.970000267028809,-10.881646545410156,2.521094348144531,3.239354846191406,9.251908396946565,9.679389312977099,9.801526717557252,-8.595183959960938,0.9959878906249999,-0.2059013427734375,37.64885496183206,-39.7557251908397,-9.419847328244275,0.0
11.980000495910645,-11.01332763671875,4.393360046386719,3.296815686035156,-2.732824427480916,4.122137404580153,8.458015267175572,-8.535328918457031,1.6998831787109374,-1.0797849487304687,19.64885496183206,-34.595419847328245,-7.435114503816794,0.0
11.990000486373901,-9.236830004882812,2.8323405639648436,1.8148048583984373,-12.641221374045802,-2.5343511450381677,11.068702290076336,-8.700528833007812,2.0973206542968748,0.13646949462890623,0.7175572519083969,-31.19083969465649,-4.931297709923665,0.0
12.000000715255737,-9.203311181640624,1.93451494140625,1.5705962890624998,-12.290076335877863,-2.8396946564885495,12.076335877862595,-10.632649572753905,-1.429338391113281,0.8283937744140625,-3.83206106870229,-30.198473282442748,-1.6946564885496183,0.0
12.010000705718994,-9.622296472167967,1.1659762084960936,1.697488977050781,-10.106870229007633,-2.9770992366412212,11.48091603053435,-10.364498986816406,-0.7517793212890624,1.6400281372070311,9.19083969465649,-31.34351145038168,-4.351145038167939,0.0
12.02000093460083,-9.631873278808593,0.86191259765625,2.023100402832031,-7.587786259541985,-2.763358778625954,10.50381679389313,-10.371681591796875,-1.8411410766601561,0.97683427734375,14.778625954198473,-33.93893129770992,-6.458015267175573,0.0
12.030000925064087,-9.255983618164063,0.8307879760742187,1.8938135131835936,-5.00763358778626,-1.297709923664122,8.793893129770993,-8.640673791503906,0.6344634399414062,-0.3399766357421875,18.595419847328245,-36.93129770992366,-8.80916030534351,0.0
12.040000438690186,-9.299079248046874,1.2210428466796874,1.5442600708007812,-4.900763358778626,-0.4580152671755725,5.206106870229007,-9.265560424804686,0.20350714111328125,-1.1324573852539062,8.946564885496183,-28.30534351145038,-7.129770992366412,0.0
12.050001382827759,-9.533711010742186,1.85790048828125,1.8650830932617186,-6.809160305343512,-0.5648854961832062,2.3053435114503817,-8.95670841064453,1.1851298217773436,-0.19871873779296872,-0.33587786259541985,-27.19083969465649,-5.877862595419847,0.0
12.060000896453857,-9.64623848876953,1.5921441040039062,1.8722656982421875,-7.083969465648855,-2.1374045801526718,1.3587786259541985,-10.723629235839843,-1.7190367919921874,0.8906430175781249,-0.4732824427480916,-30.47328244274809,-3.786259541984733,0.0
12.070000648498535,-8.166621862792969,-1.419761584472656,0.7948749511718749,4.702290076335878,-0.6106870229007634,2.33587786259542,-11.29344923095703,-0.5770026000976562,2.214636535644531,17.129770992366414,-26.30534351145038,-5.526717557251908,0.0
12.080000638961792,-7.967903124999999,-0.2059013427734375,1.0510545288085937,18.396946564885496,4.809160305343512,-2.519083969465649,-10.079588989257813,0.2657563842773437,0.32082302246093747,16.595419847328245,-29.83206106870229,-8.106870229007633,0.0
12.090000629425049,-9.840168823242188,1.2617442749023438,1.4772224243164063,21.297709923664122,8.305343511450381,-6.916030534351145,-9.253589416503905,1.7310078002929687,0.14604630126953125,18.061068702290076,-26.15267175572519,-9.236641221374045,0.0
12.100000619888306,-9.011775048828124,2.3032219970703123,0.5961562133789062,16.625954198473284,5.541984732824427,-8.106870229007633,-7.876923461914062,3.2513258544921873,-0.34715924072265625,1.1603053435114503,-23.053435114503817,-8.748091603053435,0.0
12.110000610351562,-10.225635290527343,3.507505432128906,1.180341418457031,7.251908396946565,6.6106870229007635,-10.335877862595419,-10.560823522949217,0.00718260498046875,0.584185205078125,-5.877862595419847,-15.358778625954198,-3.3893129770992365,0.0
12.12000060081482,-9.083601098632812,1.7525556152343749,0.430956298828125,4.122137404580153,4.732824427480916,-8.16793893129771,-8.980650427246093,0.7206546997070312,1.0630255371093749,-8.748091603053435,-14.396946564885496,-5.022900763358779,0.0
12.130000591278076,-8.583212951660157,1.1252747802734375,0.3016694091796875,2.763358778625954,4.076335877862595,-7.511450381679389,-9.624690673828125,-0.4261678955078125,1.2306196533203124,-9.16030534351145,-15.587786259541986,-4.8396946564885495,0.0
12.140000581741333,-9.581595043945311,1.9512743530273435,0.8212111694335937,-2.549618320610687,2.6412213740458017,-10.83969465648855,-9.423577734375,-0.354341845703125,1.0965443603515623,-13.007633587786259,-15.664122137404581,-6.641221374045801,0.0
12.15000057220459,-9.97184991455078,1.189918225097656,1.2785036865234374,5.969465648854962,8.01526717557252,-10.65648854961832,-9.727641345214844,-0.9026140258789062,0.9864110839843749,-9.557251908396946,-15.206106870229007,-6.67175572519084,0.0
12.160000801086426,-10.103531005859374,1.218648645019531,1.618480322265625,8.946564885496183,9.312977099236642,-13.083969465648854,-9.37808790283203,-0.296881005859375,0.8403647827148437,-7.099236641221374,-13.84732824427481,-7.816793893129771,0.0
12.170000314712524,-8.796296899414061,1.1851298217773436,1.2713210815429687,17.480916030534353,9.664122137404581,-13.923664122137405,-9.45470235595703,-0.3806780639648437,0.8547299926757812,-4.244274809160306,-13.83206106870229,-7.709923664122138,0.0
12.18000078201294,-9.926360083007811,1.419761584472656,2.3439234252929686,21.633587786259543,12.931297709923664,-15.908396946564885,-8.966285217285156,-0.22266075439453123,0.9911994873046874,-4.122137404580153,-13.038167938931299,-8.213740458015268,0.0
12.190000534057617,-9.394847314453125,1.3215993164062498,2.6312276245117188,24.916030534351144,10.488549618320612,-16.595419847328245,-9.282319836425781,-0.4429273071289062,1.01514150390625,-1.4809160305343512,-13.49618320610687,-8.030534351145038,0.0
12.200000762939453,-8.810662109374999,1.8315642700195311,2.3367408203125,25.46564885496183,7.450381679389313,-16.9618320610687,-9.165003955078124,-0.354341845703125,1.0079588989257813,-1.1755725190839694,-13.206106870229007,-8.793893129770993,0.0
12.21000075340271,-10.149020837402343,2.7844565307617186,3.1316157714843746,18.916030534351144,3.6030534351145036,-18.47328244274809,-9.121908325195312,-0.41419688720703124,1.0103531005859374,0.33587786259541985,-13.618320610687023,-9.755725190839694,0.0
12.220000505447388,-8.884882360839843,2.152387292480469,2.492363928222656,18.045801526717558,-1.2671755725190839,-16.83969465648855,-8.853757739257812,-0.4429273071289062,0.9911994873046874,0.3053435114503817,-12.488549618320612,-10.549618320610687,0.0
12.230000495910645,-9.162609753417968,2.3439234252929686,2.6910826660156246,11.221374045801527,-7.847328244274809,-17.51145038167939,-9.241618408203124,-0.8978256225585937,1.1611878051757811,1.450381679389313,-13.419847328244275,-10.763358778625955,0.0
12.24000072479248,-10.156203442382813,4.096479040527344,3.785232824707031,14.213740458015268,-5.435114503816794,-18.12213740458015,-9.0788126953125,-0.6560112548828124,0.6775590698242188,7.297709923664122,-16.427480916030536,-11.633587786259541,0.0
12.250000476837158,-8.544905725097657,2.262520568847656,2.578555187988281,8.351145038167939,-14.061068702290076,-14.900763358778626,-8.789114294433594,0.3232172241210937,0.1197100830078125,15.19083969465649,-16.427480916030536,-13.129770992366412,0.0
12.260000705718994,-9.509768994140625,3.545812658691406,3.208230224609375,8.946564885496183,-17.221374045801525,-15.236641221374045,-8.963891015625,0.09816226806640624,0.7781155395507812,1.1908396946564885,-13.450381679389313,-12.51908396946565,0.0
12.27000093460083,-8.966285217285156,3.5051112304687497,3.5673604736328124,7.8320610687022905,-19.862595419847327,-13.404580152671755,-8.511386901855468,0.27293898925781246,1.01514150390625,-2.687022900763359,-12.778625954198473,-12.900763358778626,0.0
12.280000686645508,-10.120290417480469,6.076483813476562,4.764461303710937,-10.259541984732824,-28.946564885496183,-14.16793893129771,-8.772354882812499,0.18914193115234373,0.8571241943359375,-2.427480916030534,-13.022900763358779,-12.778625954198473,0.0
12.290000915527344,-9.588777648925781,4.7117888671875,3.81156904296875,-35.57251908396947,-44.778625954198475,-9.98473282442748,-8.604760766601562,0.16280571289062498,0.7685387329101562,-2.9923664122137406,-12.580152671755725,-12.625954198473282,0.0
12.300000667572021,-9.682151513671874,3.337517114257812,3.5314474487304683,-41.41984732824427,-48.68702290076336,-6.656488549618321,-8.47786807861328,-0.4165910888671875,0.9002198242187499,-2.6412213740458017,-11.938931297709924,-12.977099236641221,0.0
12.310000896453857,-7.881711865234375,0.5578489868164063,2.080561242675781,-44.50381679389313,-57.63358778625954,-4.488549618320611,-8.315062365722655,0.30885201416015623,0.011971008300781249,14.992366412213741,-17.099236641221374,-13.98473282442748,0.0
12.320000648498535,-11.935095275878906,6.023811376953125,4.697423657226563,-34.045801526717554,-50.045801526717554,-9.923664122137405,-7.702146740722656,1.0702081420898437,0.296881005859375,9.282442748091603,-13.86259541984733,-15.969465648854962,0.0
12.330000877380371,-10.481814868164061,5.274426257324219,2.5641899780273434,-60.30534351145038,-67.66412213740458,-4.076335877862595,-8.377311608886718,-0.6727706665039062,1.2114660400390624,-0.3816793893129771,-7.969465648854962,-12.427480916030534,0.0
12.340000629425049,-9.313444458007812,3.699041564941406,1.6519991455078125,-56.35114503816794,-63.16030534351145,3.0381679389312977,-6.993463049316406,1.5586252807617187,0.4285620971679687,0.4732824427480916,-10.412213740458014,-13.740458015267176,0.0
12.350000619888306,-7.8338278320312495,1.9728221679687499,0.44053310546874996,-47.43511450381679,-62.58015267175573,6.3816793893129775,-8.396465222167969,-0.6655880615234374,0.6679822631835937,-3.1908396946564888,-1.6488549618320612,-10.610687022900763,0.0
12.360000610351562,-6.655880615234374,-1.5179238525390624,0.7134720947265625,-29.984732824427482,-53.70992366412214,8.977099236641221,-9.600748657226562,-2.0973206542968748,1.180341418457031,7.175572519083969,-3.1755725190839694,-7.114503816793893,0.0
12.37000060081482,-5.042188696289062,-4.031835595703125,0.86191259765625,8.381679389312977,-38.01526717557252,9.587786259541986,-7.948749511718749,-0.7206546997070312,0.4740519287109375,11.938931297709924,0.7786259541984732,-10.427480916030534,0.0
12.380000591278076,-5.322310290527343,-2.7581203125,1.848323681640625,40.79389312977099,-23.954198473282442,3.3435114503816794,-8.904035974121093,-1.5705962890624998,0.3447650390625,18.763358778625953,1.7709923664122138,-7.801526717557252,0.0
12.390000820159912,-8.465897070312499,2.0159177978515626,3.438073583984375,49.49618320610687,-18.564885496183205,-3.6030534351145036,-9.478644372558593,-1.2234370483398436,0.12449848632812499,29.251908396946565,3.816793893129771,-8.213740458015268,0.0
12.40000033378601,-7.9655089233398435,1.388636962890625,2.583343591308594,47.23664122137404,-21.801526717557252,-0.6870229007633588,-9.236830004882812,-0.5817910034179687,0.23223756103515625,34.83969465648855,4.870229007633588,-8.916030534351146,0.0
12.410000562667847,-7.580042456054687,0.2705447875976562,2.7054478759765623,59.29770992366412,-14.381679389312977,-2.16793893129771,-9.485826977539062,-0.9888052856445312,0.7661445312499999,40.50381679389313,7.038167938931298,-8.16793893129771,0.0
12.420000791549683,-7.723694555664062,0.8020575561523438,2.499546533203125,56.030534351145036,-15.312977099236642,-7.4961832061068705,-8.719682446289061,0.3495534423828125,0.5674257934570313,42.54961832061068,7.526717557251908,-9.007633587786259,0.0
12.43000054359436,-10.465055456542968,4.469974499511719,4.496310717773437,45.083969465648856,-15.221374045801527,-11.969465648854962,-9.315838659667968,0.5243301635742187,0.6153098266601562,38.33587786259542,9.221374045801527,-6.961832061068702,0.0
12.440000772476196,-9.821015209960937,3.900154504394531,4.244919543457031,35.9236641221374,-18.65648854961832,-8.595419847328245,-9.014169250488282,1.2928688964843749,1.446097802734375,24.12213740458015,17.557251908396946,-6.213740458015267,0.0
12.450000286102295,-9.284714038085937,3.5314474487304683,4.544194750976562,34.900763358778626,-12.687022900763358,-11.038167938931299,-9.469067565917967,0.7302315063476562,0.8930372192382812,9.526717557251908,22.549618320610687,-3.7404580152671754,0.0
12.46000051498413,-9.095572106933593,4.027047192382812,4.589684582519531,24.412213740458014,-14.50381679389313,-13.587786259541986,-10.295067138671874,0.8906430175781249,1.426944189453125,5.297709923664122,23.87786259541985,-5.251908396946565,0.0
12.470000505447388,-10.232817895507813,4.989516259765625,5.408501550292969,14.854961832061068,-16.16793893129771,-13.938931297709924,-10.582371337890624,0.9457096557617187,2.463633508300781,-6.67175572519084,28.38167938931298,-7.251908396946565,0.0
12.480000495910645,-9.713276135253906,4.541800549316406,5.147533569335937,0.8702290076335878,-19.0381679389313,-14.290076335877863,-10.060435375976562,3.35188232421875,1.5921441040039062,-20.549618320610687,26.229007633587788,-6.412213740458015,0.0
12.490000486373901,-8.66940421142578,3.919308117675781,4.963180041503906,-3.954198473282443,-22.946564885496183,-14.610687022900763,-10.812214697265624,3.2728736694335936,2.7964275390625,-51.847328244274806,36.16793893129771,-3.7251908396946565,0.0
12.500000476837158,-7.841010437011718,2.8012159423828122,5.351040710449219,-10.687022900763358,-29.480916030534353,-14.15267175572519,-13.541604589843748,0.7422025146484375,2.980781066894531,-59.908396946564885,29.587786259541986,-2.6106870229007635,0.0
12.510001182556152,-9.291896643066405,2.0278888061523435,7.326257080078125,-8.931297709923664,-33.32824427480916,-13.786259541984732,-13.129801904296874,0.3112462158203125,4.254496350097656,-66.87022900763358,26.625954198473284,-8.793893129770993,0.0
12.52000117301941,-10.876858142089842,1.47482822265625,8.434772448730468,-12.229007633587786,-49.61832061068702,-12.50381679389313,-15.634136840820311,-2.540247961425781,3.383006945800781,-57.55725190839695,17.34351145038168,-8.854961832061068,0.0
12.530000925064087,-13.429077111816406,0.8667010009765624,10.445901843261717,7.4961832061068705,-61.49618320610687,-10.106870229007633,-15.270218188476562,-4.551377355957031,1.8124106567382812,-39.25190839694657,1.7251908396946565,-12.82442748091603,0.0
12.540000677108765,-13.539210388183593,-5.142745166015625,9.193734375,62.36641221374046,-62.717557251908396,1.9389312977099236,-13.860033410644531,-2.5163059448242184,-1.9943699829101562,-9.938931297709924,-4.473282442748092,-17.17557251908397,0.0
12.5500009059906,-15.066711047363281,0.040701428222656245,10.702081420898438,86.09160305343511,-78.1526717557252,-2.9923664122137406,-12.722787622070312,-0.9983820922851562,-3.2704794677734372,-15.801526717557252,-6.809160305343512,-14.885496183206106,0.0
12.560000896453857,-18.81363664550781,2.844311572265625,11.235988391113281,67.96946564885496,-103.19083969465649,-7.648854961832061,-9.255983618164063,1.6304513305664061,-3.9839515624999997,-15.358778625954198,-1.9236641221374047,-9.48091603053435,0.0
12.570000648498535,-19.998766467285154,2.8203695556640622,8.820238916015624,41.64885496183206,-131.206106870229,-7.572519083969466,-9.176974963378905,0.27293898925781246,-4.089296435546875,-7.450381679389313,8.80916030534351,-3.572519083969466,0.0
12.580000638961792,-18.191144213867187,2.5546131713867184,6.026205578613281,14.977099236641221,-150.29007633587787,-9.679389312977099,-6.315903979492187,0.105344873046875,-3.42849677734375,-5.740458015267175,19.419847328244273,-2.6564885496183206,0.0
12.590000867843628,-16.409858178710937,2.4947581298828125,2.185906115722656,-11.374045801526718,-163.22137404580153,-12.366412213740459,-7.513004809570312,-1.8124106567382812,-3.785232824707031,4.824427480916031,20.015267175572518,-0.4580152671755725,0.0
12.600000381469727,-14.712369201660156,2.1021090576171875,-0.5865794067382812,-27.801526717557252,-163.2824427480916,-12.290076335877863,-8.21690009765625,-2.741360900878906,-3.399766357421875,12.595419847328245,28.763358778625953,1.5267175572519085,0.0
12.610000610351562,-12.126631408691406,1.2832920898437499,-2.4013842651367185,-30.68702290076336,-152.27480916030535,-7.022900763358779,-9.430760339355468,-2.8419173706054686,-3.124433166503906,25.954198473282442,33.69465648854962,5.038167938931298,0.0
12.62000060081482,-6.732495068359374,-2.3319524169921872,-3.9264907226562498,-9.450381679389313,-128.5648854961832,1.297709923664122,-9.830592016601562,-2.722207287597656,-2.616862414550781,36.29007633587786,40.01526717557252,8.290076335877863,0.0
12.630000591278076,-7.433996154785156,-0.3902548706054687,-2.7269956909179687,-17.64885496183206,-115.08396946564885,-1.6793893129770991,-11.085153686523437,-2.987963671875,-1.6424223388671875,50.595419847328245,44.213740458015266,10.83969465648855,0.0
12.640000581741333,-6.900089184570312,-3.294421484375,-2.6001030029296874,8.50381679389313,-87.63358778625954,5.083969465648855,-10.539275708007812,-0.6344634399414062,-1.3263877197265623,54.48854961832061,43.80152671755725,14.030534351145038,0.0
12.65000033378601,-6.325480786132812,-1.7693150268554687,-2.5546131713867184,36.94656488549618,-56.58015267175573,7.633587786259542,-11.566388220214844,0.17477672119140625,-0.2920926025390625,43.69465648854962,47.61832061068702,18.27480916030534,0.0
12.660001039505005,-6.387730029296875,0.00239420166015625,-2.272097375488281,46.3206106870229,-34.48854961832061,7.8320610687022905,-9.871293444824218,0.9600748657226562,1.7525556152343749,22.702290076335878,47.00763358778626,20.35114503816794,0.0
12.670000553131104,-7.003039855957031,1.9967641845703124,-1.20667763671875,41.786259541984734,-16.625954198473284,6.534351145038168,-10.711658227539061,-0.97683427734375,1.189918225097656,13.786259541984732,45.43511450381679,20.641221374045802,0.0
12.68000078201294,-6.926425402832031,3.806780639648437,-0.8906430175781249,21.893129770992367,-8.244274809160306,5.206106870229007,-10.079588989257813,-0.7541735229492187,1.7429788085937499,9.938931297709924,40.0763358778626,18.793893129770993,0.0
12.690000295639038,-2.6408044311523438,-0.23702596435546874,-3.833116857910156,12.396946564885496,1.7251908396946565,10.870229007633588,-10.160991845703125,-2.6958710693359373,3.5338416503906247,-20.458015267175572,34.36641221374046,15.709923664122137,0.0
12.700000524520874,-5.736507177734374,3.83072265625,-1.1731588134765625,-14.916030534351146,14.396946564885496,1.0687022900763359,-9.528922607421874,-2.5713725830078125,2.8945898071289062,-14.763358778625955,31.221374045801525,11.786259541984732,0.0
12.71000075340271,-5.963956335449218,3.7038299682617186,-1.2785036865234374,-47.61832061068702,18.946564885496183,-0.6870229007633588,-11.087547888183593,-5.717353564453124,2.6791116577148437,-23.52671755725191,23.068702290076335,11.648854961832061,0.0
12.720000505447388,-5.908889697265625,4.07971962890625,-1.3072341064453123,-70.06106870229007,25.389312977099237,-0.0916030534351145,-9.366116894531249,-3.737348791503906,1.697488977050781,-8.412213740458014,14.65648854961832,4.320610687022901,0.0
12.730000495910645,-4.072537023925781,1.9033903198242186,-2.1906945190429687,-77.64885496183206,38.534351145038165,5.175572519083969,-8.738836059570312,-2.442085693359375,0.82360537109375,-11.694656488549619,12.717557251908397,0.4732824427480916,0.0
12.74000072479248,-4.714183068847656,4.165910888671875,-1.350329736328125,-106.18320610687023,38.35114503816794,2.8702290076335877,-9.069235888671875,-1.6400281372070311,0.08858546142578125,-14.091603053435115,11.267175572519085,-1.7251908396946565,0.0
12.750000476837158,-4.055777612304687,-0.8451531860351562,-0.35194764404296874,-103.72519083969466,57.17557251908397,10.854961832061068,-8.947131604003905,-1.199495031738281,-0.44053310546874996,-19.389312977099237,12.183206106870228,-2.3053435114503817,0.0
12.760000705718994,-2.3511060302734372,-4.199429711914062,-0.4836287353515625,-84.68702290076335,75.66412213740458,12.580152671755725,-9.524134204101562,-1.8315642700195311,-0.23702596435546874,-17.206106870229007,13.251908396946565,-2.0916030534351147,0.0
12.77000093460083,-3.366247534179687,-5.7317187744140625,1.0726023437499999,-67.20610687022901,95.43511450381679,6.9465648854961835,-9.900023864746093,-1.85790048828125,-0.3711012573242187,-10.977099236641221,12.290076335877863,-0.8396946564885496,0.0
12.780000686645508,-4.4005426513671875,-7.031770275878906,3.411737365722656,-48.916030534351144,109.5114503816794,-1.4351145038167938,-9.76116016845703,-1.6711527587890624,0.3854664672851562,-4.152671755725191,11.679389312977099,0.3969465648854962,0.0
12.790000915527344,-5.7843912109375,-6.76122548828125,6.519411120605469,-19.908396946564885,120.6412213740458,-9.19083969465649,-10.503362683105468,-2.5043349365234375,0.1867477294921875,3.3893129770992365,10.50381679389313,3.2213740458015265,0.0
12.800000429153442,-8.722076647949219,-3.4739866088867184,9.323021264648437,4.748091603053435,122.12213740458016,-14.717557251908397,-10.321403356933594,-1.656787548828125,0.21308394775390624,13.526717557251908,6.244274809160306,4.427480916030534,0.0
12.810000896453857,-6.56968935546875,-3.2920272827148436,8.71489404296875,43.038167938931295,127.57251908396947,-9.572519083969466,-9.674968908691406,-0.7398083129882812,-0.2609679809570312,13.007633587786259,4.458015267175573,5.206106870229007,0.0
12.820000648498535,-10.244788903808594,1.6208745239257811,9.947907897949218,53.404580152671755,121.55725190839695,-16.15267175572519,-8.367734802246094,1.2569558715820313,-0.5147533569335937,0.44274809160305345,9.297709923664122,4.595419847328245,0.0
12.830000400543213,-11.949460485839843,3.0741549316406247,9.516951599121093,30.83969465648855,102.9618320610687,-23.00763358778626,-9.641450085449218,-0.43574470214843747,0.14604630126953125,-9.312977099236642,9.86259541984733,9.206106870229007,0.0
12.840000629425049,-11.051634863281249,1.867477294921875,7.45075556640625,15.770992366412214,85.17557251908397,-23.862595419847327,-8.95670841064453,-0.45968671875,-0.13646949462890623,-16.091603053435115,12.82442748091603,8.595419847328245,0.0
12.850000619888306,-11.918335864257811,0.9816226806640624,7.663839514160156,12.732824427480915,76.3206106870229,-22.396946564885496,-10.565611926269531,-1.7669208251953124,-0.5746083984375,-15.236641221374045,14.82442748091603,10.51908396946565,0.0
12.860000610351562,-11.001356628417968,-0.43574470214843747,6.368576416015625,18.18320610687023,65.25190839694656,-20.946564885496183,-8.88009395751953,0.016759411621093748,-1.7908628417968748,-16.748091603053435,11.038167938931299,9.099236641221374,0.0
12.87000060081482,-11.200075366210937,-0.5578489868164063,5.717353564453124,27.587786259541986,57.908396946564885,-17.69465648854962,-9.916783276367187,-1.8459294799804686,-1.5729904907226562,-18.18320610687023,14.01526717557252,12.931297709923664,0.0
12.880000591278076,-10.766724865722656,-0.2059013427734375,4.996698864746094,34.58015267175573,52.0,-14.183206106870228,-9.45470235595703,-2.578555187988281,-1.024718310546875,-18.091603053435115,21.587786259541986,14.778625954198473,0.0
12.890000581741333,-8.796296899414061,-0.689530078125,2.549824768066406,42.56488549618321,45.587786259541986,-6.809160305343512,-8.78432589111328,-1.6065093139648436,-1.5801730957031248,-6.549618320610687,16.80916030534351,15.267175572519085,0.0
12.900000810623169,-9.299079248046874,1.687912170410156,1.3575123413085937,46.80916030534351,48.091603053435115,-4.656488549618321,-9.821015209960937,-2.5737667846679684,-1.0630255371093749,-2.045801526717557,24.061068702290076,17.49618320610687,0.0
12.910000562667847,-10.218452685546874,3.0430303100585934,0.814028564453125,48.97709923664122,54.30534351145038,2.381679389312977,-10.433930834960936,-3.1507693847656246,-1.3407529296874998,6.870229007633588,26.091603053435115,19.801526717557252,0.0
12.920000791549683,-9.49300958251953,1.2138602416992186,1.4173673828125,50.93129770992366,60.6412213740458,11.86259541984733,-9.938331091308592,-2.269703173828125,-0.7565677246093749,13.435114503816793,23.374045801526716,19.954198473282442,0.0
12.93000054359436,-11.180921752929686,0.6177040283203125,4.932055419921875,52.82442748091603,65.34351145038168,12.396946564885496,-7.876923461914062,1.5083470458984374,-1.9656395629882812,8.183206106870228,23.389312977099237,16.702290076335878,0.0
12.940000772476196,-14.137760803222655,1.6160861206054686,7.896077075195312,48.0,58.80916030534351,13.114503816793894,-9.481038574218749,0.5195417602539062,-0.4333505004882812,-9.038167938931299,33.98473282442748,20.580152671755727,0.0
12.950000762939453,-15.729904907226562,3.835511059570312,7.9846625366210935,42.67175572519084,50.13740458015267,17.419847328244273,-10.259154113769531,-0.296881005859375,-0.21787235107421873,-19.49618320610687,36.33587786259542,23.022900763358777,0.0
12.96000051498413,-16.620547924804686,6.524199523925781,7.606378674316406,7.114503816793893,30.68702290076336,13.267175572519085,-10.218452685546874,-0.9050082275390624,-0.143652099609375,-19.31297709923664,33.48091603053435,23.068702290076335,0.0
12.970000743865967,-15.677232470703125,6.373364819335937,6.8210805297851556,-33.7557251908397,6.8396946564885495,9.114503816793894,-11.44667813720703,-2.3056161987304686,0.7302315063476562,-18.671755725190838,29.83206106870229,23.099236641221374,0.0
12.980002880096436,-11.614272253417967,0.3112462158203125,3.912125512695312,-49.770992366412216,-8.488549618320612,9.84732824427481,-12.90235274658203,-4.671087438964843,1.898601916503906,-13.022900763358779,25.908396946564885,24.366412213740457,0.0
12.99000072479248,-8.731653454589843,-1.1444283935546875,2.5378537597656248,-28.595419847328245,-0.04580152671755725,7.236641221374046,-9.600748657226562,-0.6177040283203125,-0.44053310546874996,-5.00763358778626,14.244274809160306,18.671755725190838,0.0
13.000000715255737,-8.540117321777343,1.5753846923828123,0.8475473876953125,-29.83206106870229,1.4198473282442747,2.1374045801526718,-10.05564697265625,-0.55545478515625,-0.488417138671875,-9.022900763358779,9.572519083969466,18.564885496183205,0.0
13.010000705718994,-7.9104422851562495,3.1507693847656246,-0.29927520751953124,-34.595419847328245,5.038167938931298,7.297709923664122,-10.137049829101562,-0.316034619140625,-1.0103531005859374,-10.625954198473282,7.175572519083969,18.763358778625953,0.0
13.02000093460083,-6.828263134765624,2.901772412109375,-0.8571241943359375,-37.6793893129771,10.091603053435115,13.770992366412214,-9.593566052246093,-0.009576806640625,-1.180341418457031,-10.717557251908397,5.312977099236641,18.244274809160306,0.0
13.030001163482666,-6.4739212890625,2.128445275878906,-0.3758896606445312,-38.68702290076336,16.641221374045802,20.427480916030536,-9.507374792480467,0.2561795776367187,-1.1468225952148436,-12.320610687022901,3.9236641221374047,17.49618320610687,0.0
13.040000915527344,-7.321468676757812,1.3168109130859373,0.8499415893554687,-38.16793893129771,20.137404580152673,25.16030534351145,-9.373299499511718,0.40222587890625,-1.675941162109375,-14.442748091603054,3.5877862595419847,16.27480916030534,0.0
13.05000114440918,-7.572859851074218,0.086191259765625,1.5777788940429687,-34.68702290076336,20.9618320610687,26.946564885496183,-9.193734375,0.5578489868164063,-1.6208745239257811,-15.755725190839694,3.2213740458015265,15.19083969465649,0.0
13.060000896453857,-7.6231380859375,-1.0199299072265624,1.6232687255859375,-27.6793893129771,21.572519083969464,25.984732824427482,-9.423577734375,0.6751648681640625,-1.924938134765625,-15.282442748091603,2.4732824427480917,15.374045801526718,0.0
13.070000886917114,-8.497021691894531,-1.0654197387695312,1.886630908203125,-21.51145038167939,21.81679389312977,22.0,-9.358934289550781,0.6943184814453125,-1.649604943847656,-15.679389312977099,1.0076335877862594,15.633587786259541,0.0
13.080000877380371,-9.445125549316407,-1.16837041015625,1.7597382202148437,-15.877862595419847,20.82442748091603,18.80916030534351,-9.859322436523437,0.43574470214843747,-1.678335363769531,-13.206106870229007,0.7633587786259542,16.35114503816794,0.0
13.090000867843628,-9.277531433105468,-1.9752163696289062,1.3239935180664062,-3.633587786259542,21.450381679389313,17.740458015267176,-9.184157568359375,0.9145850341796874,-1.599326708984375,-7.221374045801527,-3.1908396946564888,16.198473282442748,0.0
13.100000858306885,-10.651803186035156,-1.13006318359375,1.8722656982421875,13.068702290076336,25.83206106870229,15.068702290076336,-8.657433203124999,2.128445275878906,-1.8219874633789062,-11.923664122137405,-3.6793893129770994,13.786259541984732,0.0
13.110000848770142,-10.771513269042968,1.3239935180664062,1.927332336425781,21.221374045801525,28.106870229007633,12.01526717557252,-10.04846436767578,0.6392518432617187,-1.6136919189453125,-16.442748091603054,1.8778625954198473,16.80916030534351,0.0
13.120000839233398,-12.330138549804687,3.478775012207031,2.7461493041992187,13.267175572519085,24.47328244274809,9.450381679389313,-9.734823950195311,0.9097966308593749,-1.5322890624999999,-14.992366412213741,0.9007633587786259,17.31297709923664,0.0
13.130000829696655,-11.994950317382811,5.288791467285156,2.770091320800781,1.83206106870229,18.3206106870229,9.587786259541986,-9.969455712890625,0.6560112548828124,-1.5298948608398437,-13.587786259541986,0.9923664122137404,17.740458015267176,0.0
13.14000129699707,-9.7683427734375,2.961627453613281,0.9337386474609375,-11.465648854961833,8.274809160305344,13.603053435114504,-9.701305126953125,1.2138602416992186,-2.142810485839844,-9.587786259541986,0.4580152671755725,16.65648854961832,0.0
13.150000810623169,-9.18655177001953,2.3965958618164063,1.0917559570312498,-9.145038167938932,8.061068702290076,13.694656488549619,-10.522516296386717,0.086191259765625,-1.5777788940429687,-8.305343511450381,1.4351145038167938,16.793893129770993,0.0
13.160000801086426,-9.382876306152344,2.4205378784179685,1.350329736328125,-9.893129770992367,7.404580152671755,12.80916030534351,-9.907206469726562,0.3806780639648437,-1.2880804931640624,-14.01526717557252,0.5801526717557252,15.923664122137405,0.0
13.170001029968262,-9.210493786621093,2.442085693359375,1.3527239379882812,-12.01526717557252,5.190839694656488,13.816793893129772,-9.823409411621093,2.3151930053710936,-1.8148048583984373,-16.18320610687023,-1.7404580152671756,13.633587786259541,0.0
13.180001020431519,-8.89924757080078,2.398990063476562,1.3335703247070312,-12.458015267175572,4.412213740458015,14.290076335877863,-10.884040747070312,0.6967126831054687,-1.9608511596679685,-9.465648854961833,3.1908396946564888,16.076335877862597,0.0
13.190000772476196,-8.604760766601562,1.3048399047851562,1.2665326782226562,-11.099236641221374,4.030534351145038,12.83969465648855,-10.996568225097656,0.928950244140625,-1.2785036865234374,6.1679389312977095,3.877862595419847,16.259541984732824,0.0
13.200001239776611,-9.095572106933593,0.46686932373046874,0.9217676391601562,-8.305343511450381,3.7557251908396947,10.442748091603054,-10.386046801757812,1.7190367919921874,-1.1540052001953125,2.4732824427480917,2.0916030534351147,15.541984732824428,0.0
13.21000051498413,-9.260772021484375,-0.1197100830078125,0.8643067993164062,-4.152671755725191,3.9083969465648853,7.175572519083969,-10.575188732910156,2.003946789550781,-1.1324573852539062,2.351145038167939,1.2213740458015268,15.694656488549619,0.0
13.220000982284546,-9.337386474609374,0.14125789794921875,0.7038952880859375,1.3435114503816794,4.763358778625954,3.3587786259541983,-10.122684619140625,2.0877438476562498,-0.967257470703125,-1.2366412213740459,0.2900763358778626,15.297709923664122,0.0
13.230000972747803,-9.674968908691406,0.21308394775390624,0.1867477294921875,8.717557251908397,6.396946564885496,1.1603053435114503,-9.753977563476562,2.3439234252929686,-1.0654197387695312,-5.6183206106870225,0.3816793893129771,14.702290076335878,0.0
13.24000072479248,-9.789890588378906,0.5746083984375,-0.06943184814453125,12.595419847328245,8.16793893129771,-1.3740458015267176,-9.70369932861328,1.936909143066406,-1.3239935180664062,-8.931297709923664,1.1755725190839694,15.145038167938932,0.0
13.250000715255737,-9.612719665527344,1.3144167114257812,-0.2561795776367187,14.748091603053435,9.725190839694656,-3.8625954198473282,-9.447519750976562,1.9105729248046874,-1.5538368774414062,-15.17557251908397,1.083969465648855,14.122137404580153,0.0
13.260000944137573,-9.80665,1.8507178833007811,-0.2561795776367187,14.900763358778626,11.206106870229007,-5.526717557251908,-10.089165795898436,0.9720458740234375,-1.465251416015625,-16.15267175572519,1.3435114503816794,13.068702290076336,0.0
13.270001411437988,-9.835380419921874,2.118868469238281,-0.30406361083984373,15.022900763358779,12.412213740458014,-5.694656488549619,-10.342951171874999,0.6823474731445313,-1.5945383056640625,-16.65648854961832,-0.7175572519083969,10.625954198473282,0.0
13.280000925064087,-9.686939916992188,2.24097275390625,0.11013327636718749,13.099236641221374,12.870229007633588,-5.603053435114504,-10.335768566894531,0.28730419921875,-0.39743747558593745,-17.17557251908397,-2.717557251908397,8.931297709923664,0.0
13.290001392364502,-9.481038574218749,2.446874096679687,0.33039982910156246,10.961832061068701,12.580152671755725,-6.290076335877862,-10.539275708007812,-0.0718260498046875,-0.07900865478515624,-15.587786259541986,-4.030534351145038,7.3893129770992365,0.0
13.3000009059906,-9.897629663085937,2.6144682128906247,0.36631285400390623,8.030534351145038,12.534351145038167,-6.885496183206107,-12.136208215332031,-3.258508459472656,1.407790576171875,-5.4961832061068705,-7.404580152671755,6.67175572519084,0.0
13.310001134872437,-9.68454571533203,2.7581203125,0.4165910888671875,6.0,12.778625954198473,-6.213740458015267,-10.86009873046875,-2.080561242675781,0.7422025146484375,14.885496183206106,-16.458015267175572,1.4961832061068703,0.0
13.320000648498535,-9.679757312011718,2.5043349365234375,0.39264907226562495,2.885496183206107,13.16030534351145,-5.236641221374046,-11.475408557128906,-2.461239306640625,1.6831237670898436,27.46564885496183,-27.31297709923664,0.12213740458015267,0.0
13.330000877380371,-9.552864624023437,2.559401574707031,0.6823474731445313,-1.1755725190839694,13.236641221374045,-5.603053435114504,-10.484209069824217,-0.3112462158203125,0.6727706665039062,42.51908396946565,-39.23664122137404,-5.8320610687022905,0.0
13.340000867843628,-9.495403784179686,2.8898014038085935,0.4285620971679687,-5.755725190839694,13.679389312977099,-6.183206106870229,-8.513781103515624,3.3542765258789062,-0.689530078125,31.572519083969464,-38.88549618320611,-10.50381679389313,0.0
13.350000619888306,-10.144232434082031,3.404554760742187,0.7757213378906249,-13.389312977099237,13.404580152671755,-6.137404580152672,-9.993397729492187,0.7445967163085937,-0.16998831787109375,15.16030534351145,-32.16793893129771,-7.099236641221374,0.0
13.360000848770142,-9.926360083007811,3.294421484375,0.9313444458007812,-18.885496183206108,11.664122137404581,-3.9389312977099236,-9.82580361328125,0.5458779785156249,-0.5027823486328125,18.259541984732824,-38.51908396946565,-6.809160305343512,0.0
13.370000839233398,-9.849745629882811,2.693476867675781,0.9409212524414062,-22.30534351145038,11.435114503816793,-1.8015267175572518,-9.787496386718749,0.689530078125,-0.25139117431640623,23.419847328244273,-38.152671755725194,-9.389312977099237,0.0
13.380000591278076,-9.325415466308593,2.2290017456054687,1.3192051147460937,-25.389312977099237,10.83969465648855,-1.297709923664122,-8.360552197265624,2.849099975585937,-0.5291185668945312,13.389312977099237,-36.85496183206107,-11.770992366412214,0.0
13.390000820159912,-9.773131176757811,1.4915876342773438,1.5705962890624998,-27.099236641221374,9.725190839694656,-1.3435114503816794,-8.52335791015625,1.5275006591796874,-0.25139117431640623,-0.44274809160305345,-33.74045801526717,-10.549618320610687,0.0
13.400001049041748,-9.65342109375,0.8547299926757812,1.8459294799804686,-26.931297709923665,8.564885496183207,-2.183206106870229,-9.466673364257812,-0.14604630126953125,-0.6536170532226562,2.717557251908397,-32.030534351145036,-8.778625954198473,0.0
13.410000801086426,-9.435548742675781,0.3854664672851562,1.7764976318359373,-22.0,7.908396946564886,-3.267175572519084,-9.947907897949218,-0.24660277099609373,0.40222587890625,14.16793893129771,-37.00763358778626,-9.923664122137405,0.0
13.420000791549683,-9.423577734375,-0.06464344482421874,2.1068974609374997,-15.938931297709924,7.709923664122138,-4.824427480916031,-9.421183532714844,1.7022773803710936,-0.5291185668945312,20.82442748091603,-38.29007633587786,-13.603053435114504,0.0
13.43000078201294,-9.560047229003906,0.4165910888671875,2.2553379638671873,-8.351145038167939,7.7251908396946565,-6.305343511450381,-7.860164050292968,3.210624426269531,-0.6536170532226562,5.450381679389313,-36.274809160305345,-13.86259541984733,0.0
13.440001249313354,-9.557653027343749,1.1013327636718748,2.2194249389648437,-2.4122137404580153,6.641221374045801,-5.969465648854962,-9.184157568359375,1.9991583862304687,0.42377369384765623,-15.206106870229007,-32.29007633587786,-10.183206106870228,0.0
13.450000524520874,-14.678850378417968,7.086836914062499,5.044582897949218,-11.603053435114504,8.229007633587786,-11.435114503816793,-10.20169327392578,0.07900865478515624,0.040701428222656245,-12.091603053435115,-23.572519083969464,-7.801526717557252,0.0
13.46000051498413,-12.136208215332031,5.552153649902343,3.1220389648437497,-44.47328244274809,-13.312977099236642,-6.870229007633588,-8.808267907714843,1.6639701538085936,0.3232172241210937,-2.4427480916030535,-29.358778625954198,-9.679389312977099,0.0
13.470000505447388,-9.184157568359375,1.2856862915039062,1.0678139404296874,-40.900763358778626,-17.16030534351145,2.351145038167939,-9.524134204101562,-0.9528922607421875,-0.09337386474609374,-3.8473282442748094,-31.404580152671755,-10.534351145038167,0.0
13.480000495910645,-8.192958081054687,0.16280571289062498,0.7900865478515624,-19.6793893129771,-7.801526717557252,2.8091603053435112,-9.562441430664062,-0.10773907470703124,0.7422025146484375,-2.3969465648854964,-34.16793893129771,-13.129770992366412,0.0
13.490000486373901,-9.291896643066405,1.5777788940429687,0.93852705078125,-26.53435114503817,-10.549618320610687,-0.6564885496183206,-8.729259252929687,0.12689268798828124,-0.8571241943359375,-9.49618320610687,-32.045801526717554,-14.458015267175572,0.0
13.500000476837158,-8.552088330078124,0.8212111694335937,0.6560112548828124,-14.061068702290076,-3.969465648854962,2.717557251908397,-6.5218053222656245,3.758896606445312,-1.5155296508789062,-14.900763358778626,-28.38167938931298,-15.755725190839694,0.0
13.510000705718994,-7.8721350585937495,0.3136404174804687,0.5458779785156249,-2.4732824427480917,4.33587786259542,1.5877862595419847,-9.176974963378905,0.679953271484375,-0.22026655273437498,-32.595419847328245,-17.282442748091604,-11.694656488549619,0.0
13.520000696182251,-10.551246716308594,3.5913024902343746,1.9967641845703124,-15.526717557251908,1.2671755725190839,-3.6030534351145036,-10.139444030761718,-0.6679822631835937,0.35673604736328124,-27.328244274809162,-19.938931297709924,-12.16793893129771,0.0
13.530001163482666,-9.4618849609375,2.061407629394531,1.4532804077148436,-17.66412213740458,0.44274809160305345,0.030534351145038167,-10.096348400878906,-1.2234370483398436,0.5578489868164063,-25.96946564885496,-20.38167938931298,-15.038167938931299,0.0
13.540000915527344,-8.932766394042968,1.3718775512695311,2.0973206542968748,-21.282442748091604,-0.8854961832061069,-0.5648854961832062,-9.200916979980468,0.3854664672851562,0.03591302490234375,-25.87786259541985,-22.076335877862597,-17.61832061068702,0.0
13.55000114440918,-9.380482104492186,1.0486603271484374,3.0980969482421874,-17.435114503816795,-1.7709923664122138,-2.8396946564885495,-9.840168823242188,-0.9241618408203125,0.5746083984375,-25.19083969465649,-19.404580152671755,-17.404580152671755,0.0
13.560000658035278,-9.560047229003906,0.603338818359375,3.6655227416992187,-11.801526717557252,-5.175572519083969,-3.3282442748091605,-9.358934289550781,-0.4381389038085937,-0.3016694091796875,-9.450381679389313,-29.404580152671755,-18.946564885496183,0.0
13.570000648498535,-9.557653027343749,0.6464344482421874,3.909731311035156,0.4732824427480916,-7.206106870229007,-3.786259541984733,-10.223241088867187,-1.7549498168945312,0.02633621826171875,4.625954198473282,-24.53435114503817,-20.137404580152673,0.0
13.580000638961792,-9.696516723632811,1.6065093139648436,3.9624037475585934,7.221374045801527,-10.83969465648855,-3.7099236641221376,-9.72285294189453,-1.8028338500976562,1.0654197387695312,11.068702290076336,-31.541984732824428,-21.358778625954198,0.0
13.590000629425049,-9.270348828125,2.001552587890625,3.201047619628906,14.427480916030534,-14.01526717557252,-2.50381679389313,-9.10993731689453,-0.622492431640625,0.39983167724609375,17.83206106870229,-34.50381679389313,-23.755725190839694,0.0
13.600000619888306,-9.586383447265625,2.7461493041992187,2.703053674316406,12.80916030534351,-16.717557251908396,-2.549618320610687,-9.469067565917967,-0.023942016601562498,0.22744915771484372,16.549618320610687,-31.419847328244273,-23.893129770992367,0.0
13.610000610351562,-8.987833032226561,2.123656872558594,2.195482922363281,10.01526717557252,-18.99236641221374,-2.2595419847328246,-7.601590270996093,0.4908113403320312,0.6009446166992187,8.687022900763358,-29.52671755725191,-23.31297709923664,0.0
13.62000060081482,-8.619125976562499,1.9919757812499999,2.262520568847656,7.297709923664122,-20.427480916030536,-3.1603053435114505,-6.138733056640625,3.246537451171875,-0.02633621826171875,2.6717557251908395,-25.52671755725191,-25.236641221374047,0.0
13.630000352859497,-8.856151940917968,1.697488977050781,2.300827795410156,6.33587786259542,-21.16030534351145,-2.6106870229007635,-9.282319836425781,0.22505495605468748,0.14125789794921875,-0.8244274809160306,-17.923664122137403,-20.35114503816794,0.0
13.640000581741333,-8.473079675292968,1.3646949462890625,2.0781670410156248,9.541984732824428,-20.80916030534351,-1.618320610687023,-8.889670764160156,0.1867477294921875,0.4070142822265625,2.717557251908397,-16.076335877862597,-20.0,0.0
13.65000033378601,-8.468291271972657,1.9656395629882812,2.152387292480469,12.473282442748092,-20.900763358778626,-1.7709923664122138,-8.786720092773438,-0.22744915771484372,0.44053310546874996,4.793893129770993,-16.30534351145038,-20.076335877862597,0.0
13.660000801086426,-9.758765966796874,3.8474820678710935,2.999934680175781,3.450381679389313,-24.427480916030536,-2.6564885496183206,-8.863334545898438,0.14604630126953125,0.28969840087890625,6.99236641221374,-16.091603053435115,-20.076335877862597,0.0
13.670000553131104,-9.425971936035156,3.1268273681640624,3.4763808105468748,5.145038167938932,-25.46564885496183,-0.5190839694656488,-8.693346228027343,0.4165910888671875,-0.0909796630859375,8.183206106870228,-15.007633587786259,-19.099236641221374,0.0
13.680001020431519,-9.991003527832031,2.978386865234375,4.0988732421875,-1.0229007633587786,-28.83969465648855,-1.5725190839694656,-8.70771143798828,0.9792284790039062,-0.16041151123046873,8.65648854961832,-13.740458015267176,-18.885496183206108,0.0
13.690000534057617,-9.358934289550781,1.7549498168945312,3.23696064453125,-4.351145038167939,-37.05343511450382,-0.32061068702290074,-9.023746057128905,0.5913678100585937,0.14125789794921875,7.969465648854962,-11.511450381679388,-17.389312977099237,0.0
13.700000762939453,-9.22485899658203,0.7924807495117187,3.2225954345703123,1.0076335877862594,-34.30534351145038,-0.030534351145038167,-8.892064965820312,0.17956512451171874,0.5147533569335937,8.931297709923664,-10.396946564885496,-17.297709923664122,0.0
13.710000276565552,-7.948749511718749,0.33518823242187495,1.2473790649414063,3.66412213740458,-36.88549618320611,-1.4351145038167938,-10.000580334472655,-1.6615759521484375,1.2401964599609374,15.664122137404581,-9.709923664122137,-16.259541984732824,0.0
13.720000743865967,-9.471461767578125,2.0973206542968748,2.2481553588867187,0.7175572519083969,-31.603053435114504,-6.290076335877862,-8.12113203125,-0.3806780639648437,1.0223241088867188,20.3206106870229,-10.961832061068701,-19.66412213740458,0.0
13.730000495910645,-9.066841687011719,2.73896669921875,1.7980454467773437,-5.908396946564886,-33.11450381679389,-7.068702290076335,-9.555258825683593,-0.718260498046875,1.005564697265625,29.61832061068702,-12.870229007633588,-17.587786259541986,0.0
13.740000247955322,-8.870517150878905,2.4588451049804685,1.4341267944335936,-3.3587786259541983,-31.786259541984734,-6.396946564885496,-9.495403784179686,-0.016759411621093748,-0.028730419921875,30.977099236641223,-13.954198473282442,-16.916030534351144,0.0
13.750000476837158,-8.504204296874999,1.35990654296875,1.7549498168945312,-3.0076335877862594,-31.328244274809162,-6.442748091603053,-9.018957653808593,1.7788918334960937,-0.6967126831054687,33.61832061068702,-12.870229007633588,-17.435114503816795,0.0
13.760000705718994,-10.062829577636718,2.070984436035156,4.402936853027343,0.8091603053435115,-26.717557251908396,-9.16030534351145,-8.927977990722656,1.7334020019531249,-0.19153613281249998,17.603053435114504,-3.450381679389313,-16.290076335877863,0.0
13.77000117301941,-8.257601525878906,1.89620771484375,4.240131140136718,2.732824427480916,-31.96946564885496,-9.236641221374045,-9.112331518554686,2.7437551025390623,0.2442085693359375,4.916030534351145,3.1603053435114505,-14.80916030534351,0.0
13.780000686645508,-9.433154541015625,2.6192566162109374,5.023035083007812,4.427480916030534,-31.587786259541986,-10.625954198473282,-9.332598071289063,1.455674609375,1.0103531005859374,-2.8091603053435112,5.969465648854962,-10.442748091603054,0.0
13.790000915527344,-10.079588989257813,3.4524387939453125,5.647921716308593,-0.7175572519083969,-38.10687022900763,-12.961832061068701,-9.74200655517578,0.928950244140625,1.1659762084960936,3.2977099236641223,2.2442748091603053,-8.076335877862595,0.0
13.800000667572021,-8.820238916015624,3.2130186279296873,5.257666845703125,-3.9083969465648853,-47.770992366412216,-13.755725190839694,-9.356540087890625,1.7908628417968748,1.1037269653320312,-1.8015267175572518,6.076335877862595,-9.603053435114504,0.0
13.810000896453857,-8.743624462890624,3.4428619873046875,5.892130285644531,-11.587786259541986,-56.88549618320611,-14.992366412213741,-8.781931689453124,1.1516109985351561,1.0654197387695312,-17.34351145038168,11.664122137404581,-9.618320610687023,0.0
13.820000648498535,-9.885658654785155,3.3710359375,6.957550024414062,-21.52671755725191,-66.7175572519084,-16.870229007633586,-9.5001921875,1.637633935546875,-0.2657563842773437,-14.931297709923664,17.709923664122137,-7.038167938931298,0.0
13.830000638961792,-9.445125549316407,1.908178723144531,6.8210805297851556,-26.47328244274809,-79.83206106870229,-15.099236641221374,-9.718064538574218,3.418919970703125,-0.6512228515624999,-24.442748091603054,22.778625954198475,-5.66412213740458,0.0
13.840000629425049,-9.83777462158203,0.40222587890625,8.1594392578125,-19.49618320610687,-91.29770992366412,-15.16030534351145,-12.459425439453124,1.6256629272460936,0.10773907470703124,-37.541984732824424,31.374045801526716,-4.137404580152672,0.0
13.850000619888306,-10.929530578613281,0.5243301635742187,9.710881933593749,-1.3129770992366412,-102.91603053435115,-15.221374045801527,-11.67652149658203,0.0430956298828125,-0.076614453125,-42.74809160305343,29.923664122137403,-9.435114503816793,0.0
13.860000610351562,-11.97100830078125,-0.9576806640625,9.849745629882811,21.954198473282442,-116.25954198473282,-10.335877862595419,-15.205574743652344,-3.3877953491210935,-0.4429273071289062,-29.83206106870229,30.259541984732824,-15.374045801526718,0.0
13.870000839233398,-13.912705847167969,-2.0781670410156248,10.407594616699217,55.57251908396947,-123.32824427480917,-7.557251908396947,-17.329231616210937,-6.289567761230469,1.3575123413085937,-12.396946564885496,33.38931297709924,-13.053435114503817,0.0
13.880001068115234,-14.279018701171875,-3.469198205566406,8.415618835449218,74.87022900763358,-134.04580152671755,-8.488549618320612,-14.561534497070312,-1.9416975463867185,-0.28969840087890625,14.610687022900763,13.419847328244275,-11.938931297709924,0.0
13.890000820159912,-15.734693310546874,-2.2553379638671873,7.244854223632812,87.52671755725191,-141.26717557251908,-14.122137404580153,-9.923965881347655,1.1444283935546875,-1.8650830932617186,14.870229007633588,11.740458015267176,-10.549618320610687,0.0
13.900001049041748,-16.31169591064453,0.39983167724609375,6.1650692749023435,82.16793893129771,-151.6946564885496,-19.068702290076335,-8.008604553222655,3.0550013183593747,-2.722207287597656,6.488549618320611,15.86259541984733,-7.557251908396947,0.0
13.910000562667847,-16.223110449218748,2.1595698974609374,4.565742565917969,72.07633587786259,-157.206106870229,-18.015267175572518,-8.9255837890625,1.1923124267578125,-1.4053963745117186,-6.396946564885496,21.87786259541985,-2.8244274809160306,0.0
13.920000791549683,-14.295778112792968,2.24097275390625,1.9105729248046874,53.45038167938932,-160.0916030534351,-15.282442748091603,-10.402806213378906,-0.9002198242187499,-1.6112977172851561,-5.267175572519084,21.251908396946565,-0.366412213740458,0.0
13.93000078201294,-12.725181823730468,2.5641899780273434,-0.4860229370117187,39.45038167938932,-150.50381679389312,-11.16030534351145,-11.259930407714844,-5.027823486328125,0.8738836059570312,-0.6412213740458015,23.374045801526716,2.6564885496183206,0.0
13.940001010894775,-10.390835205078124,2.233790148925781,-1.9416975463867185,22.702290076335878,-139.3740458015267,-7.221374045801527,-10.340556970214843,-4.996698864746094,-0.8690952026367187,18.9618320610687,15.267175572519085,2.2900763358778624,0.0
13.950000524520874,-8.418013037109375,1.4125789794921875,-2.528276953125,16.793893129770993,-120.77862595419847,-1.8778625954198473,-9.677363110351562,-3.689464758300781,-2.252943762207031,27.00763358778626,17.72519083969466,2.931297709923664,0.0
13.96000075340271,-5.853823059082031,-0.7565677246093749,-3.488351818847656,12.366412213740459,-98.16793893129771,2.595419847328244,-10.433930834960936,-3.871424084472656,-2.085349645996094,33.48091603053435,22.763358778625953,6.015267175572519,0.0
13.970000743865967,-4.9823336547851556,-2.3965958618164063,-2.6216508178710938,21.66412213740458,-70.4885496183206,3.5877862595419847,-9.239224206542968,-2.4205378784179685,-2.6216508178710938,40.3206106870229,22.610687022900763,4.687022900763359,0.0
13.980000734329224,-4.917690209960937,-2.1260510742187497,-1.9800047729492187,35.603053435114504,-46.458015267175576,4.412213740458015,-8.990227233886719,-0.8714894042968749,-2.2768857788085937,32.42748091603053,24.68702290076336,3.969465648854962,0.0
13.99000072479248,-3.900154504394531,-1.6208745239257811,-1.838746875,50.48854961832061,-18.519083969465647,7.251908396946565,-8.173804467773436,0.1149216796875,-2.039859814453125,10.580152671755725,30.442748091603054,3.0229007633587788,0.0
14.000000715255737,-5.590460876464843,1.5107412475585937,-0.2825157958984375,41.083969465648856,-0.8244274809160306,2.351145038167939,-9.042899670410156,1.1516109985351561,-0.47165772705078124,-13.129770992366412,37.954198473282446,4.244274809160306,0.0
14.010001182556152,-6.042964990234375,2.789244934082031,-0.16759411621093748,20.519083969465647,6.564885496183206,0.732824427480916,-11.398794104003905,-1.3479355346679687,0.08140285644531249,-26.213740458015266,41.66412213740458,9.419847328244275,0.0
14.020000696182251,-6.2584431396484375,3.411737365722656,-0.2561795776367187,-10.0,10.229007633587786,0.9465648854961832,-10.551246716308594,-2.4684219116210935,0.7900865478515624,-19.770992366412212,31.450381679389313,7.908396946564886,0.0
14.030000925064087,-5.691017346191406,2.844311572265625,-0.5530605834960938,-28.412213740458014,17.541984732824428,2.854961832061069,-11.326968054199218,-4.572925170898437,2.664746447753906,-11.557251908396946,29.068702290076335,7.145038167938932,0.0
14.040000438690186,-5.238513232421875,2.8945898071289062,-0.6703764648437499,-53.25190839694657,20.99236641221374,0.4122137404580153,-10.498574279785156,-2.5043349365234375,1.4772224243164063,3.954198473282443,12.549618320610687,2.6259541984732824,0.0
14.0500009059906,-4.527435339355469,2.85388837890625,-0.6105214233398437,-74.62595419847328,27.0381679389313,-1.6793893129770991,-9.672574707031249,-1.707065783691406,1.0414777221679687,-2.519083969465649,13.32824427480916,2.1374045801526718,0.0
14.060203790664673,-4.027047192382812,2.0470424194335934,-0.689530078125,-94.68702290076335,31.52671755725191,-1.6793893129770991,-9.737218151855469,-0.43574470214843747,0.6943184814453125,-2.0916030534351147,9.557251908396946,3.8473282442748094,0.0
14.070000648498535,-3.6056677001953124,0.6943184814453125,-0.16519991455078123,-94.65648854961832,44.25954198473283,0.33587786259541985,-9.375693701171874,-0.36391865234375,0.9744400756835937,-5.66412213740458,10.290076335877863,3.404580152671756,0.0
14.080000877380371,-3.248931652832031,-0.469263525390625,0.0909796630859375,-88.80916030534351,57.93893129770992,1.4961832061068703,-9.90241806640625,-0.469263525390625,0.35194764404296874,-5.511450381679389,9.98473282442748,2.885496183206107,0.0
14.090000629425049,-2.935291235351562,-1.7525556152343749,0.45489831542968745,-81.69465648854961,70.01526717557252,1.6488549618320612,-9.502586389160156,-0.316034619140625,0.2154781494140625,-7.00763358778626,8.595419847328245,3.2519083969465647,0.0
14.100001096725464,-3.4428619873046875,-3.239354846191406,1.0079588989257813,-69.8473282442748,83.93893129770993,0.2900763358778626,-10.084377392578125,-0.9457096557617187,-0.17477672119140625,-8.0,8.793893129770993,4.564885496183206,0.0
14.11000108718872,-4.302380383300781,-4.254496350097656,2.061407629394531,-59.9236641221374,94.83969465648855,-3.6946564885496183,-9.70369932861328,-1.1444283935546875,-0.5626373901367188,-7.572519083969466,7.8320610687022905,4.534351145038168,0.0
14.120000839233398,-5.195417602539062,-4.790797521972656,3.0238766967773434,-45.587786259541986,104.54961832061069,-8.13740458015267,-9.955090502929687,-1.8938135131835936,-0.25139117431640623,-4.702290076335878,7.877862595419847,5.938931297709924,0.0
14.130000829696655,-6.548141540527343,-3.545812658691406,4.522646936035156,-23.083969465648856,113.31297709923665,-11.541984732824428,-9.588777648925781,-2.3247698120117186,-0.28730419921875,0.04580152671755725,6.580152671755725,6.961832061068702,0.0
14.140001058578491,-7.687781530761718,-2.6862942626953124,4.747701892089843,1.8778625954198473,117.3587786259542,-10.748091603053435,-9.763554370117188,-2.808398547363281,-0.0909796630859375,6.259541984732825,5.282442748091603,8.50381679389313,0.0
14.150000810623169,-9.03332286376953,0.9217676391601562,6.950367419433594,18.12213740458015,120.56488549618321,-9.16030534351145,-9.555258825683593,-2.7724855224609373,-0.105344873046875,12.16793893129771,6.015267175572519,7.770992366412214,0.0
14.160001039505005,-10.012551342773437,0.6751648681640625,5.8610056640625,38.51908396946565,122.10687022900764,0.1984732824427481,-9.631873278808593,-1.43652099609375,-0.3112462158203125,13.526717557251908,5.251908396946565,6.961832061068702,0.0
14.170000791549683,-8.731653454589843,0.16041151123046873,5.746083984375,57.55725190839695,123.64885496183206,5.358778625954199,-10.084377392578125,-0.2346317626953125,-1.0606313354492187,9.48091603053435,5.816793893129771,7.679389312977099,0.0
14.180001020431519,-10.39322940673828,0.4644751220703125,5.834669445800781,75.43511450381679,128.3053435114504,7.022900763358779,-9.188945971679686,-0.1005564697265625,-0.6871358764648438,-1.251908396946565,9.98473282442748,9.236641221374045,0.0
14.190001010894775,-11.154585534667968,1.93451494140625,7.175422375488281,74.45801526717557,123.34351145038168,4.748091603053435,-8.008604553222655,4.153939880371094,-2.9640216552734375,-10.351145038167939,11.297709923664122,5.816793893129771,0.0
14.200001001358032,-11.982979309082031,3.306392492675781,7.268796240234375,55.221374045801525,108.97709923664122,0.5038167938931297,-9.306261853027344,0.6607996582031249,-1.3718775512695311,-39.86259541984733,26.717557251908396,12.259541984732824,0.0
14.21000075340271,-10.390835205078124,0.016759411621093748,6.112396838378906,42.58015267175573,95.72519083969466,3.1755725190839694,-11.094730493164063,-1.9129671264648436,-0.6153098266601562,-34.458015267175576,25.709923664122137,18.244274809160306,0.0
14.220000743865967,-10.9175595703125,-1.0702081420898437,5.035006091308594,54.458015267175576,93.22137404580153,6.656488549618321,-9.548076220703125,-3.373430139160156,-0.0047884033203125,-21.96946564885496,19.954198473282442,17.129770992366414,0.0
14.230000495910645,-12.650961572265624,0.737414111328125,5.377376928710937,46.38167938931298,87.5114503816794,6.488549618320611,-9.514557397460937,-2.2744915771484373,-0.6344634399414062,-7.755725190839694,11.908396946564885,13.251908396946565,0.0
14.240000486373901,-15.935806249999999,1.5155296508789062,8.32463917236328,28.366412213740457,75.16030534351145,7.541984732824427,-10.029310754394531,-2.4301146850585935,-0.3806780639648437,-9.374045801526718,15.603053435114504,14.305343511450381,0.0
14.250001192092896,-19.258958154296874,1.8339584716796873,11.911153259277343,23.938931297709924,61.7557251908397,16.580152671755727,-9.804255798339844,-1.8004396484374998,-0.7924807495117187,-2.763358778625954,13.19083969465649,16.12213740458015,0.0
14.260000944137573,-18.193538415527343,1.37906015625,10.967837805175781,23.129770992366414,43.81679389312977,23.206106870229007,-9.56962403564453,-0.38786066894531246,-0.9983820922851562,-3.6946564885496183,12.625954198473282,15.923664122137405,0.0
14.27000093460083,-17.14248388671875,2.6599580444335937,8.652644799804687,3.3587786259541983,17.64885496183206,17.068702290076335,-8.508992700195313,1.5825672973632812,-1.3120225097656248,-14.732824427480915,15.068702290076336,14.15267175572519,0.0
14.280000925064087,-12.567164514160156,0.7517793212890624,5.738901379394531,8.564885496183207,11.404580152671755,17.0381679389313,-9.234435803222656,-0.1292868896484375,-1.2018892333984375,-28.18320610687023,19.64885496183206,19.129770992366414,0.0
14.290000915527344,-11.3389390625,1.0319009155273438,4.604049792480469,2.3053435114503817,4.8396946564885495,7.557251908396947,-9.964667309570311,-2.3630770385742186,-0.7398083129882812,-21.297709923664122,19.083969465648856,21.64885496183206,0.0
14.300000667572021,-9.928754284667969,2.4109610717773435,3.0430303100585934,-10.458015267175572,-1.282442748091603,-2.2442748091603053,-9.727641345214844,-2.6862942626953124,-0.8092401611328125,-15.465648854961833,16.595419847328245,19.404580152671755,0.0
14.310001134872437,-9.586383447265625,5.310339282226562,2.454056701660156,-37.954198473282446,-8.16793893129771,-4.763358778625954,-9.141061938476563,-1.2856862915039062,-1.3527239379882812,-17.389312977099237,12.366412213740459,17.72519083969466,0.0
14.320000886917114,-8.015787158203125,6.335057592773437,1.0797849487304687,-59.31297709923664,-10.442748091603054,2.854961832061069,-9.878476049804688,-1.0989385620117187,-1.5083470458984374,-15.770992366412214,8.82442748091603,18.47328244274809,0.0
14.330000877380371,-7.156268762207031,6.222530114746093,-0.040701428222656245,-73.26717557251908,-5.068702290076335,11.969465648854962,-9.581595043945311,-0.3806780639648437,-1.3239935180664062,-14.625954198473282,7.465648854961832,17.557251908396946,0.0
14.340000867843628,-5.035006091308594,4.316745593261719,-1.2761094848632812,-85.54198473282443,-0.8702290076335878,21.64885496183206,-9.64623848876953,0.3327940307617187,-1.0127473022460938,-14.80916030534351,5.694656488549619,15.664122137404581,0.0
14.350001096725464,-6.332663391113281,1.2761094848632812,-0.36631285400390623,-84.01526717557252,8.259541984732824,29.206106870229007,-9.686939916992188,0.6153098266601562,-0.8020575561523438,-15.938931297709924,4.33587786259542,13.633587786259541,0.0
14.360000610351562,-6.186617089843749,-0.8978256225585937,0.5123591552734374,-59.541984732824424,23.84732824427481,32.916030534351144,-10.007762939453125,0.7781155395507812,-0.63206923828125,-17.206106870229007,2.8702290076335877,12.778625954198473,0.0
14.370000839233398,-8.17141026611328,-0.05746083984375,1.8363526733398436,-59.17557251908397,24.33587786259542,27.16030534351145,-9.83777462158203,2.0278888061523435,-1.0031704956054688,-20.900763358778626,-1.83206106870229,12.213740458015268,0.0
14.380000591278076,-9.107543115234375,-1.158793603515625,2.3774422485351563,-55.6793893129771,23.129770992366414,25.801526717557252,-10.426748229980468,1.678335363769531,-0.9983820922851562,-25.923664122137403,-3.5572519083969465,13.511450381679388,0.0
14.390001058578491,-9.325415466308593,-2.4061726684570313,2.597708801269531,-42.74809160305343,23.16030534351145,22.244274809160306,-10.335768566894531,1.5705962890624998,-0.9864110839843749,-30.0,-5.511450381679389,13.816793893129772,0.0
14.400001049041748,-10.682927807617187,-1.7764976318359373,3.189076611328125,-29.236641221374047,21.14503816793893,15.587786259541986,-10.350133776855468,0.7254431030273437,-1.3263877197265623,-31.46564885496183,-6.900763358778626,14.854961832061068,0.0
14.410000562667847,-11.238382592773437,-0.7613561279296874,3.1220389648437497,-14.900763358778626,19.801526717557252,11.816793893129772,-8.889670764160156,0.181959326171875,-0.9002198242187499,-31.984732824427482,-8.916030534351146,14.717557251908397,0.0
14.420000553131104,-11.724405529785155,0.8379705810546875,3.0693665283203124,-5.694656488549619,16.870229007633586,10.67175572519084,-9.387664709472656,-0.6392518432617187,-0.9145850341796874,-13.34351145038168,-16.519083969465647,14.732824427480915,0.0
14.43000078201294,-11.25514200439453,2.3391350219726563,2.6144682128906247,3.648854961832061,14.625954198473282,12.793893129770993,-8.44674345703125,1.0989385620117187,-1.7022773803710936,-8.412213740458014,-16.564885496183205,13.465648854961833,0.0
14.440000534057617,-10.934318981933593,3.3542765258789062,2.269703173828125,2.0916030534351147,11.022900763358779,14.0,-9.574412438964844,0.41419688720703124,-2.250549560546875,-16.85496183206107,-10.641221374045802,15.16030534351145,0.0
14.450000524520874,-9.926360083007811,3.5577836669921874,1.675941162109375,-0.5801526717557252,9.34351145038168,17.251908396946565,-8.611943371582031,1.7286135986328124,-2.3630770385742186,-22.717557251908396,-1.8931297709923665,15.251908396946565,0.0
14.46000051498413,-9.392453112792968,3.890577697753906,0.9457096557617187,-7.0534351145038165,7.66412213740458,19.66412213740458,-10.304643945312499,-0.565031591796875,-1.2641384765625,-17.72519083969466,2.9770992366412212,18.045801526717558,0.0
14.470000743865967,-8.755595471191405,4.244919543457031,0.1197100830078125,-13.389312977099237,7.343511450381679,21.129770992366414,-9.64623848876953,-0.3591302490234375,-1.2904746948242187,-9.251908396946565,3.3282442748091605,14.442748091603054,0.0
14.480000495910645,-8.59278975830078,4.077325427246094,-0.4572925170898437,-24.213740458015266,7.511450381679389,22.061068702290076,-10.68053360595703,-1.9728221679687499,-0.47644613037109373,-3.6946564885496183,0.04580152671755725,13.206106870229007,0.0
14.490000486373901,-8.372523205566406,3.323151904296875,-0.6919242797851562,-30.50381679389313,9.038167938931299,22.396946564885496,-9.265560424804686,0.7613561279296874,-0.7685387329101562,5.404580152671755,-3.954198473282443,7.66412213740458,0.0
14.500000476837158,-8.91840118408203,3.0262708984374997,-0.39743747558593745,-37.3587786259542,11.664122137404581,23.587786259541986,-10.572794531249999,-0.040701428222656245,-1.0127473022460938,5.587786259541985,-0.9465648854961832,9.389312977099237,0.0
14.510001182556152,-9.215282189941405,2.501940734863281,0.04548983154296875,-42.0,13.725190839694656,23.49618320610687,-10.139444030761718,1.0630255371093749,-0.9145850341796874,10.427480916030534,-1.2061068702290076,9.297709923664122,0.0
14.520000696182251,-9.923965881347655,1.5873557006835937,0.8259995727539062,-45.603053435114504,14.534351145038167,22.442748091603054,-11.233594189453123,0.1484405029296875,-0.5219359619140624,16.38167938931298,-2.4732824427480917,10.80916030534351,0.0
14.530000925064087,-10.108319409179687,0.12689268798828124,1.7334020019531249,-42.54961832061068,14.80916030534351,19.72519083969466,-10.345345373535155,0.5985504150390625,-0.33039982910156246,11.740458015267176,-5.32824427480916,8.763358778625955,0.0
14.540000915527344,-10.120290417480469,-0.6679822631835937,2.142810485839844,-35.80152671755725,14.442748091603054,16.65648854961832,-9.878476049804688,0.5578489868164063,-0.26336218261718747,5.526717557251908,-10.687022900763358,7.251908396946565,0.0
14.5500009059906,-10.16338604736328,-1.0127473022460938,2.157175695800781,-24.778625954198475,14.763358778625955,13.206106870229007,-11.281478222656249,0.09816226806640624,1.005564697265625,10.641221374045802,-10.13740458015267,7.877862595419847,0.0
14.560000658035278,-9.868899243164062,-0.8834604125976562,2.099714855957031,-13.664122137404581,14.366412213740459,8.610687022900763,-8.834604125976561,3.066972326660156,-0.373495458984375,12.992366412213741,-10.320610687022901,5.740458015267175,0.0
14.570000886917114,-9.598354455566406,-0.3711012573242187,1.8650830932617186,-4.442748091603053,14.351145038167939,5.297709923664122,-9.229647399902344,1.927332336425781,-1.5849614990234373,-6.687022900763359,-12.030534351145038,7.190839694656488,0.0
14.580000638961792,-9.622296472167967,0.7062894897460937,1.7262193969726563,1.3587786259541985,13.725190839694656,2.6106870229007635,-9.591171850585937,1.0965443603515623,-0.488417138671875,-7.251908396946565,-1.3129770992366412,10.51908396946565,0.0
14.590000629425049,-9.368511096191405,1.6304513305664061,1.4245499877929686,3.5267175572519083,12.50381679389313,1.0534351145038168,-8.487444885253906,2.109291662597656,-0.93852705078125,-10.16793893129771,-3.404580152671756,8.458015267175572,0.0
14.600000619888306,-9.208099584960937,2.310404602050781,0.8858546142578124,4.0458015267175576,11.465648854961833,1.6946564885496183,-8.264784130859374,2.2361843505859373,-1.1731588134765625,-14.82442748091603,-1.1145038167938932,7.297709923664122,0.0
14.610000610351562,-9.327809667968749,2.9831752685546875,0.5865794067382812,4.6106870229007635,12.748091603053435,3.3740458015267176,-9.986215124511718,-0.02633621826171875,-0.39264907226562495,-16.458015267175572,-0.9007633587786259,8.977099236641221,0.0
14.62000060081482,-9.442731347656249,3.689464758300781,0.047884033203124995,1.4198473282442747,13.450381679389313,5.786259541984733,-9.9981861328125,-0.32561142578124996,-0.09576806640624999,-14.061068702290076,0.07633587786259542,7.541984732824427,0.0
14.630000591278076,-9.411606726074218,4.529829541015625,-0.10295067138671875,-9.099236641221374,12.687022900763358,7.526717557251908,-9.94072529296875,-0.5027823486328125,-0.2825157958984375,-12.351145038167939,-3.1297709923664123,5.465648854961832,0.0
14.640000581741333,-9.586383447265625,3.9169139160156248,-0.0047884033203125,-17.19083969465649,13.282442748091603,9.98473282442748,-10.311826550292968,-0.7924807495117187,-0.21308394775390624,-8.473282442748092,-5.32824427480916,2.9618320610687023,0.0
14.65000057220459,-9.253589416503905,2.2457611572265623,0.19632453613281248,-21.908396946564885,13.404580152671755,12.0,-12.042834350585936,-2.7174188842773437,0.9816226806640624,2.549618320610687,-8.106870229007633,2.8702290076335877,0.0
14.660001039505005,-9.667786303710937,2.2864625854492187,0.9361328491210937,-20.549618320610687,15.725190839694656,9.801526717557252,-9.83777462158203,0.9864110839843749,-0.19871873779296872,12.473282442748092,-19.129770992366414,-4.702290076335878,0.0
14.670000553131104,-10.108319409179687,2.3056161987304686,1.4987702392578124,-25.61832061068702,14.595419847328245,8.213740458015268,-10.71884083251953,0.316034619140625,-0.06943184814453125,9.938931297709924,-20.442748091603054,-5.816793893129771,0.0
14.68000054359436,-10.038887561035155,1.6927005737304686,1.8770541015625,-27.389312977099237,13.053435114503817,7.206106870229007,-11.298237634277344,-0.3399766357421875,0.40222587890625,8.748091603053435,-25.022900763358777,-5.633587786259542,0.0
14.690000534057617,-9.926360083007811,1.1252747802734375,2.308010400390625,-24.625954198473284,12.732824427480915,7.00763358778626,-10.733206042480468,-0.5578489868164063,0.239420166015625,17.633587786259543,-29.87786259541985,-7.66412213740458,0.0
14.700000524520874,-9.8449572265625,1.2785036865234374,2.5546131713867184,-20.702290076335878,11.770992366412214,5.984732824427481,-10.062829577636718,1.0223241088867188,-0.699106884765625,23.51145038167939,-29.16030534351145,-10.320610687022901,0.0
14.71000075340271,-9.428366137695312,1.6041151123046875,2.6001030029296874,-17.236641221374047,10.351145038167939,5.541984732824427,-9.14824454345703,2.999934680175781,-0.4213794921875,15.465648854961833,-26.732824427480917,-11.19083969465649,0.0
14.720000505447388,-9.5384994140625,1.9680337646484374,2.540247961425781,-14.412213740458014,8.870229007633588,6.259541984732825,-10.022128149414062,1.4149731811523436,-1.3814543579101561,-0.32061068702290074,-16.595419847328245,-7.3893129770992365,0.0
14.730000734329224,-9.229647399902344,1.7645266235351562,2.090138049316406,-12.305343511450381,8.091603053435115,8.106870229007633,-8.904035974121093,1.2018892333984375,0.2154781494140625,-9.86259541984733,-13.664122137404581,-5.648854961832061,0.0
14.740000247955322,-8.276755139160155,0.5793968017578125,0.9744400756835937,-6.473282442748092,7.984732824427481,9.17557251908397,-7.917624890136718,1.70467158203125,-1.3670891479492187,-9.98473282442748,-18.549618320610687,-6.748091603053435,0.0
14.750000476837158,-9.425971936035156,1.4125789794921875,1.2210428466796874,0.7022900763358778,12.51908396946565,5.66412213740458,-10.64222637939453,-2.0925322509765625,1.235408056640625,-5.9541984732824424,-15.312977099236642,-2.2595419847328246,0.0
14.760000467300415,-9.995791931152343,1.5514426757812498,1.6472107421875,3.2061068702290076,14.702290076335878,3.66412213740458,-10.12507882080078,-1.3551181396484375,0.36631285400390623,8.870229007633588,-18.3206106870229,-5.541984732824427,0.0
14.77000117301941,-10.261548315429687,1.8219874633789062,1.889025109863281,-1.5267175572519085,12.305343511450381,2.351145038167939,-9.890447058105469,0.23223756103515625,1.16837041015625,19.206106870229007,-24.061068702290076,-6.580152671755725,0.0
14.780000686645508,-10.599130749511717,1.848323681640625,2.437297290039062,-4.549618320610687,11.099236641221374,-0.732824427480916,-9.483432775878907,0.488417138671875,0.13168109130859373,26.061068702290076,-28.83969465648855,-8.076335877862595,0.0
