timestamp,Thigh_L_Acc_X,Thigh_L_Acc_Y,Thigh_L_Acc_Z,Thigh_L_Gyr_X,Thigh_L_Gyr_Y,Thigh_L_Gyr_Z,Thigh_R_Acc_X,Thigh_R_Acc_Y,Thigh_R_Acc_Z,Thigh_R_Gyr_X,Thigh_R_Gyr_Y,Thigh_R_Gyr_Z,gpio_output
10.000000476837158,-7.754819177246094,0.5291185668945312,7.3478048950195305,27.450381679389313,50.99236641221374,-3.3740458015267176,-9.964667309570311,-0.22744915771484372,-1.2904746948242187,8.244274809160306,34.18320610687023,20.610687022900763,0.0
10.010000944137573,-7.685387329101562,0.5458779785156249,7.398083129882812,33.02290076335878,49.66412213740458,-0.6106870229007634,-10.565611926269531,-0.7685387329101562,-0.8595183959960937,4.793893129770993,35.64885496183206,22.748091603053435,1.0
10.020000696182251,-7.7787611938476555,0.1771709228515625,6.713341455078124,36.0763358778626,47.282442748091604,0.7022900763358778,-9.79946739501953,-0.39983167724609375,-0.7900865478515624,-1.9389312977099236,37.587786259541986,20.48854961832061,1.0
10.030000925064087,-8.29351455078125,1.3000515014648437,6.763619689941406,37.038167938931295,46.030534351145036,0.9770992366412213,-9.251195214843749,0.6871358764648438,-1.120486376953125,-15.725190839694656,39.69465648854962,18.198473282442748,1.0
10.040001153945923,-8.432378247070313,0.7134720947265625,6.083666418457031,30.106870229007633,42.717557251908396,1.297709923664122,-12.006921325683592,-4.110844250488281,0.9169792358398436,-20.946564885496183,45.7557251908397,22.900763358778626,1.0
10.0500009059906,-7.845798840332031,-2.2649147705078123,5.9017070922851556,49.80152671755725,50.62595419847328,4.625954198473282,-11.920730065917969,-4.592078784179687,1.2665326782226562,4.564885496183206,31.17557251908397,19.480916030534353,1.0
10.060000658035278,-10.216058483886718,0.86191259765625,5.949591125488281,55.603053435114504,47.221374045801525,2.33587786259542,-10.038887561035155,-2.7150246826171873,0.622492431640625,11.740458015267176,23.206106870229007,12.030534351145038,1.0
10.070000886917114,-11.29344923095703,2.990357873535156,6.222530114746093,38.56488549618321,41.37404580152672,0.8854961832061069,-10.69968721923828,-4.144363073730468,1.4700398193359374,15.389312977099237,17.419847328244273,13.251908396946565,1.0
10.080000877380371,-12.014103930664062,2.6336218261718747,5.961562133789062,24.549618320610687,34.33587786259542,5.633587786259542,-9.203311181640624,-1.5418658691406248,0.3591302490234375,17.221374045801525,7.511450381679389,11.557251908396946,1.0
10.090000867843628,-13.309367028808593,3.517082238769531,6.854599353027344,24.9618320610687,33.63358778625954,16.045801526717558,-9.425971936035156,-1.3072341064453123,-0.1484405029296875,7.404580152671755,7.236641221374046,11.98473282442748,1.0
10.100001335144043,-13.160926525878905,4.441244079589843,6.6702458251953125,17.61832061068702,27.862595419847327,24.30534351145038,-9.76116016845703,-1.2928688964843749,-0.316034619140625,1.0534351145038168,8.778625954198473,12.396946564885496,1.0
10.110000610351562,-12.955025183105468,3.8474820678710935,6.169857678222656,3.49618320610687,22.671755725190838,31.389312977099237,-9.727641345214844,-1.3000515014648437,-0.7134720947265625,-3.6030534351145036,7.557251908396947,12.564885496183207,1.0
10.120001316070557,-11.113884106445312,1.3670891479492187,4.8650177734375,-13.49618320610687,12.748091603053435,36.42748091603053,-9.655815295410155,-1.4987702392578124,-0.8595183959960937,-7.801526717557252,6.748091603053435,12.931297709923664,1.0
10.130001068115234,-9.72285294189453,0.37828386230468747,4.587290380859375,-15.938931297709924,11.053435114503817,38.30534351145038,-8.020575561523437,1.1252747802734375,-2.090138049316406,-21.435114503816795,7.847328244274809,10.091603053435115,1.0
10.14000129699707,-9.291896643066405,1.9201497314453124,4.774038110351563,-27.206106870229007,7.038167938931298,36.458015267175576,-8.963891015625,1.0510545288085937,-2.2864625854492187,-35.74045801526717,19.114503816793892,12.793893129770993,1.0
10.150000810623169,-10.08677159423828,4.161122485351562,5.360617517089843,-52.42748091603053,-0.0916030534351145,32.6412213740458,-9.318232861328125,0.258573779296875,-2.250549560546875,-43.43511450381679,26.198473282442748,16.442748091603054,1.0
10.160001039505005,-6.6510922119140625,-0.47884033203125,2.770091320800781,-59.69465648854962,-5.312977099236641,38.01526717557252,-10.28549033203125,-1.7956512451171873,-0.7733271362304687,-35.603053435114504,23.938931297709924,19.404580152671755,1.0
10.170001029968262,-7.079654309082031,-0.5530605834960938,2.1404162841796874,-53.725190839694655,0.6412213740458015,35.29770992366412,-10.658985791015624,-2.91134921875,-0.0526724365234375,-14.900763358778626,14.702290076335878,17.16030534351145,1.0
10.18000054359436,-6.078878015136718,-1.3814543579101561,1.1109095703125,-55.63358778625954,3.5267175572519083,31.66412213740458,-8.74601866455078,-0.6344634399414062,-1.0271125122070313,-8.564885496183207,7.740458015267175,11.664122137404581,1.0
10.190000772476196,-6.564900952148437,-2.7557261108398436,0.5985504150390625,-54.06106870229008,9.404580152671755,26.53435114503817,-10.565611926269531,-1.465251416015625,-1.429338391113281,3.7557251908396947,3.0839694656488548,12.549618320610687,1.0
10.200000762939453,-6.9336080078124995,-3.143586779785156,1.197100830078125,-35.32824427480916,23.053435114503817,20.763358778625953,-9.792284790039062,1.1947066284179686,-1.5873557006835937,-1.282442748091603,4.183206106870229,11.679389312977099,1.0
10.210001230239868,-6.955155822753905,-2.6503812377929687,0.8379705810546875,-26.900763358778626,26.27480916030534,16.717557251908396,-9.897629663085937,2.0757728393554684,-1.9728221679687499,-4.5038167938931295,2.595419847328244,12.0,0.0
10.220206499099731,-7.417236743164062,-2.1787235107421874,0.7709329345703124,-6.870229007633588,34.80916030534351,15.312977099236642,-9.935936889648437,1.8291700683593748,-1.7429788085937499,-11.419847328244275,3.648854961832061,14.549618320610687,0.0
10.230000972747803,-8.135497241210937,-1.2880804931640624,0.9624690673828125,16.65648854961832,45.343511450381676,15.251908396946565,-10.144232434082031,1.9728221679687499,-1.7549498168945312,-15.648854961832061,4.473282442748092,15.251908396946565,0.0
10.24000072479248,-8.892064965820312,-0.13407529296874998,1.6328455322265625,31.358778625954198,50.656488549618324,15.17557251908397,-10.230423693847655,1.6328455322265625,-1.8626888916015625,-18.213740458015266,4.748091603053435,16.38167938931298,0.0
10.250000715255737,-9.651026892089844,1.1348515869140625,2.3343466186523436,38.595419847328245,52.0,13.923664122137405,-10.359710583496094,1.3623007446289062,-2.0350714111328125,-21.083969465648856,5.145038167938932,17.61832061068702,0.0
10.260000944137573,-9.222464794921875,0.29448680419921874,1.7908628417968748,40.29007633587786,51.587786259541986,14.122137404580153,-10.632649572753905,0.8092401611328125,-1.8459294799804686,-19.374045801526716,5.66412213740458,18.229007633587788,0.0
10.27000117301941,-9.574412438964844,0.34715924072265625,2.1691467041015624,44.152671755725194,53.404580152671755,11.893129770992367,-10.94868419189453,0.6536170532226562,-1.2210428466796874,-19.221374045801525,5.450381679389313,16.83969465648855,0.0
10.280000925064087,-10.429142431640624,1.8842367065429686,2.96881005859375,38.18320610687023,50.06106870229008,9.648854961832061,-11.79144317626953,0.19871873779296872,-1.2306196533203124,-15.816793893129772,3.7557251908396947,16.38167938931298,0.0
10.290000915527344,-10.505756884765624,1.7836802368164062,2.166752502441406,34.36641221374046,46.595419847328245,10.091603053435115,-11.29344923095703,0.9552864624023437,-1.0606313354492187,-15.053435114503817,-0.6106870229007634,16.717557251908396,0.0
10.3000009059906,-10.960655200195312,3.6822821533203123,2.4205378784179685,25.435114503816795,43.6793893129771,7.908396946564886,-11.0707884765625,1.3048399047851562,-0.9600748657226562,-15.49618320610687,-3.7709923664122136,17.541984732824428,0.0
10.310000896453857,-10.730811840820312,4.201823913574218,1.9704279663085937,8.381679389312977,35.57251908396947,7.267175572519084,-11.156979736328124,1.446097802734375,-0.9840168823242187,-16.900763358778626,-5.66412213740458,17.114503816793892,0.0
10.320000648498535,-10.505756884765624,3.7995980346679685,1.8124106567382812,-3.3435114503816794,34.152671755725194,6.793893129770993,-11.01332763671875,1.180341418457031,-0.7038952880859375,-19.954198473282442,-8.244274809160306,16.18320610687023,0.0
10.330000877380371,-11.238382592773437,4.790797521972656,1.5131354492187499,-20.732824427480917,27.49618320610687,4.702290076335878,-11.111489904785156,1.1372457885742187,-0.5674257934570313,-23.206106870229007,-10.65648854961832,14.396946564885496,0.0
10.340001106262207,-11.018116040039061,5.161898779296875,1.235408056640625,-34.717557251908396,26.18320610687023,3.5877862595419847,-11.154585534667968,0.9457096557617187,-0.5626373901367188,-25.450381679389313,-12.763358778625955,12.50381679389313,0.0
10.350000858306885,-9.083601098632812,2.7916391357421872,0.4525041137695312,-46.61068702290076,23.404580152671755,5.984732824427481,-11.444283935546874,-0.9241618408203125,0.9169792358398436,-25.16030534351145,-15.969465648854962,10.83969465648855,0.0
10.360000848770142,-10.302249743652343,3.2058360229492187,0.9552864624023437,-58.48854961832061,23.0381679389313,4.137404580152672,-11.6070896484375,-1.3862427612304686,1.4221557861328125,-9.664122137404581,-30.16793893129771,5.694656488549619,0.0
10.370000839233398,-9.124302526855468,1.3000515014648437,0.8690952026367187,-58.6412213740458,24.99236641221374,6.427480916030534,-9.991003527832031,0.948103857421875,0.13168109130859373,-9.038167938931299,-37.89312977099237,-1.083969465648855,0.0
10.380001068115234,-8.911218579101561,0.3902548706054687,1.2569558715820313,-57.05343511450382,27.938931297709924,5.511450381679389,-9.658209497070311,1.9632453613281249,0.37828386230468747,-21.19083969465649,-41.48091603053435,-2.213740458015267,0.0
10.390000820159912,-8.992621435546875,-0.49799394531249996,1.3455413330078123,-52.93129770992366,28.748091603053435,2.9770992366412212,-9.797073193359374,1.3623007446289062,0.6607996582031249,-28.18320610687023,-43.49618320610687,-0.8244274809160306,0.0
10.400001049041748,-9.406818322753905,-1.7334020019531249,1.197100830078125,-44.458015267175576,30.3206106870229,0.3816793893129771,-10.603919152832031,-0.6631938598632812,1.6735469604492186,-23.633587786259543,-50.396946564885496,0.549618320610687,0.0
10.410000801086426,-8.667010009765624,-4.414907861328125,0.7158662963867187,-10.122137404580153,40.80916030534351,-1.4045801526717556,-8.949525805664061,1.0462661254882812,0.25139117431640623,-2.7938931297709924,-63.86259541984733,-5.709923664122138,0.0
10.420000791549683,-8.757989672851561,-2.29843359375,1.1923124267578125,14.51908396946565,49.3587786259542,-7.221374045801527,-8.465897070312499,2.7533319091796873,0.47165772705078124,-26.30534351145038,-61.64885496183206,-6.213740458015267,0.0
10.43000078201294,-10.091559997558592,-0.2753331909179687,1.2473790649414063,18.519083969465647,49.14503816793893,-11.557251908396946,-10.077194787597655,-0.15083470458984374,0.02154781494140625,-16.50381679389313,-63.587786259541986,-2.427480916030534,0.0
10.440000772476196,-11.204863769531249,2.3774422485351563,1.6136919189453125,17.236641221374047,45.786259541984734,-15.083969465648854,-7.977479931640625,3.447650390625,-1.8004396484374998,-15.648854961832061,-67.58778625954199,-5.740458015267175,0.0
10.450000524520874,-10.510545288085936,2.4013842651367185,1.2856862915039062,12.13740458015267,41.05343511450382,-13.786259541984732,-9.203311181640624,1.37906015625,-1.8746598999023436,-25.87786259541985,-56.44274809160305,-0.3511450381679389,0.0
10.46000075340271,-11.671733093261718,3.842693664550781,2.1499930908203124,5.603053435114504,37.51145038167939,-14.80916030534351,-9.349357482910156,1.2713210815429687,-2.6431986328124997,-13.587786259541986,-59.81679389312977,1.3129770992366412,0.0
10.470000982284546,-11.137826123046874,5.011064074707031,1.944091748046875,-15.34351145038168,25.022900763358777,-13.679389312977099,-7.505822204589843,3.430890979003906,-3.5697546752929687,-23.14503816793893,-48.06106870229008,0.3816793893129771,0.0
10.480000972747803,-9.888052856445311,2.81558115234375,1.484405029296875,-21.083969465648856,20.50381679389313,-6.427480916030534,-10.304643945312499,-0.5674257934570313,-3.1699229980468746,-17.83206106870229,-38.13740458015267,6.122137404580153,0.0
10.49000096321106,-9.612719665527344,1.3048399047851562,0.9816226806640624,-14.641221374045802,18.80916030534351,-5.419847328244275,-9.533711010742186,0.4285620971679687,-3.27526787109375,1.3587786259541985,-39.48091603053435,2.1068702290076335,0.0
10.500000476837158,-9.952696301269532,2.212242333984375,1.448492004394531,-11.816793893129772,18.229007633587788,-5.847328244274809,-8.580818749999999,2.655169641113281,-3.842693664550781,-5.374045801526718,-30.137404580152673,-1.5572519083969465,0.0
10.510001182556152,-9.203311181640624,1.0749965454101562,1.1731588134765625,-13.526717557251908,15.129770992366412,-4.900763358778626,-9.239224206542968,0.5410895751953124,-3.1364041748046874,-15.297709923664122,-21.358778625954198,-2.5801526717557253,0.0
10.52000093460083,-10.608707556152343,1.707065783691406,1.9680337646484374,-9.969465648854962,16.076335877862597,-6.8396946564885495,-10.989385620117186,-0.59376201171875,-2.1499930908203124,-2.0916030534351147,-17.00763358778626,-2.4580152671755724,0.0
10.530000925064087,-9.835380419921874,0.9121908325195311,1.4508862060546874,-5.32824427480916,14.229007633587786,-7.236641221374046,-10.002974536132811,-0.047884033203124995,-0.63206923828125,-0.33587786259541985,-9.587786259541986,-6.412213740458015,0.0
10.540000677108765,-10.505756884765624,1.4413093994140624,1.4963760375976562,-3.053435114503817,12.748091603053435,-8.580152671755725,-10.819397302246093,-1.7836802368164062,-0.14604630126953125,16.15267175572519,-18.50381679389313,-8.748091603053435,0.0
10.5500009059906,-9.938331091308592,1.1611878051757811,1.0342951171875,5.32824427480916,12.80916030534351,-8.076335877862595,-11.087547888183593,-2.6958710693359373,0.6296750366210937,32.62595419847328,-21.00763358778626,-13.740458015267176,0.0
10.560000896453857,-9.883264453125,1.426944189453125,0.7134720947265625,9.938931297709924,12.427480916030534,-7.557251908396947,-10.412383020019531,-1.2378022583007813,1.8626888916015625,46.274809160305345,-32.229007633587784,-18.625954198473284,0.0
10.570000886917114,-9.962273107910155,2.6982652709960937,0.5267243652343749,11.770992366412214,13.86259541984733,-6.488549618320611,-9.540893615722656,2.750937707519531,0.39743747558593745,39.52671755725191,-36.12213740458015,-25.572519083969464,0.0
10.580000877380371,-9.09796630859375,2.6958710693359373,0.14604630126953125,8.198473282442748,14.473282442748092,-4.198473282442748,-9.375693701171874,2.8706477905273435,0.22505495605468748,17.633587786259543,-27.603053435114504,-23.984732824427482,0.0
10.590000867843628,-9.41639512939453,2.5330653564453125,0.1580173095703125,2.16793893129771,14.80916030534351,-4.106870229007634,-11.540052001953125,0.5386953735351562,1.3934253662109375,16.50381679389313,-27.083969465648856,-19.64885496183206,0.0
10.600001335144043,-9.481038574218749,1.599326708984375,0.00718260498046875,-0.916030534351145,14.80916030534351,-4.0,-11.180921752929686,0.22505495605468748,2.403778466796875,30.549618320610687,-35.12977099236641,-20.671755725190838,0.0
10.610000371932983,-9.064447485351561,0.7302315063476562,-0.0047884033203125,0.2595419847328244,16.106870229007633,-4.961832061068702,-8.865728747558594,2.8419173706054686,0.7493851196289062,26.625954198473284,-44.48854961832061,-26.427480916030536,0.0
10.620000839233398,-9.14824454345703,1.0582371337890624,0.45010991210937495,0.015267175572519083,18.931297709923665,-7.175572519083969,-8.825027319335938,3.4644098022460934,0.5243301635742187,0.10687022900763359,-30.946564885496183,-27.69465648854962,0.0
10.630000829696655,-9.619902270507811,1.0869675537109373,0.8499415893554687,-4.732824427480916,20.091603053435115,-10.244274809160306,-11.008539233398437,0.09576806640624999,2.0183119995117185,-14.122137404580153,-26.68702290076336,-22.885496183206108,0.0
10.640000820159912,-10.165780249023436,1.1923124267578125,1.0797849487304687,-9.282442748091603,18.68702290076336,-13.022900763358779,-11.717222924804688,0.6584054565429687,1.6160861206054686,-8.13740458015267,-28.9618320610687,-24.412213740458014,0.0
10.650000810623169,-10.134655627441406,0.7110778930664062,1.0582371337890624,-8.335877862595419,17.954198473282442,-13.618320610687023,-10.510545288085936,-0.6871358764648438,1.2761094848632812,-7.083969465648855,-34.229007633587784,-26.244274809160306,0.0
10.660000801086426,-9.555258825683593,-0.09337386474609374,0.8858546142578124,-3.3740458015267176,19.404580152671755,-14.732824427480915,-9.598354455566406,-0.35673604736328124,0.9313444458007812,-1.282442748091603,-41.81679389312977,-29.572519083969464,0.0
10.670000553131104,-8.990227233886719,0.4477157104492187,0.7972691528320313,5.00763358778626,22.259541984732824,-16.38167938931298,-9.064447485351561,1.419761584472656,-1.6615759521484375,-0.6870229007633588,-42.88549618320611,-33.9236641221374,0.0
10.68000078201294,-9.591171850585937,1.0845733520507812,1.0989385620117187,-0.9465648854961832,20.85496183206107,-18.091603053435115,-10.019733947753906,-0.26815058593749996,0.35194764404296874,-14.625954198473282,-32.70229007633588,-31.603053435114504,0.0
10.690000772476196,-9.892841259765625,1.687912170410156,1.687912170410156,-8.458015267175572,18.229007633587788,-18.931297709923665,-10.62307276611328,-1.4053963745117186,0.507570751953125,-0.32061068702290074,-39.282442748091604,-29.389312977099237,0.0
10.700001001358032,-10.043675964355469,1.2665326782226562,1.5873557006835937,-9.694656488549619,13.816793893129772,-18.793893129770993,-9.574412438964844,0.23223756103515625,0.3711012573242187,12.916030534351146,-43.12977099236641,-31.34351145038168,0.0
10.71000051498413,-9.208099584960937,0.7110778930664062,1.649604943847656,-0.6106870229007634,15.557251908396946,-16.702290076335878,-7.606378674316406,1.707065783691406,0.1388636962890625,-1.3587786259541985,-33.83206106870229,-33.69465648854962,0.0
10.720000982284546,-10.000580334472655,1.5969325073242187,2.0302830078125,-1.7251908396946565,13.954198473282442,-16.412213740458014,-9.057264880371093,-0.3591302490234375,0.5434837768554687,-2.595419847328244,-30.229007633587788,-29.221374045801525,0.0
10.730000495910645,-9.981426721191406,1.1013327636718748,1.936909143066406,2.7480916030534353,12.534351145038167,-14.595419847328245,-9.878476049804688,0.033518823242187495,0.6416460449218749,9.84732824427481,-31.404580152671755,-27.328244274809162,0.0
10.740000486373901,-9.624690673828125,1.0175357055664063,1.8219874633789062,6.702290076335878,10.83969465648855,-13.007633587786259,-7.869740856933594,1.5442600708007812,0.34237083740234375,9.251908396946565,-30.50381679389313,-28.885496183206108,0.0
10.750000715255737,-9.662997900390625,1.618480322265625,1.889025109863281,8.748091603053435,10.961832061068701,-12.183206106870228,-7.44357296142578,2.8131869506835936,-0.46208092041015625,-3.801526717557252,-20.0,-28.580152671755727,0.0
10.760000705718994,-9.579200842285156,1.7573440185546874,2.01112939453125,6.8396946564885495,11.129770992366412,-11.221374045801527,-7.577648254394531,1.1037269653320312,-0.2657563842773437,-15.86259541984733,-12.854961832061068,-23.00763358778626,0.0
10.770001411437988,-9.758765966796874,1.7908628417968748,2.023100402832031,3.7404580152671754,9.221374045801527,-11.648854961832061,-8.078036401367187,-0.05746083984375,-0.055066638183593745,-7.603053435114504,-14.488549618320612,-19.068702290076335,0.0
10.780001163482666,-9.909600671386718,1.3551181396484375,1.936909143066406,2.427480916030534,7.190839694656488,-11.587786259541986,-9.203311181640624,-2.0063409912109376,1.37906015625,6.717557251908397,-10.702290076335878,-16.35114503816794,0.0
10.790000677108765,-9.514557397460937,0.44532150878906246,1.7812860351562498,6.213740458015267,6.99236641221374,-10.992366412213741,-9.162609753417968,-2.0781670410156248,1.22583125,27.221374045801525,-15.251908396946565,-17.206106870229007,0.0
10.800000667572021,-9.306261853027344,0.8092401611328125,1.7334020019531249,8.977099236641221,7.129770992366412,-11.419847328244275,-8.12113203125,-1.024718310546875,0.7517793212890624,32.01526717557252,-15.374045801526718,-19.51145038167939,0.0
10.810001134872437,-9.459490759277344,0.6919242797851562,1.8243816650390623,9.954198473282442,7.358778625954199,-11.893129770992367,-8.02536396484375,-0.20829554443359374,0.19871873779296872,33.14503816793893,-13.908396946564885,-18.580152671755727,0.0
10.820000648498535,-9.763554370117188,1.4891934326171874,2.185906115722656,8.977099236641221,7.099236641221374,-11.84732824427481,-7.6279264892578125,0.8044517578125,-0.5003881469726562,24.732824427480917,-4.564885496183206,-16.137404580152673,0.0
10.830000638961792,-10.065223779296874,1.656787548828125,2.3582886352539063,5.587786259541985,5.251908396946565,-11.84732824427481,-8.05648858642578,0.15322890625,0.0143652099609375,20.83969465648855,5.541984732824427,-11.86259541984733,0.0
10.840001106262207,-10.184933862304687,1.43652099609375,2.1906945190429687,5.251908396946565,4.030534351145038,-11.633587786259541,-7.7596075805664055,0.14604630126953125,0.09337386474609374,28.259541984732824,5.022900763358779,-9.618320610687023,0.0
10.850001096725464,-9.991003527832031,1.1013327636718748,2.1212626708984375,7.465648854961832,2.4580152671755724,-10.51908396946565,-8.17141026611328,-0.3184288208007812,0.38786066894531246,30.732824427480917,9.389312977099237,-7.908396946564886,0.0
10.86000108718872,-9.981426721191406,1.149216796875,2.4109610717773435,8.977099236641221,2.0916030534351147,-10.366412213740459,-7.915230688476562,0.040701428222656245,0.3950432739257812,33.19083969465649,11.038167938931299,-7.404580152671755,0.0
10.870000839233398,-9.763554370117188,0.9864110839843749,2.365471240234375,11.099236641221374,1.3893129770992367,-10.549618320610687,-8.329427575683594,0.3184288208007812,0.5291185668945312,33.770992366412216,13.022900763358779,-5.282442748091603,0.0
10.880001068115234,-9.299079248046874,1.0702081420898437,2.492363928222656,11.801526717557252,0.3511450381679389,-9.954198473282442,-7.522581616210937,1.0510545288085937,0.9840168823242187,27.053435114503817,19.83206106870229,-3.9083969465648853,0.0
10.890000581741333,-9.459490759277344,1.8148048583984373,3.086125939941406,7.938931297709924,-1.6488549618320612,-10.610687022900763,-8.358157995605469,0.8906430175781249,0.9888052856445312,24.16793893129771,23.954198473282442,0.2748091603053435,0.0
10.900001049041748,-9.694122521972655,1.5107412475585937,3.4165257690429685,5.679389312977099,-4.030534351145038,-10.717557251908397,-8.303091357421874,1.2641384765625,0.7733271362304687,21.419847328244273,23.114503816793892,2.045801526717557,0.0
10.910000324249268,-9.732429748535155,1.7310078002929687,3.9336733276367184,4.442748091603053,-7.343511450381679,-10.366412213740459,-9.279925634765624,0.7517793212890624,1.6543933471679686,14.67175572519084,28.53435114503817,3.312977099236641,0.0
10.920000553131104,-9.964667309570311,2.3678654418945313,4.453215087890625,2.16793893129771,-12.244274809160306,-9.465648854961833,-9.504980590820312,0.7422025146484375,1.3838485595703125,1.6488549618320612,27.557251908396946,-0.16793893129770993,0.0
10.93000054359436,-9.871293444824218,2.6862942626953124,4.687846850585937,2.045801526717557,-17.00763358778626,-7.236641221374046,-8.037334973144532,1.9201497314453124,-0.86191259765625,-19.572519083969464,40.213740458015266,-1.7251908396946565,0.0
10.940000772476196,-10.893617553710937,2.8706477905273435,5.231330627441406,-0.7938931297709924,-22.442748091603054,-5.083969465648855,-12.033257543945313,-0.7517793212890624,-0.8595183959960937,-21.053435114503817,47.69465648854962,4.854961832061068,0.0
10.950000524520874,-10.704475622558594,2.1811177124023438,5.540182641601562,1.2061068702290076,-31.938931297709924,-2.5343511450381677,-10.443507641601562,1.4053963745117186,-2.2936451904296873,-10.259541984732824,46.48854961832061,1.7099236641221374,0.0
10.96000051498413,-9.947907897949218,0.8164227661132812,5.482721801757812,10.50381679389313,-38.30534351145038,0.5343511450381679,-8.463502868652343,3.3638533325195312,-1.3287819213867187,-21.083969465648856,58.74809160305343,1.465648854961832,0.0
10.970000505447388,-9.943119494628906,0.0047884033203125,5.772420202636718,17.984732824427482,-44.54961832061068,0.9465648854961832,-11.451466540527344,0.9169792358398436,-0.3184288208007812,-24.03053435114504,62.3206106870229,8.50381679389313,0.0
10.980000257492065,-9.536105212402344,-0.6009446166992187,5.674257934570313,30.106870229007633,-51.25190839694657,1.0381679389312977,-8.532934716796875,4.218583325195312,0.7398083129882812,-32.47328244274809,62.99236641221374,6.519083969465649,0.0
10.99000096321106,-9.725247143554688,-0.6488286499023437,5.351040710449219,38.778625954198475,-57.11450381679389,2.0610687022900764,-11.571176623535155,0.2537853759765625,0.30885201416015623,-34.916030534351144,64.68702290076335,14.641221374045802,0.0
11.000000715255737,-10.81460889892578,2.195482922363281,6.160280871582031,36.091603053435115,-63.725190839694655,-0.4732824427480916,-9.289502441406249,1.7669208251953124,0.6560112548828124,-38.396946564885496,63.74045801526717,16.595419847328245,0.0
11.010001182556152,-12.299013928222655,3.1172505615234374,5.954379528808594,15.48091603053435,-82.25954198473282,1.83206106870229,-11.264718811035156,-0.49320554199218747,0.2920926025390625,-32.412213740458014,56.42748091603053,22.610687022900763,0.0
11.02000093460083,-12.57674132080078,2.147598889160156,6.306327172851562,8.13740458015267,-94.3969465648855,5.893129770992366,-9.80665,0.229843359375,0.8834604125976562,-33.17557251908397,58.152671755725194,22.65648854961832,0.0
11.030000925064087,-13.979743493652343,1.6112977172851561,6.6510922119140625,12.82442748091603,-105.25190839694656,13.221374045801527,-11.080365283203124,-1.2521674682617188,-0.1005564697265625,-19.52671755725191,47.14503816793893,22.458015267175572,0.0
11.040000677108765,-14.743493823242186,2.059013427734375,6.885723974609375,19.908396946564885,-114.19847328244275,18.244274809160306,-11.583147631835937,-2.3439234252929686,0.7230489013671875,-19.96946564885496,50.54961832061068,19.068702290076335,0.0
11.050000667572021,-14.252682482910155,0.430956298828125,5.8610056640625,16.885496183206108,-123.54198473282443,21.267175572519083,-12.873622326660156,-4.4005426513671875,-0.14125789794921875,-1.9694656488549618,35.16030534351145,14.51908396946565,0.0
11.060000658035278,-13.206416357421874,-0.5291185668945312,4.742913488769531,15.450381679389313,-130.70229007633588,17.083969465648856,-10.637437976074217,-1.1947066284179686,0.16280571289062498,-3.66412213740458,32.6412213740458,4.763358778625954,0.0
11.070000648498535,-12.916717956542968,-0.3806780639648437,4.874594580078124,11.389312977099237,-138.04580152671755,13.511450381679388,-11.568782421875,-3.986345764160156,0.737414111328125,-8.793893129770993,29.954198473282442,6.763358778625954,0.0
11.080000638961792,-12.073958972167969,-2.233790148925781,4.429273071289062,21.419847328244273,-145.57251908396947,12.595419847328245,-10.843339318847656,-3.399766357421875,1.1755530151367186,8.564885496183207,16.80916030534351,2.687022900763359,0.0
11.090000867843628,-10.618284362792968,-2.013523596191406,3.306392492675781,34.51908396946565,-147.1908396946565,12.122137404580153,-9.217676391601563,-2.7748797241210936,1.0654197387695312,1.0381679389312977,9.603053435114504,-4.061068702290076,0.0
11.100001096725464,-10.156203442382813,-1.6160861206054686,0.8403647827148437,26.519083969465647,-146.54961832061068,8.213740458015268,-9.572018237304688,-1.8148048583984373,-0.07900865478515624,5.786259541984733,4.8396946564885495,-6.885496183206107,0.0
11.110000371932983,-9.639055883789062,-1.7310078002929687,-0.20350714111328125,12.946564885496183,-144.13740458015266,2.3053435114503817,-9.660603698730467,-1.695094775390625,-0.42377369384765623,-7.099236641221374,7.984732824427481,-6.076335877862595,0.0
11.120000839233398,-8.259995727539062,-1.7166425903320313,-1.2282254516601563,8.977099236641221,-137.1908396946565,0.2595419847328244,-8.109161022949218,0.6177040283203125,-1.4772224243164063,-11.358778625954198,6.549618320610687,-7.66412213740458,0.0
11.130000591278076,-8.195352282714843,-0.7685387329101562,-1.0702081420898437,6.396946564885496,-125.5114503816794,-2.0916030534351147,-8.614337573242187,1.0223241088867188,-3.162740393066406,-15.725190839694656,19.984732824427482,-5.847328244274809,0.0
11.140000820159912,-7.802703210449218,-0.8954314208984374,-1.2378022583007813,0.9618320610687023,-111.80152671755725,-2.7022900763358777,-9.327809667968749,0.296881005859375,-2.221819140625,-36.38167938931298,27.19083969465649,-1.2213740458015268,0.0
11.150001049041748,-7.963114721679687,-1.7884686401367187,-1.6639701538085936,-3.66412213740458,-97.22137404580153,-3.9236641221374047,-10.55364091796875,-2.3439234252929686,-1.2976572998046874,-31.00763358778626,27.206106870229007,2.7938931297709924,0.0
11.160000562667847,-8.118737829589843,-2.360682836914062,-1.5275006591796874,-1.5877862595419847,-82.56488549618321,-6.442748091603053,-9.756371765136718,-2.8730419921875,-1.956062756347656,-15.541984732824428,24.870229007633586,0.44274809160305345,0.0
11.170000553131104,-7.60398447265625,-2.0973206542968748,-1.0989385620117187,5.32824427480916,-66.99236641221374,-8.106870229007633,-8.271966735839843,-1.0534487304687499,-2.114080065917969,-14.51908396946565,23.801526717557252,-1.083969465648855,0.0
11.18000078201294,-7.64229169921875,-0.8403647827148437,0.20350714111328125,7.801526717557252,-54.656488549618324,-10.274809160305344,-8.310273962402343,0.02633621826171875,-1.5251064575195312,-23.389312977099237,29.19083969465649,2.717557251908397,0.0
11.190000534057617,-8.693346228027343,-0.33518823242187495,1.3096283081054687,4.778625954198473,-46.54961832061068,-11.34351145038168,-11.118672509765624,-3.1316157714843746,-0.411802685546875,-18.396946564885496,30.595419847328245,9.49618320610687,0.0
11.200000524520874,-7.81467421875,-0.14125789794921875,1.1037269653320312,8.030534351145038,-41.969465648854964,-10.320610687022901,-10.302249743652343,-3.679887951660156,0.2561795776367187,4.564885496183206,22.33587786259542,7.847328244274809,0.0
11.21000051498413,-6.078878015136718,-0.6081272216796875,0.39743747558593745,5.908396946564886,-39.48091603053435,-8.67175572519084,-9.524134204101562,-2.1715409057617188,-0.4333505004882812,13.435114503816793,12.67175572519084,1.2671755725190839,0.0
11.220000505447388,-6.866570361328125,-0.8355763793945312,1.3072341064453123,26.595419847328245,-16.65648854961832,-4.259541984732825,-10.474632263183594,-3.8570588745117185,-0.14125789794921875,6.488549618320611,15.053435114503817,3.786259541984733,0.0
11.230000495910645,-7.5153990112304685,2.626439221191406,1.9201497314453124,-2.045801526717557,-23.541984732824428,-9.206106870229007,-9.473855969238281,-1.01514150390625,-1.0965443603515623,18.916030534351144,8.51908396946565,1.3587786259541985,0.0
11.24000072479248,-8.415618835449218,2.2385785522460937,2.461239306640625,-18.27480916030534,-21.053435114503817,-6.748091603053435,-9.854534033203125,-0.6105214233398437,-0.8307879760742187,15.022900763358779,8.381679389312977,2.427480916030534,0.0
11.250000953674316,-6.102820031738281,0.9935936889648437,1.4173673828125,-22.259541984732824,-17.61832061068702,-2.8702290076335877,-9.512163195800781,-0.181959326171875,-0.41419688720703124,15.755725190839694,9.648854961832061,2.9160305343511452,0.0
11.260000944137573,-6.866570361328125,0.5219359619140624,1.637633935546875,-30.641221374045802,-12.458015267175572,-3.450381679389313,-10.041281762695311,-1.180341418457031,-1.2904746948242187,13.511450381679388,10.549618320610687,3.877862595419847,0.0
11.27000093460083,-5.95677373046875,-0.29448680419921874,1.5466542724609373,-36.961832061068705,-9.038167938931299,-4.213740458015267,-9.612719665527344,-1.0606313354492187,-1.2473790649414063,10.50381679389313,11.770992366412214,3.5572519083969465,0.0
11.280000686645508,-5.681440539550781,-1.0103531005859374,1.6208745239257811,-41.3587786259542,-4.106870229007634,-6.244274809160306,-9.756371765136718,-1.1731588134765625,-1.93451494140625,10.702290076335878,11.98473282442748,3.816793893129771,0.0
11.290000915527344,-5.365405920410156,-1.70467158203125,1.7788918334960937,-31.404580152671755,8.045801526717558,-7.312977099236641,-9.567229833984374,-0.7757213378906249,-1.93451494140625,12.625954198473282,13.84732824427481,4.412213740458015,0.0
11.300000667572021,-5.815515832519531,-1.4341267944335936,2.3582886352539063,-29.84732824427481,15.083969465648854,-11.007633587786259,-9.442731347656249,-0.6105214233398437,-1.8507178833007811,15.435114503816793,14.687022900763358,5.374045801526718,0.0
11.310000658035278,-6.490680700683593,-0.6631938598632812,3.3710359375,-27.984732824427482,21.541984732824428,-12.900763358778626,-9.619902270507811,-0.3399766357421875,-1.4413093994140624,14.82442748091603,15.587786259541986,6.885496183206107,0.0
11.320000648498535,-6.1626750732421876,-0.6368576416015624,4.2688615600585935,-19.282442748091604,27.450381679389313,-12.595419847328245,-9.715670336914062,-0.39743747558593745,-1.5442600708007812,17.81679389312977,16.977099236641223,7.801526717557252,0.0
11.330000638961792,-8.63109698486328,1.8531120849609375,5.015852478027344,-29.64885496183206,23.61832061068702,-15.786259541984732,-9.962273107910155,-0.19393033447265623,-1.3096283081054687,12.82442748091603,17.69465648854962,8.977099236641221,0.0
11.340001106262207,-7.771578588867187,0.02154781494140625,5.204994409179688,-37.02290076335878,23.022900763358777,-14.366412213740459,-10.137049829101562,-0.2657563842773437,-0.7637503295898437,7.480916030534351,17.053435114503817,10.244274809160306,0.0
11.350000858306885,-7.42441934814453,-0.603338818359375,4.855440966796874,-31.099236641221374,25.587786259541986,-12.381679389312977,-9.756371765136718,-0.0143652099609375,-0.6703764648437499,0.5190839694656488,17.34351145038168,10.641221374045802,0.0
11.36000108718872,-7.110778930664062,-1.3024457031249999,4.357447021484375,-26.244274809160306,28.076335877862597,-11.251908396946565,-9.87608184814453,-0.3687070556640625,-0.5530605834960938,-4.625954198473282,17.16030534351145,11.633587786259541,0.0
11.370000839233398,-6.619967590332031,-2.1930887207031247,4.264073156738281,-3.1603053435114505,40.68702290076336,-8.778625954198473,-9.904812268066406,-0.7972691528320313,-0.51714755859375,-7.022900763358779,17.541984732824428,12.549618320610687,0.0
11.380000829696655,-6.347028601074219,-2.1595698974609374,3.5122938354492184,16.763358778625953,48.6412213740458,-8.610687022900763,-10.158597644042969,-1.6112977172851561,-0.5985504150390625,-8.80916030534351,16.50381679389313,13.053435114503817,0.0
11.390000820159912,-6.5768719604492185,-1.1013327636718748,4.187458703613281,29.84732824427481,58.0763358778626,-8.458015267175572,-10.031704956054687,-1.8435352783203125,-0.5913678100585937,-6.122137404580153,16.16793893129771,13.740458015267176,0.0
11.400000810623169,-6.892906579589844,-0.7517793212890624,4.2329485351562495,35.25190839694657,63.89312977099237,-6.977099236641221,-10.024522351074218,-2.094926452636719,-0.699106884765625,-3.1603053435114505,13.86259541984733,14.213740458015268,0.0
11.410000562667847,-7.589619262695312,0.7948749511718749,4.92247861328125,41.70992366412214,71.00763358778626,-4.793893129770993,-9.797073193359374,-1.668758557128906,-1.22583125,-2.183206106870229,12.946564885496183,13.557251908396946,0.0
11.420000553131104,-7.6997525390625,0.5434837768554687,4.857835168457031,41.11450381679389,72.30534351145039,-0.7480916030534351,-9.485826977539062,-1.7741034301757812,-0.8571241943359375,-4.030534351145038,13.541984732824428,14.488549618320612,0.0
11.43000078201294,-8.164227661132813,1.7286135986328124,5.820304235839844,43.86259541984733,76.61068702290076,1.9389312977099236,-9.859322436523437,-1.3718775512695311,-1.37906015625,0.015267175572519083,16.3206106870229,14.885496183206106,0.0
11.440000534057617,-9.2320416015625,2.980781066894531,6.813897924804687,34.94656488549618,73.7557251908397,4.564885496183206,-9.79946739501953,-1.6424223388671875,-0.9193734375,-0.7633587786259542,10.51908396946565,15.19083969465649,0.0
11.450000524520874,-8.252813122558594,-1.005564697265625,6.157886669921875,55.86259541984733,87.41984732824427,13.954198473282442,-9.076418493652342,-1.419761584472656,-0.9696516723632812,-0.6564885496183206,11.206106870229007,14.412213740458014,0.0
11.46000075340271,-9.562441430664062,1.5035586425781249,7.165845568847656,52.458015267175576,79.08396946564885,11.17557251908397,-9.356540087890625,-1.5610194824218748,-0.9888052856445312,0.3511450381679389,12.290076335877863,14.793893129770993,0.0
11.470000505447388,-10.618284362792968,2.205059729003906,7.9846625366210935,44.18320610687023,74.33587786259542,14.381679389312977,-9.464279162597656,-1.4891934326171874,-0.9576806640625,-2.0916030534351147,10.854961832061068,15.32824427480916,0.0
11.480000495910645,-12.112266198730469,4.410119458007812,7.920019091796875,21.129770992366414,64.62595419847328,13.435114503816793,-9.100360510253905,0.0526724365234375,-1.7836802368164062,-6.778625954198473,10.641221374045802,13.954198473282442,0.0
11.490002393722534,-12.763489050292968,4.4005426513671875,6.8569935546875,-19.34351145038168,47.51145038167939,13.572519083969466,-9.366116894531249,1.1707646118164061,-2.913743420410156,-18.48854961832061,18.442748091603054,15.34351145038168,0.0
11.500000476837158,-11.549628808593749,2.085349645996094,6.366182214355469,-36.045801526717554,39.221374045801525,21.251908396946565,-8.992621435546875,1.6328455322265625,-2.70065947265625,-42.79389312977099,23.801526717557252,17.587786259541986,0.0
11.510001420974731,-13.352462658691405,1.3766659545898436,7.752424975585937,-30.80916030534351,37.099236641221374,30.366412213740457,-9.83777462158203,-1.2569558715820313,-1.905784521484375,-56.229007633587784,35.63358778625954,22.03053435114504,0.0
11.520000696182251,-13.09388887939453,-0.5410895751953124,7.127538342285156,-17.49618320610687,33.12977099236641,40.38167938931298,-11.374852087402344,-4.967968444824218,-0.11252747802734374,-40.045801526717554,35.603053435114504,24.519083969465647,0.0
11.530000686645508,-14.211981054687499,-0.2561795776367187,7.520187414550781,-5.511450381679389,33.52671755725191,44.93129770992366,-11.21683477783203,-4.790797521972656,-1.13006318359375,-16.12213740458015,23.022900763358777,20.763358778625953,0.0
11.540000677108765,-15.454571716308592,0.6631938598632812,6.993463049316406,-10.793893129770993,27.450381679389313,45.12977099236641,-10.268730920410155,-2.051830822753906,-2.6240450195312497,-0.4122137404580153,15.572519083969466,16.290076335877863,0.0
11.5500009059906,-13.402740893554686,1.0462661254882812,5.425260961914062,-19.0381679389313,14.65648854961832,43.57251908396947,-9.82580361328125,-0.814028564453125,-2.731784094238281,-2.900763358778626,15.251908396946565,17.00763358778626,0.0
11.560000896453857,-12.524068884277343,1.1923124267578125,4.896142395019531,-34.0,0.183206106870229,37.37404580152672,-9.414000927734374,0.7110778930664062,-1.2569558715820313,-18.366412213740457,8.381679389312977,19.251908396946565,0.0
11.570000648498535,-10.04846436767578,-1.0127473022460938,4.094084838867187,-31.81679389312977,-5.114503816793893,33.64885496183206,-10.54645831298828,1.3958195678710936,-2.104503259277344,-9.84732824427481,14.106870229007633,20.9618320610687,0.0
11.580000638961792,-7.323862878417969,-2.9951462768554684,2.798821740722656,-20.763358778625953,-6.030534351145038,28.53435114503817,-10.046070166015625,0.23702596435546874,-0.7876923461914062,-28.702290076335878,8.992366412213741,23.236641221374047,0.0
11.590000629425049,-5.935225915527344,-3.1172505615234374,2.2074539306640624,-9.099236641221374,-2.4885496183206106,23.51145038167939,-12.9861498046875,-2.501940734863281,2.7724855224609373,-18.717557251908396,3.3893129770992365,25.572519083969464,0.0
11.600001096725464,-5.027823486328125,-1.5586252807617187,1.7214309936523438,1.2061068702290076,1.4351145038167938,17.954198473282442,-9.91438907470703,0.9792284790039062,0.02154781494140625,-13.404580152671755,5.1603053435114505,19.480916030534353,0.0
11.610000610351562,-5.825092639160156,0.5339069702148437,1.1276689819335937,0.8854961832061069,3.984732824427481,16.03053435114504,-10.139444030761718,1.956062756347656,-1.7214309936523438,-2.519083969465649,0.07633587786259542,17.129770992366414,0.0
11.620000839233398,-5.932831713867187,1.7788918334960937,0.6943184814453125,1.3893129770992367,8.641221374045802,16.091603053435115,-11.192892761230468,1.7812860351562498,-1.5107412475585937,-5.251908396946565,1.3129770992366412,16.732824427480917,0.0
11.630000591278076,-6.8785413696289055,2.612074011230469,0.9504980590820312,-2.564885496183206,13.129770992366412,18.610687022900763,-11.180921752929686,2.0566192260742184,-1.3551181396484375,-8.931297709923664,-0.030534351145038167,15.083969465648854,0.0
11.640000820159912,-5.97592734375,1.6112977172851561,-0.36152445068359373,1.83206106870229,19.022900763358777,24.33587786259542,-11.111489904785156,2.0638018310546875,-1.1420341918945311,-10.229007633587786,-3.404580152671756,16.259541984732824,0.0
11.65000057220459,-6.825868933105468,2.2194249389648437,-0.08858546142578125,5.526717557251908,29.267175572519083,25.557251908396946,-10.465055456542968,2.4301146850585935,-1.189918225097656,-13.84732824427481,-7.4961832061068705,17.358778625954198,0.0
11.660000801086426,-8.55448253173828,2.5163059448242184,0.46208092041015625,-0.24427480916030533,31.0381679389313,24.641221374045802,-10.165780249023436,2.243366955566406,-0.622492431640625,-16.946564885496183,-8.885496183206106,18.732824427480917,0.0
11.670000791549683,-9.112331518554686,2.4205378784179685,0.833182177734375,-6.564885496183206,32.412213740458014,23.633587786259543,-9.765948571777344,2.2002713256835937,-0.9648632690429687,-23.206106870229007,-11.267175572519085,18.35114503816794,0.0
11.68000078201294,-9.682151513671874,2.834734765625,1.4820108276367188,-13.206106870229007,32.534351145038165,21.81679389312977,-9.832986218261718,1.4796166259765624,-0.7972691528320313,-26.48854961832061,-11.84732824427481,18.442748091603054,0.0
11.690000534057617,-10.86009873046875,2.710236279296875,1.6448165405273436,-25.206106870229007,28.16793893129771,21.587786259541986,-9.598354455566406,1.3120225097656248,-1.0079588989257813,-28.793893129770993,-14.091603053435115,18.442748091603054,0.0
11.700000524520874,-11.288660827636718,3.6296097167968746,2.437297290039062,-32.6412213740458,27.603053435114504,21.87786259541985,-9.900023864746093,-0.09337386474609374,-0.33758243408203126,-28.091603053435115,-15.34351145038168,18.9618320610687,0.0
11.71000051498413,-11.164162341308593,2.7629087158203123,2.1260510742187497,-51.221374045801525,18.15267175572519,23.114503816793892,-8.623914379882812,1.2976572998046874,-1.1133037719726562,-28.519083969465647,-23.251908396946565,14.488549618320612,0.0
11.720000743865967,-10.213664282226562,1.2761094848632812,1.7453730102539062,-49.847328244274806,17.52671755725191,25.450381679389313,-8.8489693359375,0.49799394531249996,-1.3575123413085937,-29.709923664122137,-26.27480916030534,12.045801526717558,0.0
11.730000257492065,-9.45470235595703,0.6368576416015624,1.8052280517578123,-45.7557251908397,16.763358778625953,24.47328244274809,-9.842563024902343,-1.22583125,0.10773907470703124,-27.52671755725191,-27.435114503816795,10.65648854961832,0.0
11.740000486373901,-10.20169327392578,1.0893617553710937,2.1164742675781247,-45.38931297709924,15.740458015267176,22.33587786259542,-11.030087048339842,-2.959233251953125,0.2346317626953125,-10.65648854961832,-32.42748091603053,7.038167938931298,0.0
11.750000953674316,-8.872911352539061,-0.5363011718749999,1.0486603271484374,-39.48091603053435,14.641221374045802,22.427480916030536,-10.35492218017578,-1.6998831787109374,-0.2442085693359375,11.419847328244275,-43.770992366412216,-1.1297709923664123,0.0
11.760000467300415,-8.951920007324219,0.3806780639648437,1.0271125122070313,-34.88549618320611,16.946564885496183,19.31297709923664,-9.442731347656249,2.032677209472656,-1.0845733520507812,4.015267175572519,-47.69465648854962,-6.519083969465649,0.0
11.77000093460083,-9.227253198242186,0.6272808349609375,1.2689268798828124,-36.2442748091603,18.106870229007633,15.450381679389313,-8.743624462890624,2.2864625854492187,-1.5251064575195312,-13.755725190839694,-43.847328244274806,-6.549618320610687,0.0
11.780000686645508,-9.897629663085937,0.48123453369140623,1.369483349609375,-37.541984732824424,16.83969465648855,12.198473282442748,-10.330980163574218,0.17477672119140625,-0.622492431640625,-8.458015267175572,-41.3587786259542,-2.7022900763358777,0.0
11.790000677108765,-9.79946739501953,-0.30885201416015623,1.180341418457031,-31.450381679389313,17.00763358778626,10.549618320610687,-11.154585534667968,0.07422025146484375,0.2154781494140625,9.923664122137405,-47.343511450381676,-4.763358778625954,0.0
11.800000667572021,-9.483432775878907,-0.47165772705078124,1.2330138549804688,-20.931297709923665,18.549618320610687,9.465648854961833,-8.643067993164061,3.6822821533203123,-1.695094775390625,5.175572519083969,-49.49618320610687,-8.748091603053435,0.0
11.810000658035278,-9.627084875488281,0.11252747802734374,1.6232687255859375,-14.488549618320612,20.564885496183205,8.50381679389313,-9.543287817382812,1.905784521484375,-1.5322890624999999,-14.763358778625955,-42.534351145038165,-4.290076335877862,0.0
11.820000886917114,-10.517727893066406,0.8690952026367187,1.9871873779296874,-13.34351145038168,19.328244274809162,5.9541984732824424,-10.658985791015624,1.1156979736328125,-1.4963760375976562,-3.282442748091603,-40.79389312977099,-1.4351145038167938,0.0
11.830000400543213,-9.718064538574218,0.32561142578124996,1.6519991455078125,-5.297709923664122,19.801526717557252,5.572519083969466,-9.624690673828125,2.559401574707031,-1.47482822265625,8.778625954198473,-45.282442748091604,-2.7022900763358777,0.0
11.840000629425049,-9.682151513671874,0.7517793212890624,1.8052280517578123,-0.9770992366412213,19.251908396946565,3.801526717557252,-7.706935144042968,4.740519287109374,-2.868253588867187,-9.923664122137405,-40.93129770992366,-3.786259541984733,0.0
11.850000619888306,-9.636661682128906,1.5418658691406248,2.2098481323242187,0.4580152671755725,19.46564885496183,2.2595419847328246,-8.614337573242187,2.308010400390625,-2.0254946044921875,-22.748091603053435,-30.48854961832061,2.9618320610687023,0.0
11.86000108718872,-10.04846436767578,2.1978771240234374,2.2577321655273437,-1.3587786259541985,17.16030534351145,0.9312977099236641,-9.926360083007811,0.028730419921875,-1.0606313354492187,-12.625954198473282,-30.458015267175572,6.595419847328245,0.0
11.870000839233398,-9.490615380859374,1.5777788940429687,1.7549498168945312,0.732824427480916,15.633587786259541,1.3893129770992367,-9.56962403564453,-0.7852981445312499,-1.9225439331054686,2.9160305343511452,-34.595419847328245,2.4580152671755724,0.0
11.880000829696655,-9.03332286376953,1.5921441040039062,1.4987702392578124,4.687022900763359,16.396946564885496,0.8854961832061069,-8.568847741699217,0.9696516723632812,-2.473210314941406,6.702290076335878,-35.9236641221374,-3.7709923664122136,0.0
11.890000581741333,-9.09796630859375,2.9376854370117185,1.8267758666992187,8.213740458015268,18.290076335877863,0.6564885496183206,-8.152256652832031,1.695094775390625,-3.1076737548828124,-3.786259541984733,-27.908396946564885,-6.030534351145038,0.0
11.900001049041748,-9.428366137695312,3.725377783203125,1.7717092285156248,-1.816793893129771,15.48091603053435,0.9465648854961832,-10.295067138671874,0.9097966308593749,-2.952050646972656,1.633587786259542,-15.923664122137405,-4.625954198473282,0.0
11.910000801086426,-9.464279162597656,3.928884924316406,1.3527239379882812,-10.320610687022901,12.595419847328245,2.3206106870229006,-10.670956799316405,0.4836287353515625,-2.8802245971679685,3.6793893129770994,-10.65648854961832,-4.99236641221374,0.0
11.920000314712524,-9.976638317871092,3.5146880371093747,1.1755530151367186,-14.763358778625955,10.854961832061068,4.061068702290076,-11.427524523925781,1.1851298217773436,-2.3151930053710936,14.396946564885496,-8.580152671755725,-8.290076335877863,0.0
11.93000054359436,-9.229647399902344,1.9656395629882812,0.6464344482421874,-9.694656488549619,11.770992366412214,6.488549618320611,-11.860875024414062,1.199495031738281,-2.3535002319335936,22.198473282442748,-8.80916030534351,-12.351145038167939,0.0
11.940000534057617,-9.3852705078125,1.6400281372070311,0.7422025146484375,-6.2748091603053435,13.49618320610687,5.9541984732824424,-11.4538607421875,0.5339069702148437,-0.28969840087890625,16.198473282442748,-14.793893129770993,-14.931297709923664,0.0
11.950000524520874,-9.270348828125,1.5275006591796874,0.9097966308593749,-3.9389312977099236,16.091603053435115,4.8396946564885495,-9.698910925292969,2.403778466796875,-0.8643067993164062,21.236641221374047,-14.854961832061068,-18.259541984732824,0.0
11.96000051498413,-9.306261853027344,1.5705962890624998,1.22583125,-6.427480916030534,17.358778625954198,1.9389312977099236,-9.287108239746093,2.4875755249023435,-0.01915361328125,5.435114503816794,-16.50381679389313,-18.213740458015266,0.0
11.970000505447388,-9.588777648925781,1.675941162109375,1.5897499023437498,-8.488549618320612,17.587786259541986,-1.4809160305343512,-8.932766394042968,3.928884924316406,-0.30885201416015623,-10.412213740458014,-11.557251908396946,-18.946564885496183,0.0
11.980000734329224,-9.955090502929687,1.8435352783203125,1.7764976318359373,-10.335877862595419,17.358778625954198,-3.2061068702290076,-10.369287390136718,2.4947581298828125,0.062249243164062495,-17.31297709923664,-11.007633587786259,-18.015267175572518,0.0
11.990000247955322,-9.708487731933593,1.429338391113281,1.3527239379882812,-9.19083969465649,16.977099236641223,-3.9389312977099236,-10.268730920410155,1.9105729248046874,0.5961562133789062,-23.6793893129771,-10.641221374045802,-19.87786259541985,0.0
12.000000476837158,-9.476250170898437,0.8834604125976562,0.9816226806640624,-5.099236641221374,17.954198473282442,-4.320610687022901,-10.982203015136719,0.07900865478515624,1.4891934326171874,-24.015267175572518,-12.641221374045802,-20.38167938931298,0.0
12.010000944137573,-8.262389929199218,-0.5267243652343749,0.5195417602539062,11.145038167938932,24.9618320610687,-4.870229007633588,-10.649408984374999,0.055066638183593745,1.618480322265625,-18.427480916030536,-19.053435114503817,-24.106870229007633,0.0
12.020000696182251,-10.857704528808593,1.7501614135742187,1.4700398193359374,12.687022900763358,27.96946564885496,-9.954198473282442,-11.262324609375,-0.040701428222656245,1.2042834350585936,-14.687022900763358,-24.396946564885496,-27.480916030534353,0.0
12.030000686645508,-9.83777462158203,1.7764976318359373,0.8810662109374999,11.083969465648854,25.633587786259543,-9.786259541984732,-10.175357055664062,0.1484405029296875,1.8459294799804686,-18.50381679389313,-28.18320610687023,-29.297709923664122,0.0
12.040000677108765,-9.258377819824219,1.6807295654296874,0.6416460449218749,5.984732824427481,24.061068702290076,-10.076335877862595,-11.257536206054686,-1.448492004394531,1.7597382202148437,-3.4198473282442747,-38.778625954198475,-29.282442748091604,0.0
12.050000667572021,-8.75320126953125,1.407790576171875,0.7278373046875,2.9770992366412212,24.213740458015266,-10.610687022900763,-9.18655177001953,0.055066638183593745,0.45489831542968745,0.7022900763358778,-44.94656488549618,-33.786259541984734,0.0
12.060000896453857,-10.572794531249999,3.574543078613281,1.714248388671875,-10.51908396946565,21.69465648854962,-12.885496183206106,-8.63827958984375,1.2569558715820313,0.08379705810546874,0.15267175572519084,-49.83206106870229,-36.87022900763359,0.0
12.070000648498535,-9.813832604980469,2.262520568847656,1.5777788940429687,-18.259541984732824,17.358778625954198,-11.16030534351145,-9.868899243164062,0.3399766357421875,0.36152445068359373,-2.9923664122137406,-46.091603053435115,-36.10687022900763,0.0
12.080000638961792,-10.108319409179687,1.7525556152343749,1.956062756347656,-18.641221374045802,17.450381679389313,-10.83969465648855,-9.449913952636718,0.51714755859375,0.02154781494140625,-5.633587786259542,-45.87786259541985,-37.12977099236641,0.0
12.090000867843628,-10.079588989257813,1.5346832641601562,1.7741034301757812,-17.46564885496183,15.877862595419847,-10.229007633587786,-8.774749084472656,0.7757213378906249,-0.1484405029296875,-9.267175572519085,-41.45038167938932,-37.43511450381679,0.0
12.100000619888306,-10.180145458984374,1.9871873779296874,1.8028338500976562,-16.610687022900763,15.236641221374045,-9.282442748091603,-7.371746911621093,1.4772224243164063,-0.09337386474609374,-26.229007633587788,-30.946564885496183,-35.9236641221374,0.0
12.110000848770142,-10.273519323730468,1.8914193115234375,1.8411410766601561,-20.50381679389313,13.221374045801527,-9.282442748091603,-10.943895788574219,-1.9800047729492187,0.7972691528320313,-17.00763358778626,-34.0763358778626,-29.221374045801525,0.0
12.120000839233398,-9.97903251953125,0.8786720092773437,1.6017209106445311,-19.19083969465649,11.450381679389313,-9.664122137404581,-8.966285217285156,-0.6703764648437499,0.4836287353515625,4.137404580152672,-40.534351145038165,-30.259541984732824,0.0
12.130000591278076,-8.482656481933594,-0.8595183959960937,1.0127473022460938,-8.076335877862595,13.374045801526718,-7.541984732824427,-7.726088757324218,0.82360537109375,-0.016759411621093748,3.053435114503817,-39.06870229007634,-32.2442748091603,0.0
12.140000820159912,-10.350133776855468,2.43250888671875,2.2553379638671873,-6.961832061068702,17.755725190839694,-11.98473282442748,-8.44674345703125,0.7493851196289062,0.08858546142578125,-1.4961832061068703,-30.366412213740457,-29.557251908396946,0.0
12.15000057220459,-9.361328491210937,1.3263877197265623,1.3407529296874998,-18.015267175572518,11.236641221374045,-9.664122137404581,-9.883264453125,-0.8116343627929687,0.8858546142578124,7.038167938931298,-30.213740458015266,-24.83969465648855,0.0
12.160000562667847,-9.710881933593749,0.93852705078125,1.4867992309570313,-17.251908396946565,11.633587786259541,-10.931297709923664,-9.720458740234374,-2.0446482177734375,0.9050082275390624,27.328244274809162,-36.70229007633588,-22.885496183206108,0.0
12.170000553131104,-9.445125549316407,-0.16280571289062498,1.3000515014648437,-11.17557251908397,12.580152671755725,-12.122137404580153,-9.459490759277344,-0.8762778076171874,0.8259995727539062,45.69465648854962,-41.23664122137404,-24.50381679389313,0.0
12.18000078201294,-9.313444458007812,0.1149216796875,1.2904746948242187,-3.1297709923664123,14.198473282442748,-13.893129770992367,-7.668627917480468,1.3239935180664062,0.009576806640625,37.86259541984733,-37.404580152671755,-26.38167938931298,0.0
12.190000772476196,-9.26316622314453,0.6392518432617187,1.484405029296875,-0.7480916030534351,16.18320610687023,-14.900763358778626,-9.167398156738281,0.3591302490234375,0.22744915771484372,32.732824427480914,-33.11450381679389,-20.82442748091603,0.0
12.200000524520874,-8.276755139160155,-1.3263877197265623,0.699106884765625,6.641221374045801,16.35114503816794,-15.236641221374045,-9.421183532714844,0.1484405029296875,0.507570751953125,41.87786259541985,-34.412213740458014,-18.564885496183205,0.0
12.21000051498413,-9.009380847167968,-0.4860229370117187,0.9720458740234375,20.015267175572518,20.18320610687023,-18.625954198473284,-8.939948999023438,1.005564697265625,0.48123453369140623,42.82442748091603,-34.152671755725194,-19.14503816793893,0.0
12.220000267028809,-8.030152368164062,-0.0430956298828125,0.8714894042968749,25.557251908396946,21.786259541984734,-19.938931297709924,-7.3094976684570305,2.93050283203125,-0.24899697265624998,29.64885496183206,-25.6793893129771,-19.64885496183206,0.0
12.230000495910645,-9.121908325195312,0.5147533569335937,1.867477294921875,28.83969465648855,26.778625954198475,-21.755725190839694,-8.851363537597656,1.3335703247070312,0.93852705078125,13.312977099236642,-13.969465648854962,-14.01526717557252,0.0
12.240000486373901,-9.919177478027343,1.5275006591796874,2.1499930908203124,29.64885496183206,27.328244274809162,-22.641221374045802,-9.686939916992188,0.40940848388671874,1.3120225097656248,12.091603053435115,-12.213740458015268,-10.488549618320612,0.0
12.250000953674316,-10.347739575195313,2.2744915771484373,2.147598889160156,28.0,25.740458015267176,-21.282442748091604,-10.072406384277343,-0.7685387329101562,0.8044517578125,17.6793893129771,-14.564885496183207,-8.244274809160306,0.0
12.260000705718994,-9.639055883789062,2.4133552734375,1.7477672119140624,25.435114503816795,23.053435114503817,-19.19083969465649,-9.126696728515624,-0.5051765502929687,0.5626373901367188,24.748091603053435,-15.465648854961833,-10.122137404580153,0.0
12.27000093460083,-10.05564697265625,2.540247961425781,1.9416975463867185,19.954198473282442,19.984732824427482,-17.236641221374047,-8.688557824707031,-0.16041151123046873,0.6919242797851562,22.396946564885496,-11.129770992366412,-10.564885496183207,0.0
12.280000686645508,-9.085995300292968,2.4205378784179685,1.8076222534179687,12.992366412213741,17.84732824427481,-15.618320610687023,-8.334215979003906,0.9648632690429687,-0.3064578125,17.297709923664122,-9.83206106870229,-8.610687022900763,0.0
12.290000915527344,-10.271125122070313,3.6822821533203123,2.4396914916992185,-3.282442748091603,13.206106870229007,-16.641221374045802,-8.06367119140625,0.8978256225585937,0.13168109130859373,4.687022900763359,1.9083969465648856,-5.1603053435114505,0.0
12.3000009059906,-10.036493359375,2.4756045166015626,2.8754361938476563,-5.66412213740458,14.65648854961832,-15.648854961832061,-8.348581188964843,0.4644751220703125,0.19393033447265623,10.198473282442748,-0.366412213740458,-2.4885496183206106,0.0
12.310000658035278,-10.479420666503906,2.205059729003906,2.932897033691406,-18.35114503816794,6.0,-16.595419847328245,-8.434772448730468,-0.17238251953125,0.44532150878906246,12.977099236641221,5.419847328244275,-2.198473282442748,0.0
12.320000648498535,-9.804255798339844,0.8307879760742187,3.19865341796875,-13.801526717557252,4.900763358778626,-15.068702290076336,-8.046911779785155,-0.3591302490234375,0.5817910034179687,15.648854961832061,6.458015267175573,-2.0763358778625953,0.0
12.330000638961792,-9.521740002441407,0.612915625,3.4548329956054684,-8.564885496183207,2.6564885496183206,-15.541984732824428,-8.55448253173828,-0.9792284790039062,0.8499415893554687,21.114503816793892,7.022900763358779,-0.9923664122137404,0.0
12.340000629425049,-9.490615380859374,0.08379705810546874,3.6176387084960937,-0.6870229007633588,-0.33587786259541985,-16.0,-8.214505895996094,-0.45489831542968745,0.6464344482421874,25.46564885496183,6.931297709923665,-0.22900763358778625,0.0
12.350000619888306,-9.143456140136719,-0.25139117431640623,3.835511059570312,19.251908396946565,3.7709923664122136,-16.0,-8.262389929199218,-0.5434837768554687,0.7685387329101562,27.69465648854962,8.793893129770993,1.2671755725190839,0.0
12.360000848770142,-9.662997900390625,1.0175357055664063,4.73094248046875,26.137404580152673,3.068702290076336,-17.19083969465649,-6.8593877563476555,1.407790576171875,0.02633621826171875,24.50381679389313,10.854961832061068,0.6259541984732825,0.0
12.37000060081482,-10.831368310546875,2.31758720703125,5.0206408813476555,29.267175572519083,-2.885496183206107,-15.374045801526718,-7.805097412109374,0.5339069702148437,0.7685387329101562,11.679389312977099,16.412213740458014,3.49618320610687,0.0
12.380000829696655,-10.307038146972655,2.942473840332031,5.1140147460937495,28.85496183206107,-9.84732824427481,-13.221374045801527,-9.10993731689453,0.229843359375,1.199495031738281,7.450381679389313,17.450381679389313,3.2977099236641223,0.0
12.390000581741333,-11.322179650878905,4.630386010742187,5.829881042480468,19.480916030534353,-19.389312977099237,-12.320610687022901,-8.154650854492187,0.7134720947265625,0.612915625,-4.152671755725191,21.557251908396946,-0.732824427480916,0.0
12.400000810623169,-9.974244116210937,2.1619640991210938,5.609614489746093,19.404580152671755,-28.641221374045802,-5.8320610687022905,-8.755595471191405,0.0718260498046875,-0.00718260498046875,-17.66412213740458,34.93129770992366,0.6564885496183206,0.0
12.410000562667847,-11.71482872314453,3.0047230834960934,6.5218053222656245,17.053435114503817,-37.86259541984733,-4.717557251908397,-11.700463513183593,-1.7381904052734374,-0.02154781494140625,-7.877862595419847,34.152671755725194,3.0381679389312977,0.0
12.420000553131104,-10.848127722167968,0.06464344482421874,6.0333881835937495,27.770992366412212,-47.847328244274806,-0.13740458015267176,-10.383652600097655,0.9816226806640624,-1.9321207397460936,0.5648854961832062,31.755725190839694,-3.984732824427481,0.0
12.43000054359436,-10.263942517089843,-0.5195417602539062,5.671863732910156,45.31297709923664,-53.343511450381676,2.6717557251908395,-9.248801013183593,1.4628572143554686,-1.8148048583984373,-12.061068702290076,45.80152671755725,-9.16030534351145,0.0
12.440000534057617,-11.643002673339844,2.128445275878906,6.8593877563476555,44.68702290076336,-60.82442748091603,0.2900763358778626,-12.00213292236328,-0.7445967163085937,0.29448680419921874,-10.870229007633588,47.847328244274806,-6.458015267175573,0.0
12.450000524520874,-11.470620153808593,3.134009973144531,6.998251452636718,35.7557251908397,-78.83969465648855,-0.2748091603053435,-10.36210478515625,2.250549560546875,0.6368576416015624,-8.16793893129771,40.85496183206107,-7.435114503816794,0.0
12.46000051498413,-12.361263171386717,3.134009973144531,6.76122548828125,21.893129770992367,-96.53435114503817,0.5954198473282443,-10.75714805908203,2.1787235107421874,3.447650390625,-20.213740458015266,42.916030534351144,-3.6030534351145036,0.0
12.470000505447388,-12.878410729980468,1.5634136840820312,6.943184814453125,17.00763358778626,-112.19847328244275,3.572519083969466,-12.401964599609375,-0.689530078125,1.8124106567382812,-13.954198473282442,35.05343511450382,1.083969465648855,0.0
12.480000257492065,-13.666103076171874,0.8690952026367187,6.983886242675781,24.946564885496183,-126.01526717557252,9.664122137404581,-9.892841259765625,1.5849614990234373,2.3630770385742186,-13.32824427480916,30.641221374045802,1.3282442748091603,0.0
12.49000072479248,-14.772224243164061,0.8882488159179687,7.230489013671875,30.48854961832061,-136.54961832061068,14.977099236641221,-12.837709301757812,-2.3918074584960936,1.7238251953125,-7.00763358778626,27.328244274809162,9.251908396946565,0.0
12.500000715255737,-15.04755743408203,-0.0430956298828125,7.041347082519531,32.48854961832061,-148.67175572519085,15.587786259541986,-11.439495532226562,-1.426944189453125,0.7589619262695312,16.0,14.748091603053435,6.534351145038168,0.0
12.510000944137573,-14.844050292968749,0.10295067138671875,6.754042883300781,42.030534351145036,-157.00763358778627,15.86259541984733,-10.199299072265624,0.11731588134765625,-0.39264907226562495,22.27480916030534,16.717557251908396,1.9541984732824427,0.0
12.520000696182251,-14.355633154296875,0.12689268798828124,7.125144140624999,57.770992366412216,-165.3740458015267,19.51145038167939,-9.143456140136719,0.8188169677734375,-1.6998831787109374,8.946564885496183,21.66412213740458,0.5648854961832062,0.0
12.530000686645508,-12.574347119140624,-0.679953271484375,4.896142395019531,61.51145038167939,-171.06870229007635,23.923664122137403,-9.708487731933593,-0.928950244140625,-1.419761584472656,-4.015267175572519,26.580152671755727,4.763358778625954,0.0
12.540000677108765,-11.3006318359375,-3.5314474487304683,0.9720458740234375,39.57251908396947,-173.74045801526717,18.793893129770993,-10.031704956054687,-1.2808978881835937,-1.2018892333984375,1.3893129770992367,21.557251908396946,5.129770992366412,0.0
12.550000667572021,-10.527304699707031,-3.6750995483398436,-0.44053310546874996,25.587786259541986,-172.65648854961833,7.038167938931298,-9.670180505371093,-1.7310078002929687,-1.8100164550781248,4.076335877862595,22.671755725190838,0.8244274809160306,0.0
12.560000658035278,-9.052476477050782,-3.095702746582031,-1.4772224243164063,15.84732824427481,-166.85496183206106,-3.2977099236641223,-9.023746057128905,-0.9265560424804687,-1.1947066284179686,-4.793893129770993,21.34351145038168,-0.549618320610687,0.0
12.570000886917114,-8.343792785644531,-0.7254431030273437,-2.1978771240234374,7.862595419847328,-156.1679389312977,-11.389312977099237,-9.258377819824219,-0.2154781494140625,-2.233790148925781,-13.572519083969466,25.206106870229007,1.4351145038167938,0.0
12.580000400543213,-7.694964135742187,-1.1563994018554686,-3.447650390625,-3.236641221374046,-143.9236641221374,-15.740458015267176,-11.334150659179686,-2.157175695800781,-1.2330138549804688,-18.137404580152673,27.84732824427481,6.870229007633588,0.0
12.590000629425049,-6.296750366210937,-2.6431986328124997,-3.6200329101562496,1.2061068702290076,-122.41221374045801,-17.129770992366414,-10.213664282226562,-4.084508032226562,0.3136404174804687,-8.625954198473282,21.61832061068702,6.290076335877862,0.0
12.600000619888306,-6.351817004394531,-3.4955344238281247,-3.181894006347656,12.82442748091603,-100.44274809160305,-18.48854961832061,-9.447519750976562,-2.952050646972656,0.1197100830078125,12.412213740458014,13.068702290076336,0.9465648854961832,0.0
12.610000610351562,-6.8593877563476555,-2.0446482177734375,-2.1811177124023438,26.80916030534351,-76.3969465648855,-17.923664122137403,-9.871293444824218,-3.768473413085937,-0.7589619262695312,12.900763358778626,15.297709923664122,-0.15267175572519084,0.0
12.620000839233398,-6.591237170410156,-0.7038952880859375,-1.668758557128906,35.48091603053435,-55.06870229007634,-15.587786259541986,-9.854534033203125,-2.408566870117187,-0.4213794921875,14.748091603053435,11.557251908396946,2.717557251908397,0.0
12.630000591278076,-7.098807922363281,1.0821791503906248,-0.928950244140625,37.57251908396947,-39.038167938931295,-14.259541984732824,-9.641450085449218,-1.6160861206054686,-0.8475473876953125,14.351145038167939,12.488549618320612,3.267175572519084,0.0
12.640000820159912,-6.979097839355468,1.9656395629882812,-0.59376201171875,32.51908396946565,-28.580152671755727,-11.801526717557252,-9.512163195800781,-1.4006079711914061,-0.5147533569335937,13.114503816793894,14.122137404580153,3.1297709923664123,0.0
12.65000057220459,-6.58884296875,2.8203695556640622,-0.21308394775390624,19.587786259541986,-18.885496183206108,-8.50381679389313,-9.414000927734374,-1.5227122558593749,-0.2920926025390625,12.534351145038167,14.625954198473282,3.404580152671756,0.0
12.660000562667847,-7.3861121215820305,3.9743747558593747,0.928950244140625,0.12213740458015267,-10.931297709923664,-7.083969465648855,-9.560047229003906,-2.2840683837890623,-0.1771709228515625,13.603053435114504,14.50381679389313,3.3435114503816794,0.0
12.670000553131104,-5.312733483886719,2.195482922363281,-0.10773907470703124,-19.053435114503817,-7.221374045801527,-2.4122137404580153,-9.1554271484375,-2.2457611572265623,-1.1156979736328125,16.198473282442748,13.206106870229007,2.564885496183206,0.0
12.68000054359436,-5.465962390136719,1.2856862915039062,0.28012159423828126,-32.42748091603053,1.5725190839694656,-1.9083969465648856,-9.651026892089844,-2.2649147705078123,-0.8355763793945312,18.85496183206107,14.595419847328245,2.122137404580153,0.0
12.690000534057617,-5.691017346191406,1.6065093139648436,1.0558429321289062,-48.35114503816794,9.664122137404581,-2.717557251908397,-8.67658681640625,-0.38786066894531246,-1.6831237670898436,15.801526717557252,14.259541984732824,0.6717557251908397,0.0
12.700000286102295,-5.722141967773437,0.86191259765625,1.2832920898437499,-62.87022900763359,13.557251908396946,-4.015267175572519,-10.445901843261717,-2.1116858642578125,-0.5434837768554687,17.389312977099237,16.290076335877863,3.8473282442748094,0.0
12.71000051498413,-5.442020373535156,0.09816226806640624,1.85790048828125,-70.6412213740458,18.9618320610687,-4.870229007633588,-8.932766394042968,0.24660277099609373,-0.24899697265624998,18.091603053435115,12.961832061068701,1.5572519083969465,0.0
12.720000505447388,-4.106055847167968,-1.5275006591796874,1.8148048583984373,-55.465648854961835,29.49618320610687,-2.366412213740458,-11.212046374511718,-1.7980454467773437,0.833182177734375,20.290076335877863,15.48091603053435,5.038167938931298,0.0
12.730000495910645,-5.5545478515625,0.7637503295898437,3.651157531738281,-70.4885496183206,26.35114503816794,-8.106870229007633,-9.442731347656249,0.3112462158203125,0.8571241943359375,18.900763358778626,12.091603053435115,3.145038167938931,0.0
12.740000486373901,-5.2648494506835934,-1.599326708984375,3.687070556640625,-66.04580152671755,29.770992366412212,-4.641221374045801,-10.058041174316406,0.239420166015625,0.5434837768554687,13.786259541984732,11.84732824427481,5.969465648854962,0.0
12.750000715255737,-3.9264907226562498,-2.7940333374023436,3.447650390625,-38.916030534351144,42.48854961832061,-1.8778625954198473,-9.56962403564453,0.1484405029296875,0.17956512451171874,8.977099236641221,11.709923664122137,7.038167938931298,0.0
12.760000944137573,-4.331110803222656,-2.70065947265625,4.153939880371094,-27.84732824427481,50.97709923664122,-5.8320610687022905,-10.328585961914062,-0.1292868896484375,0.5099649536132812,7.526717557251908,12.610687022900763,7.9541984732824424,0.0
12.77000117301941,-4.987122058105468,-2.8419173706054686,4.862623571777344,-16.396946564885496,57.099236641221374,-9.038167938931299,-10.271125122070313,-0.689530078125,0.2705447875976562,5.267175572519084,12.290076335877863,8.244274809160306,0.0
12.780001163482666,-5.427655163574219,-3.086125939941406,5.65031591796875,-3.099236641221374,62.97709923664122,-11.877862595419847,-10.474632263183594,-1.9416975463867185,0.4261678955078125,0.5648854961832062,8.50381679389313,9.129770992366412,0.0
12.790001153945923,-5.870582470703124,-2.4756045166015626,6.979097839355468,12.030534351145038,66.42748091603053,-13.679389312977099,-10.002974536132811,-1.93451494140625,0.5913678100585937,2.4122137404580153,7.938931297709924,8.900763358778626,0.0
12.800000667572021,-7.254431030273437,-0.612915625,7.886500268554687,26.38167938931298,67.22137404580153,-13.938931297709924,-10.079588989257813,-2.231395947265625,0.8882488159179687,3.8473282442748094,5.694656488549619,8.992366412213741,0.0
12.810000658035278,-7.548917834472656,0.4908113403320312,7.9295958984374995,36.67175572519084,67.80152671755725,-10.13740458015267,-8.896853369140624,-1.24498486328125,0.32082302246093747,5.923664122137405,4.732824427480916,7.740458015267175,0.0
12.820000648498535,-8.348581188964843,1.8243816650390623,8.283937744140625,41.64885496183206,66.85496183206106,-5.603053435114504,-8.47786807861328,-3.1316157714843746,0.612915625,-2.3969465648854964,4.564885496183206,9.908396946564885,0.0
12.830000638961792,-9.315838659667968,2.4875755249023435,8.645462194824217,41.83206106870229,64.3206106870229,1.1145038167938932,-9.141061938476563,-2.090138049316406,0.5219359619140624,10.458015267175572,2.9923664122137406,8.717557251908397,0.0
12.840000629425049,-9.112331518554686,2.5067291381835934,8.2743609375,44.29007633587786,62.06106870229008,7.343511450381679,-7.953537915039062,0.24660277099609373,-0.354341845703125,5.572519083969466,4.6106870229007635,6.763358778625954,0.0
12.850000619888306,-10.022128149414062,3.191470812988281,8.429984045410155,41.083969465648856,60.44274809160305,10.442748091603054,-8.111555224609374,-0.47644613037109373,-0.59376201171875,-19.69465648854962,8.65648854961832,10.305343511450381,0.0
12.860000371932983,-10.953472595214842,3.785232824707031,8.820238916015624,29.61832061068702,52.74809160305343,15.297709923664122,-7.678204724121093,1.149216796875,-1.4700398193359374,-30.99236641221374,18.290076335877863,12.320610687022901,0.0
12.87000060081482,-11.087547888183593,1.915361328125,6.983886242675781,18.015267175572518,46.3206106870229,24.82442748091603,-9.880870251464843,-0.6727706665039062,-1.2234370483398436,-30.33587786259542,28.564885496183205,18.778625954198475,0.0
12.880001068115234,-11.066000073242186,0.4213794921875,5.738901379394531,24.3206106870229,48.35114503816794,30.748091603053435,-10.194510668945313,-2.8203695556640622,0.5817910034179687,-34.35114503816794,27.389312977099237,21.358778625954198,0.0
12.890000343322754,-13.606248034667967,1.8770541015625,6.924031201171875,14.106870229007633,43.70992366412214,31.206106870229007,-13.144167114257812,-7.572859851074218,3.1076737548828124,-25.52671755725191,25.984732824427482,24.045801526717558,0.0
12.900000810623169,-14.049175341796873,2.319981408691406,7.888894470214844,10.244274809160306,36.79389312977099,36.534351145038165,-9.042899670410156,-2.3151930053710936,-0.7493851196289062,-12.351145038167939,17.068702290076335,17.908396946564885,0.0
12.910000562667847,-15.885528015136718,4.134786267089844,9.65342109375,-2.1526717557251906,25.801526717557252,41.770992366412216,-9.428366137695312,-2.5450363647460934,-0.6631938598632812,-21.6793893129771,23.938931297709924,21.022900763358777,0.0
12.920000553131104,-14.793772058105468,4.074931225585937,9.423577734375,-18.9618320610687,11.419847328244275,45.51145038167939,-10.32379755859375,-1.7214309936523438,-1.675941162109375,-9.312977099236642,22.03053435114504,24.015267175572518,0.0
12.93000078201294,-16.002843896484375,5.255272644042968,9.469067565917967,-33.847328244274806,-3.984732824427481,46.25954198473283,-11.190498559570312,-3.0885201416015624,-1.3910311645507811,11.923664122137405,20.15267175572519,25.16030534351145,0.0
12.940000295639038,-13.78341895751953,2.959233251953125,6.742071875,-56.534351145038165,-21.358778625954198,47.29770992366412,-8.204929089355469,-0.19153613281249998,-1.1252747802734375,9.572519083969466,9.068702290076336,20.717557251908396,0.0
12.950000524520874,-9.399635717773437,-1.915361328125,3.3111808959960936,-52.94656488549618,-19.709923664122137,48.778625954198475,-10.184933862304687,-0.21308394775390624,-0.39983167724609375,5.6183206106870225,15.19083969465649,23.587786259541986,0.0
12.96000075340271,-8.413224633789062,-0.18914193115234373,1.8148048583984373,-61.51145038167939,-18.458015267175572,36.6412213740458,-9.720458740234374,2.712630480957031,-1.438915197753906,-5.221374045801527,22.045801526717558,21.893129770992367,0.0
12.970000505447388,-6.234501123046875,-0.47165772705078124,-0.6081272216796875,-68.45801526717557,-13.801526717557252,30.18320610687023,-9.763554370117188,4.11802685546875,-1.879448303222656,-27.206106870229007,29.633587786259543,23.404580152671755,0.0
12.980000734329224,-3.3255461059570313,-3.4739866088867184,-3.469198205566406,-56.412213740458014,-2.351145038167939,31.221374045801525,-11.33175645751953,1.5897499023437498,-1.3263877197265623,-29.389312977099237,34.94656488549618,29.6793893129771,0.0
12.99000072479248,-5.549759448242187,-1.1540052001953125,-1.5251064575195312,-42.18320610687023,16.80916030534351,24.702290076335878,-11.499350573730467,1.3192051147460937,-1.62805712890625,-17.49618320610687,25.358778625954198,28.427480916030536,0.0
13.000000476837158,-5.729324572753906,-2.379836450195312,-0.9744400756835937,-39.43511450381679,22.427480916030536,23.083969465648856,-11.156979736328124,2.408566870117187,-2.4205378784179685,-15.16030534351145,22.259541984732824,24.900763358778626,0.0
13.010000944137573,-4.6255976074218745,-3.4356793823242184,-0.93852705078125,-8.67175572519084,38.62595419847328,24.15267175572519,-11.389217297363281,2.4971523315429685,-2.195482922363281,-34.274809160305345,19.297709923664122,24.564885496183205,0.0
13.020000696182251,-7.098807922363281,-2.133233679199219,0.24660277099609373,14.82442748091603,52.85496183206107,18.748091603053435,-11.997344519042969,1.2641384765625,-2.1978771240234374,-44.35114503816794,24.977099236641223,23.19083969465649,0.0
13.030000686645508,-8.544905725097657,-2.114080065917969,-0.15322890625,40.19847328244275,64.07633587786259,15.648854961832061,-12.720393420410156,0.24181436767578124,-0.4213794921875,-35.86259541984733,18.30534351145038,23.16030534351145,0.0
13.040000677108765,-9.586383447265625,-1.47482822265625,0.38307226562499996,58.961832061068705,71.12977099236642,10.458015267175572,-14.786589453125,-2.3415292236328122,2.6288334228515624,-25.17557251908397,11.038167938931299,27.419847328244273,0.0
13.050000667572021,-10.364498986816406,0.258573779296875,1.3359645263671873,68.10687022900764,74.07633587786259,3.954198473282443,-10.35492218017578,1.9488801513671874,0.09337386474609374,-17.96946564885496,-4.931297709923665,18.137404580152673,0.0
13.060000658035278,-11.908759057617187,3.9240965209960934,2.327164013671875,57.48091603053435,68.50381679389314,-0.5954198473282443,-11.681309899902343,1.3215993164062498,-0.13646949462890623,-20.076335877862597,-3.0381679389312977,20.671755725190838,0.0
13.070000886917114,-10.850521923828124,4.146757275390625,2.013523596191406,37.16030534351145,57.404580152671755,0.48854961832061067,-11.240776794433593,1.944091748046875,-0.22744915771484372,-22.68702290076336,-5.465648854961832,22.229007633587788,0.0
13.080000638961792,-10.89840595703125,4.527435339355469,2.133233679199219,23.46564885496183,51.06870229007634,2.351145038167939,-10.802637890625,2.0757728393554684,-0.1867477294921875,-24.885496183206108,-8.625954198473282,20.82442748091603,0.0
13.090000629425049,-11.724405529785155,5.985504150390625,2.422932080078125,2.549618320610687,44.87022900763359,2.6412213740458017,-10.544064111328124,1.8267758666992187,-0.3136404174804687,-27.267175572519083,-10.305343511450381,19.282442748091604,0.0
13.100000619888306,-9.591171850585937,4.903325,0.93852705078125,-18.885496183206108,33.81679389312977,6.732824427480916,-10.62307276611328,1.0917559570312498,0.25139117431640623,-27.480916030534353,-12.458015267175572,18.15267175572519,0.0
13.110000610351562,-9.600748657226562,2.7461493041992187,0.948103857421875,-23.69465648854962,37.29770992366412,9.022900763358779,-11.077971081542968,-0.82360537109375,1.0845733520507812,-19.87786259541985,-17.358778625954198,16.671755725190838,0.0
13.120000839233398,-8.566453540039062,1.180341418457031,0.45968671875,-21.0381679389313,39.099236641221374,9.740458015267176,-10.857704528808593,-0.02633621826171875,1.4006079711914061,-13.435114503816793,-25.236641221374047,11.86259541984733,0.0
13.130000591278076,-8.9255837890625,1.6160861206054686,0.70868369140625,-20.732824427480917,41.541984732824424,8.564885496183207,-9.380482104492186,1.350329736328125,-0.12210428466796874,-16.748091603053435,-31.770992366412212,7.297709923664122,0.0
13.140001058578491,-9.038111267089842,1.2976572998046874,0.8188169677734375,-26.458015267175572,40.68702290076336,7.3893129770992365,-9.739612353515625,1.2976572998046874,0.34237083740234375,-21.358778625954198,-33.770992366412216,6.5038167938931295,0.0
13.150000810623169,-8.772354882812499,0.26336218261718747,0.6105214233398437,-23.0381679389313,41.29770992366412,5.923664122137405,-10.065223779296874,0.05746083984375,-0.06703764648437499,-14.320610687022901,-37.3587786259542,5.587786259541985,0.0
13.160000562667847,-9.3086560546875,0.2825157958984375,1.1372457885742187,-21.16030534351145,41.00763358778626,2.2900763358778624,-10.462661254882812,-0.9840168823242187,-0.2657563842773437,-1.8015267175572518,-48.29007633587786,1.6488549618320612,0.0
13.170000553131104,-9.847351428222655,0.3136404174804687,1.8746598999023436,-18.50381679389313,42.42748091603053,0.183206106870229,-7.771578588867187,2.85388837890625,-1.7166425903320313,-2.3053435114503817,-52.79389312977099,-4.717557251908397,0.0
13.180001020431519,-7.912836486816405,-0.5602431884765625,0.5099649536132812,-13.740458015267176,39.45038167938932,0.015267175572519083,-7.8721350585937495,3.3016040893554686,-1.6807295654296874,-25.96946564885496,-45.343511450381676,-2.427480916030534,0.0
13.190000772476196,-10.261548315429687,-0.19632453613281248,1.7693150268554687,-10.091603053435115,42.19847328244275,-3.984732824427481,-9.387664709472656,0.44532150878906246,-0.7206546997070312,-23.69465648854962,-43.11450381679389,0.9007633587786259,0.0
13.200000762939453,-10.78348427734375,1.5897499023437498,2.1499930908203124,-6.106870229007634,42.33587786259542,-8.549618320610687,-9.832986218261718,0.031124621582031248,-1.0199299072265624,-10.01526717557252,-47.86259541984733,0.030534351145038167,0.0
13.21000051498413,-11.152191333007812,1.5370774658203123,2.2266075439453124,-7.694656488549619,39.603053435114504,-9.099236641221374,-7.146691955566406,3.797203833007812,-3.0526071166992184,-15.511450381679388,-47.847328244274806,-4.1679389312977095,0.0
13.220000505447388,-11.774683764648437,2.003946789550781,2.4875755249023435,-8.946564885496183,35.51145038167939,-9.511450381679388,-9.006986645507812,0.7398083129882812,-1.8100164550781248,-34.83969465648855,-35.37404580152672,1.6946564885496183,0.0
13.230000972747803,-10.721235034179687,0.5123591552734374,1.7573440185546874,0.0,34.87022900763359,-8.885496183206106,-10.685322009277343,-1.6232687255859375,-1.7908628417968748,-9.786259541984732,-36.76335877862596,2.4732824427480917,0.0
13.24000072479248,-9.660603698730467,1.9752163696289062,1.2856862915039062,5.908396946564886,33.221374045801525,-10.595419847328245,-9.739612353515625,0.32082302246093747,-2.3127988037109373,7.572519083969466,-39.70992366412214,-2.7022900763358777,0.0
13.250000953674316,-9.119514123535156,2.1787235107421874,1.1348515869140625,-2.9160305343511452,29.480916030534353,-10.381679389312977,-8.259995727539062,2.5857377929687497,-3.622427111816406,-1.3740458015267176,-34.916030534351144,-5.786259541984733,0.0
13.260000944137573,-10.27830772705078,4.276044165039062,2.2673089721679687,-18.50381679389313,24.412213740458014,-11.770992366412214,-9.97903251953125,0.9337386474609375,-2.4061726684570313,-7.4961832061068705,-23.16030534351145,-0.5648854961832062,0.0
13.27000117301941,-9.342174877929686,2.3726538452148436,1.9129671264648436,-25.64885496183206,19.862595419847327,-9.374045801526718,-11.432312927246093,-0.25139117431640623,-1.8243816650390623,5.984732824427481,-19.572519083969464,-1.450381679389313,0.0
13.280000925064087,-10.204087475585936,2.142810485839844,2.176329309082031,-22.610687022900763,17.83206106870229,-9.83206106870229,-10.407594616699217,0.143652099609375,-1.7908628417968748,20.80916030534351,-20.061068702290076,-7.679389312977099,0.0
13.290000915527344,-9.203311181640624,1.1659762084960936,1.5969325073242187,-17.435114503816795,15.740458015267176,-8.061068702290076,-9.746794958496093,0.5051765502929687,-2.7365724975585937,28.290076335877863,-19.297709923664122,-12.473282442748092,0.0
13.3000009059906,-9.485826977539062,1.8531120849609375,1.7741034301757812,-9.679389312977099,18.244274809160306,-8.01526717557252,-9.794678991699218,0.4836287353515625,-1.9536685546875,19.51145038167939,-13.267175572519085,-12.213740458015268,0.0
13.310000658035278,-10.43871923828125,3.0334535034179684,1.9895815795898437,-12.961832061068701,16.259541984732824,-7.694656488549619,-10.330980163574218,0.7062894897460937,-0.4836287353515625,8.534351145038167,-9.633587786259541,-10.702290076335878,0.0
13.320001363754272,-9.643844287109374,2.3678654418945313,1.438915197753906,-10.427480916030534,15.312977099236642,-4.244274809160306,-9.030928662109375,2.3535002319335936,-0.9935936889648437,6.916030534351145,-12.229007633587786,-14.213740458015268,0.0
13.330000877380371,-10.105925207519531,2.7629087158203123,1.419761584472656,-8.65648854961832,14.732824427480915,-2.8396946564885495,-10.122684619140625,1.3407529296874998,0.09337386474609374,3.9389312977099236,-4.229007633587786,-15.221374045801527,0.0
13.340000629425049,-10.445901843261717,3.1747114013671873,1.675941162109375,-7.6183206106870225,14.091603053435115,-0.8396946564885496,-9.962273107910155,1.3455413330078123,0.02154781494140625,2.2595419847328246,-5.893129770992366,-17.541984732824428,0.0
13.350001096725464,-9.574412438964844,2.133233679199219,1.0630255371093749,-4.99236641221374,12.229007633587786,3.068702290076336,-10.139444030761718,0.7541735229492187,0.8930372192382812,-3.282442748091603,-6.67175572519084,-18.748091603053435,0.0
13.36000108718872,-9.938331091308592,2.094926452636719,1.0702081420898437,-4.931297709923665,11.84732824427481,2.9770992366412212,-11.85608662109375,-1.6807295654296874,2.2577321655273437,3.4198473282442747,-10.442748091603054,-17.66412213740458,0.0
13.370000839233398,-9.586383447265625,1.0462661254882812,0.9888052856445312,-4.595419847328245,11.404580152671755,2.931297709923664,-10.658985791015624,-0.38786066894531246,1.7860744384765623,21.96946564885496,-23.755725190839694,-21.404580152671755,0.0
13.380001306533813,-9.380482104492186,0.28490999755859375,1.0223241088867188,-2.1526717557251906,11.816793893129772,1.2061068702290076,-10.819397302246093,-0.9816226806640624,2.2673089721679687,30.259541984732824,-31.557251908396946,-23.770992366412212,0.0
13.390000820159912,-9.275137231445312,0.02633621826171875,1.1707646118164061,0.13740458015267176,12.625954198473282,-2.50381679389313,-10.488997473144531,0.6272808349609375,1.3335703247070312,40.18320610687023,-40.48854961832061,-27.00763358778626,0.0
13.400000810623169,-9.138667736816405,0.7493851196289062,1.4508862060546874,3.2519083969465647,13.312977099236642,-3.9083969465648853,-7.431601953125,4.6447512207031245,0.488417138671875,16.213740458015266,-39.770992366412216,-31.282442748091604,0.0
13.410000801086426,-9.10993731689453,1.3934253662109375,1.388636962890625,2.8396946564885495,14.106870229007633,-3.480916030534351,-8.475473876953124,2.8730419921875,1.2138602416992186,-17.297709923664122,-27.587786259541986,-25.46564885496183,0.0
13.420000553131104,-8.88009395751953,1.3192051147460937,1.0510545288085937,5.648854961832061,15.083969465648854,-3.9236641221374047,-10.307038146972655,0.6536170532226562,1.1659762084960936,-11.419847328244275,-26.732824427480917,-21.69465648854962,0.0
13.43000054359436,-9.907206469726562,1.6041151123046875,1.209071838378906,-1.6641221374045803,12.83969465648855,-4.778625954198473,-9.713276135253906,1.0438719238281249,1.350329736328125,-11.206106870229007,-30.68702290076336,-22.641221374045802,0.0
13.440000772476196,-9.753977563476562,1.4867992309570313,1.1659762084960936,-7.557251908396947,10.259541984732824,-5.282442748091603,-8.86812294921875,0.6584054565429687,0.9265560424804687,-12.80916030534351,-31.81679389312977,-24.244274809160306,0.0
13.450000524520874,-9.375693701171874,1.1731588134765625,0.9983820922851562,-9.770992366412214,9.282442748091603,-6.030534351145038,-8.59278975830078,0.4955997436523437,0.6847416748046875,-18.18320610687023,-31.709923664122137,-25.14503816793893,0.0
13.46000075340271,-10.029310754394531,1.8363526733398436,1.4772224243164063,-12.091603053435115,10.030534351145038,-6.977099236641221,-7.4603323730468745,1.0079588989257813,0.19153613281249998,-25.221374045801525,-33.11450381679389,-24.519083969465647,0.0
13.470000982284546,-9.890447058105469,1.6232687255859375,1.3263877197265623,-12.305343511450381,10.335877862595419,-4.854961832061068,-9.09796630859375,1.2713210815429687,0.7206546997070312,-22.519083969465647,-29.908396946564885,-22.16793893129771,0.0
13.480000734329224,-10.206481677246094,2.549824768066406,1.39821376953125,-15.267175572519085,8.198473282442748,-3.435114503816794,-8.556876733398436,1.1228805786132812,-0.3232172241210937,-35.37404580152672,-23.801526717557252,-20.793893129770993,0.0
13.49000072479248,-9.938331091308592,2.2457611572265623,1.5298948608398437,-19.053435114503817,6.931297709923665,-1.297709923664122,-9.414000927734374,0.24660277099609373,0.2920926025390625,-30.412213740458014,-21.16030534351145,-18.47328244274809,0.0
13.500000476837158,-10.096348400878906,1.62805712890625,1.5586252807617187,-19.954198473282442,5.541984732824427,-1.0229007633587786,-10.77630167236328,-2.080561242675781,1.4413093994140624,-17.099236641221374,-20.259541984732824,-15.740458015267176,0.0
13.510000944137573,-9.524134204101562,0.5267243652343749,1.2689268798828124,-15.679389312977099,3.8473282442748094,-1.297709923664122,-9.983820922851562,-0.7876923461914062,1.1037269653320312,-0.32061068702290074,-28.213740458015266,-18.53435114503817,0.0
13.520000696182251,-9.490615380859374,0.20829554443359374,1.0989385620117187,-10.534351145038167,2.6259541984732824,-2.8702290076335877,-11.094730493164063,-2.85388837890625,1.917755529785156,16.0,-32.94656488549618,-19.022900763358777,0.0
13.530000686645508,-9.394847314453125,-0.22505495605468748,1.209071838378906,-2.9923664122137406,3.1603053435114505,-4.534351145038168,-10.903194360351561,-1.9871873779296874,1.5921441040039062,39.12977099236641,-44.29007633587786,-21.72519083969466,0.0
13.540000677108765,-9.34696328125,0.0,1.4341267944335936,5.847328244274809,3.1297709923664123,-6.473282442748092,-9.057264880371093,0.9792284790039062,0.2442085693359375,35.06870229007634,-46.229007633587784,-26.82442748091603,0.0
13.550000667572021,-9.502586389160156,1.1228805786132812,1.848323681640625,11.49618320610687,4.519083969465649,-5.923664122137405,-10.319009155273436,0.63206923828125,0.5602431884765625,23.46564885496183,-37.786259541984734,-24.30534351145038,0.0
13.560000896453857,-10.177751257324218,2.2385785522460937,1.956062756347656,12.229007633587786,3.8625954198473282,-4.259541984732825,-11.051634863281249,0.023942016601562498,0.9337386474609375,29.404580152671755,-39.93893129770992,-20.53435114503817,0.0
13.570000648498535,-9.852139831542969,1.915361328125,1.4245499877929686,15.969465648854962,1.4809160305343512,-1.8473282442748091,-8.75320126953125,1.7453730102539062,0.27293898925781246,28.68702290076336,-39.48091603053435,-22.946564885496183,0.0
13.580000638961792,-9.550470422363281,1.838746875,1.37906015625,16.82442748091603,1.8015267175572518,-1.282442748091603,-9.909600671386718,1.7549498168945312,0.33758243408203126,20.458015267175572,-33.00763358778626,-20.610687022900763,0.0
13.59000039100647,-9.76116016845703,2.29843359375,1.3455413330078123,15.267175572519085,1.8625954198473282,-1.1908396946564885,-9.639055883789062,0.8092401611328125,0.5339069702148437,-0.10687022900763359,-19.068702290076335,-18.198473282442748,0.0
13.600000619888306,-9.70369932861328,2.0254946044921875,1.2569558715820313,10.091603053435115,0.0916030534351145,-1.7099236641221374,-9.162609753417968,0.5027823486328125,0.9744400756835937,-3.7099236641221376,-18.33587786259542,-15.816793893129772,0.0
13.610000610351562,-9.521740002441407,1.3766659545898436,0.8547299926757812,7.236641221374046,-1.4351145038167938,-2.2900763358778624,-8.858546142578124,-0.2825157958984375,0.97683427734375,3.969465648854962,-24.35114503816794,-15.129770992366412,0.0
13.620000839233398,-9.562441430664062,0.5865794067382812,0.9361328491210937,9.770992366412214,-0.9312977099236641,-4.030534351145038,-10.529698901367187,-1.7741034301757812,1.2138602416992186,17.557251908396946,-22.748091603053435,-15.145038167938932,0.0
13.630000829696655,-9.342174877929686,0.5410895751953124,1.0127473022460938,14.13740458015267,0.04580152671755725,-4.9465648854961835,-9.885658654785155,-1.5442600708007812,1.2928688964843749,30.12213740458015,-25.450381679389313,-17.221374045801525,0.0
13.640000820159912,-9.481038574218749,1.0797849487304687,1.0630255371093749,17.099236641221374,1.4198473282442747,-5.480916030534351,-9.753977563476562,-0.8020575561523438,1.0702081420898437,33.41984732824427,-28.9618320610687,-18.27480916030534,0.0
13.65000057220459,-9.519345800781249,1.6400281372070311,1.2042834350585936,16.778625954198475,2.2442748091603053,-5.755725190839694,-8.116343627929687,0.8954314208984374,0.28012159423828126,25.81679389312977,-24.763358778625953,-19.587786259541986,0.0
13.660000562667847,-9.730035546875,2.3223756103515623,1.2473790649414063,11.32824427480916,2.6717557251908395,-6.229007633587786,-7.64229169921875,2.4205378784179685,-0.3232172241210937,11.114503816793894,-14.82442748091603,-18.03053435114504,0.0
13.670000553131104,-9.583989245605467,2.2840683837890623,1.0749965454101562,5.129770992366412,2.0610687022900764,-6.259541984732825,-9.176974963378905,0.6967126831054687,0.2537853759765625,6.412213740458015,-8.778625954198473,-12.335877862595419,0.0
13.68000054359436,-9.706093530273437,1.7717092285156248,1.1348515869140625,0.8702290076335878,1.9389312977099236,-7.129770992366412,-8.935160595703124,0.7757213378906249,0.5578489868164063,8.076335877862595,-4.977099236641221,-11.587786259541986,0.0
13.690000534057617,-9.315838659667968,0.7493851196289062,0.8643067993164062,1.618320610687023,2.33587786259542,-7.633587786259542,-8.858546142578124,0.36631285400390623,0.7685387329101562,7.694656488549619,-2.595419847328244,-11.282442748091603,0.0
13.700000286102295,-8.410830432128906,-0.6272808349609375,0.4165910888671875,8.091603053435115,4.2748091603053435,-7.816793893129771,-8.590395556640624,-0.00239420166015625,0.8690952026367187,8.0,-0.5954198473282443,-11.541984732824428,0.0
13.71000051498413,-9.334992272949219,-0.06943184814453125,1.0342951171875,20.27480916030534,10.625954198473282,-11.541984732824428,-8.741230261230468,-0.2154781494140625,0.6847416748046875,9.450381679389313,0.9465648854961832,-10.80916030534351,0.0
13.720000505447388,-9.399635717773437,0.7733271362304687,1.13006318359375,20.30534351145038,10.65648854961832,-14.458015267175572,-8.686163623046875,0.22266075439453123,0.6392518432617187,12.106870229007633,2.4885496183206106,-9.908396946564885,0.0
13.730000495910645,-9.074024291992187,0.74699091796875,1.5155296508789062,19.755725190839694,8.793893129770993,-13.618320610687023,-8.51617530517578,0.42377369384765623,0.51714755859375,11.679389312977099,5.9541984732824424,-8.977099236641221,0.0
13.74000072479248,-9.610325463867188,1.4173673828125,1.8626888916015625,18.076335877862597,6.702290076335878,-14.13740458015267,-9.303867651367186,-0.814028564453125,0.8643067993164062,16.290076335877863,7.801526717557252,-6.595419847328245,0.0
13.750000715255737,-10.175357055664062,2.039859814453125,2.3870190551757813,19.587786259541986,6.183206106870229,-14.854961832061068,-8.793902697753905,-0.19393033447265623,1.218648645019531,22.48854961832061,8.80916030534351,-6.519083969465649,0.0
13.760000467300415,-10.457872851562499,2.7653029174804686,3.0214824951171875,23.00763358778626,6.809160305343512,-14.778625954198473,-8.74601866455078,-0.622492431640625,0.38307226562499996,25.740458015267176,11.145038167938932,-6.183206106870229,0.0
13.77000093460083,-10.165780249023436,2.935291235351562,2.901772412109375,12.427480916030534,-1.7557251908396947,-12.793893129770993,-8.681375219726561,-0.28969840087890625,0.7661445312499999,29.61832061068702,12.01526717557252,-6.0458015267175576,0.0
13.780000686645508,-9.572018237304688,1.9847931762695312,3.0980969482421874,16.045801526717558,-3.3740458015267176,-10.992366412213741,-8.724470849609375,-0.5889736083984375,0.5698199951171875,32.88549618320611,15.19083969465649,-5.740458015267175,0.0
13.790000915527344,-9.526528405761718,1.6998831787109374,3.1794998046874996,17.251908396946565,-6.305343511450381,-11.221374045801527,-8.389282617187499,0.6464344482421874,0.30885201416015623,33.9236641221374,17.66412213740458,-6.702290076335878,0.0
13.800000667572021,-9.557653027343749,1.7812860351562498,3.73495458984375,16.717557251908396,-9.587786259541986,-11.694656488549619,-8.389282617187499,1.1324573852539062,0.16998831787109375,25.129770992366414,24.702290076335878,-6.488549618320611,0.0
13.810000658035278,-9.229647399902344,1.8602946899414061,4.321533996582031,17.17557251908397,-13.664122137404581,-12.305343511450381,-9.18655177001953,0.33758243408203126,0.23223756103515625,24.65648854961832,30.27480916030534,-3.984732824427481,0.0
13.820000410079956,-9.483432775878907,1.5777788940429687,4.6064439941406246,20.076335877862597,-18.900763358778626,-12.732824427480915,-8.997409838867187,-0.354341845703125,-0.296881005859375,25.129770992366414,31.435114503816795,-5.1603053435114505,0.0
13.830000877380371,-9.169792358398437,1.8602946899414061,4.826710546875,25.083969465648856,-22.946564885496183,-12.244274809160306,-9.612719665527344,0.3447650390625,1.1276689819335937,20.38167938931298,33.603053435114504,-9.221374045801527,0.0
13.840000629425049,-9.17458076171875,2.5641899780273434,5.109226342773437,29.236641221374047,-28.38167938931298,-11.221374045801527,-8.508992700195313,1.16837041015625,1.0295067138671874,5.541984732824427,40.50381679389313,-11.725190839694656,0.0
13.850000381469727,-9.773131176757811,2.5474305664062498,5.0014872680664055,30.85496183206107,-34.778625954198475,-9.282442748091603,-11.755530151367187,-2.4396914916992185,1.158793603515625,7.969465648854962,45.038167938931295,-4.824427480916031,0.0
13.86000108718872,-9.588777648925781,2.0350714111328125,4.898536596679687,35.23664122137404,-41.786259541984734,-7.145038167938932,-10.031704956054687,1.7405846069335937,0.3591302490234375,26.793893129770993,35.770992366412216,-6.900763358778626,0.0
13.87000060081482,-9.878476049804688,1.8267758666992187,4.608838195800781,42.274809160305345,-47.70992366412214,-4.870229007633588,-9.813832604980469,2.4899697265625,0.7398083129882812,13.053435114503817,48.30534351145038,-4.885496183206107,0.0
13.880000829696655,-9.787496386718749,0.6296750366210937,4.192247106933594,46.13740458015267,-53.48091603053435,-1.83206106870229,-11.02529864501953,1.0606313354492187,1.0678139404296874,14.931297709923664,43.63358778625954,-0.549618320610687,0.0
13.890000820159912,-10.153809240722655,1.0917559570312498,4.369418029785156,53.45038167938932,-58.06106870229008,-0.9770992366412213,-8.015787158203125,4.292803576660156,-0.1867477294921875,4.8396946564885495,44.54961832061068,-3.053435114503817,0.0
13.900001049041748,-12.016498132324218,3.5242648437499997,5.147533569335937,35.603053435114504,-69.74045801526718,-0.1984732824427481,-10.328585961914062,1.2689268798828124,0.737414111328125,-6.854961832061068,49.11450381679389,4.1679389312977095,0.0
13.910000801086426,-12.064382165527343,3.0597897216796874,5.84185205078125,16.9618320610687,-82.12213740458016,1.6641221374045803,-9.291896643066405,3.438073583984375,0.7302315063476562,-10.15267175572519,41.87786259541985,3.2519083969465647,0.0
13.920000553131104,-12.559981909179687,2.6599580444335937,6.505045910644531,12.290076335877863,-95.29770992366412,6.33587786259542,-10.340556970214843,0.6775590698242188,1.7118541870117185,-27.52671755725191,48.83969465648855,5.312977099236641,0.0
13.93000054359436,-13.378798876953125,2.6408044311523438,7.637503295898437,15.740458015267176,-105.41984732824427,11.84732824427481,-11.200075366210937,-1.3120225097656248,0.689530078125,-19.572519083969464,39.37404580152672,6.67175572519084,0.0
13.940000295639038,-13.627795849609374,1.9871873779296874,7.556100439453124,18.290076335877863,-119.29770992366412,15.48091603053435,-9.809044201660155,-0.21068974609375,-0.033518823242187495,-23.572519083969464,40.80916030534351,4.809160305343512,0.0
13.950000524520874,-14.446612817382812,1.3359645263671873,7.666233715820312,16.870229007633586,-131.29770992366412,17.404580152671755,-12.334926953124999,-3.3351229125976563,-0.22266075439453123,-11.84732824427481,38.778625954198475,9.007633587786259,0.0
13.96000075340271,-14.671667773437498,-0.086191259765625,7.108384729003906,23.84732824427481,-144.10687022900763,18.48854961832061,-9.976638317871092,0.016759411621093748,-1.5801730957031248,4.687022900763359,31.893129770992367,4.641221374045801,0.0
13.970000505447388,-14.865598107910156,0.05985504150390625,7.484274389648437,37.11450381679389,-154.29007633587787,21.954198473282442,-9.797073193359374,0.08858546142578125,-0.30406361083984373,-7.450381679389313,41.267175572519086,6.152671755725191,0.0
13.980000495910645,-14.812925671386719,0.1771709228515625,7.522581616210937,41.87786259541985,-164.91603053435114,25.16030534351145,-10.029310754394531,-2.8203695556640622,-1.2042834350585936,-1.0076335877862594,35.51145038167939,9.954198473282442,0.0
13.99000072479248,-14.449007019042968,-0.9193734375,5.523423229980469,52.534351145038165,-173.72519083969465,29.099236641221374,-9.124302526855468,-1.5370774658203123,-1.678335363769531,11.404580152671755,31.801526717557252,5.603053435114504,0.0
14.000000476837158,-12.919112158203124,-0.29927520751953124,4.493916516113281,61.083969465648856,-177.96946564885496,34.229007633587784,-8.046911779785155,0.0,-0.8882488159179687,2.33587786259542,34.900763358778626,3.66412213740458,0.0
14.010001182556152,-12.947842578125,1.7621324218749999,2.9544448486328125,58.30534351145038,-177.9083969465649,38.54961832061068,-11.051634863281249,-4.04141240234375,-0.6536170532226562,-0.5801526717557252,37.770992366412216,11.282442748091603,0.0
14.02000093460083,-11.008539233398437,0.5506663818359374,-1.8148048583984373,39.29770992366412,-176.90076335877862,41.98473282442748,-11.968614099121092,-3.9815573608398434,-0.49320554199218747,24.702290076335878,27.954198473282442,10.274809160305344,0.0
14.030001163482666,-9.873687646484374,-0.8547299926757812,-3.0933085449218747,16.106870229007633,-164.87022900763358,36.091603053435115,-10.556035119628906,-2.6048914062499997,0.2920926025390625,27.64885496183206,23.740458015267176,4.870229007633588,0.0
14.040000915527344,-8.801085302734375,-1.0390835205078124,-2.0374656127929685,3.3282442748091605,-153.98473282442748,27.34351145038168,-9.945513696289062,0.38307226562499996,-0.08379705810546874,30.30534351145038,24.53435114503817,2.381679389312977,0.0
14.0500009059906,-8.269572534179687,-1.0031704956054688,-1.3670891479492187,-0.030534351145038167,-137.61832061068702,22.33587786259542,-10.036493359375,0.6105214233398437,-0.7805097412109374,10.259541984732824,26.03053435114504,5.770992366412214,0.0
14.060000896453857,-7.9846625366210935,-1.13006318359375,-0.8212111694335937,-7.129770992366412,-120.42748091603053,17.206106870229007,-10.544064111328124,-0.6057330200195312,-0.7924807495117187,-0.8091603053435115,28.198473282442748,9.129770992366412,0.0
14.070000886917114,-6.509834313964843,-2.767697119140625,-1.0941501586914062,-4.763358778625954,-101.31297709923665,12.458015267175572,-9.121908325195312,-2.166752502441406,-0.70868369140625,0.22900763358778625,21.053435114503817,6.305343511450381,0.0
14.080000877380371,-5.7700260009765625,-3.1172505615234374,-1.2042834350585936,6.3816793893129775,-79.02290076335878,8.50381679389313,-9.8449572265625,-2.224213342285156,-1.3335703247070312,5.282442748091603,15.938931297709924,1.9389312977099236,0.0
14.090000629425049,-5.391742138671875,-2.403778466796875,-0.7493851196289062,12.549618320610687,-57.63358778625954,3.404580152671756,-10.122684619140625,-2.003946789550781,-0.7015010864257812,-0.5190839694656488,17.389312977099237,-0.24427480916030533,0.0
14.100000619888306,-5.908889697265625,-0.5578489868164063,0.2609679809570312,9.404580152671755,-41.16030534351145,-4.244274809160306,-10.297461340332031,-1.4796166259765624,-1.16837041015625,-4.6106870229007635,15.877862595419847,0.6717557251908397,0.0
14.110000848770142,-5.743689782714843,0.622492431640625,0.44053310546874996,0.3053435114503817,-32.30534351145038,-9.877862595419847,-9.842563024902343,-0.6871358764648438,-0.74699091796875,-9.908396946564885,16.610687022900763,1.1755725190839694,0.0
14.120001316070557,-5.406107348632812,0.354341845703125,0.22266075439453123,-13.83206106870229,-25.801526717557252,-13.16030534351145,-9.82580361328125,-1.0797849487304687,-0.7661445312499999,-13.648854961832061,16.763358778625953,1.3435114503816794,0.0
14.130001068115234,-3.478775012207031,-0.7493851196289062,-0.7398083129882812,-16.900763358778626,-13.908396946564885,-14.335877862595419,-9.495403784179686,-1.0414777221679687,-0.6631938598632812,-18.244274809160306,15.755725190839694,1.2213740458015268,0.0
14.140001058578491,-4.417302062988281,0.2753331909179687,-0.33758243408203126,-27.69465648854962,-4.6106870229007635,-18.83969465648855,-10.153809240722655,-1.2378022583007813,0.35194764404296874,-18.641221374045802,16.442748091603054,2.763358778625954,0.0
14.15000057220459,-5.049371301269531,0.97683427734375,0.3064578125,-36.48854961832061,6.641221374045801,-21.69465648854962,-9.888052856445311,-1.3670891479492187,-0.34715924072265625,-19.236641221374047,15.206106870229007,3.435114503816794,0.0
14.160000562667847,-5.877765075683594,1.6017209106445311,0.6823474731445313,-57.49618320610687,10.946564885496183,-24.977099236641223,-9.746794958496093,-1.3144167114257812,-0.11013327636718749,-17.587786259541986,13.86259541984733,4.015267175572519,0.0
14.170000791549683,-4.704606262207031,0.18435352783203124,0.24181436767578124,-59.25190839694657,21.954198473282442,-23.221374045801525,-9.402029919433593,-1.2976572998046874,-0.3758896606445312,-17.19083969465649,13.48091603053435,5.206106870229007,0.0
14.180000305175781,-4.206612316894531,-0.7493851196289062,0.02633621826171875,-56.85496183206107,32.778625954198475,-23.14503816793893,-9.627084875488281,-1.5131354492187499,-0.09337386474609374,-14.183206106870228,14.763358778625955,5.526717557251908,0.0
14.190000534057617,-5.628768103027343,2.47081611328125,1.446097802734375,-81.20610687022901,33.89312977099237,-28.244274809160306,-9.141061938476563,-1.1851298217773436,-0.4285620971679687,-11.526717557251908,13.923664122137405,5.1603053435114505,0.0
14.200000762939453,-3.3303345092773435,-1.3910311645507811,0.7900865478515624,-76.68702290076335,42.61068702290076,-21.862595419847327,-10.065223779296874,-2.2098481323242187,-0.06703764648437499,-9.251908396946565,16.18320610687023,7.862595419847328,0.0
14.21000075340271,-3.9360675292968748,-1.5562310791015623,1.3527239379882812,-58.82442748091603,58.916030534351144,-20.198473282442748,-8.911218579101561,-1.0342951171875,-0.4740519287109375,-5.435114503816794,14.977099236641221,6.305343511450381,0.0
14.220000743865967,-4.685452648925781,-1.695094775390625,1.458068811035156,-47.25190839694657,70.58015267175573,-18.65648854961832,-9.832986218261718,-1.898601916503906,-0.354341845703125,-1.1297709923664123,17.938931297709924,8.717557251908397,0.0
14.230000972747803,-4.84586416015625,-2.480392919921875,2.3343466186523436,-32.47328244274809,85.43511450381679,-17.083969465648856,-9.828197814941406,-1.944091748046875,-0.16998831787109375,4.244274809160306,15.84732824427481,9.877862595419847,0.0
14.240000486373901,-5.274426257324219,-3.3877953491210935,3.3399113159179685,-15.969465648854962,95.81679389312977,-16.580152671755727,-10.520122094726561,-3.1411925781249996,0.5985504150390625,6.305343511450381,11.435114503816793,11.83206106870229,0.0
14.250000953674316,-6.136338854980468,-2.980781066894531,5.209782812499999,5.435114503816794,104.97709923664122,-17.66412213740458,-8.482656481933594,0.18914193115234373,-0.3950432739257812,11.450381679389313,9.603053435114504,8.427480916030534,0.0
14.260000944137573,-6.943184814453125,-2.128445275878906,5.5641246582031245,32.274809160305345,109.90839694656489,-15.84732824427481,-10.946289990234375,-2.8467057739257813,-0.05746083984375,11.374045801526718,13.389312977099237,13.419847328244275,0.0
14.27000117301941,-8.923189587402343,0.9074024291992187,7.884106066894531,49.55725190839695,113.08396946564885,-13.267175572519085,-9.773131176757811,-1.149216796875,0.028730419921875,12.030534351145038,11.648854961832061,12.50381679389313,0.0
14.280000925064087,-8.022969763183593,0.70868369140625,6.6271501953125,101.52671755725191,126.25954198473282,-0.7480916030534351,-10.158597644042969,-1.4437036010742186,0.02633621826171875,11.694656488549619,10.946564885496183,12.595419847328245,0.0
14.290000915527344,-11.666944689941406,4.680664245605469,9.562441430664062,95.49618320610686,119.6793893129771,-3.404580152671756,-9.943119494628906,-1.3144167114257812,0.38307226562499996,15.419847328244275,12.061068702290076,12.900763358778626,0.0
14.300000667572021,-11.298237634277344,5.45877978515625,9.481038574218749,71.58778625954199,103.78625954198473,0.015267175572519083,-9.028534460449219,-0.469263525390625,-0.3399766357421875,9.16030534351145,10.030534351145038,12.458015267175572,0.0
14.310000658035278,-11.671733093261718,4.979939453125,9.380482104492186,43.221374045801525,87.98473282442748,0.9007633587786259,-10.565611926269531,-2.1308394775390624,-0.105344873046875,8.977099236641221,13.267175572519085,15.282442748091603,0.0
14.320000648498535,-12.291831323242187,5.090072729492187,9.212887988281249,12.274809160305344,70.59541984732824,0.32061068702290074,-9.576806640625,-0.36391865234375,-0.36631285400390623,9.816793893129772,11.541984732824428,13.908396946564885,0.0
14.330000638961792,-12.322955944824217,3.928884924316406,8.20971749267578,-13.801526717557252,52.213740458015266,2.931297709923664,-8.413224633789062,-0.296881005859375,-0.18435352783203124,-8.595419847328245,15.251908396946565,15.526717557251908,0.0
14.340001106262207,-11.939883679199218,2.281674182128906,6.758831286621094,-23.603053435114504,44.80916030534351,9.465648854961833,-10.172962854003906,-1.659181750488281,0.09337386474609374,-11.908396946564885,20.27480916030534,20.610687022900763,0.0
14.350000619888306,-12.885593334960937,2.1116858642578125,6.7085530517578125,-37.282442748091604,37.61832061068702,10.992366412213741,-10.398017810058594,-0.9696516723632812,-1.6256629272460936,-8.717557251908397,21.282442748091604,19.34351145038168,0.0
14.36000108718872,-12.82573829345703,-0.3591302490234375,6.234501123046875,-32.091603053435115,33.43511450381679,16.48854961832061,-9.636661682128906,-1.1707646118164061,-1.8770541015625,-16.198473282442748,23.328244274809162,19.49618320610687,0.0
14.37000060081482,-10.419565624999999,-2.442085693359375,6.066907006835937,-8.65648854961832,32.961832061068705,22.137404580152673,-8.360552197265624,-1.1731588134765625,-1.3742717529296875,-27.114503816793892,22.091603053435115,19.709923664122137,0.0
14.380001068115234,-11.003750830078124,-0.8451531860351562,7.3837179199218745,6.9465648854961835,34.152671755725194,22.427480916030536,-8.200140686035155,-0.39264907226562495,-2.090138049316406,-35.099236641221374,30.259541984732824,20.366412213740457,0.0
14.390001058578491,-10.905588562011719,1.0821791503906248,7.819462622070312,2.381679389312977,27.267175572519083,23.587786259541986,-10.04846436767578,-2.24097275390625,-1.2401964599609374,-30.33587786259542,37.23664122137404,24.702290076335878,0.0
14.400001049041748,-11.164162341308593,0.5147533569335937,7.398083129882812,-3.0381679389312977,20.427480916030536,26.793893129770993,-10.728417639160156,-5.023035083007812,-0.5506663818359374,-18.900763358778626,31.72519083969466,25.64885496183206,0.0
14.410000801086426,-10.87206973876953,0.5674257934570313,7.4579381713867186,0.8702290076335878,18.83969465648855,30.9618320610687,-9.437942944335937,-3.095702746582031,-1.1516109985351561,6.183206106870229,24.946564885496183,19.72519083969466,0.0
14.420000791549683,-12.725181823730468,2.039859814453125,7.031770275878906,-7.343511450381679,10.900763358778626,30.045801526717558,-9.727641345214844,-3.4428619873046875,-1.1468225952148436,4.122137404580153,13.694656488549619,17.954198473282442,0.0
14.43000078201294,-11.590330236816406,3.2130186279296873,4.448426684570312,-21.480916030534353,1.0076335877862594,29.587786259541986,-9.598354455566406,-0.622492431640625,-1.637633935546875,-2.8244274809160306,11.19083969465649,15.694656488549619,0.0
14.440000772476196,-10.12507882080078,3.9504327392578125,2.3367408203125,-22.748091603053435,1.8931297709923665,31.297709923664122,-9.86411083984375,1.4341267944335936,-2.269703173828125,-1.6641221374045803,13.679389312977099,16.091603053435115,0.0
14.450000762939453,-8.233659509277343,2.77727392578125,0.2059013427734375,-37.43511450381679,-0.8244274809160306,29.96946564885496,-10.656591589355468,1.7621324218749999,-0.8571241943359375,-11.572519083969466,19.450381679389313,19.435114503816795,0.0
14.460000276565552,-6.641515405273437,1.1133037719726562,-1.5394716674804687,-49.29770992366412,1.9541984732824427,26.85496183206107,-11.056423266601563,1.4820108276367188,-0.5267243652343749,-9.17557251908397,16.748091603053435,20.259541984732824,0.0
14.470000982284546,-6.227318518066406,-0.20829554443359374,-1.9632453613281249,-60.3206106870229,7.267175572519084,21.541984732824428,-12.409147204589843,-1.4915876342773438,-0.2825157958984375,2.9618320610687023,14.702290076335878,20.229007633587788,0.0
14.480000495910645,-6.227318518066406,-0.9528922607421875,-1.216254443359375,-60.79389312977099,16.366412213740457,18.229007633587788,-10.429142431640624,1.9297265380859374,-1.2138602416992186,2.885496183206107,-1.0534351145038168,13.541984732824428,0.0
14.49000072479248,-6.289567761230469,-2.039859814453125,-0.699106884765625,-51.099236641221374,24.946564885496183,19.374045801526716,-10.98699141845703,1.6328455322265625,-1.1611878051757811,-9.267175572519085,-3.7557251908396947,13.038167938931299,0.0
14.500000476837158,-5.925649108886718,-2.8012159423828122,0.11252747802734374,-19.17557251908397,43.267175572519086,20.229007633587788,-11.52329259033203,1.37906015625,-0.59376201171875,-16.244274809160306,-7.145038167938932,11.725190839694656,0.0
14.510000944137573,-7.807491613769531,-1.7645266235351562,0.9433154541015625,-1.0381679389312977,52.6412213740458,14.534351145038167,-10.723629235839843,2.04943662109375,-0.105344873046875,-21.251908396946565,-15.86259541984733,9.251908396946565,0.0
14.520000696182251,-8.556876733398436,-0.6847416748046875,1.4963760375976562,12.51908396946565,60.35114503816794,9.725190839694656,-10.946289990234375,2.961627453613281,-0.16041151123046873,-35.465648854961835,-21.267175572519083,6.061068702290076,0.0
14.530000686645508,-9.95987890625,0.8978256225585937,1.5418658691406248,15.664122137404581,62.42748091603053,4.549618320610687,-11.717222924804688,1.7932570434570312,0.21787235107421873,-52.13740458015267,-17.099236641221374,3.7557251908396947,0.0
14.540000438690186,-10.965443603515624,2.8514941772460936,1.4796166259765624,6.3816793893129775,57.7557251908397,0.916030534351145,-12.267889306640624,0.9959878906249999,0.47884033203125,-55.19083969465649,-25.709923664122137,3.5267175572519083,0.0
14.550000667572021,-11.93270107421875,4.9416322265625,1.9847931762695312,-6.854961832061068,52.47328244274809,-0.3816793893129771,-12.418724011230468,2.3343466186523436,0.7350199096679687,-43.37404580152672,-30.366412213740457,2.4885496183206106,0.0
14.560000658035278,-12.018892333984374,5.691017346191406,1.8195932617187498,-30.549618320610687,37.9236641221374,0.5038167938931297,-13.53442198486328,-1.8315642700195311,0.948103857421875,-28.213740458015266,-42.458015267175576,1.6641221374045803,0.0
14.570000648498535,-11.037269653320312,4.740519287109374,1.4317325927734375,-41.12977099236641,32.67175572519084,4.458015267175573,-10.407594616699217,2.528276953125,0.2657563842773437,-22.885496183206108,-60.732824427480914,-4.122137404580153,0.0
14.580000877380371,-10.249577307128906,3.9312791259765625,1.1851298217773436,-57.282442748091604,24.53435114503817,10.0,-9.483432775878907,1.458068811035156,-0.48123453369140623,-44.656488549618324,-57.52671755725191,-3.5877862595419847,0.0
14.590000867843628,-10.20887587890625,2.896984008789062,1.4149731811523436,-60.36641221374046,23.61832061068702,12.198473282442748,-11.152191333007812,-0.040701428222656245,-0.316034619140625,-25.251908396946565,-60.36641221374046,-1.099236641221374,0.0
14.600000381469727,-9.203311181640624,1.3120225097656248,1.2593500732421874,-57.343511450381676,22.68702290076336,12.488549618320612,-8.499415893554687,4.103661645507812,-1.9752163696289062,-22.53435114503817,-63.16030534351145,-6.137404580152672,0.0
14.610000610351562,-8.949525805664061,0.36391865234375,1.4413093994140624,-55.6793893129771,21.46564885496183,11.938931297709924,-10.381258398437499,0.34237083740234375,-1.3120225097656248,-29.755725190839694,-55.51145038167939,-0.5190839694656488,0.0
14.620000839233398,-8.422801440429687,-0.7422025146484375,1.37906015625,-48.091603053435115,21.022900763358777,9.618320610687023,-9.976638317871092,2.6623522460937497,-2.3678654418945313,-11.358778625954198,-61.52671755725191,-2.366412213740458,0.0
14.630000591278076,-8.74601866455078,-0.38307226562499996,1.697488977050781,-39.45038167938932,21.72519083969466,6.732824427480916,-8.640673791503906,3.4332851806640625,-2.2385785522460937,-35.49618320610687,-50.717557251908396,-1.0076335877862594,0.0
14.640000820159912,-8.686163623046875,-0.9624690673828125,1.7860744384765623,-31.251908396946565,23.541984732824428,3.312977099236641,-10.611101757812499,0.1292868896484375,-1.4915876342773438,-32.83969465648855,-48.42748091603053,4.229007633587786,0.0
14.65000057220459,-9.643844287109374,-0.7709329345703124,2.0446482177734375,-23.862595419847327,21.328244274809162,-1.5572519083969465,-9.399635717773437,0.7254431030273437,-1.5322890624999999,-20.229007633587788,-53.786259541984734,2.1374045801526718,0.0
14.660000801086426,-9.315838659667968,-0.5889736083984375,2.3319524169921872,-12.900763358778626,22.12213740458015,-3.877862595419847,-7.575254052734374,3.5338416503906247,-2.6479870361328124,-24.38167938931298,-48.54961832061068,0.16793893129770993,0.0
14.670000553131104,-10.524910498046875,1.2904746948242187,2.767697119140625,-10.549618320610687,19.83206106870229,-6.641221374045801,-9.045293872070312,1.2641384765625,-1.9488801513671874,-32.62595419847328,-37.49618320610687,4.854961832061068,0.0
14.68000054359436,-10.527304699707031,1.697488977050781,2.3774422485351563,-5.297709923664122,18.18320610687023,-6.534351145038168,-10.520122094726561,-0.9983820922851562,-1.189918225097656,-17.954198473282442,-35.11450381679389,6.5038167938931295,0.0
14.690000772476196,-10.723629235839843,2.04943662109375,1.6472107421875,-2.8702290076335877,14.564885496183207,-6.534351145038168,-8.872911352539061,-0.181959326171875,-2.142810485839844,1.0687022900763359,-40.213740458015266,3.267175572519084,0.0
14.700000524520874,-9.792284790039062,2.2768857788085937,1.189918225097656,4.351145038167939,14.488549618320612,-4.824427480916031,-7.922413293457031,2.8012159423828122,-3.4261025756835934,4.854961832061068,-33.89312977099237,1.1908396946564885,0.0
14.71000051498413,-9.758765966796874,3.545812658691406,1.2761094848632812,1.099236641221374,13.083969465648854,-4.488549618320611,-8.180987072753906,2.5737667846679684,-3.134009973144531,-9.19083969465649,-22.47328244274809,2.351145038167939,0.0
14.720000267028809,-9.342174877929686,3.414131567382812,1.0726023437499999,-0.6717557251908397,12.748091603053435,-1.8625954198473282,-9.885658654785155,0.9097966308593749,-2.7940333374023436,-6.900763358778626,-9.893129770992367,1.7404580152671756,0.0
14.730000495910645,-9.667786303710937,3.201047619628906,0.8882488159179687,-1.786259541984733,11.251908396946565,1.465648854961832,-9.823409411621093,0.3950432739257812,-2.3535002319335936,-2.381679389312977,-11.786259541984732,-1.0687022900763359,0.0
14.740000486373901,-9.34696328125,2.588131994628906,0.5674257934570313,1.099236641221374,12.748091603053435,3.5877862595419847,-9.528922607421874,0.25139117431640623,-1.2952630981445312,4.793893129770993,-11.419847328244275,-4.030534351145038,0.0
14.750000715255737,-9.299079248046874,2.2577321655273437,0.4070142822265625,0.7633587786259542,14.091603053435115,4.244274809160306,-9.85692823486328,0.11013327636718749,-0.009576806640625,7.847328244274809,-14.83969465648855,-6.244274809160306,0.0
14.760000467300415,-9.469067565917967,1.9943699829101562,0.239420166015625,-1.3282442748091603,15.816793893129772,2.7480916030534353,-11.310208642578125,-1.4915876342773438,0.5817910034179687,8.045801526717558,-15.83206106870229,-8.366412213740459,0.0
14.770000696182251,-9.227253198242186,1.7022773803710936,0.19632453613281248,-5.908396946564886,18.18320610687023,0.7480916030534351,-10.819397302246093,0.7613561279296874,2.3870190551757813,10.717557251908397,-18.412213740458014,-12.549618320610687,0.0
