timestamp,Thigh_L_Acc_X,Thigh_L_Acc_Y,Thigh_L_Acc_Z,Thigh_L_Gyr_X,Thigh_L_Gyr_Y,Thigh_L_Gyr_Z,Thigh_R_Acc_X,Thigh_R_Acc_Y,Thigh_R_Acc_Z,Thigh_R_Gyr_X,Thigh_R_Gyr_Y,Thigh_R_Gyr_Z,gpio_output
10.000000476837158,-3.9815573608398434,1.5370774658203123,7.0269818725585935,-1.7709923664122138,3.3435114503816794,24.458015267175572,-12.966996191406249,-4.544194750976562,2.6431986328124997,39.05343511450382,36.68702290076336,27.068702290076335,0.0
10.010000705718994,-3.7014357666015623,1.0702081420898437,6.682216833496093,0.9465648854961832,4.290076335877862,25.709923664122137,-10.019733947753906,-1.3455413330078123,1.4604630126953124,41.038167938931295,21.87786259541985,18.83969465648855,1.0
10.020000696182251,-4.493916516113281,1.7812860351562498,6.584054565429687,3.2519083969465647,7.450381679389313,25.114503816793892,-11.305420239257812,-1.0342951171875,0.6368576416015624,32.274809160305345,16.80916030534351,16.53435114503817,1.0
10.030000448226929,-5.667075329589843,2.123656872558594,8.971073620605468,3.9236641221374047,8.595419847328245,27.938931297709924,-10.838550915527343,0.07422025146484375,0.5386953735351562,15.145038167938932,15.297709923664122,15.633587786259541,1.0
10.040000438690186,-6.926425402832031,2.7365724975585937,10.115502014160155,6.091603053435114,6.67175572519084,33.31297709923664,-11.056423266601563,-0.6943184814453125,1.24498486328125,5.022900763358779,15.17557251908397,17.251908396946565,1.0
10.0500009059906,-6.581660363769531,3.327940307617187,7.948749511718749,-1.1145038167938932,6.427480916030534,37.66412213740458,-10.019733947753906,0.3447650390625,0.33518823242187495,-9.145038167938932,12.65648854961832,17.206106870229007,1.0
10.060000658035278,-6.909665991210937,3.4452561889648434,5.291185668945312,-10.900763358778626,11.19083969465649,40.48854961832061,-11.233594189453123,-1.5011644409179687,-0.29448680419921874,-13.83206106870229,11.038167938931299,19.114503816793892,1.0
10.070000886917114,-7.941566906738281,4.338293408203125,2.4133552734375,-25.419847328244273,19.923664122137403,43.37404580152672,-10.04846436767578,-1.7956512451171873,-1.0271125122070313,-17.51145038167939,7.694656488549619,18.793893129770993,1.0
10.080000638961792,-6.926425402832031,1.2210428466796874,0.33758243408203126,-35.587786259541986,30.519083969465647,51.282442748091604,-11.240776794433593,-4.07971962890625,-0.5363011718749999,-12.244274809160306,8.01526717557252,20.18320610687023,1.0
10.090000629425049,-9.030928662109375,1.2976572998046874,3.3590649291992185,-27.740458015267176,50.961832061068705,53.45038167938932,-8.568847741699217,-2.5570073730468748,-2.1547814941406247,-6.442748091603053,-4.320610687022901,15.557251908396946,1.0
10.100000619888306,-8.2360537109375,-0.6057330200195312,6.112396838378906,-6.076335877862595,56.778625954198475,56.961832061068705,-9.763554370117188,-1.7214309936523438,-1.5370774658203123,-14.427480916030534,3.8473282442748094,15.618320610687023,1.0
10.110000371932983,-7.920019091796875,-2.8993782104492185,6.813897924804687,3.1755725190839694,61.19083969465649,58.29007633587786,-9.004592443847656,-0.30885201416015623,-1.9225439331054686,-16.198473282442748,1.9389312977099236,14.580152671755725,1.0
10.12000060081482,-5.315127685546875,-2.403778466796875,5.286397265624999,25.81679389312977,78.51908396946565,52.16793893129771,-11.360486877441405,-2.463633508300781,-0.4477157104492187,-18.290076335877863,11.893129770992367,19.389312977099237,1.0
10.130000829696655,-8.614337573242187,1.3359645263671873,4.900930798339844,13.603053435114504,79.41984732824427,39.81679389312977,-10.805032092285156,-1.714248388671875,-0.45489831542968745,-8.290076335877863,9.49618320610687,16.396946564885496,1.0
10.140000581741333,-7.3837179199218745,-0.679953271484375,3.6727053466796873,8.366412213740459,70.13740458015268,37.74045801526717,-11.698069311523437,-2.310404602050781,-0.45489831542968745,-2.2442748091603053,7.6183206106870225,16.30534351145038,1.0
10.15000057220459,-7.101202124023437,-1.3407529296874998,4.450820886230469,24.641221374045802,80.16793893129771,36.97709923664122,-10.627861169433594,-0.6057330200195312,-1.24498486328125,2.8702290076335877,-0.015267175572519083,12.458015267175572,1.0
10.160000801086426,-7.005434057617187,-1.1875240234375,4.129997863769531,31.51145038167939,82.36641221374046,29.34351145038168,-10.675745202636719,0.8044517578125,-1.5179238525390624,-2.9923664122137406,-2.0916030534351147,10.442748091603054,1.0
10.170000314712524,-9.375693701171874,2.27927998046875,3.9647979492187497,31.17557251908397,83.5114503816794,24.519083969465647,-11.465831750488281,1.3168109130859373,-1.2306196533203124,-8.366412213740459,-0.2595419847328244,11.541984732824428,1.0
10.180001020431519,-7.072471704101562,-0.1292868896484375,2.70065947265625,23.893129770992367,76.36641221374046,25.389312977099237,-11.583147631835937,1.7166425903320313,-1.5107412475585937,-11.404580152671755,-4.580152671755725,10.80916030534351,1.0
10.190000534057617,-8.801085302734375,0.5051765502929687,3.306392492675781,37.06870229007634,86.22900763358778,22.946564885496183,-12.19366905517578,2.27927998046875,-1.5251064575195312,-23.206106870229007,-4.916030534351145,7.877862595419847,1.0
10.200000762939453,-8.611943371582031,-1.9033903198242186,2.8107927490234372,41.3587786259542,83.90839694656489,20.38167938931298,-12.222399475097655,2.4061726684570313,-1.5322890624999999,-31.480916030534353,-5.862595419847328,4.2748091603053435,1.0
10.21000051498413,-8.300697155761718,0.7493851196289062,3.337517114257812,52.10687022900763,88.8854961832061,17.66412213740458,-12.382810986328124,2.4157494750976563,-1.4149731811523436,-39.49618320610687,-5.938931297709924,5.374045801526718,0.0
10.220000267028809,-9.514557397460937,3.900154504394531,3.708618371582031,40.01526717557252,85.20610687022901,9.48091603053435,-12.102689392089843,2.7844565307617186,-1.388636962890625,-43.19083969465649,-7.236641221374046,7.557251908396947,0.0
10.230000495910645,-10.831368310546875,5.1140147460937495,3.404554760742187,25.251908396946565,80.33587786259542,6.33587786259542,-11.422736120605467,2.9041666137695312,-1.1540052001953125,-47.83206106870229,-8.122137404580153,10.50381679389313,0.0
10.240000486373901,-9.82580361328125,3.394977954101562,2.6910826660156246,6.580152671755725,69.81679389312977,6.061068702290076,-11.274295617675781,2.7437551025390623,-1.254561669921875,-54.01526717557252,-9.206106870229007,12.50381679389313,0.0
10.250000476837158,-9.153032946777342,2.6240450195312497,2.2194249389648437,9.053435114503817,70.06106870229007,7.1603053435114505,-10.694898815917968,2.157175695800781,-0.9911994873046874,-59.81679389312977,-8.534351145038167,13.145038167938932,0.0
10.260000705718994,-8.923189587402343,3.366247534179687,2.1643583007812497,0.366412213740458,66.54961832061069,5.190839694656488,-10.73799444580078,1.668758557128906,-0.8834604125976562,-62.58015267175573,-9.068702290076336,13.435114503816793,0.0
10.27000093460083,-9.404424121093749,4.218583325195312,2.114080065917969,-7.893129770992366,64.12213740458016,4.366412213740458,-10.309432348632813,1.4317325927734375,-0.833182177734375,-66.33587786259542,-9.709923664122137,12.412213740458014,0.0
10.280000686645508,-9.138667736816405,2.961627453613281,1.8004396484374998,-10.83969465648855,64.45801526717557,4.854961832061068,-10.441113439941406,0.6560112548828124,-0.6631938598632812,-67.63358778625954,-10.15267175572519,11.648854961832061,0.0
10.290000677108765,-9.87608184814453,3.785232824707031,2.427720483398437,-13.251908396946565,66.12213740458016,2.8244274809160306,-10.496180078124999,-0.17956512451171874,-0.7206546997070312,-64.77862595419847,-12.67175572519084,9.49618320610687,0.0
10.300000667572021,-9.730035546875,4.1563340820312495,2.1547814941406247,-20.38167938931298,64.18320610687023,1.9236641221374047,-9.730035546875,-0.16998831787109375,-0.36391865234375,-60.36641221374046,-15.755725190839694,6.1679389312977095,0.0
10.310001134872437,-9.720458740234374,3.5577836669921874,1.3311761230468748,-23.893129770992367,61.81679389312977,4.122137404580153,-9.849745629882811,0.009576806640625,-0.9457096557617187,-58.61068702290076,-17.96946564885496,4.656488549618321,0.0
10.320000410079956,-9.866505041503906,3.5003228271484375,1.927332336425781,-20.412213740458014,66.07633587786259,4.366412213740458,-10.24000050048828,-1.4221557861328125,-0.055066638183593745,-49.48091603053435,-16.35114503816794,5.694656488549619,0.0
10.330000638961792,-9.150638745117186,3.763685009765625,1.7908628417968748,-23.083969465648856,64.8854961832061,3.480916030534351,-10.307038146972655,-0.8954314208984374,-0.7062894897460937,-34.0,-25.114503816793892,1.8015267175572518,0.0
10.340000629425049,-9.682151513671874,4.505887524414062,2.1404162841796874,-30.931297709923665,62.80916030534351,2.122137404580153,-11.274295617675781,-2.6910826660156246,1.4987702392578124,-18.290076335877863,-22.18320610687023,4.824427480916031,0.0
10.350000619888306,-8.473079675292968,2.4588451049804685,1.936909143066406,-31.64885496183206,61.7557251908397,2.7022900763358777,-9.363722692871093,-0.1771709228515625,-0.8978256225585937,-7.114503816793893,-38.0,-4.854961832061068,0.0
10.360000371932983,-10.486603271484375,3.852270471191406,3.009511486816406,-35.908396946564885,61.587786259541986,-0.7175572519083969,-9.246406811523437,1.426944189453125,-0.8762778076171874,-12.778625954198473,-36.778625954198475,-7.816793893129771,0.0
10.37000036239624,-10.453084448242187,2.3535002319335936,2.5067291381835934,-45.9236641221374,56.56488549618321,-2.4885496183206106,-10.369287390136718,0.47644613037109373,-0.20829554443359374,-11.541984732824428,-35.099236641221374,-8.0,0.0
10.380000591278076,-11.427524523925781,4.010287780761718,3.6391865234374996,-48.29007633587786,54.58015267175573,-5.099236641221374,-10.280701928710936,0.5219359619140624,0.29448680419921874,-6.122137404580153,-37.221374045801525,-7.175572519083969,0.0
10.390000581741333,-9.550470422363281,2.588131994628906,2.7461493041992187,-48.94656488549618,49.908396946564885,-4.351145038167939,-9.145850341796875,2.2673089721679687,-0.8810662109374999,-4.5038167938931295,-43.55725190839695,-9.755725190839694,0.0
10.40000057220459,-9.976638317871092,1.1611878051757811,2.3295582153320313,-45.11450381679389,46.35114503816794,-3.984732824427481,-8.705317236328124,2.935291235351562,-0.19632453613281248,-14.488549618320612,-38.229007633587784,-8.351145038167939,0.0
10.410000562667847,-9.986215124511718,2.243366955566406,2.549824768066406,-44.213740458015266,43.16030534351145,-5.633587786259542,-9.358934289550781,1.455674609375,-0.3399766357421875,-16.564885496183205,-35.847328244274806,-5.648854961832061,0.0
10.420000791549683,-11.961431494140625,2.9927520751953125,2.4875755249023435,-47.32824427480916,38.99236641221374,-8.076335877862595,-9.050082275390624,0.7445967163085937,0.01915361328125,-12.259541984732824,-37.29770992366412,-5.4961832061068705,0.0
10.430000305175781,-9.852139831542969,1.8195932617187498,1.5849614990234373,-38.961832061068705,36.42748091603053,-4.900763358778626,-8.33182177734375,1.4101847778320311,-0.201112939453125,-9.893129770992367,-40.18320610687023,-6.870229007633588,0.0
10.440000772476196,-10.637437976074217,2.978386865234375,2.3511060302734372,-39.29770992366412,33.404580152671755,-5.267175572519084,-7.690175732421874,1.5705962890624998,-1.3096283081054687,-17.938931297709924,-36.3206106870229,-7.129770992366412,0.0
10.450000524520874,-9.052476477050782,1.2617442749023438,1.9943699829101562,-33.63358778625954,33.23664122137404,-4.0,-9.167398156738281,0.2154781494140625,-0.8595183959960937,-11.083969465648854,-32.44274809160305,-3.5267175572519083,0.0
10.46000051498413,-10.436325036621094,3.39018955078125,3.337517114257812,-37.038167938931295,32.0763358778626,-7.709923664122138,-9.114725720214842,0.6847416748046875,-1.2713210815429687,-0.5954198473282443,-32.48854961832061,-4.488549618320611,0.0
10.470000743865967,-8.693346228027343,1.5777788940429687,2.6216508178710938,-27.14503816793893,29.480916030534353,-5.877862595419847,-8.06367119140625,1.3670891479492187,-2.138022082519531,-2.5801526717557253,-30.595419847328245,-7.083969465648855,0.0
10.480000257492065,-10.053252770996092,3.7134067749023436,3.4093431640625,-29.19083969465649,27.14503816793893,-7.587786259541985,-9.593566052246093,0.46686932373046874,-1.5969325073242187,-6.442748091603053,-19.17557251908397,-5.541984732824427,0.0
10.490000247955322,-9.284714038085937,3.0310593017578125,2.7437551025390623,-44.97709923664122,15.221374045801527,-8.01526717557252,-10.63025537109375,-0.45968671875,-1.5538368774414062,-1.3587786259541985,-16.12213740458015,-6.198473282442748,0.0
10.500000476837158,-9.375693701171874,3.5194764404296874,3.402160559082031,-46.0763358778626,11.603053435114504,-5.755725190839694,-10.548852514648438,-0.277727392578125,-1.0702081420898437,3.5419847328244276,-15.206106870229007,-7.083969465648855,0.0
10.510000705718994,-9.478644372558593,3.1004911499023438,3.303998291015625,-50.274809160305345,4.137404580152672,-4.809160305343512,-10.350133776855468,-0.12449848632812499,-0.46208092041015625,8.320610687022901,-16.03053435114504,-8.931297709923664,0.0
10.520000457763672,-10.709264025878905,3.861847277832031,4.091690637207031,-49.00763358778626,2.9618320610687023,-3.877862595419847,-9.588777648925781,-0.05746083984375,1.0654197387695312,7.557251908396947,-15.312977099236642,-10.01526717557252,0.0
10.530000925064087,-9.356540087890625,2.710236279296875,3.337517114257812,-51.20610687022901,-4.106870229007634,-1.4198473282442747,-9.064447485351561,0.28969840087890625,-0.16280571289062498,5.847328244274809,-19.068702290076335,-12.442748091603054,0.0
10.540000677108765,-9.591171850585937,2.5163059448242184,2.8467057739257813,-45.541984732824424,-4.259541984732825,0.0916030534351145,-8.358157995605469,-0.143652099609375,1.1947066284179686,5.740458015267175,-19.46564885496183,-14.198473282442748,0.0
10.5500009059906,-9.014169250488282,1.2569558715820313,2.195482922363281,-38.83969465648855,-4.519083969465649,0.916030534351145,-10.98699141845703,-1.0678139404296874,1.7860744384765623,14.946564885496183,-15.633587786259541,-13.297709923664122,0.0
10.560000658035278,-7.953537915039062,-1.3455413330078123,1.3120225097656248,-13.129770992366412,3.480916030534351,3.068702290076336,-10.230423693847655,-1.1133037719726562,2.0829554443359375,24.458015267175572,-22.458015267175572,-16.213740458015266,0.0
10.570001125335693,-6.9336080078124995,-0.6607996582031249,1.3000515014648437,6.458015267175573,6.0458015267175576,0.7938931297709924,-9.65342109375,-0.737414111328125,1.68551796875,31.938931297709924,-30.82442748091603,-19.587786259541986,0.0
10.580000638961792,-8.662221606445312,1.3479355346679687,2.319981408691406,20.82442748091603,14.778625954198473,-1.7404580152671756,-9.390058911132812,0.18914193115234373,2.0470424194335934,32.732824427480914,-34.091603053435115,-21.480916030534353,0.0
10.590000629425049,-10.218452685546874,4.050989208984375,3.134009973144531,8.80916030534351,10.427480916030534,-5.6183206106870225,-9.471461767578125,1.4796166259765624,1.7669208251953124,21.557251908396946,-34.68702290076336,-22.30534351145038,0.0
10.600000619888306,-9.885658654785155,2.528276953125,2.8467057739257813,3.480916030534351,7.358778625954199,-3.8473282442748094,-10.484209069824217,0.6153098266601562,1.9009961181640624,14.01526717557252,-34.61068702290076,-21.374045801526716,0.0
10.610000610351562,-9.524134204101562,1.484405029296875,2.6216508178710938,4.259541984732825,6.198473282442748,-3.648854961832061,-11.058817468261719,0.9074024291992187,2.6791116577148437,15.557251908396946,-38.030534351145036,-20.916030534351144,0.0
10.62000060081482,-9.160215551757812,0.8499415893554687,2.1883003173828124,8.778625954198473,5.709923664122138,-5.709923664122138,-10.570400329589843,1.2761094848632812,1.9225439331054686,13.099236641221374,-42.56488549618321,-22.35114503816794,0.0
10.630000591278076,-8.74601866455078,1.2138602416992186,1.5083470458984374,14.15267175572519,6.732824427480916,-7.114503816793893,-9.595960253906249,0.9528922607421875,2.0374656127929685,5.358778625954199,-44.85496183206107,-22.99236641221374,0.0
10.640000581741333,-9.026140258789061,2.360682836914062,1.2330138549804688,14.793893129770993,8.50381679389313,-8.259541984732824,-9.804255798339844,0.7326257080078125,1.7214309936523438,-2.4427480916030535,-42.778625954198475,-21.114503816793892,0.0
10.65000057220459,-9.10993731689453,2.4684219116210935,0.852335791015625,13.114503816793894,10.473282442748092,-7.236641221374046,-9.983820922851562,0.1484405029296875,2.042254016113281,0.732824427480916,-45.06870229007634,-18.85496183206107,0.0
10.660000801086426,-10.060435375976562,2.39420166015625,0.9935936889648437,22.885496183206108,19.19083969465649,-6.732824427480916,-9.76116016845703,0.062249243164062495,2.379836450195312,5.709923664122138,-47.603053435114504,-18.885496183206108,0.0
10.670000553131104,-8.798691101074219,2.2864625854492187,0.603338818359375,26.259541984732824,21.328244274809162,-7.297709923664122,-9.562441430664062,0.6272808349609375,1.5346832641601562,3.2519083969465647,-46.33587786259542,-20.396946564885496,0.0
10.68000078201294,-9.7683427734375,3.6583401367187496,1.177947216796875,21.572519083969464,25.770992366412212,-8.67175572519084,-9.634267480468749,0.062249243164062495,0.8930372192382812,-2.1374045801526718,-44.152671755725194,-21.52671755725191,0.0
10.690000534057617,-10.146626635742187,4.359841223144531,1.5945383056640625,7.511450381679389,24.061068702290076,-8.961832061068701,-10.498574279785156,-0.8451531860351562,0.8930372192382812,-1.4198473282442747,-40.76335877862596,-21.755725190839694,0.0
10.700000762939453,-10.034099157714843,2.8802245971679685,1.7286135986328124,3.49618320610687,23.84732824427481,-8.213740458015268,-10.268730920410155,-1.2234370483398436,1.20667763671875,3.9389312977099236,-41.00763358778626,-22.732824427480917,0.0
10.71000051498413,-10.01733974609375,1.8267758666992187,1.85790048828125,4.427480916030534,25.114503816793892,-9.404580152671755,-10.443507641601562,-1.5466542724609373,1.879448303222656,10.50381679389313,-38.88549618320611,-23.87786259541985,0.0
10.720000505447388,-10.951078393554686,2.6791116577148437,2.272097375488281,1.816793893129771,24.65648854961832,-12.977099236641221,-9.440337145996093,0.07900865478515624,1.7357962036132812,13.801526717557252,-37.41984732824427,-25.114503816793892,0.0
10.730000495910645,-9.014169250488282,2.059013427734375,1.4101847778320311,-0.13740458015267176,18.870229007633586,-12.366412213740459,-8.358157995605469,1.7645266235351562,0.9217676391601562,1.9541984732824427,-35.52671755725191,-25.450381679389313,0.0
10.740000247955322,-9.789890588378906,2.5570073730468748,1.8914193115234375,-1.0534351145038168,22.717557251908396,-13.419847328244275,-10.041281762695311,0.076614453125,1.5370774658203123,-4.687022900763359,-26.16793893129771,-20.48854961832061,0.0
10.750000238418579,-10.678139404296875,3.1268273681640624,1.5921441040039062,-3.4656488549618323,21.938931297709924,-15.435114503816793,-9.050082275390624,0.8954314208984374,1.4437036010742186,-2.7480916030534353,-24.671755725190838,-21.022900763358777,0.0
10.760000467300415,-10.781090075683593,2.73896669921875,1.3048399047851562,-1.7557251908396947,20.396946564885496,-15.725190839694656,-10.364498986816406,-0.5961562133789062,1.467645617675781,2.2290076335877864,-21.572519083969464,-18.519083969465647,0.0
10.77000093460083,-10.096348400878906,2.2577321655273437,1.2425906616210938,3.786259541984733,23.87786259541985,-16.106870229007633,-8.8872765625,-0.033518823242187495,1.5275006591796874,2.9618320610687023,-19.938931297709924,-19.984732824427482,0.0
10.780000686645508,-9.828197814941406,1.4173673828125,0.55545478515625,12.213740458015268,27.114503816793892,-16.519083969465647,-10.874463940429687,-1.8076222534179687,1.6256629272460936,12.65648854961832,-19.801526717557252,-18.30534351145038,0.0
10.790000677108765,-8.042123376464843,0.24181436767578124,0.469263525390625,22.717557251908396,31.34351145038168,-17.587786259541986,-8.750807067871094,-1.659181750488281,1.7405846069335937,26.427480916030536,-25.984732824427482,-20.35114503816794,0.0
10.8000009059906,-9.153032946777342,1.0941501586914062,0.7709329345703124,32.42748091603053,37.70992366412214,-20.748091603053435,-8.63109698486328,-1.2808978881835937,1.149216796875,35.52671755725191,-28.12213740458015,-22.244274809160306,0.0
10.810000896453857,-10.041281762695311,2.3343466186523436,1.216254443359375,33.343511450381676,39.31297709923664,-23.87786259541985,-8.547299926757812,-0.842758984375,1.218648645019531,34.54961832061068,-25.0381679389313,-23.358778625954198,0.0
10.820000648498535,-9.409212524414063,2.731784094238281,1.3215993164062498,30.198473282442748,39.83206106870229,-25.96946564885496,-9.344569079589844,-0.4213794921875,1.4413093994140624,36.01526717557252,-21.419847328244273,-23.358778625954198,0.0
10.830000638961792,-9.390058911132812,1.9704279663085937,1.6232687255859375,26.35114503816794,38.656488549618324,-27.51145038167939,-8.12113203125,0.24181436767578124,0.8188169677734375,35.099236641221374,-22.732824427480917,-24.35114503816794,0.0
10.840000629425049,-8.832209924316405,1.8531120849609375,1.8219874633789062,27.17557251908397,38.25954198473283,-29.480916030534353,-7.338228088378906,0.737414111328125,0.86191259765625,29.893129770992367,-17.83206106870229,-24.610687022900763,0.0
10.850000381469727,-8.643067993164061,1.1013327636718748,1.8746598999023436,28.732824427480917,37.20610687022901,-31.96946564885496,-7.711723547363281,-0.23223756103515625,1.8339584716796873,30.0,-12.183206106870228,-23.358778625954198,0.0
10.860000610351562,-9.04050546875,1.6352397338867186,2.4516625,31.938931297709924,37.221374045801525,-34.916030534351144,-8.058882788085937,-0.11013327636718749,0.7158662963867187,27.755725190839694,-8.51908396946565,-22.53435114503817,0.0
10.87000036239624,-8.858546142578124,1.8507178833007811,2.559401574707031,31.297709923664122,33.14503816793893,-36.74809160305343,-7.807491613769531,-0.0430956298828125,0.8978256225585937,29.557251908396946,-4.748091603053435,-21.69465648854962,0.0
10.880000591278076,-8.796296899414061,1.5658078857421873,3.143586779785156,35.38931297709924,30.717557251908396,-36.42748091603053,-7.68059892578125,-0.3112462158203125,0.9361328491210937,31.96946564885496,-2.198473282442748,-19.83206106870229,0.0
10.890000343322754,-9.354145886230468,1.886630908203125,4.144363073730468,39.57251908396947,27.374045801526716,-38.82442748091603,-8.015787158203125,-0.4908113403320312,0.584185205078125,42.656488549618324,-4.183206106870229,-18.870229007633586,0.0
10.90000057220459,-9.739612353515625,2.281674182128906,4.6998178588867185,41.23664122137404,20.82442748091603,-39.770992366412216,-7.024587670898437,0.6655880615234374,0.1149216796875,44.091603053435115,-1.3129770992366412,-19.893129770992367,0.0
10.910000801086426,-9.624690673828125,3.3016040893554686,5.9591679321289055,35.7557251908397,10.641221374045802,-38.44274809160305,-6.368576416015625,1.1420341918945311,0.7110778930664062,31.83206106870229,7.679389312977099,-18.641221374045802,0.0
10.920000791549683,-11.537657800292967,4.7189714721679685,7.187393383789062,26.48854961832061,1.4045801526717556,-36.85496183206107,-7.584830859375,0.19632453613281248,2.291250988769531,27.068702290076335,10.16793893129771,-16.12213740458015,0.0
10.93000054359436,-11.470620153808593,3.5577836669921874,7.223306408691406,17.282442748091604,-16.763358778625953,-29.603053435114504,-6.9168485961914055,0.21308394775390624,2.6503812377929687,23.236641221374047,7.679389312977099,-14.977099236641221,0.0
10.940000772476196,-10.579977136230468,1.4006079711914061,7.261613635253906,40.152671755725194,-21.938931297709924,-20.916030534351144,-6.246472131347656,0.45489831542968745,2.408566870117187,16.885496183206108,3.480916030534351,-10.732824427480915,0.0
10.950000762939453,-10.455478649902343,1.9800047729492187,7.275978845214843,51.847328244274806,-30.076335877862597,-18.625954198473284,-6.706158850097656,-1.4006079711914061,0.8403647827148437,12.488549618320612,4.900763358778626,-8.916030534351146,0.0
10.96000051498413,-11.173739147949219,3.019088293457031,7.331045483398437,50.68702290076336,-40.900763358778626,-17.404580152671755,-6.430825659179687,-3.028665100097656,-1.9823989746093749,27.64885496183206,9.282442748091603,-10.51908396946565,0.0
10.970000505447388,-13.081917871093749,4.46279189453125,6.8210805297851556,34.0,-57.541984732824424,-16.076335877862597,-5.796362219238281,-1.0175357055664063,-4.2880151733398435,33.87786259541985,17.557251908396946,-14.67175572519084,0.0
10.980000495910645,-12.409147204589843,3.5817256835937497,6.6702458251953125,21.83206106870229,-70.85496183206106,-12.01526717557252,-8.693346228027343,-1.879448303222656,-3.948038537597656,33.80152671755725,31.251908396946565,-16.061068702290076,0.0
10.990000247955322,-12.579135522460938,3.5625720703124997,6.658274816894531,17.755725190839694,-81.49618320610686,-8.564885496183207,-11.231199987792968,-2.4157494750976563,-1.2401964599609374,34.35114503816794,36.274809160305345,-20.442748091603054,0.0
11.000000476837158,-13.194445349121093,3.488351818847656,7.302315063476562,14.885496183206106,-93.45038167938931,-4.977099236641221,-12.895170141601561,-1.5394716674804687,1.4796166259765624,30.702290076335878,38.6412213740458,-24.27480916030534,0.0
11.010000467300415,-14.523227270507812,2.920926025390625,7.522581616210937,12.198473282442748,-106.9618320610687,0.015267175572519083,-12.974178796386719,-0.05027823486328125,2.9376854370117185,21.72519083969466,36.62595419847328,-26.9618320610687,0.0
11.020000696182251,-15.62216583251953,2.4396914916992185,8.188169677734374,10.931297709923664,-119.31297709923665,3.2061068702290076,-13.876792822265624,-1.1276689819335937,2.9496564453125,16.045801526717558,35.37404580152672,-23.572519083969464,0.0
11.030000925064087,-16.002843896484375,1.7669208251953124,8.86094034423828,6.137404580152672,-133.9236641221374,5.038167938931298,-13.019668627929686,0.3711012573242187,1.8914193115234375,25.786259541984734,25.755725190839694,-19.450381679389313,0.0
11.040000677108765,-16.251840869140626,0.15083470458984374,8.908824377441405,6.854961832061068,-152.41221374045801,6.793893129770993,-11.082759484863281,2.4779987182617185,1.6112977172851561,19.49618320610687,18.137404580152673,-16.625954198473284,0.0
11.050000667572021,-16.462530615234375,-0.7350199096679687,9.253589416503905,9.603053435114504,-167.3740458015267,7.480916030534351,-9.610325463867188,3.7708676147460936,1.7717092285156248,1.7404580152671756,14.65648854961832,-12.702290076335878,0.0
11.060000658035278,-17.28134758300781,0.2705447875976562,9.145850341796875,11.053435114503817,-181.70992366412213,8.01526717557252,-9.33978067626953,2.8227637573242186,1.209071838378906,-18.076335877862597,15.358778625954198,-8.274809160305344,0.0
11.070000886917114,-16.59900010986328,1.0007762939453124,8.224082702636718,13.83206106870229,-195.48091603053436,10.82442748091603,-10.40041201171875,-0.48123453369140623,1.35990654296875,-30.366412213740457,18.916030534351144,-1.8473282442748091,0.0
11.080000400543213,-15.5144267578125,0.8403647827148437,5.164292980957031,12.977099236641221,-204.59541984732823,15.083969465648854,-6.256048937988281,3.0334535034179684,-1.4772224243164063,-33.969465648854964,8.366412213740459,-5.557251908396947,0.0
11.090000629425049,-12.85207451171875,0.33039982910156246,3.1100679565429687,8.610687022900763,-206.24427480916032,13.618320610687023,-7.544129431152343,2.070984436035156,-2.195482922363281,-67.06870229007633,34.778625954198475,-2.0610687022900764,0.0
11.100000858306885,-12.351686364746094,0.13407529296874998,0.833182177734375,-7.145038167938932,-206.36641221374046,10.198473282442748,-11.259930407714844,-3.189076611328125,-1.3144167114257812,-67.77099236641222,43.89312977099237,6.137404580152672,0.0
11.110000610351562,-10.297461340332031,-1.254561669921875,-1.5777788940429687,-16.916030534351144,-201.7709923664122,6.183206106870229,-10.364498986816406,-4.197035510253906,-1.6041151123046875,-43.770992366412216,39.847328244274806,4.213740458015267,0.0
11.120000839233398,-8.350975390624999,-2.4301146850585935,-3.289633081054687,-12.061068702290076,-188.74809160305344,0.4732824427480916,-9.86411083984375,-3.0430303100585934,-2.6240450195312497,-25.297709923664122,38.25954198473283,0.6412213740458015,0.0
11.130000591278076,-8.044517578125,-2.6671406494140624,-3.890577697753906,-7.175572519083969,-168.50381679389312,-4.412213740458015,-9.686939916992188,-4.338293408203125,-1.4508862060546874,-15.694656488549619,42.18320610687023,1.633587786259542,0.0
11.140000581741333,-7.225700610351562,-3.6272155151367187,-2.616862414550781,-6.427480916030534,-151.4198473282443,-10.259541984732824,-7.939172705078125,-1.0414777221679687,-2.501940734863281,-6.305343511450381,33.969465648854964,0.3053435114503817,0.0
11.15000033378601,-6.701370446777343,-2.760514514160156,-1.0534487304687499,2.6412213740458017,-129.96946564885496,-13.954198473282442,-7.881711865234375,0.679953271484375,-2.250549560546875,-28.732824427480917,49.69465648854962,4.122137404580153,0.0
11.160000801086426,-7.75721337890625,-0.8164227661132812,0.8451531860351562,6.213740458015267,-112.8854961832061,-14.977099236641221,-11.092336291503905,-2.578555187988281,-0.20350714111328125,-31.17557251908397,56.88549618320611,12.610687022900763,0.0
11.170000791549683,-6.988674645996094,-1.8100164550781248,0.93852705078125,15.541984732824428,-102.91603053435115,-13.32824427480916,-9.253589416503905,0.82360537109375,-2.7844565307617186,-18.03053435114504,45.603053435114504,11.618320610687023,0.0
11.18000054359436,-7.304709265136719,0.06943184814453125,1.8291700683593748,33.19083969465649,-85.77099236641222,-12.0,-8.339004382324218,1.7860744384765623,-2.597708801269531,-42.54961832061068,60.47328244274809,13.236641221374045,0.0
11.190000534057617,-8.149862451171874,1.3311761230468748,2.243366955566406,32.67175572519084,-80.19847328244275,-9.86259541984733,-10.460267053222656,-1.1659762084960936,-1.1156979736328125,-49.083969465648856,68.45801526717557,19.52671755725191,0.0
11.200000524520874,-6.928819604492187,0.7805097412109374,1.8435352783203125,30.83969465648855,-77.14503816793894,-4.824427480916031,-10.089165795898436,-1.5466542724609373,-1.5729904907226562,-41.12977099236641,65.58778625954199,22.48854961832061,0.0
11.210000276565552,-6.706158850097656,0.02633621826171875,1.714248388671875,41.49618320610687,-64.36641221374046,0.7786259541984732,-9.519345800781249,-1.8626888916015625,-1.22583125,-37.63358778625954,68.7175572519084,24.763358778625953,0.0
11.220000267028809,-8.386888415527343,2.5641899780273434,2.1404162841796874,28.763358778625953,-58.94656488549618,-2.015267175572519,-10.417171423339843,-4.905719201660156,0.33518823242187495,-26.27480916030534,69.77099236641222,27.419847328244273,0.0
11.230000495910645,-6.967126831054687,0.5339069702148437,1.0582371337890624,14.83969465648855,-58.79389312977099,0.2748091603053435,-10.031704956054687,-4.764461303710937,-0.3280056274414062,-1.0534351145038168,58.18320610687023,27.114503816793892,0.0
11.240000486373901,-5.473144995117187,-0.086191259765625,0.9026140258789062,15.923664122137405,-47.86259541984733,1.465648854961832,-8.968679418945312,-3.124433166503906,-0.9552864624023437,3.480916030534351,56.12213740458015,25.603053435114504,0.0
11.250000238418579,-4.963180041503906,1.1563994018554686,1.2378022583007813,6.1679389312977095,-40.29007633587786,-1.5267175572519085,-9.160215551757812,-3.356670727539062,-0.6775590698242188,11.725190839694656,55.64885496183206,27.114503816793892,0.0
11.260000467300415,-4.201823913574218,0.3806780639648437,0.9888052856445312,-9.083969465648854,-34.3206106870229,-4.137404580152672,-9.497797985839844,-4.13718046875,0.967257470703125,29.938931297709924,53.52671755725191,30.458015267175572,0.0
11.27000093460083,-3.4261025756835934,-0.4644751220703125,0.9337386474609375,-4.1679389312977095,-21.022900763358777,-2.183206106870229,-8.817844714355468,-2.1835119140624997,0.07422025146484375,46.83969465648855,45.48091603053435,29.709923664122137,0.0
11.280000686645508,-3.1411925781249996,0.5458779785156249,1.5562310791015623,0.0916030534351145,-7.190839694656488,-3.1755725190839694,-9.011775048828124,-1.2425906616210938,-0.5889736083984375,50.62595419847328,42.213740458015266,29.374045801526716,0.0
11.290000915527344,-3.450044592285156,1.6448165405273436,2.370259643554687,2.9618320610687023,6.916030534351145,-2.0916030534351147,-9.567229833984374,-0.20829554443359374,-0.7900865478515624,44.916030534351144,44.045801526717554,29.801526717557252,0.0
11.300000667572021,-2.932897033691406,1.8938135131835936,3.071760729980469,-1.5267175572519085,14.916030534351146,-0.9770992366412213,-10.850521923828124,-0.9911994873046874,0.0718260498046875,36.61068702290076,49.29770992366412,33.45038167938932,0.0
11.310001134872437,-4.173093493652344,3.782838623046875,4.486733911132812,-19.267175572519083,18.610687022900763,-1.8778625954198473,-10.73799444580078,-0.1484405029296875,0.3495534423828125,31.31297709923664,46.595419847328245,33.69465648854962,0.0
11.320000410079956,-4.134786267089844,3.2632968627929686,5.058948107910156,-32.54961832061068,18.900763358778626,0.5648854961832062,-11.197681164550781,-0.9026140258789062,1.5155296508789062,16.27480916030534,52.76335877862596,35.404580152671755,0.0
11.330000400543213,-3.9600095458984375,1.7429788085937499,5.298368273925781,-37.404580152671755,20.106870229007633,5.251908396946565,-9.847351428222655,-3.086125939941406,2.767697119140625,19.450381679389313,45.86259541984733,34.213740458015266,0.0
11.340000629425049,-1.924938134765625,-1.6711527587890624,4.948814831542968,-18.931297709923665,27.221374045801525,10.870229007633588,-10.220846887207031,-2.023100402832031,1.2713210815429687,21.206106870229007,36.06106870229008,29.14503816793893,0.0
11.350000619888306,-3.907337109375,-0.5722141967773438,5.662286926269531,-0.6564885496183206,37.57251908396947,12.01526717557252,-11.85608662109375,-5.68862314453125,4.024652990722656,17.709923664122137,39.93893129770992,25.603053435114504,0.0
11.360000371932983,-3.6391865234374996,-0.44532150878906246,5.408501550292969,9.083969465648854,43.00763358778626,13.770992366412214,-11.135431921386719,-4.465186096191406,3.258508459472656,32.94656488549618,23.358778625954198,18.33587786259542,0.0
11.370142221450806,-4.3263223999023435,0.5985504150390625,5.4515971801757805,18.793893129770993,50.06106870229008,13.068702290076336,-10.40041201171875,-1.5418658691406248,2.0542250244140625,25.908396946564885,12.091603053435115,10.65648854961832,0.0
11.380000352859497,-8.030152368164062,1.0965443603515623,11.59990704345703,38.412213740458014,53.9236641221374,18.870229007633586,-10.735600244140624,-3.1387983764648437,3.6104561035156246,15.282442748091603,11.923664122137405,10.076335877862595,0.0
11.390322208404541,-10.960655200195312,4.036623999023437,15.492878942871092,65.46564885496183,48.35114503816794,34.94656488549618,-11.982979309082031,-1.9129671264648436,1.9704279663085937,13.98473282442748,4.977099236641221,9.709923664122137,0.0
11.400001049041748,-11.889605444335936,10.230423693847655,11.875240234375,53.282442748091604,38.70229007633588,49.725190839694655,-12.006921325683592,-0.34237083740234375,0.29927520751953124,0.6259541984732825,-0.22900763358778625,9.954198473282442,0.0
11.410000801086426,-10.182539660644531,6.574477758789062,8.793902697753905,2.8702290076335877,22.15267175572519,55.86259541984733,-10.182539660644531,-0.9145850341796874,0.9911994873046874,-12.412213740458014,1.8473282442748091,12.65648854961832,0.0
11.42005729675293,-11.44667813720703,1.9967641845703124,7.079654309082031,3.236641221374046,21.022900763358777,61.954198473282446,-11.360486877441405,-2.521094348144531,0.26815058593749996,0.7480916030534351,-1.9389312977099236,16.427480916030536,0.0
11.43000054359436,-10.79545528564453,1.6615759521484375,5.7843912109375,-2.0,21.358778625954198,58.74809160305343,-9.713276135253906,-1.8626888916015625,-1.7118541870117185,7.908396946564886,-13.022900763358779,15.34351145038168,0.0
11.440000772476196,-8.262389929199218,-0.6057330200195312,3.105279553222656,-19.19083969465649,18.091603053435115,50.0763358778626,-9.392453112792968,-2.844311572265625,-1.0989385620117187,10.732824427480915,-9.007633587786259,17.022900763358777,0.0
11.450000524520874,-8.10197841796875,-1.4796166259765624,3.2824504760742186,-12.335877862595419,29.801526717557252,42.152671755725194,-9.239224206542968,-1.936909143066406,-2.039859814453125,19.267175572519083,-11.312977099236642,14.091603053435115,0.0
11.460123062133789,-7.000645654296875,0.7829039428710937,4.80755693359375,-10.305343511450381,29.770992366412212,34.56488549618321,-9.299079248046874,0.8714894042968749,-3.229778039550781,11.877862595419847,-6.977099236641221,10.702290076335878,0.0
11.470000267028809,-6.0716954101562495,-2.8227637573242186,4.556165759277343,-8.778625954198473,32.732824427480914,36.396946564885496,-8.046911779785155,1.2761094848632812,-2.511517541503906,-2.351145038167939,5.8320610687022905,12.320610687022901,0.0
11.480000734329224,-3.88818349609375,-3.3111808959960936,5.161898779296875,20.03053435114504,52.79389312977099,41.02290076335878,-10.002974536132811,-0.41898529052734373,-2.04943662109375,-5.175572519083969,14.580152671755725,16.03053435114504,0.0
11.490000486373901,-5.585672473144531,-0.82360537109375,6.253654736328125,21.0381679389313,59.83206106870229,33.038167938931295,-10.098742602539062,0.2154781494140625,-2.2553379638671873,-0.9770992366412213,14.717557251908397,14.885496183206106,0.0
11.500000476837158,-6.41646044921875,-1.5179238525390624,4.261678955078125,16.412213740458014,58.961832061068705,28.977099236641223,-11.40837091064453,-1.0103531005859374,-2.4492682983398435,-1.9083969465648856,17.83206106870229,16.65648854961832,0.0
11.510000705718994,-7.237671618652343,-0.842758984375,5.250484240722656,19.053435114503817,64.36641221374046,22.259541984732824,-10.022128149414062,0.47644613037109373,-2.157175695800781,7.923664122137405,9.145038167938932,15.404580152671755,0.0
11.520000457763672,-9.952696301269532,-0.06943184814453125,5.45877978515625,20.519083969465647,63.69465648854962,11.34351145038168,-10.13226142578125,0.7589619262695312,-2.403778466796875,-1.5267175572519085,7.435114503816794,15.969465648854962,0.0
11.530000925064087,-7.4794859863281244,-2.9041666137695312,3.3111808959960936,20.045801526717558,54.93129770992366,9.98473282442748,-9.964667309570311,1.209071838378906,-1.1109095703125,-6.427480916030534,9.679389312977099,17.755725190839694,0.0
11.540000677108765,-6.945579016113281,-2.8610709838867185,3.430890979003906,54.01526717557252,68.74809160305344,7.755725190839694,-10.292672937011718,0.2154781494140625,-0.622492431640625,-9.770992366412214,9.938931297709924,19.557251908396946,0.0
11.550150871276855,-9.557653027343749,1.3311761230468748,4.915296008300781,61.87786259541985,69.74045801526718,-1.9236641221374047,-9.83777462158203,1.4987702392578124,-1.3215993164062498,-5.1603053435114505,1.5725190839694656,14.763358778625955,0.0
11.560000658035278,-6.830657336425781,1.6400281372070311,4.11802685546875,57.6793893129771,59.45038167938932,-1.2671755725190839,-10.139444030761718,1.3000515014648437,-1.120486376953125,-15.312977099236642,5.00763358778626,14.992366412213741,0.0
11.570000648498535,-7.838616235351562,3.1507693847656246,4.2688615600585935,62.06106870229008,65.14503816793894,2.4732824427480917,-9.452308154296874,1.8148048583984373,-1.199495031738281,-24.427480916030536,5.282442748091603,12.793893129770993,0.0
11.580005884170532,-9.169792358398437,6.426037255859375,4.833893151855468,39.954198473282446,58.85496183206107,-2.595419847328244,-10.314220751953124,1.5634136840820312,-1.2952630981445312,-28.748091603053435,6.931297709923665,11.17557251908397,0.0
11.590000629425049,-8.142679846191406,6.852205151367187,3.411737365722656,8.82442748091603,46.48854961832061,-2.015267175572519,-11.329362255859374,0.6967126831054687,-1.1372457885742187,-31.557251908396946,7.862595419847328,9.603053435114504,0.0
11.600000381469727,-8.927977990722656,5.398924743652343,2.7174188842773437,-7.343511450381679,42.87022900763359,2.6412213740458017,-11.410765112304686,0.8188169677734375,-1.0486603271484374,-32.412213740458014,4.656488549618321,10.259541984732824,0.0
11.610000610351562,-7.467514978027343,4.8123453369140625,2.607285607910156,-22.0,38.06106870229008,5.267175572519084,-10.989385620117186,1.678335363769531,-1.0630255371093749,-35.02290076335878,1.083969465648855,12.320610687022901,0.0
11.620000839233398,-8.769960681152343,1.5969325073242187,1.0390835205078124,-23.572519083969464,37.29770992366412,9.34351145038168,-10.769119067382812,1.707065783691406,-0.8738836059570312,-38.0,-0.13740458015267176,15.404580152671755,0.0
11.630000591278076,-7.050923889160156,0.3016694091796875,1.8650830932617186,6.732824427480916,50.54961832061068,14.900763358778626,-10.500968481445312,1.5155296508789062,-0.9648632690429687,-41.98473282442748,-1.618320610687023,16.625954198473284,0.0
11.640000343322754,-9.351751684570312,4.031835595703125,3.385401147460937,10.870229007633588,57.221374045801525,12.045801526717558,-10.704475622558594,0.852335791015625,-0.9050082275390624,-42.88549618320611,-1.7709923664122138,15.877862595419847,0.0
11.650146484375,-8.556876733398436,4.314351391601562,3.2130186279296873,3.49618320610687,55.66412213740458,11.068702290076336,-11.066000073242186,-0.09816226806640624,-1.0702081420898437,-41.55725190839695,-2.6717557251908395,14.473282442748092,0.0
11.660000801086426,-8.0062103515625,2.375048046875,2.3511060302734372,3.1755725190839694,56.88549618320611,10.793893129770993,-11.640608471679688,-1.4053963745117186,-0.7565677246093749,-37.98473282442748,-4.870229007633588,9.633587786259541,0.0
11.670000553131104,-9.210493786621093,3.1962592163085937,3.0621839233398433,-0.8396946564885496,57.541984732824424,6.458015267175573,-12.521674682617187,-1.1252747802734375,-0.9983820922851562,-26.15267175572519,-12.65648854961832,2.732824427480916,0.0
11.68000054359436,-10.374075793457031,3.859453076171875,2.952050646972656,-7.251908396946565,55.343511450381676,3.877862595419847,-13.287819213867186,-1.2497732666015624,-0.02154781494140625,-19.83206106870229,-15.404580152671755,-0.44274809160305345,0.0
11.690000534057617,-9.603142858886718,3.1699229980468746,3.071760729980469,-14.778625954198473,52.16793893129771,2.9770992366412212,-10.793061083984375,0.1292868896484375,-0.12449848632812499,-15.297709923664122,-24.931297709923665,-4.137404580152672,0.0
11.700000524520874,-9.083601098632812,2.959233251953125,2.877830395507812,-11.557251908396946,52.18320610687023,3.2977099236641223,-11.161768139648437,0.2705447875976562,-1.1420341918945311,-12.793893129770993,-30.30534351145038,-5.114503816793893,0.0
11.71000051498413,-9.715670336914062,3.9815573608398434,3.3327287109375,-12.702290076335878,51.603053435114504,1.251908396946565,-11.575965026855467,0.6177040283203125,-0.2154781494140625,-6.122137404580153,-33.725190839694655,-6.061068702290076,0.0
11.720000267028809,-9.749189160156249,4.513070129394531,3.1771056030273437,-20.213740458015266,46.091603053435115,-0.7022900763358778,-10.78348427734375,0.488417138671875,0.12210428466796874,-0.15267175572519084,-39.12977099236641,-7.343511450381679,0.0
11.730000257492065,-10.261548315429687,3.440467785644531,2.6695348510742187,-20.35114503816794,46.62595419847328,0.16793893129770993,-10.479420666503906,2.50912333984375,-0.21787235107421873,-1.6030534351145038,-43.16030534351145,-8.854961832061068,0.0
11.740000486373901,-9.124302526855468,4.604049792480469,3.2321722412109373,-21.31297709923664,50.29007633587786,-1.251908396946565,-9.878476049804688,1.936909143066406,0.34715924072265625,-12.15267175572519,-39.45038167938932,-7.633587786259542,0.0
11.750000476837158,-11.48498536376953,5.722141967773437,2.9855694702148434,-36.93129770992366,44.38167938931298,-3.83206106870229,-10.266336718749999,1.0438719238281249,-0.009576806640625,-8.977099236641221,-42.030534351145036,-6.900763358778626,0.0
11.760000705718994,-9.181763366699219,2.7964275390625,1.879448303222656,-38.18320610687023,40.412213740458014,-0.3969465648854962,-9.718064538574218,2.061407629394531,-0.6248866333007812,-8.625954198473282,-44.0,-6.748091603053435,0.0
11.77000093460083,-9.313444458007812,3.1124621582031247,2.501940734863281,-44.54961832061068,39.16030534351145,-1.1145038167938932,-9.725247143554688,2.9041666137695312,-1.1540052001953125,-20.061068702290076,-41.02290076335878,-6.33587786259542,0.0
11.780000448226929,-10.314220751953124,3.380612744140625,1.905784521484375,-49.89312977099237,37.099236641221374,-2.015267175572519,-9.730035546875,1.5777788940429687,-0.7637503295898437,-23.954198473282442,-35.66412213740458,-2.2748091603053435,0.0
11.790000677108765,-9.184157568359375,1.707065783691406,1.93451494140625,-48.152671755725194,36.74809160305343,-1.1297709923664123,-9.643844287109374,1.235408056640625,-0.33758243408203126,-16.65648854961832,-38.83969465648855,-0.8091603053435115,0.0
11.800000667572021,-10.326191760253906,2.2074539306640624,2.5258827514648434,-47.37404580152672,36.54961832061068,-2.8702290076335877,-9.715670336914062,2.0566192260742184,-0.565031591796875,-17.022900763358777,-39.87786259541985,-0.21374045801526717,0.0
11.810000896453857,-9.354145886230468,1.8770541015625,2.6671406494140624,-39.16030534351145,40.58015267175573,-3.404580152671756,-8.796296899414061,1.7788918334960937,-0.948103857421875,-25.389312977099237,-41.00763358778626,-0.15267175572519084,0.0
11.820000648498535,-9.311050256347656,1.8722656982421875,2.789244934082031,-37.786259541984734,40.74809160305343,-6.0458015267175576,-10.390835205078124,0.20829554443359374,-0.4908113403320312,-22.946564885496183,-38.61068702290076,3.1908396946564888,0.0
11.830000400543213,-9.057264880371093,1.6328455322265625,2.8898014038085935,-36.19847328244275,38.58015267175573,-6.99236641221374,-9.967061511230469,1.1037269653320312,-0.430956298828125,-16.091603053435115,-42.961832061068705,2.2442748091603053,0.0
11.84000039100647,-10.867281335449219,3.162740393066406,3.4332851806640625,-38.70229007633588,37.20610687022901,-9.068702290076336,-9.13627353515625,1.5203180541992187,-0.55545478515625,-23.14503816793893,-42.2442748091603,1.6793893129770991,0.0
11.850000619888306,-9.22485899658203,1.838746875,3.3710359375,-30.519083969465647,38.916030534351144,-7.4961832061068705,-9.900023864746093,0.3854664672851562,-0.49320554199218747,-21.633587786259543,-39.63358778625954,3.4656488549618323,0.0
11.860000610351562,-8.959102612304687,1.5753846923828123,3.1004911499023438,-27.557251908396946,37.541984732824424,-8.473282442748092,-9.593566052246093,0.488417138671875,-0.26815058593749996,-16.519083969465647,-41.55725190839695,2.2442748091603053,0.0
11.87000060081482,-10.697293017578124,3.7612908081054686,3.299209887695312,-32.18320610687023,33.786259541984734,-10.061068702290076,-8.113949426269532,2.013523596191406,-1.0079588989257813,-21.282442748091604,-39.083969465648856,0.183206106870229,0.0
11.880000352859497,-10.175357055664062,4.8314989501953125,3.797203833007812,-34.916030534351144,32.18320610687023,-9.282442748091603,-8.358157995605469,0.2059013427734375,-1.0366893188476562,-22.625954198473284,-32.85496183206107,2.946564885496183,0.0
11.890000581741333,-10.644620581054687,4.73094248046875,3.5122938354492184,-54.2442748091603,22.519083969465647,-9.206106870229007,-9.332598071289063,0.5410895751953124,-1.8842367065429686,-11.374045801526718,-30.48854961832061,4.9465648854961835,0.0
11.90000033378601,-11.84890401611328,6.282385156249999,3.9432501342773434,-63.099236641221374,15.404580152671755,-7.145038167938932,-8.552088330078124,1.218648645019531,-2.1643583007812497,-8.16793893129771,-27.603053435114504,6.1679389312977095,0.0
11.910000562667847,-10.371681591796875,5.118803149414062,2.9831752685546875,-76.09160305343511,4.534351145038168,-1.83206106870229,-8.583212951660157,2.1691467041015624,-2.250549560546875,-11.297709923664122,-20.458015267175572,4.793893129770993,0.0
11.920000314712524,-9.311050256347656,1.9823989746093749,2.35589443359375,-71.32824427480917,1.099236641221374,3.6793893129770994,-10.359710583496094,0.6847416748046875,-1.9943699829101562,-17.34351145038168,-11.816793893129772,6.122137404580153,0.0
11.930000305175781,-7.989450939941406,0.1149216796875,2.616862414550781,-61.61832061068702,1.5267175572519085,4.9465648854961835,-11.183315954589844,-0.43574470214843747,-0.5961562133789062,-10.198473282442748,-8.335877862595419,5.786259541984733,0.0
11.940000772476196,-7.843404638671874,-1.5825672973632812,2.9448680419921875,-38.778625954198475,7.419847328244275,3.4656488549618323,-10.570400329589843,-1.0342951171875,0.4836287353515625,-0.10687022900763359,-11.068702290076336,3.7404580152671754,0.0
11.950000524520874,-7.149086157226562,-1.7166425903320313,3.1651345947265623,-12.412213740458014,14.992366412213741,0.3816793893129771,-10.462661254882812,-1.4149731811523436,1.1731588134765625,6.824427480916031,-11.648854961832061,-1.618320610687023,0.0
11.960000276565552,-7.81467421875,-0.28012159423828126,3.1747114013671873,8.549618320610687,22.15267175572519,-3.2213740458015265,-10.563217724609375,-1.5897499023437498,1.8770541015625,6.99236641221374,-10.473282442748092,-7.175572519083969,0.0
11.970000505447388,-7.436390356445312,0.699106884765625,2.8610709838867185,21.328244274809162,26.870229007633586,-5.404580152671755,-8.21690009765625,-0.5602431884765625,1.1635820068359375,4.702290076335878,-18.671755725190838,-14.198473282442748,0.0
11.980000734329224,-11.075576879882812,5.935225915527344,4.065354418945312,7.816793893129771,27.206106870229007,-10.870229007633588,-9.390058911132812,-0.7852981445312499,1.8171990600585937,6.2748091603053435,-19.022900763358777,-16.427480916030536,0.0
11.990000486373901,-10.369287390136718,4.5968671875,2.5330653564453125,-10.885496183206106,17.557251908396946,-7.9541984732824424,-8.805873706054687,0.430956298828125,2.3487118286132813,8.183206106870228,-23.480916030534353,-19.053435114503817,0.0
12.000000238418579,-9.564835632324218,2.4253262817382812,1.9488801513671874,-12.534351145038167,17.633587786259543,-4.229007633587786,-10.785878479003905,0.1484405029296875,3.1387983764648437,9.038167938931299,-23.068702290076335,-17.633587786259543,0.0
12.010000705718994,-8.037334973144532,-0.4429273071289062,0.9600748657226562,-0.48854961832061067,20.244274809160306,-1.450381679389313,-10.287884533691406,0.5530605834960938,2.863465185546875,12.870229007633588,-30.33587786259542,-17.49618320610687,0.0
12.02000093460083,-7.505822204589843,-0.05746083984375,0.9121908325195311,14.992366412213741,26.717557251908396,-2.6412213740458017,-10.261548315429687,0.39264907226562495,3.191470812988281,13.694656488549619,-35.908396946564885,-16.916030534351144,0.0
12.030000448226929,-9.85692823486328,1.9800047729492187,1.3359645263671873,22.091603053435115,33.770992366412216,-5.694656488549619,-9.320627062988281,1.2880804931640624,2.559401574707031,3.801526717557252,-40.274809160305345,-19.267175572519083,0.0
12.040000677108765,-10.347739575195313,3.7612908081054686,1.608903515625,19.84732824427481,36.54961832061068,-5.435114503816794,-8.623914379882812,1.22583125,1.9680337646484374,-12.366412213740459,-39.49618320610687,-18.870229007633586,0.0
12.0500009059906,-10.941501586914061,4.836287353515624,2.04943662109375,3.0229007633587788,35.61832061068702,-6.412213740458015,-10.419565624999999,0.2059013427734375,1.7717092285156248,-17.801526717557252,-36.87022900763359,-17.84732824427481,0.0
12.060000658035278,-9.521740002441407,2.942473840332031,1.1420341918945311,-12.229007633587786,28.12213740458015,-4.152671755725191,-10.029310754394531,-0.38786066894531246,1.8770541015625,-18.427480916030536,-40.76335877862596,-20.53435114503817,0.0
12.070000886917114,-9.916783276367187,1.649604943847656,1.8076222534179687,-13.84732824427481,33.00763358778626,-5.526717557251908,-10.24718310546875,-1.3407529296874998,2.1499930908203124,-20.33587786259542,-40.19847328244275,-22.427480916030536,0.0
12.080000638961792,-8.825027319335938,0.7876923461914062,1.7956512451171873,-9.648854961832061,33.55725190839695,-7.0534351145038165,-10.692504614257812,-1.5729904907226562,2.8610709838867185,-16.625954198473284,-43.11450381679389,-24.3206106870229,0.0
12.090000629425049,-9.871293444824218,1.7118541870117185,1.9919757812499999,-8.83969465648855,34.18320610687023,-10.091603053435115,-9.380482104492186,0.4261678955078125,1.7788918334960937,-18.38167938931298,-46.94656488549618,-27.84732824427481,0.0
12.100000619888306,-10.63025537109375,2.365471240234375,2.5905261962890624,-12.946564885496183,34.900763358778626,-12.01526717557252,-10.24718310546875,-0.105344873046875,2.0829554443359375,-27.435114503816795,-39.465648854961835,-27.206106870229007,0.0
12.110000610351562,-8.305485559082031,0.45489831542968745,1.3838485595703125,-12.916030534351146,28.977099236641223,-10.01526717557252,-10.213664282226562,-0.7757213378906249,2.3367408203125,-23.633587786259543,-39.465648854961835,-26.198473282442748,0.0
12.12000036239624,-9.854534033203125,0.5961562133789062,1.915361328125,-5.923664122137405,33.69465648854962,-13.450381679389313,-9.821015209960937,-0.718260498046875,1.4867992309570313,-15.465648854961833,-44.25954198473283,-27.69465648854962,0.0
12.130000591278076,-9.648632690429688,0.9576806640625,2.2936451904296873,1.2366412213740459,33.12977099236641,-16.16793893129771,-8.856151940917968,-0.7709329345703124,1.13006318359375,-15.053435114503817,-42.10687022900763,-30.15267175572519,0.0
12.140000343322754,-8.659827404785156,1.2497732666015624,1.7573440185546874,9.526717557251908,31.862595419847327,-16.48854961832061,-9.011775048828124,-1.1109095703125,1.637633935546875,-16.27480916030534,-39.14503816793893,-31.740458015267176,0.0
12.15000057220459,-9.409212524414063,1.6927005737304686,1.7980454467773437,14.045801526717558,35.603053435114504,-17.66412213740458,-8.52335791015625,-1.1420341918945311,1.448492004394531,-17.46564885496183,-34.961832061068705,-33.41984732824427,0.0
12.160000801086426,-8.949525805664061,1.7645266235351562,1.7405846069335937,17.87786259541985,37.267175572519086,-17.87786259541985,-9.648632690429688,-1.886630908203125,1.4891934326171874,-8.977099236641221,-32.13740458015267,-33.14503816793893,0.0
12.170000553131104,-9.809044201660155,2.35589443359375,1.9656395629882812,18.977099236641223,39.12977099236641,-19.541984732824428,-8.705317236328124,-2.118868469238281,1.4125789794921875,6.030534351145038,-35.587786259541986,-34.0,0.0
12.18000078201294,-9.524134204101562,2.578555187988281,1.8004396484374998,16.18320610687023,37.770992366412216,-20.290076335877863,-8.355763793945313,-1.7764976318359373,1.5873557006835937,16.18320610687023,-34.68702290076336,-34.38167938931298,0.0
12.190000534057617,-9.069235888671875,1.4700398193359374,1.9201497314453124,14.82442748091603,37.954198473282446,-20.18320610687023,-8.034940771484374,-1.0007762939453124,1.4245499877929686,21.129770992366414,-31.251908396946565,-35.48091603053435,0.0
12.200000762939453,-9.464279162597656,2.221819140625,2.4899697265625,15.679389312977099,40.534351145038165,-21.00763358778626,-8.200140686035155,-0.6655880615234374,1.3479355346679687,22.03053435114504,-26.33587786259542,-35.404580152671755,0.0
12.21000051498413,-9.169792358398437,1.905784521484375,2.2840683837890623,11.007633587786259,39.63358778625954,-21.801526717557252,-7.802703210449218,0.4572925170898437,1.5705962890624998,22.38167938931298,-19.404580152671755,-35.541984732824424,0.0
12.220000505447388,-9.028534460449219,2.0877438476562498,2.080561242675781,10.854961832061068,40.10687022900763,-21.786259541984734,-7.261613635253906,-0.19871873779296872,0.8954314208984374,15.358778625954198,-14.82442748091603,-34.67175572519084,0.0
12.230000495910645,-8.930372192382812,1.8842367065429686,2.1212626708984375,5.206106870229007,39.11450381679389,-22.18320610687023,-7.771578588867187,-0.8283937744140625,0.7996633544921875,26.38167938931298,-17.786259541984734,-32.045801526717554,0.0
12.240000486373901,-9.241618408203124,0.9983820922851562,1.9584569580078124,11.587786259541986,41.00763358778626,-21.84732824427481,-6.962338427734375,-1.0319009155273438,1.637633935546875,32.97709923664122,-15.83206106870229,-31.31297709923664,0.0
12.250000715255737,-9.009380847167968,1.20667763671875,1.8818425048828125,14.732824427480915,42.732824427480914,-22.045801526717558,-8.250418920898436,-1.1875240234375,1.6136919189453125,39.43511450381679,-12.381679389312977,-30.366412213740457,0.0
12.260000705718994,-9.351751684570312,1.944091748046875,1.8650830932617186,14.305343511450381,44.274809160305345,-23.14503816793893,-7.338228088378906,-0.8834604125976562,1.0654197387695312,41.465648854961835,-13.114503816793894,-30.229007633587788,0.0
12.27000093460083,-8.705317236328124,2.147598889160156,1.6807295654296874,9.068702290076336,43.31297709923664,-23.0381679389313,-6.241683728027343,-0.41898529052734373,1.43652099609375,41.221374045801525,-9.267175572519085,-29.6793893129771,0.0
12.280000686645508,-8.882488159179687,2.3918074584960936,1.7836802368164062,5.435114503816794,43.80152671755725,-23.862595419847327,-6.907271789550781,-0.43574470214843747,1.6903063720703124,40.51908396946565,-5.7251908396946565,-27.587786259541986,0.0
12.290000915527344,-8.808267907714843,2.5546131713867184,2.166752502441406,2.045801526717557,44.01526717557252,-24.27480916030534,-6.629544396972656,0.8092401611328125,1.1180921752929687,31.83206106870229,-1.2061068702290076,-27.00763358778626,0.0
12.300000667572021,-9.648632690429688,2.5665841796874997,2.731784094238281,-4.580152671755725,41.74045801526717,-24.793893129770993,-7.321468676757812,-0.06703764648437499,1.5227122558593749,23.129770992366414,6.625954198473282,-22.549618320610687,0.0
12.310000896453857,-9.382876306152344,1.6160861206054686,3.478775012207031,-11.419847328244275,39.37404580152672,-25.52671755725191,-6.581660363769531,1.0821791503906248,1.3575123413085937,17.603053435114504,8.870229007633588,-21.206106870229007,0.0
12.320000648498535,-10.091559997558592,1.1923124267578125,4.434061474609375,-10.580152671755725,34.93129770992366,-27.633587786259543,-7.819462622070312,-0.814028564453125,3.6343981201171873,11.511450381679388,11.038167938931299,-20.0,0.0
12.330000400543213,-10.398017810058594,0.51714755859375,5.851428857421874,-7.190839694656488,28.427480916030536,-29.389312977099237,-8.164227661132813,-1.4915876342773438,4.129997863769531,12.0,8.091603053435115,-20.732824427480917,0.0
12.340000867843628,-11.743559143066406,1.889025109863281,7.3669585083007805,-1.1145038167938932,19.66412213740458,-29.801526717557252,-8.724470849609375,-1.8555062866210936,3.8953661010742184,14.473282442748092,5.129770992366412,-18.519083969465647,0.0
12.350000619888306,-13.24711778564453,3.689464758300781,8.94473740234375,-0.9770992366412213,7.251908396946565,-27.328244274809162,-9.246406811523437,-1.3575123413085937,2.442085693359375,17.786259541984734,2.1526717557251906,-18.137404580152673,0.0
12.360000610351562,-12.947842578125,4.053383410644531,9.962273107910155,0.6412213740458015,-13.648854961832061,-16.885496183206108,-9.91438907470703,-0.15562310791015624,-0.27293898925781246,14.732824427480915,6.870229007633588,-16.244274809160306,0.0
12.370000839233398,-13.455413330078125,3.967192150878906,10.275913525390624,-4.67175572519084,-35.38931297709924,-7.908396946564886,-10.587159741210938,0.20350714111328125,-0.6248866333007812,15.572519083969466,15.206106870229007,-14.198473282442748,0.0
12.380000591278076,-11.449072338867186,-0.19871873779296872,9.572018237304688,13.297709923664122,-53.3587786259542,0.9312977099236641,-10.220846887207031,0.8643067993164062,-0.9145850341796874,14.946564885496183,18.900763358778626,-11.511450381679388,0.0
12.390000581741333,-10.54645831298828,-0.7733271362304687,9.22485899658203,41.49618320610687,-62.62595419847328,1.1450381679389312,-9.306261853027344,0.8068459594726562,-0.05027823486328125,6.900763358778626,27.480916030534353,-13.206106870229007,0.0
12.400001049041748,-12.435483422851561,1.9895815795898437,9.481038574218749,23.893129770992367,-84.13740458015268,-10.80916030534351,-9.409212524414063,-0.4333505004882812,1.5825672973632812,6.549618320610687,32.656488549618324,-12.595419847328245,0.0
12.410000562667847,-11.9135474609375,1.5753846923828123,8.659827404785156,-1.3740458015267176,-112.82442748091603,-17.14503816793893,-6.222530114746093,3.7804444213867185,2.480392919921875,-5.358778625954199,39.038167938931295,-15.34351145038168,0.0
12.420000791549683,-12.083535778808592,0.42377369384765623,7.678204724121093,-8.106870229007633,-135.31297709923663,-18.35114503816794,-8.307879760742187,2.142810485839844,1.0726023437499999,-19.954198473282442,43.587786259541986,-6.534351145038168,0.0
12.43000054359436,-12.670115185546875,-0.7302315063476562,7.395688928222656,-8.854961832061068,-155.25190839694656,-20.091603053435115,-8.973467822265624,1.0007762939453124,0.46208092041015625,-18.68702290076336,45.48091603053435,-2.198473282442748,0.0
12.440001010894775,-14.389151977539061,-1.9105729248046874,6.593631372070312,11.34351145038168,-169.70992366412213,-18.763358778625953,-9.198522778320312,-0.28490999755859375,-0.17238251953125,-15.48091603053435,42.50381679389313,-3.145038167938931,0.0
12.450000762939453,-16.141707592773436,-3.076549133300781,6.3901242309570305,45.3587786259542,-179.29770992366412,-12.061068702290076,-10.721235034179687,-1.1563994018554686,-0.06464344482421874,-25.87786259541985,50.458015267175576,-4.534351145038168,0.0
12.460000276565552,-16.165649609375,-1.37906015625,5.987898352050781,84.54961832061069,-184.61068702290078,-0.2748091603053435,-14.753070629882812,-4.527435339355469,1.1540052001953125,-15.32824427480916,49.603053435114504,-1.83206106870229,0.0
12.470000505447388,-16.589423303222656,-2.0446482177734375,3.27526787109375,92.51908396946565,-188.793893129771,2.351145038167939,-11.508927380371093,-2.916137622070312,-0.11013327636718749,3.404580152671756,37.25190839694657,-5.374045801526718,0.0
12.480000495910645,-16.634913134765625,-1.446097802734375,2.04943662109375,84.25954198473282,-191.1908396946565,-3.267175572519084,-10.333374365234375,-0.9600748657226562,-1.1947066284179686,3.786259541984733,36.778625954198475,-3.954198473282443,0.0
12.49000072479248,-15.957354064941406,-1.0127473022460938,-0.44532150878906246,59.52671755725191,-193.45038167938932,-10.702290076335878,-9.765948571777344,-0.1292868896484375,-1.6711527587890624,-1.0076335877862594,38.87022900763359,-0.061068702290076333,0.0
12.500000476837158,-12.981361401367186,-2.5905261962890624,-1.5969325073242187,48.82442748091603,-193.1145038167939,-15.083969465648854,-5.154716174316406,3.299209887695312,-2.2074539306640624,-17.34351145038168,35.80152671755725,-2.198473282442748,0.0
12.510001182556152,-10.922347973632812,-1.7190367919921874,-2.3319524169921872,46.58015267175573,-181.34351145038167,-19.251908396946565,-8.01818135986328,2.379836450195312,-1.879448303222656,-56.12213740458015,57.66412213740458,2.1068702290076335,0.0
12.520000457763672,-9.222464794921875,-0.8858546142578124,-2.6001030029296874,29.0381679389313,-168.94656488549617,-24.229007633587788,-9.821015209960937,-2.157175695800781,-0.4740519287109375,-61.083969465648856,64.70229007633588,7.32824427480916,0.0
12.530000448226929,-10.1131078125,-1.2808978881835937,-1.2689268798828124,26.900763358778626,-156.54961832061068,-24.3206106870229,-9.801861596679688,-4.338293408203125,-0.5434837768554687,-39.267175572519086,55.221374045801525,7.603053435114504,0.0
12.540000677108765,-9.528922607421874,-1.4939818359375,-0.5913678100585937,42.13740458015267,-138.12213740458014,-18.03053435114504,-10.072406384277343,-4.113238452148437,-1.5705962890624998,-28.885496183206108,55.343511450381676,7.1603053435114505,0.0
12.5500009059906,-9.421183532714844,-0.7278373046875,-0.6584054565429687,59.083969465648856,-119.6030534351145,-10.916030534351146,-10.979808813476561,-6.330269189453125,-0.9720458740234375,-14.15267175572519,54.51908396946565,9.938931297709924,0.0
12.560000658035278,-9.861716638183593,0.9074024291992187,-0.21068974609375,60.87022900763359,-107.06870229007633,-9.251908396946565,-10.929530578613281,-5.549759448242187,-1.6328455322265625,12.290076335877863,44.48854961832061,10.961832061068701,0.0
12.570000648498535,-9.425971936035156,1.2378022583007813,0.7254431030273437,64.61068702290076,-90.73282442748092,-5.343511450381679,-9.442731347656249,-1.9919757812499999,-2.099714855957031,17.770992366412212,43.25190839694657,10.854961832061068,0.0
12.580000638961792,-10.172962854003906,5.154716174316406,2.281674182128906,44.229007633587784,-82.1526717557252,-5.786259541984733,-9.411606726074218,-2.583343591308594,-1.197100830078125,11.877862595419847,48.0,13.86259541984733,0.0
12.59000039100647,-9.169792358398437,5.516240625,2.2361843505859373,17.572519083969464,-82.56488549618321,-1.3893129770992367,-9.239224206542968,-2.849099975585937,-0.5817910034179687,22.641221374045802,47.099236641221374,16.625954198473284,0.0
12.600000619888306,-7.4699091796875,4.747701892089843,1.6615759521484375,6.595419847328245,-77.3587786259542,6.564885496183206,-9.337386474609374,-2.5234885498046875,-0.18914193115234373,29.00763358778626,47.16030534351145,18.213740458015266,0.0
12.610000848770142,-7.802703210449218,4.642357019042969,1.8100164550781248,-15.877862595419847,-71.43511450381679,10.0,-9.5001921875,-0.9169792358398436,-1.1156979736328125,31.0381679389313,46.19847328244275,17.435114503816795,0.0
12.62000036239624,-5.449202978515625,1.209071838378906,1.2641384765625,-28.65648854961832,-70.27480916030534,14.946564885496183,-9.1554271484375,-0.3327940307617187,-0.9888052856445312,18.259541984732824,50.58015267175573,18.33587786259542,0.0
12.630000591278076,-4.929661218261718,-1.7860744384765623,1.0342951171875,-22.427480916030536,-58.717557251908396,19.541984732824428,-9.430760339355468,-1.5682020874023437,-0.5889736083984375,17.49618320610687,48.35114503816794,19.770992366412212,0.0
12.640000343322754,-4.060566015625,-2.4253262817382812,1.1420341918945311,-18.458015267175572,-49.603053435114504,15.435114503816793,-9.557653027343749,-0.9552864624023437,0.03591302490234375,19.938931297709924,46.97709923664122,20.442748091603054,0.0
12.65000057220459,-4.8698061767578125,-1.7860744384765623,1.7812860351562498,-20.53435114503817,-43.06870229007634,8.916030534351146,-10.709264025878905,-0.9792284790039062,0.13168109130859373,19.49618320610687,46.900763358778626,21.954198473282442,0.0
12.660000801086426,-3.9839515624999997,-2.5546131713867184,1.8626888916015625,-17.114503816793892,-36.68702290076336,6.763358778625954,-10.386046801757812,-0.8164227661132812,-0.584185205078125,17.114503816793892,45.06870229007634,23.541984732824428,0.0
12.670000553131104,-4.525041137695312,-2.0350714111328125,2.4660277099609376,-4.977099236641221,-26.412213740458014,4.213740458015267,-9.038111267089842,-1.209071838378906,-0.6105214233398437,17.282442748091604,41.267175572519086,25.786259541984734,0.0
12.68000054359436,-2.9041666137695312,-2.0446482177734375,2.6575638427734374,10.229007633587786,-16.27480916030534,3.7251908396946565,-9.270348828125,-1.0271125122070313,-1.1228805786132812,20.564885496183205,39.05343511450382,27.14503816793893,0.0
12.690000534057617,-2.916137622070312,-1.20667763671875,2.693476867675781,16.0,-11.16030534351145,4.396946564885496,-10.134655627441406,-3.430890979003906,0.4477157104492187,25.17557251908397,42.51908396946565,30.290076335877863,0.0
12.700000762939453,-4.4819455078125,1.8531120849609375,3.861847277832031,26.702290076335878,1.9541984732824427,6.137404580152672,-9.564835632324218,-3.373430139160156,0.21787235107421873,43.61832061068702,33.099236641221374,29.419847328244273,0.0
12.71000051498413,-5.659892724609374,3.9264907226562498,4.726154077148437,16.671755725190838,2.1068702290076335,7.740458015267175,-9.282319836425781,-2.5426421630859375,-0.4572925170898437,45.80152671755725,29.00763358778626,27.69465648854962,0.0
12.720000505447388,-6.124367846679687,5.248090039062499,6.021417175292968,17.419847328244273,5.648854961832061,20.061068702290076,-11.305420239257812,-3.327940307617187,0.2442085693359375,47.23664122137404,33.603053435114504,30.27480916030534,0.0
12.730000257492065,-5.894524487304687,5.164292980957031,6.76122548828125,12.15267175572519,5.221374045801527,30.106870229007633,-8.267178332519531,-0.9528922607421875,0.6344634399414062,44.900763358778626,27.786259541984734,27.0381679389313,0.0
12.74000072479248,-5.61200869140625,4.601655590820312,7.036558679199218,6.0458015267175576,4.732824427480916,39.786259541984734,-9.107543115234375,-0.7852981445312499,0.45968671875,39.9236641221374,26.091603053435115,27.450381679389313,0.0
12.750000476837158,-4.860229370117187,3.438073583984375,6.718129858398437,-3.7709923664122136,5.648854961832061,44.396946564885496,-11.365275280761718,-1.419761584472656,0.86191259765625,40.70229007633588,28.748091603053435,28.091603053435115,0.0
12.760000944137573,-5.506663818359375,2.5474305664062498,7.539341027832031,-10.992366412213741,6.412213740458015,44.3206106870229,-11.75313594970703,-1.7094599853515624,1.0366893188476562,36.82442748091603,28.564885496183205,26.061068702290076,0.0
12.77000117301941,-6.303932971191406,2.176329309082031,8.966285217285156,-10.641221374045802,6.122137404580153,45.86259541984733,-10.817003100585938,-0.7613561279296874,0.30406361083984373,30.244274809160306,24.458015267175572,23.480916030534353,0.0
12.780000925064087,-6.543353137207031,1.707065783691406,9.33978067626953,-14.83969465648855,3.4198473282442747,45.099236641221374,-12.028469140624999,-1.5873557006835937,0.39743747558593745,28.65648854961832,22.366412213740457,23.72519083969466,0.0
12.790001153945923,-6.078878015136718,1.254561669921875,7.153874560546875,-21.389312977099237,3.801526717557252,43.87786259541985,-10.54645831298828,-0.181959326171875,-0.17238251953125,20.48854961832061,19.51145038167939,21.938931297709924,0.0
12.800000667572021,-5.870582470703124,1.369483349609375,5.070919116210937,-30.229007633587788,7.801526717557252,41.221374045801525,-10.20169327392578,0.03591302490234375,-0.6392518432617187,12.458015267175572,17.587786259541986,21.72519083969466,0.0
12.810000896453857,-5.228936425781249,0.19871873779296872,2.683900061035156,-31.450381679389313,16.412213740458014,40.12213740458015,-11.334150659179686,-1.1420341918945311,-0.20829554443359374,6.6106870229007635,20.412213740458014,22.916030534351144,0.0
12.820000648498535,-5.8610056640625,1.89620771484375,1.7717092285156248,-42.35114503816794,24.732824427480917,37.00763358778626,-10.678139404296875,-0.47884033203125,-0.5315127685546874,-4.687022900763359,18.35114503816794,21.251908396946565,0.0
12.830177783966064,-7.498639599609374,1.7310078002929687,2.2385785522460937,-52.87022900763359,33.12977099236641,40.274809160305345,-10.618284362792968,-0.4644751220703125,-0.7398083129882812,-19.31297709923664,16.85496183206107,19.755725190839694,0.0
12.840000867843628,-8.585607153320312,2.588131994628906,5.185840795898438,-36.25954198473283,44.82442748091603,48.85496183206107,-10.704475622558594,-0.603338818359375,-0.9050082275390624,-29.96946564885496,14.625954198473282,19.221374045801525,0.0
12.850000619888306,-9.5001921875,0.699106884765625,7.436390356445312,-19.64885496183206,49.7557251908397,56.99236641221374,-10.759542260742187,-0.8690952026367187,-0.45010991210937495,-35.786259541984734,13.282442748091603,20.18320610687023,0.0
12.860000371932983,-3.5984850952148437,-8.40125362548828,5.846640454101562,11.908396946564885,55.083969465648856,66.70229007633588,-9.981426721191406,-0.5386953735351562,-0.6727706665039062,-45.29770992366412,12.580152671755725,20.47328244274809,0.0
12.87000060081482,-6.2392895263671875,-4.340687609863281,4.752490295410156,27.267175572519083,76.06106870229007,53.083969465648856,-10.582371337890624,-2.1643583007812497,-0.033518823242187495,-47.404580152671755,13.801526717557252,21.358778625954198,0.0
12.880000591278076,-7.252036828613281,-0.45489831542968745,3.897760302734375,14.82442748091603,70.56488549618321,37.70992366412214,-10.589553942871094,-2.731784094238281,-0.09576806640624999,-37.3587786259542,8.549618320610687,19.83206106870229,0.0
12.890000581741333,-8.06367119140625,0.18435352783203124,2.6479870361328124,37.847328244274806,78.09160305343511,36.56488549618321,-10.635043774414061,-2.0159177978515626,-0.842758984375,-31.923664122137403,2.3206106870229006,17.17557251908397,0.0
12.90000057220459,-7.481880187988281,-0.5506663818359374,2.5546131713867184,36.213740458015266,80.09160305343511,30.977099236641223,-9.93354268798828,-0.6679822631835937,-0.6440402465820312,-40.61068702290076,3.2977099236641223,14.961832061068701,0.0
12.910000801086426,-9.433154541015625,2.4947581298828125,2.8658593872070313,33.9236641221374,85.89312977099236,27.00763358778626,-10.771513269042968,-0.1149216796875,-1.01514150390625,-42.54961832061068,3.6793893129770994,15.34351145038168,0.0
12.920000791549683,-12.090718383789062,5.9950809570312495,3.8139632446289062,16.03053435114504,83.2824427480916,22.885496183206108,-10.723629235839843,1.24498486328125,-2.0973206542968748,-47.55725190839695,-0.7938931297709924,13.954198473282442,0.0
12.93000054359436,-8.623914379882812,1.848323681640625,2.152387292480469,3.7709923664122136,75.69465648854961,30.076335877862597,-10.807426293945312,1.2210428466796874,-1.0007762939453124,-53.786259541984734,-0.8702290076335878,14.549618320610687,0.0
12.940000534057617,-9.217676391601563,-0.12210428466796874,2.6958710693359373,20.061068702290076,83.92366412213741,31.64885496183206,-12.603077539062499,0.5315127685546874,-1.0175357055664063,-60.56488549618321,-0.4122137404580153,13.374045801526718,0.0
12.950000524520874,-10.893617553710937,3.5146880371093747,4.201823913574218,14.595419847328245,82.62595419847328,23.740458015267176,-13.120225097656249,-0.2059013427734375,-0.9600748657226562,-60.0,-2.519083969465649,8.977099236641221,0.0
12.96000051498413,-7.445967163085937,0.8044517578125,3.066972326660156,8.442748091603054,74.09160305343511,24.412213740458014,-11.77947216796875,1.0941501586914062,-0.7876923461914062,-61.61832061068702,-7.923664122137405,5.770992366412214,0.0
12.970000505447388,-8.698134631347656,-0.469263525390625,3.009511486816406,21.938931297709924,79.66412213740458,23.419847328244273,-12.306196533203124,1.2425906616210938,-1.5562310791015623,-53.16030534351145,-16.38167938931298,5.7251908396946565,0.0
12.980000495910645,-10.220846887207031,2.2074539306640624,3.8762124877929685,17.709923664122137,78.0,13.816793893129772,-12.459425439453124,1.5514426757812498,-0.7781155395507812,-53.38931297709924,-14.763358778625955,7.450381679389313,0.0
12.99000072479248,-8.999804040527343,2.583343591308594,3.1579519897460937,-1.3893129770992367,67.00763358778626,9.038167938931299,-12.026074938964843,2.090138049316406,-0.814028564453125,-51.221374045801525,-18.015267175572518,6.595419847328245,0.0
13.000000238418579,-8.621520178222656,0.17956512451171874,2.0278888061523435,3.83206106870229,66.9618320610687,8.778625954198473,-11.2240173828125,2.808398547363281,-1.3000515014648437,-57.00763358778626,-20.885496183206108,6.793893129770993,0.0
13.010000705718994,-8.777143286132812,2.269703173828125,2.5665841796874997,7.908396946564886,69.86259541984732,3.6946564885496183,-10.807426293945312,2.7054478759765623,-1.1635820068359375,-63.7557251908397,-18.870229007633586,6.824427480916031,0.0
13.020000696182251,-7.728482958984374,1.3192051147460937,1.8842367065429686,6.9465648854961835,67.48091603053435,2.2442748091603053,-10.441113439941406,1.8411410766601561,-0.9744400756835937,-67.14503816793894,-17.267175572519083,8.213740458015268,0.0
13.030000925064087,-8.568847741699217,2.530671154785156,1.7501614135742187,12.885496183206106,71.12977099236642,3.3893129770992365,-10.067617980957031,0.3758896606445312,-0.4740519287109375,-65.92366412213741,-17.404580152671755,9.145038167938932,0.0
13.040000677108765,-10.043675964355469,4.024652990722656,2.0302830078125,7.358778625954199,72.22900763358778,0.6106870229007634,-9.490615380859374,-0.35194764404296874,-0.3280056274414062,-55.11450381679389,-23.64885496183206,5.847328244274809,0.0
13.0500009059906,-9.842563024902343,5.865794067382812,1.7022773803710936,0.4732824427480916,71.45038167938931,0.2748091603053435,-10.072406384277343,-0.076614453125,-0.8044517578125,-50.82442748091603,-25.740458015267176,4.549618320610687,0.0
13.0600004196167,-10.101136804199218,6.433219860839843,1.8004396484374998,-17.17557251908397,67.90839694656489,0.04580152671755725,-10.850521923828124,-2.961627453613281,0.6847416748046875,-40.229007633587784,-27.297709923664122,6.183206106870229,0.0
13.070000886917114,-10.931924780273437,4.979939453125,1.24498486328125,-31.251908396946565,64.36641221374046,-0.2748091603053435,-10.13226142578125,-0.7733271362304687,-0.0047884033203125,-25.603053435114504,-38.48854961832061,1.6793893129770991,0.0
13.080000400543213,-9.382876306152344,5.698199951171874,1.7669208251953124,-39.099236641221374,64.36641221374046,0.5190839694656488,-9.7683427734375,1.7429788085937499,-1.1635820068359375,-31.480916030534353,-38.33587786259542,-0.5343511450381679,0.0
13.09000039100647,-9.53131680908203,5.2816088623046875,1.917755529785156,-53.404580152671755,60.961832061068705,-0.12213740458015267,-9.572018237304688,0.46686932373046874,-1.2210428466796874,-39.19083969465649,-35.038167938931295,-0.8702290076335878,0.0
13.100000858306885,-10.172962854003906,6.186617089843749,2.588131994628906,-62.29007633587786,58.54961832061068,-1.0381679389312977,-10.026916552734374,-0.40222587890625,-0.1197100830078125,-30.427480916030536,-35.786259541984734,-0.48854961832061067,0.0
13.110000610351562,-8.123526232910155,2.1619640991210938,1.838746875,-73.2824427480916,51.38931297709924,1.2213740458015268,-9.696516723632811,0.3184288208007812,-0.612915625,-22.748091603053435,-41.61832061068702,-3.114503816793893,0.0
13.12000060081482,-8.750807067871094,0.23223756103515625,2.1978771240234374,-65.63358778625954,51.41984732824427,1.6030534351145038,-10.232817895507813,1.1923124267578125,-1.1827356201171875,-24.076335877862597,-42.2442748091603,-4.778625954198473,0.0
13.130000352859497,-7.115567333984375,-2.1787235107421874,1.5466542724609373,-56.458015267175576,48.2442748091603,3.0076335877862594,-9.610325463867188,1.1037269653320312,-0.13168109130859373,-30.3206106870229,-39.41984732824427,-6.0458015267175576,0.0
13.140000581741333,-10.187328063964843,1.2904746948242187,3.3877953491210935,-40.213740458015266,56.19847328244275,-1.5877862595419847,-10.587159741210938,-0.5817910034179687,0.143652099609375,-25.66412213740458,-36.62595419847328,-4.641221374045801,0.0
13.15000057220459,-8.473079675292968,1.4125789794921875,2.7054478759765623,-38.47328244274809,48.274809160305345,-3.3740458015267176,-9.485826977539062,0.3902548706054687,0.105344873046875,-14.83969465648855,-44.229007633587784,-6.961832061068702,0.0
13.160000801086426,-11.930306872558592,3.7229835815429686,3.277662072753906,-34.412213740458014,51.770992366412216,-6.198473282442748,-8.336610180664062,1.8291700683593748,-0.7948749511718749,-16.03053435114504,-44.778625954198475,-6.977099236641221,0.0
13.170000314712524,-11.089942089843749,4.917690209960937,3.399766357421875,-44.74809160305343,43.29770992366412,-7.068702290076335,-8.686163623046875,1.448492004394531,-0.7541735229492187,-18.076335877862597,-39.282442748091604,-4.534351145038168,0.0
13.18000078201294,-11.288660827636718,4.46279189453125,2.8945898071289062,-57.43511450381679,33.3587786259542,-6.961832061068702,-8.497021691894531,0.9217676391601562,-1.1156979736328125,-14.16793893129771,-40.85496183206107,-3.6030534351145036,0.0
13.190000534057617,-9.404424121093749,2.8993782104492185,1.7238251953125,-50.717557251908396,31.954198473282442,-1.8473282442748091,-8.334215979003906,1.0366893188476562,-0.814028564453125,-10.045801526717558,-39.00763358778626,-3.6030534351145036,0.0
13.200000762939453,-9.150638745117186,2.70065947265625,1.5179238525390624,-47.86259541984733,31.31297709923664,-0.3053435114503817,-8.116343627929687,1.3359645263671873,-1.2497732666015624,-13.099236641221374,-34.091603053435115,-2.6106870229007635,0.0
13.21000051498413,-9.198522778320312,2.8754361938476563,1.7932570434570312,-44.88549618320611,31.389312977099237,1.9541984732824427,-8.834604125976561,-0.1484405029296875,-1.9991583862304687,-9.770992366412214,-28.732824427480917,0.183206106870229,0.0
13.220000267028809,-11.75313594970703,4.965574243164062,2.7150246826171873,-55.541984732824424,27.938931297709924,0.183206106870229,-8.717288244628906,0.48123453369140623,-1.7429788085937499,1.9541984732824427,-26.229007633587788,1.0687022900763359,0.0
13.230000495910645,-9.035717065429687,1.7860744384765623,1.5011644409179687,-49.86259541984733,25.801526717557252,5.541984732824427,-8.508992700195313,0.39983167724609375,-1.7549498168945312,5.862595419847328,-23.282442748091604,-2.0763358778625953,0.0
13.240000247955322,-9.330203869628905,1.886630908203125,1.8698714965820311,-43.45038167938932,26.916030534351144,6.458015267175573,-8.494627490234375,0.22266075439453123,-0.8786720092773437,5.801526717557252,-19.984732824427482,-4.564885496183206,0.0
13.250000476837158,-9.64623848876953,1.9105729248046874,2.346317626953125,-37.81679389312977,26.47328244274809,5.740458015267175,-9.358934289550781,0.6703764648437499,-1.5514426757812498,2.6564885496183206,-14.625954198473282,-5.068702290076335,0.0
13.260152578353882,-10.409988818359375,3.1794998046874996,3.086125939941406,-39.14503816793893,24.946564885496183,3.404580152671756,-9.41639512939453,0.5817910034179687,-0.229843359375,-6.961832061068702,-7.374045801526718,-2.6717557251908395,0.0
13.270000457763672,-10.405200415039062,2.6479870361328124,3.1220389648437497,-48.33587786259542,17.00763358778626,1.618320610687023,-9.878476049804688,0.3016694091796875,0.14125789794921875,-5.694656488549619,-7.847328244274809,-2.7480916030534353,0.0
13.280000925064087,-9.09796630859375,-0.00718260498046875,2.6958710693359373,-31.61832061068702,18.229007633587788,2.732824427480916,-9.394847314453125,0.25139117431640623,0.5626373901367188,-6.687022900763359,-7.8320610687022905,-5.511450381679389,0.0
13.290000915527344,-8.616731774902343,-0.45968671875,2.8514941772460936,-17.206106870229007,19.267175572519083,-0.1984732824427481,-10.86009873046875,-1.7621324218749999,1.7238251953125,0.7938931297709924,-6.6106870229007635,-7.343511450381679,0.0
13.300000429153442,-9.868899243164062,1.9512743530273435,3.220201232910156,-9.389312977099237,18.458015267175572,-4.5038167938931295,-10.158597644042969,-1.0462661254882812,2.2768857788085937,3.954198473282443,-9.816793893129772,-11.969465648854962,0.0
13.310000658035278,-9.150638745117186,1.8698714965820311,2.090138049316406,-13.435114503816793,10.335877862595419,-3.7709923664122136,-11.568782421875,-1.235408056640625,2.389413256835937,10.13740458015267,-12.366412213740459,-13.511450381679388,0.0
13.320000410079956,-9.564835632324218,2.109291662597656,1.8052280517578123,-8.106870229007633,10.16793893129771,-2.7786259541984735,-10.967837805175781,-0.5793968017578125,2.1835119140624997,17.19083969465649,-20.65648854961832,-16.33587786259542,0.0
13.330000638961792,-8.70771143798828,1.13006318359375,1.1156979736328125,8.732824427480915,15.603053435114504,-2.2595419847328246,-10.350133776855468,-0.02154781494140625,1.9656395629882812,20.0,-27.19083969465649,-18.595419847328245,0.0
13.340000629425049,-9.74200655517578,3.5817256835937497,1.3431471313476562,11.206106870229007,19.419847328244273,-5.3893129770992365,-9.677363110351562,0.45489831542968745,2.252943762207031,20.18320610687023,-29.61832061068702,-19.69465648854962,0.0
13.350000619888306,-9.679757312011718,3.9911341674804683,1.0079588989257813,3.1908396946564888,19.19083969465649,-4.076335877862595,-9.789890588378906,1.6352397338867186,2.0302830078125,12.610687022900763,-29.51145038167939,-19.49618320610687,0.0
13.360000848770142,-9.337386474609374,4.000710974121094,1.0079588989257813,-6.0,19.450381679389313,-2.5343511450381677,-9.945513696289062,0.6655880615234374,1.9823989746093749,4.687022900763359,-28.641221374045802,-18.564885496183205,0.0
13.37000060081482,-9.241618408203124,3.047818713378906,1.16837041015625,-13.419847328244275,19.862595419847327,-2.427480916030534,-10.563217724609375,-0.1149216796875,2.748543505859375,4.854961832061068,-29.480916030534353,-17.221374045801525,0.0
13.380000352859497,-8.329427575683594,0.7805097412109374,1.2832920898437499,-8.091603053435115,22.290076335877863,-2.0763358778625953,-10.366893188476562,0.9265560424804687,2.3056161987304686,5.00763358778626,-31.328244274809162,-18.229007633587788,0.0
13.390000581741333,-10.089165795898436,2.2960393920898436,2.5474305664062498,-9.48091603053435,25.022900763358777,-5.969465648854962,-10.78348427734375,0.852335791015625,1.9776105712890624,-2.7938931297709924,-29.099236641221374,-18.885496183206108,0.0
13.40000057220459,-10.067617980957031,2.243366955566406,2.1906945190429687,-15.86259541984733,19.81679389312977,-6.580152671755725,-10.75714805908203,1.1707646118164061,2.1811177124023438,-13.587786259541986,-26.38167938931298,-18.702290076335878,0.0
13.410000562667847,-9.428366137695312,1.0510545288085937,1.8555062866210936,-13.603053435114504,17.572519083969464,-6.1679389312977095,-10.876858142089842,1.0295067138671874,1.2306196533203124,-18.763358778625953,-28.793893129770993,-17.755725190839694,0.0
13.420000791549683,-8.86094034423828,-0.3902548706054687,1.7908628417968748,5.129770992366412,23.17557251908397,-7.480916030534351,-10.287884533691406,-0.4525041137695312,2.1811177124023438,-14.946564885496183,-28.50381679389313,-16.717557251908396,0.0
13.43000054359436,-9.428366137695312,-0.028730419921875,1.2401964599609374,19.64885496183206,26.366412213740457,-10.427480916030534,-9.74200655517578,-0.47165772705078124,1.944091748046875,-7.7251908396946565,-33.25190839694657,-18.38167938931298,0.0
13.440000534057617,-9.641450085449218,0.6560112548828124,1.3455413330078123,29.19083969465649,28.458015267175572,-13.068702290076336,-9.540893615722656,-1.2641384765625,1.5777788940429687,-4.091603053435114,-32.732824427480914,-19.49618320610687,0.0
13.450000524520874,-9.258377819824219,1.2713210815429687,1.2210428466796874,34.50381679389313,30.091603053435115,-14.13740458015267,-9.251195214843749,-1.5897499023437498,1.3215993164062498,-1.2671755725190839,-34.229007633587784,-21.81679389312977,0.0
13.46000051498413,-9.3086560546875,3.1268273681640624,1.1923124267578125,32.50381679389313,30.595419847328245,-15.893129770992367,-7.254431030273437,0.34237083740234375,0.8116343627929687,-7.923664122137405,-34.396946564885496,-26.564885496183205,0.0
13.470000267028809,-9.375693701171874,3.414131567382812,0.8595183959960937,24.290076335877863,28.0,-16.03053435114504,-8.573636145019531,-0.19393033447265623,0.928950244140625,-15.923664122137405,-26.091603053435115,-26.885496183206108,0.0
13.480000257492065,-9.6151138671875,3.303998291015625,0.9241618408203125,20.30534351145038,30.33587786259542,-15.770992366412214,-9.627084875488281,-1.3192051147460937,1.5203180541992187,-15.206106870229007,-20.610687022900763,-25.541984732824428,0.0
13.490000486373901,-10.05564697265625,3.0406361083984375,0.9313444458007812,13.679389312977099,30.38167938931298,-16.641221374045802,-9.967061511230469,-1.3623007446289062,1.47482822265625,-5.206106870229007,-21.893129770992367,-26.12213740458015,0.0
13.500000476837158,-10.110713610839843,2.6623522460937497,0.8762778076171874,13.206106870229007,31.46564885496183,-16.564885496183205,-8.80347950439453,-0.5889736083984375,1.5538368774414062,-5.740458015267175,-19.66412213740458,-26.47328244274809,0.0
13.510000705718994,-9.540893615722656,1.3862427612304686,0.9337386474609375,14.305343511450381,33.81679389312977,-16.83969465648855,-9.49300958251953,-1.4053963745117186,1.944091748046875,-1.9389312977099236,-18.778625954198475,-24.015267175572518,0.0
13.520000696182251,-9.349357482910156,0.833182177734375,0.93852705078125,17.389312977099237,35.57251908396947,-18.625954198473284,-7.805097412109374,0.1149216796875,0.612915625,7.893129770992366,-25.404580152671755,-25.954198473282442,0.0
13.530000925064087,-9.595960253906249,0.2561795776367187,0.9361328491210937,22.33587786259542,37.32824427480916,-21.49618320610687,-9.124302526855468,-2.2744915771484373,1.7214309936523438,20.061068702290076,-25.450381679389313,-24.763358778625953,0.0
13.540000677108765,-9.682151513671874,0.6560112548828124,1.3623007446289062,27.633587786259543,40.396946564885496,-25.64885496183206,-8.863334545898438,-1.5155296508789062,1.8004396484374998,29.862595419847327,-29.221374045801525,-26.137404580152673,0.0
13.5500009059906,-8.949525805664061,0.7158662963867187,1.1827356201171875,28.48854961832061,38.80916030534351,-27.633587786259543,-9.576806640625,-2.269703173828125,2.1739351074218747,44.01526717557252,-32.76335877862596,-26.793893129770993,0.0
13.560000658035278,-9.665392102050781,1.6208745239257811,1.5849614990234373,26.30534351145038,38.961832061068705,-31.19083969465649,-8.32463917236328,-0.22744915771484372,0.9624690673828125,44.79389312977099,-36.06106870229008,-29.557251908396946,0.0
13.570000886917114,-8.90643017578125,2.0877438476562498,1.608903515625,21.129770992366414,36.80916030534351,-32.54961832061068,-8.078036401367187,-0.05985504150390625,1.0007762939453124,36.458015267175576,-31.053435114503817,-30.106870229007633,0.0
13.580000638961792,-8.580818749999999,2.398990063476562,2.001552587890625,15.267175572519085,34.62595419847328,-34.38167938931298,-9.016563452148437,0.35194764404296874,0.9121908325195311,35.23664122137404,-30.198473282442748,-29.251908396946565,0.0
13.590000629425049,-9.418789331054686,2.5761609863281247,2.384624853515625,8.290076335877863,32.61068702290076,-36.900763358778626,-8.856151940917968,-0.04548983154296875,0.8379705810546875,33.98473282442748,-27.0381679389313,-28.366412213740457,0.0
13.600000619888306,-9.095572106933593,1.9943699829101562,2.5043349365234375,8.0,29.770992366412212,-36.35114503816794,-8.406042028808594,-0.229843359375,1.1563994018554686,33.083969465648856,-25.954198473282442,-27.61832061068702,0.0
13.610000848770142,-9.093177905273437,1.9584569580078124,2.6575638427734374,12.442748091603054,28.610687022900763,-35.81679389312977,-8.343792785644531,-0.19153613281249998,1.1635820068359375,32.25954198473283,-22.931297709923665,-26.38167938931298,0.0
13.62000060081482,-9.552864624023437,3.181894006347656,3.114856359863281,12.748091603053435,24.33587786259542,-34.10687022900763,-8.317456567382813,0.5291185668945312,0.8116343627929687,29.541984732824428,-20.35114503816794,-25.81679389312977,0.0
13.630000591278076,-11.077971081542968,3.5003228271484375,3.2154128295898436,12.625954198473282,22.916030534351144,-30.717557251908396,-8.125920434570313,0.05746083984375,1.3766659545898436,21.862595419847327,-13.16030534351145,-24.48854961832061,0.0
13.640000581741333,-10.54645831298828,3.047818713378906,2.7341782958984373,16.16793893129771,18.47328244274809,-24.717557251908396,-7.350199096679687,0.8355763793945312,1.0582371337890624,16.610687022900763,-10.335877862595419,-23.557251908396946,0.0
13.65000033378601,-9.066841687011719,3.42849677734375,2.7461493041992187,21.068702290076335,16.33587786259542,-21.297709923664122,-8.245630517578125,-1.0462661254882812,1.5682020874023437,11.84732824427481,-4.809160305343512,-20.48854961832061,0.0
13.660001039505005,-9.255983618164063,3.277662072753906,2.5617957763671875,12.748091603053435,11.84732824427481,-18.12213740458015,-8.271966735839843,-1.3838485595703125,1.5586252807617187,16.50381679389313,-7.038167938931298,-19.954198473282442,0.0
13.670000553131104,-10.36210478515625,3.69664736328125,2.806004345703125,4.213740458015267,6.0458015267175576,-16.015267175572518,-8.20971749267578,-1.4125789794921875,1.6400281372070311,18.65648854961832,-5.00763358778626,-20.702290076335878,0.0
13.68000054359436,-10.735600244140624,3.9911341674804683,3.5122938354492184,3.572519083969466,6.137404580152672,-14.702290076335878,-8.413224633789062,-2.147598889160156,2.1404162841796874,24.50381679389313,-4.396946564885496,-20.12213740458015,0.0
13.690000534057617,-10.137049829101562,2.3630770385742186,3.3446997192382812,-6.412213740458015,-4.061068702290076,-12.091603053435115,-8.310273962402343,-1.6448165405273436,2.655169641113281,37.52671755725191,-10.610687022900763,-19.938931297709924,0.0
13.700000524520874,-10.845733520507812,1.649604943847656,4.07971962890625,-0.5190839694656488,-8.427480916030534,-9.740458015267176,-9.1554271484375,-0.7062894897460937,3.9695863525390624,39.05343511450382,-15.083969465648854,-22.427480916030536,0.0
13.71000051498413,-10.742782849121093,0.679953271484375,4.520252734375,9.770992366412214,-11.877862595419847,-8.0,-8.801085302734375,-0.18435352783203124,4.924872814941406,35.05343511450382,-21.114503816793892,-21.862595419847327,0.0
13.720000505447388,-10.670956799316405,0.354341845703125,5.413289953613281,22.15267175572519,-17.31297709923664,-7.297709923664122,-8.578424548339843,-0.06464344482421874,4.661510632324219,22.50381679389313,-26.580152671755727,-21.541984732824428,0.0
13.730000495910645,-11.042058056640624,1.13006318359375,6.172251879882812,28.931297709923665,-24.244274809160306,-7.3893129770992365,-7.230489013671875,-0.5482721801757812,1.707065783691406,10.961832061068701,-23.84732824427481,-20.671755725190838,0.0
13.740000486373901,-11.214440576171874,0.82360537109375,6.746860278320312,34.76335877862596,-33.38931297709924,-6.442748091603053,-6.265625744628906,1.1731588134765625,-1.8650830932617186,4.809160305343512,-14.15267175572519,-18.396946564885496,0.0
13.750000476837158,-12.026074938964843,2.6001030029296874,7.6231380859375,33.57251908396947,-44.85496183206107,-7.816793893129771,-6.380547424316406,2.952050646972656,-3.8043864379882812,0.0916030534351145,0.5190839694656488,-11.312977099236642,0.0
13.760000705718994,-12.761094848632812,2.952050646972656,7.79552060546875,18.213740458015266,-63.12977099236641,-9.267175572519085,-8.078036401367187,1.2378022583007813,-3.392583752441406,-6.534351145038168,14.702290076335878,-8.122137404580153,0.0
13.770000457763672,-11.767501159667969,1.5729904907226562,7.426813549804687,15.374045801526718,-82.04580152671755,-8.335877862595419,-8.616731774902343,-0.4740519287109375,-1.8507178833007811,-10.83969465648855,27.66412213740458,-12.687022900763358,0.0
13.780000448226929,-12.119448803710936,1.5155296508789062,7.594407666015624,9.34351145038168,-102.3206106870229,-9.694656488549619,-9.435548742675781,-1.0654197387695312,0.6631938598632812,-10.244274809160306,30.870229007633586,-18.0,0.0
13.790000915527344,-12.382810986328124,1.0366893188476562,7.44357296142578,3.49618320610687,-119.00763358778626,-11.16030534351145,-8.518569506835936,2.7653029174804686,1.2952630981445312,-37.725190839694655,49.725190839694655,-20.732824427480917,0.0
13.800000667572021,-13.01727442626953,1.5059528442382812,8.027758166503906,-2.4580152671755724,-136.5648854961832,-10.061068702290076,-11.336544860839844,-1.5466542724609373,1.3096283081054687,-55.02290076335878,58.38167938931298,-11.938931297709924,0.0
13.810000896453857,-14.796166259765624,1.4030021728515625,9.770736975097655,-5.1603053435114505,-157.05343511450383,-8.900763358778626,-11.575965026855467,-2.059013427734375,0.36391865234375,-34.36641221374046,51.98473282442748,-8.351145038167939,0.0
13.820000648498535,-16.012420703125,0.6392518432617187,8.55448253173828,7.8320610687022905,-173.54198473282443,-4.931297709923665,-12.76827745361328,-1.2473790649414063,0.9552864624023437,-14.885496183206106,48.458015267175576,-6.595419847328245,0.0
13.830000638961792,-18.148048583984373,-1.5298948608398437,7.455543969726562,21.633587786259543,-186.65648854961833,-3.83206106870229,-14.79856046142578,-3.114856359863281,2.133233679199219,2.687022900763359,41.37404580152672,-5.709923664122138,0.0
13.840000629425049,-18.06185732421875,-2.0757728393554684,6.641515405273437,36.3206106870229,-195.70992366412213,-6.015267175572519,-12.646173168945312,-2.0781670410156248,0.8738836059570312,17.404580152671755,27.450381679389313,-9.022900763358779,0.0
13.850000619888306,-16.65646094970703,-1.5825672973632812,7.381323718261719,58.412213740458014,-206.3969465648855,-8.351145038167939,-9.509768994140625,-0.033518823242187495,-0.8499415893554687,11.83206106870229,22.412213740458014,-9.709923664122137,0.0
13.860000610351562,-15.557522387695311,0.12210428466796874,6.0142345703124995,69.14503816793894,-213.89312977099237,-6.152671755725191,-10.251971508789062,-0.45010991210937495,-0.9696516723632812,-4.076335877862595,31.862595419847327,-3.435114503816794,0.0
13.87000060081482,-14.561534497070312,2.310404602050781,1.2689268798828124,45.41984732824427,-219.80152671755727,-6.015267175572519,-10.498574279785156,-2.568978381347656,-0.7302315063476562,3.816793893129771,32.80916030534351,1.633587786259542,0.0
13.880000591278076,-12.732364428710937,1.1468225952148436,-1.5466542724609373,20.99236641221374,-223.12977099236642,-8.198473282442748,-6.9336080078124995,2.4013842651367185,-2.446874096679687,12.366412213740459,25.022900763358777,-3.480916030534351,0.0
13.890000581741333,-11.121066711425781,-0.3687070556640625,-2.664746447753906,13.664122137404581,-212.54961832061068,-8.259541984732824,-5.604826086425781,4.165910888671875,-3.641580725097656,-27.251908396946565,47.14503816793893,-4.870229007633588,0.0
13.90000033378601,-10.1131078125,-0.5578489868164063,-2.528276953125,4.137404580152672,-197.61832061068702,-10.427480916030534,-10.275913525390624,-0.6344634399414062,-1.5251064575195312,-50.6412213740458,67.83206106870229,5.480916030534351,0.0
13.910000562667847,-8.614337573242187,-1.3527239379882812,-3.306392492675781,0.16793893129770993,-179.45038167938932,-12.061068702290076,-10.09395419921875,-2.834734765625,-0.3399766357421875,-39.786259541984734,68.77862595419847,9.679389312977099,0.0
13.920000791549683,-7.752424975585937,-2.8467057739257813,-3.306392492675781,13.19083969465649,-154.50381679389312,-13.83206106870229,-11.152191333007812,-4.074931225585937,-0.4261678955078125,-25.221374045801525,67.49618320610686,11.969465648854962,0.0
13.93000054359436,-8.576030346679687,-3.6559459350585937,-2.5761609863281247,26.763358778625953,-130.87022900763358,-14.458015267175572,-11.051634863281249,-5.439626171875,-0.15562310791015624,-9.48091603053435,62.229007633587784,13.557251908396946,0.0
13.940000772476196,-8.432378247070313,-2.5809493896484375,-1.6136919189453125,49.6793893129771,-105.52671755725191,-13.17557251908397,-10.091559997558592,-4.6447512207031245,-0.4836287353515625,6.534351145038168,50.97709923664122,14.351145038167939,0.0
13.950000524520874,-7.685387329101562,-0.6272808349609375,-0.5506663818359374,63.541984732824424,-85.09923664122137,-12.030534351145038,-9.162609753417968,-1.9895815795898437,-1.01514150390625,14.274809160305344,45.66412213740458,15.709923664122137,0.0
13.960000276565552,-7.999027746582031,1.24498486328125,0.47644613037109373,70.27480916030534,-67.34351145038168,-7.923664122137405,-9.643844287109374,-1.4628572143554686,-0.4261678955078125,7.679389312977099,48.74809160305343,20.625954198473284,0.0
13.970000505447388,-7.398083129882812,2.9975404785156248,1.3192051147460937,58.94656488549618,-58.534351145038165,-3.7251908396946565,-9.97903251953125,-0.4261678955078125,-0.055066638183593745,10.381679389312977,47.19083969465649,23.435114503816795,0.0
13.980000734329224,-6.955155822753905,3.4572271972656248,1.8650830932617186,48.18320610687023,-51.11450381679389,1.0381679389312977,-9.267954626464844,-0.6943184814453125,-0.4836287353515625,3.3893129770992365,50.13740458015267,25.17557251908397,0.0
13.990000486373901,-6.533776330566406,4.127603662109375,2.133233679199219,29.557251908396946,-48.213740458015266,4.0458015267175576,-9.167398156738281,-0.7996633544921875,-0.7015010864257812,-2.045801526717557,51.603053435114504,26.549618320610687,0.0
14.000000715255737,-6.5505357421875,3.8690298828125,1.9536685546875,1.3282442748091603,-47.32824427480916,5.236641221374046,-9.009380847167968,-0.6703764648437499,-0.5363011718749999,-12.01526717557252,55.43511450381679,27.404580152671755,0.0
14.010000705718994,-5.856217260742187,2.360682836914062,0.9888052856445312,-16.641221374045802,-44.030534351145036,7.236641221374046,-10.512939489746094,-2.152387292480469,0.19632453613281248,-12.946564885496183,55.48091603053435,30.213740458015266,0.0
14.020000696182251,-5.755660791015624,3.0454245117187497,0.9792284790039062,-35.80152671755725,-38.229007633587784,6.137404580152672,-9.198522778320312,-2.5474305664062498,0.19632453613281248,-7.603053435114504,53.31297709923664,30.82442748091603,0.0
14.030000925064087,-4.508281726074219,1.005564697265625,0.14604630126953125,-48.74809160305343,-34.0763358778626,6.824427480916031,-10.651803186035156,-3.878606689453125,0.967257470703125,2.183206106870229,52.68702290076336,32.62595419847328,0.0
14.040000677108765,-2.93050283203125,-0.4525041137695312,-0.20829554443359374,-42.93129770992366,-20.229007633587788,11.129770992366412,-10.031704956054687,-3.1100679565429687,-0.22505495605468748,14.290076335877863,45.05343511450382,31.14503816793893,0.0
14.0500009059906,-2.844311572265625,-0.2609679809570312,0.7398083129882812,-36.83969465648855,-4.793893129770993,9.419847328244275,-11.382034692382812,-4.441244079589843,0.9648632690429687,22.610687022900763,48.30534351145038,33.25190839694657,0.0
14.060000658035278,-2.999934680175781,-0.8906430175781249,1.2473790649414063,-28.27480916030534,8.687022900763358,10.381679389312977,-10.472238061523436,-4.781220715332031,1.4437036010742186,43.02290076335878,36.74809160305343,32.70229007633588,0.0
14.070000886917114,-4.970362646484375,2.1643583007812497,3.383006945800781,-39.969465648854964,14.977099236641221,5.00763358778626,-10.369287390136718,-3.323151904296875,0.5339069702148437,51.89312977099237,30.977099236641223,30.458015267175572,0.0
14.080000638961792,-5.049371301269531,1.697488977050781,3.995922570800781,-45.64885496183206,15.465648854961833,8.13740458015267,-9.354145886230468,-2.142810485839844,0.37828386230468747,48.229007633587784,27.572519083969464,28.16793893129771,0.0
14.090000629425049,-4.802768530273437,1.0103531005859374,4.73094248046875,-46.0,19.755725190839694,14.213740458015268,-9.323021264648437,-1.4053963745117186,0.469263525390625,42.229007633587784,25.954198473282442,27.908396946564885,0.0
14.100000619888306,-4.3622354248046875,-0.4285620971679687,4.723759875488281,-38.51908396946565,23.69465648854962,19.31297709923664,-10.268730920410155,-1.2785036865234374,0.9816226806640624,34.06106870229008,29.984732824427482,28.641221374045802,0.0
14.110000610351562,-4.319139794921875,-1.697488977050781,4.570530969238281,-11.755725190839694,36.25954198473283,25.221374045801525,-10.512939489746094,-1.6807295654296874,1.3335703247070312,30.763358778625953,30.595419847328245,29.17557251908397,0.0
14.12000060081482,-3.909731311035156,-1.608903515625,4.6998178588867185,11.038167938931299,45.38931297709924,26.53435114503817,-10.038887561035155,-1.0726023437499999,0.74699091796875,28.977099236641223,26.442748091603054,27.480916030534353,0.0
14.130000591278076,-4.455609289550781,0.14604630126953125,4.723759875488281,28.946564885496183,54.42748091603053,28.198473282442748,-12.53843409423828,-2.710236279296875,1.0989385620117187,28.977099236641223,28.793893129770993,29.419847328244273,0.0
14.140000581741333,-6.227318518066406,1.16837041015625,7.568071447753906,41.06870229007634,59.70992366412214,32.152671755725194,-9.952696301269532,-0.8547299926757812,0.39264907226562495,25.236641221374047,21.938931297709924,25.541984732824428,0.0
14.15000057220459,-9.892841259765625,2.8562825805664063,14.707580798339842,69.78625954198473,58.70229007633588,42.778625954198475,-10.079588989257813,-0.7326257080078125,-0.1149216796875,15.068702290076336,21.068702290076335,24.091603053435115,0.0
14.160000801086426,-10.594342346191405,6.524199523925781,13.306972827148437,73.29770992366412,48.44274809160305,56.62595419847328,-12.935871569824219,-2.9448680419921875,1.1037269653320312,15.618320610687023,27.251908396946565,26.38167938931298,0.0
14.170000553131104,-11.128249316406249,7.086836914062499,9.471461767578125,17.862595419847327,30.366412213740457,58.6412213740458,-11.702857714843748,-1.426944189453125,0.9600748657226562,15.114503816793894,21.69465648854962,23.83206106870229,0.0
14.18000078201294,-10.108319409179687,2.427720483398437,8.628702783203124,5.847328244274809,29.938931297709924,62.274809160305345,-11.171344946289063,-1.4245499877929686,0.39743747558593745,8.82442748091603,16.946564885496183,21.96946564885496,0.0
14.190000534057617,-12.524068884277343,6.210559106445312,5.468356591796875,-18.137404580152673,24.16793893129771,58.36641221374046,-10.91037696533203,-1.419761584472656,0.1580173095703125,4.396946564885496,14.183206106870228,21.755725190839694,0.0
14.200000762939453,-9.624690673828125,1.16837041015625,2.147598889160156,-49.29770992366412,15.877862595419847,54.48854961832061,-11.815385192871092,-2.4660277099609376,0.38307226562499996,0.04580152671755725,13.083969465648854,23.358778625954198,0.0
14.21000051498413,-8.8872765625,0.17956512451171874,4.340687609863281,-60.61068702290076,21.129770992366414,46.213740458015266,-10.307038146972655,-1.4101847778320311,0.17956512451171874,-8.65648854961832,9.664122137404581,20.290076335877863,0.0
14.220000505447388,-8.552088330078124,0.8307879760742187,5.746083984375,-54.56488549618321,18.65648854961832,38.16793893129771,-10.182539660644531,-1.5945383056640625,0.38307226562499996,-13.86259541984733,9.48091603053435,18.3206106870229,0.0
14.230000734329224,-6.169857678222656,-1.7836802368164062,4.285620971679688,-48.16793893129771,20.732824427480917,37.57251908396947,-10.230423693847655,-1.47482822265625,0.4429273071289062,-16.38167938931298,9.114503816793894,16.595419847328245,0.0
14.240000247955322,-5.166687182617188,-5.57370146484375,4.752490295410156,-29.84732824427481,38.229007633587784,37.48091603053435,-10.347739575195313,-1.2042834350585936,0.36391865234375,-16.977099236641223,7.679389312977099,14.183206106870228,0.0
14.250000715255737,-5.406107348632812,-3.8379052612304685,4.199429711914062,-18.137404580152673,50.87022900763359,28.16793893129771,-10.307038146972655,-0.4381389038085937,-0.05027823486328125,-17.053435114503817,4.854961832061068,11.86259541984733,0.0
14.260000705718994,-4.984727856445312,-3.5434184570312497,3.88818349609375,-5.419847328244275,55.86259541984733,18.625954198473284,-10.450690246582031,-0.5386953735351562,-0.3854664672851562,-19.267175572519083,2.4885496183206106,12.50381679389313,0.0
14.27000093460083,-5.645527514648437,-6.636727001953124,3.536235852050781,21.19083969465649,62.97709923664122,12.473282442748092,-11.087547888183593,-0.3136404174804687,-0.16280571289062498,-14.625954198473282,-0.5343511450381679,13.740458015267176,0.0
14.280000686645508,-5.090072729492187,-6.347028601074219,2.8203695556640622,58.10687022900763,75.7557251908397,5.541984732824427,-10.867281335449219,0.5386953735351562,-0.37828386230468747,-15.694656488549619,-5.129770992366412,12.625954198473282,0.0
14.290000915527344,-4.3071687866210935,-6.533776330566406,1.8004396484374998,107.70992366412214,95.3587786259542,2.687022900763359,-10.66137999267578,0.9696516723632812,-0.3806780639648437,-19.52671755725191,-6.3816793893129775,12.473282442748092,0.0
14.300000667572021,-7.723694555664062,-1.687912170410156,2.4564509033203126,150.93129770992365,115.09923664122137,-1.282442748091603,-10.704475622558594,0.9361328491210937,-0.3806780639648437,-24.396946564885496,-6.458015267175573,11.969465648854962,0.0
14.310000896453857,-12.847286108398437,7.601590270996093,4.096479040527344,139.80152671755727,114.41221374045801,-8.961832061068701,-10.781090075683593,1.2928688964843749,-0.44532150878906246,-27.541984732824428,-7.374045801526718,9.938931297709924,0.0
14.320000886917114,-10.465055456542968,8.40843623046875,3.806780639648437,100.03053435114504,95.09923664122137,-3.2519083969465647,-10.800243688964843,1.4149731811523436,-0.7110778930664062,-31.84732824427481,-8.198473282442748,10.16793893129771,0.0
14.330000638961792,-9.028534460449219,4.809951135253906,3.1292215698242187,81.12977099236642,84.03053435114504,4.488549618320611,-10.711658227539061,1.6208745239257811,-1.1276689819335937,-40.16793893129771,-8.549618320610687,10.335877862595419,0.0
14.340000629425049,-10.101136804199218,8.858546142578124,3.84987626953125,55.14503816793893,77.64885496183206,1.2213740458015268,-11.444283935546874,1.0414777221679687,-0.9720458740234375,-45.9236641221374,-6.320610687022901,8.16793893129771,0.0
14.350000619888306,-7.513004809570312,7.055712292480468,2.094926452636719,20.65648854961832,61.587786259541986,5.709923664122138,-12.43069501953125,0.02154781494140625,-0.8212111694335937,-45.98473282442748,-5.129770992366412,5.66412213740458,0.0
14.360000610351562,-8.365340600585936,5.935225915527344,1.5346832641601562,14.13740458015267,61.603053435114504,12.641221374045802,-12.289437121582031,0.08140285644531249,-0.699106884765625,-45.23664122137404,-8.83969465648855,5.343511450381679,0.0
14.37000060081482,-7.850587243652344,4.987122058105468,1.8602946899414061,1.6030534351145038,58.79389312977099,14.946564885496183,-12.04044014892578,0.5674257934570313,-0.8307879760742187,-40.58015267175573,-13.297709923664122,5.32824427480916,0.0
14.380000352859497,-8.94473740234375,6.332663391113281,2.408566870117187,-16.48854961832061,55.74045801526717,14.0,-11.662156286621093,0.6751648681640625,-0.7876923461914062,-38.61068702290076,-16.229007633587788,6.244274809160306,0.0
14.390000581741333,-9.710881933593749,6.804321118164062,2.770091320800781,-37.9236641221374,51.87786259541985,12.961832061068701,-11.494562170410155,0.5339069702148437,-0.5243301635742187,-37.11450381679389,-18.30534351145038,6.33587786259542,0.0
14.40000033378601,-9.823409411621093,4.680664245605469,2.674323254394531,-48.51908396946565,48.0763358778626,13.34351145038168,-10.848127722167968,1.0821791503906248,-0.4740519287109375,-39.099236641221374,-21.404580152671755,3.7099236641221376,0.0
14.410000562667847,-9.552864624023437,2.806004345703125,2.5522189697265625,-44.54961832061068,51.083969465648856,12.916030534351146,-10.503362683105468,0.63206923828125,-0.21308394775390624,-41.16030534351145,-21.64885496183206,1.786259541984733,0.0
14.420000791549683,-10.206481677246094,2.1811177124023438,2.626439221191406,-41.786259541984734,53.20610687022901,9.419847328244275,-11.516109985351562,-1.3862427612304686,0.9313444458007812,-32.80916030534351,-21.633587786259543,1.4198473282442747,0.0
14.43000054359436,-9.057264880371093,2.0829554443359375,2.2385785522460937,-34.2442748091603,53.725190839694655,7.847328244274809,-10.565611926269531,-0.06464344482421874,-0.055066638183593745,-25.6793893129771,-30.748091603053435,-2.946564885496183,0.0
14.440000772476196,-9.672574707031249,2.8012159423828122,2.6408044311523438,-31.893129770992367,56.35114503816794,6.396946564885496,-10.266336718749999,0.8978256225585937,-0.09816226806640624,-23.83206106870229,-33.3587786259542,-4.137404580152672,0.0
14.450000762939453,-9.658209497070311,3.5434184570312497,2.6240450195312497,-31.96946564885496,54.458015267175576,5.3893129770992365,-10.022128149414062,-0.5913678100585937,-0.2346317626953125,-16.290076335877863,-36.412213740458014,-2.854961832061069,0.0
14.46000051498413,-8.738836059570312,3.23696064453125,2.952050646972656,-41.06870229007634,50.99236641221374,3.2213740458015265,-8.91840118408203,0.5961562133789062,-0.7876923461914062,-5.66412213740458,-40.29007633587786,-2.6564885496183206,0.0
14.470000267028809,-8.346186987304687,2.9089550170898435,2.7341782958984373,-53.404580152671755,42.51908396946565,2.3053435114503817,-8.458714465332031,1.1563994018554686,-1.216254443359375,-5.511450381679389,-40.045801526717554,-3.099236641221374,0.0
14.480000495910645,-7.750030773925781,1.4006079711914061,1.8076222534179687,-58.48854961832061,39.32824427480916,3.114503816793893,-8.214505895996094,2.9951462768554684,-1.695094775390625,-12.13740458015267,-34.229007633587784,-1.6488549618320612,0.0
14.490000486373901,-11.937489477539062,4.7931917236328125,2.8227637573242186,-71.90839694656489,35.98473282442748,-1.1908396946564885,-8.585607153320312,1.3934253662109375,-0.38307226562499996,-20.38167938931298,-22.137404580152673,2.9160305343511452,0.0
14.500000715255737,-9.112331518554686,1.7118541870117185,1.5131354492187499,-70.59541984732824,32.458015267175576,2.198473282442748,-7.8170684204101555,0.8954314208984374,-0.296881005859375,-16.83969465648855,-23.954198473282442,2.16793893129771,0.0
14.510000705718994,-10.714052429199219,1.3527239379882812,1.838746875,-65.80152671755725,31.14503816793893,3.053435114503817,-7.972691528320312,0.3758896606445312,-0.9744400756835937,-13.86259541984733,-24.82442748091603,1.8473282442748091,0.0
14.520000696182251,-10.034099157714843,1.3168109130859373,1.867477294921875,-53.12977099236641,34.33587786259542,3.2061068702290076,-8.02536396484375,0.5386953735351562,-1.254561669921875,-10.106870229007633,-21.221374045801525,2.4580152671755724,0.0
14.530000925064087,-10.127473022460936,1.66636435546875,2.0374656127929685,-47.221374045801525,33.87786259541985,2.6106870229007635,-8.17141026611328,0.26336218261718747,-1.2737152832031249,-12.290076335877863,-19.16030534351145,2.946564885496183,0.0
14.540000915527344,-9.459490759277344,1.3623007446289062,1.9632453613281249,-41.9236641221374,32.396946564885496,1.4809160305343512,-10.041281762695311,0.7110778930664062,-0.7038952880859375,-11.465648854961833,-11.32824427480916,4.015267175572519,0.0
14.5500009059906,-11.350910070800781,3.0980969482421874,2.2074539306640624,-43.17557251908397,30.106870229007633,-1.0687022900763359,-11.015721838378905,-0.14125789794921875,-0.7637503295898437,-11.435114503816793,-6.396946564885496,6.2748091603053435,0.0
14.5600004196167,-10.043675964355469,2.6671406494140624,2.0661960327148434,-37.465648854961835,31.221374045801525,-0.6259541984732825,-9.737218151855469,0.5410895751953124,-0.4908113403320312,-12.106870229007633,-5.755725190839694,4.732824427480916,0.0
14.570000886917114,-9.78031378173828,2.530671154785156,2.0877438476562498,-35.770992366412216,27.938931297709924,-0.33587786259541985,-9.598354455566406,0.7445967163085937,-0.7948749511718749,-8.931297709923664,-7.511450381679389,3.7557251908396947,0.0
14.580000638961792,-9.5384994140625,3.469198205566406,1.2856862915039062,-30.900763358778626,29.297709923664122,1.6946564885496183,-10.299855541992187,-1.2761094848632812,0.296881005859375,-5.190839694656488,-3.099236641221374,6.061068702290076,0.0
14.590000629425049,-10.450690246582031,3.5769372802734374,1.9704279663085937,-31.251908396946565,27.81679389312977,3.0381679389312977,-10.462661254882812,-0.7709329345703124,0.6344634399414062,5.541984732824427,-6.778625954198473,4.152671755725191,0.0
14.600000619888306,-8.767566479492187,1.2880804931640624,1.8770541015625,-22.671755725190838,28.30534351145038,4.854961832061068,-10.965443603515624,-1.2018892333984375,0.3854664672851562,11.877862595419847,-8.381679389312977,2.687022900763359,0.0
14.610000610351562,-9.162609753417968,1.2234370483398436,2.099714855957031,-18.12213740458015,27.31297709923664,3.114503816793893,-10.029310754394531,-1.01514150390625,1.2497732666015624,18.778625954198475,-11.603053435114504,-1.6641221374045803,0.0
14.62000060081482,-9.162609753417968,1.7286135986328124,2.061407629394531,-11.83206106870229,25.633587786259543,2.33587786259542,-8.647856396484375,-0.2346317626953125,0.5051765502929687,22.38167938931298,-17.61832061068702,-6.748091603053435,0.0
14.630000352859497,-9.765948571777344,2.3056161987304686,2.327164013671875,-12.15267175572519,25.053435114503817,0.6717557251908397,-8.506598498535157,0.9624690673828125,-0.3184288208007812,20.412213740458014,-16.53435114503817,-8.793893129770993,0.0
14.640000343322754,-9.366116894531249,1.3670891479492187,2.3415292236328122,-9.86259541984733,22.30534351145038,-0.6106870229007634,-10.575188732910156,1.2713210815429687,0.17477672119140625,16.045801526717558,-7.740458015267175,-8.381679389312977,0.0
14.65000033378601,-9.730035546875,1.7812860351562498,2.6336218261718747,-7.450381679389313,21.87786259541985,-2.900763358778626,-10.115502014160155,2.1883003173828124,-0.1867477294921875,5.709923664122138,-5.450381679389313,-9.251908396946565,0.0
14.660001039505005,-9.823409411621093,1.7573440185546874,2.588131994628906,-5.541984732824427,20.198473282442748,-5.343511450381679,-11.44667813720703,1.149216796875,0.023942016601562498,6.0458015267175576,-5.450381679389313,-8.396946564885496,0.0
14.670000553131104,-9.485826977539062,1.8339584716796873,2.375048046875,-2.3969465648854964,19.053435114503817,-7.267175572519084,-9.725247143554688,2.521094348144531,-0.06464344482421874,-5.4961832061068705,-5.847328244274809,-10.381679389312977,0.0
14.68000054359436,-9.162609753417968,2.123656872558594,2.001552587890625,-0.183206106870229,18.595419847328245,-7.679389312977099,-10.421959826660157,0.928950244140625,0.4908113403320312,-12.931297709923664,-5.221374045801527,-8.091603053435115,0.0
14.690000295639038,-8.86812294921875,2.3391350219726563,1.7956512451171873,0.916030534351145,18.778625954198475,-8.51908396946565,-10.251971508789062,-0.1292868896484375,1.3287819213867187,-13.022900763358779,-7.083969465648855,-7.465648854961832,0.0
14.700000762939453,-7.994239343261718,2.0566192260742184,1.5370774658203123,10.51908396946565,22.106870229007633,-6.641221374045801,-9.78031378173828,-1.7022773803710936,1.7453730102539062,-3.1908396946564888,-15.16030534351145,-9.34351145038168,0.0
14.71000051498413,-9.622296472167967,3.5984850952148437,1.8411410766601561,6.122137404580153,23.786259541984734,-8.030534351145038,-10.089165795898436,-1.8052280517578123,2.4444798950195312,10.16793893129771,-23.603053435114504,-11.557251908396946,0.0
14.720000505447388,-9.188945971679686,3.536235852050781,1.0869675537109373,0.0,21.72519083969466,-5.450381679389313,-10.232817895507813,-1.4700398193359374,1.9416975463867185,15.48091603053435,-30.045801526717558,-14.0,0.0
14.730000257492065,-8.911218579101561,3.105279553222656,0.9337386474609375,-3.5877862595419847,23.450381679389313,-4.015267175572519,-9.370905297851563,-0.5219359619140624,1.3168109130859373,15.038167938931299,-36.58015267175573,-16.82442748091603,0.0
14.74000072479248,-9.062053283691405,2.932897033691406,1.1276689819335937,-6.793893129770993,25.389312977099237,-4.0,-9.126696728515624,0.8403647827148437,1.3455413330078123,4.763358778625954,-36.01526717557252,-18.625954198473284,0.0
14.750000476837158,-9.567229833984374,2.7964275390625,1.2234370483398436,-10.885496183206106,26.595419847328245,-4.061068702290076,-9.368511096191405,0.13168109130859373,1.448492004394531,0.9465648854961832,-35.23664122137404,-17.297709923664122,0.0
14.760000944137573,-7.704540942382812,-0.4525041137695312,0.39983167724609375,-1.8473282442748091,28.82442748091603,-2.3053435114503817,-10.216058483886718,0.08140285644531249,2.205059729003906,2.427480916030534,-36.33587786259542,-16.793893129770993,0.0
14.77000117301941,-9.141061938476563,-0.10295067138671875,1.1061211669921875,13.572519083969466,38.19847328244275,-4.961832061068702,-9.368511096191405,0.5219359619140624,1.599326708984375,-0.6564885496183206,-39.31297709923664,-17.72519083969466,0.0
14.780000925064087,-9.504980590820312,1.2042834350585936,1.3072341064453123,19.31297709923664,40.274809160305345,-8.748091603053435,-8.55448253173828,-0.13407529296874998,1.915361328125,-7.099236641221374,-40.213740458015266,-18.885496183206108,0.0
14.790000915527344,-9.45470235595703,1.7693150268554687,1.5945383056640625,20.045801526717558,41.969465648854964,-11.206106870229007,-9.119514123535156,0.40222587890625,2.389413256835937,-14.473282442748092,-36.152671755725194,-17.923664122137403,0.0
