timestamp,Thigh_L_Acc_X,Thigh_L_Acc_Y,Thigh_L_Acc_Z,Thigh_L_Gyr_X,Thigh_L_Gyr_Y,Thigh_L_Gyr_Z,Thigh_R_Acc_X,Thigh_R_Acc_Y,Thigh_R_Acc_Z,Thigh_R_Gyr_X,Thigh_R_Gyr_Y,Thigh_R_Gyr_Z,gpio_output
10.000000476837158,-3.6655227416992187,-3.497928625488281,1.1444283935546875,-27.96946564885496,57.3587786259542,10.900763358778626,-10.213664282226562,-3.0454245117187497,0.9169792358398436,20.946564885496183,22.35114503816794,12.854961832061068,0.0
10.010001182556152,-4.383783239746093,-2.518700146484375,1.8171990600585937,-13.755725190839694,69.81679389312977,5.603053435114504,-9.962273107910155,-2.070984436035156,0.7158662963867187,22.717557251908396,20.045801526717558,11.633587786259541,1.0
10.020000696182251,-5.908889697265625,-2.6001030029296874,3.284844677734375,-11.816793893129772,78.06106870229007,0.15267175572519084,-10.098742602539062,-1.5322890624999999,0.6751648681640625,21.923664122137403,19.358778625954198,11.908396946564885,1.0
10.030000686645508,-6.241683728027343,-2.959233251953125,4.900930798339844,-4.244274809160306,82.83969465648855,-3.969465648854962,-9.208099584960937,-0.5530605834960938,0.258573779296875,13.816793893129772,20.595419847328245,10.305343511450381,1.0
10.040000915527344,-7.48906279296875,-2.3535002319335936,5.983109948730468,5.603053435114504,84.77862595419847,-7.374045801526718,-9.76116016845703,-1.915361328125,0.469263525390625,13.16030534351145,18.916030534351144,10.732824427480915,1.0
10.050000429153442,-8.061276989746093,-1.8459294799804686,6.5960255737304685,15.419847328244275,83.41984732824427,-10.67175572519084,-7.905653881835937,-1.1276689819335937,0.15562310791015624,12.442748091603054,12.01526717557252,7.083969465648855,1.0
10.060000896453857,-8.47786807861328,-0.5746083984375,6.710947253417968,24.85496183206107,81.23664122137404,-13.938931297709924,-8.576030346679687,-1.8315642700195311,0.229843359375,1.5725190839694656,16.65648854961832,6.183206106870229,1.0
10.070000648498535,-8.975862023925782,0.6488286499023437,6.665457421875,27.541984732824428,77.90839694656489,-14.748091603053435,-10.445901843261717,-2.461239306640625,0.8379705810546875,-4.732824427480916,20.442748091603054,7.908396946564886,1.0
10.080000877380371,-9.777919580078125,1.618480322265625,6.718129858398437,20.671755725190838,73.46564885496183,-14.900763358778626,-8.391676818847655,-0.22505495605468748,1.6807295654296874,-18.9618320610687,25.297709923664122,5.633587786259542,1.0
10.090000629425049,-9.409212524414063,1.8315642700195311,6.344634399414062,14.732824427480915,67.6030534351145,-12.366412213740459,-10.73799444580078,-3.878606689453125,1.24498486328125,-16.977099236641223,23.099236641221374,9.633587786259541,1.0
10.100000381469727,-10.905588562011719,0.7924807495117187,5.9400143188476555,14.01526717557252,66.85496183206106,-12.488549618320612,-12.00213292236328,-4.958391638183594,1.0510545288085937,1.6641221374045803,14.595419847328245,8.870229007633588,1.0
10.110000610351562,-10.496180078124999,0.4429273071289062,5.379771130371093,16.48854961832061,61.969465648854964,-12.183206106870228,-9.368511096191405,-1.4867992309570313,0.11252747802734374,8.946564885496183,5.984732824427481,3.6946564885496183,1.0
10.12000060081482,-10.503362683105468,2.482787121582031,5.482721801757812,8.870229007633588,56.33587786259542,-10.534351145038167,-9.595960253906249,-1.1133037719726562,0.21068974609375,-0.12213740458015267,9.083969465648854,7.480916030534351,1.0
10.130000591278076,-10.589553942871094,2.231395947265625,5.293579870605469,-1.984732824427481,50.900763358778626,-5.572519083969466,-9.516951599121093,0.9840168823242187,-1.005564697265625,-9.755725190839694,6.396946564885496,9.694656488549619,1.0
10.140000820159912,-9.816226806640625,2.0781670410156248,4.44363828125,-4.641221374045801,44.67175572519084,-0.5801526717557252,-9.854534033203125,-0.06703764648437499,0.12210428466796874,-17.358778625954198,10.213740458015268,13.923664122137405,1.0
10.15000057220459,-8.801085302734375,0.9121908325195311,2.8658593872070313,-2.0763358778625953,43.89312977099237,5.312977099236641,-9.409212524414063,-0.6296750366210937,-0.016759411621093748,-23.083969465648856,8.580152671755725,14.229007633587786,1.0
10.160000324249268,-9.244012609863281,1.005564697265625,1.5849614990234373,7.282442748091603,48.36641221374046,12.992366412213741,-9.325415466308593,-1.4341267944335936,-0.25139117431640623,-30.3206106870229,10.549618320610687,14.67175572519084,1.0
10.170000553131104,-10.611101757812499,3.8187516479492185,2.3870190551757813,18.213740458015266,56.58015267175573,24.931297709923665,-8.501810095214843,-2.3127988037109373,-0.4525041137695312,-41.00763358778626,15.389312977099237,16.18320610687023,1.0
10.180000305175781,-13.702016101074218,4.599261389160156,3.9624037475585934,20.213740458015266,62.38167938931298,40.58015267175573,-11.204863769531249,-3.399766357421875,-1.407790576171875,-41.541984732824424,17.64885496183206,17.51145038167939,1.0
10.190001010894775,-15.473725329589843,4.580107775878906,6.2392895263671875,9.526717557251908,60.3206106870229,50.732824427480914,-9.464279162597656,-1.8914193115234375,-1.218648645019531,-37.38931297709924,15.816793893129772,14.961832061068701,1.0
10.200000524520874,-15.251064575195311,2.3630770385742186,7.771578588867187,-3.1908396946564888,48.656488549618324,55.23664122137404,-8.810662109374999,-1.5873557006835937,-0.8858546142578124,-43.87786259541985,20.198473282442748,15.587786259541986,1.0
10.21000051498413,-16.333243725585938,1.5610194824218748,9.507374792480467,-19.87786259541985,36.67175572519084,52.10687022900763,-8.743624462890624,-3.0693665283203124,-0.36152445068359373,-33.81679389312977,17.52671755725191,16.137404580152673,0.0
10.220000505447388,-15.090653063964844,0.5434837768554687,9.02135185546875,-44.70229007633588,17.49618320610687,42.54961832061068,-10.409988818359375,-3.3351229125976563,-0.8738836059570312,-21.297709923664122,15.954198473282442,16.16793893129771,0.0
10.230000495910645,-13.692439294433592,-2.308010400390625,7.089231115722656,-53.51145038167939,1.7251908396946565,34.30534351145038,-11.710040319824218,-5.944802722167968,1.649604943847656,-5.022900763358779,16.396946564885496,19.022900763358777,0.0
10.240000486373901,-7.9655089233398435,-7.769184387207031,4.060566015625,-37.786259541984734,-7.312977099236641,28.977099236641223,-8.384494213867187,-1.599326708984375,-0.16759411621093748,3.1755725190839694,4.67175572519084,14.366412213740459,0.0
10.250000238418579,-6.665457421875,-6.4284314575195305,2.2577321655273437,-13.816793893129772,-0.4580152671755725,17.633587786259543,-9.619902270507811,-0.7350199096679687,-0.3758896606445312,2.717557251908397,4.106870229007634,15.709923664122137,0.0
10.260000705718994,-6.196193896484375,-3.2034418212890623,1.01514150390625,-10.366412213740459,4.625954198473282,3.66412213740458,-9.457096557617186,-0.17956512451171874,-0.033518823242187495,-1.2366412213740459,6.793893129770993,17.603053435114504,0.0
10.270000696182251,-6.629544396972656,-0.27293898925781246,-0.35194764404296874,-16.931297709923665,6.519083969465649,-4.473282442748092,-9.421183532714844,0.10295067138671875,0.031124621582031248,-6.2748091603053435,5.847328244274809,18.412213740458014,0.0
10.280000448226929,-6.591237170410156,1.158793603515625,-0.9457096557617187,-18.946564885496183,12.183206106870228,-4.488549618320611,-9.394847314453125,-0.14604630126953125,0.10773907470703124,-12.748091603053435,4.885496183206107,19.022900763358777,0.0
10.290000677108765,-7.0078282592773435,2.549824768066406,-0.9935936889648437,-20.35114503816794,19.557251908396946,0.8549618320610687,-9.41639512939453,-0.4477157104492187,0.0430956298828125,-19.404580152671755,4.152671755725191,18.763358778625953,0.0
10.3000009059906,-6.725312463378906,2.923320227050781,-0.7445967163085937,-18.106870229007633,27.251908396946565,10.80916030534351,-9.387664709472656,-0.6919242797851562,0.22266075439453123,-24.9618320610687,3.6793893129770994,18.793893129770993,0.0
10.310000896453857,-6.026205578613281,1.4221557861328125,-0.603338818359375,-7.3893129770992365,37.083969465648856,20.198473282442748,-9.018957653808593,-1.0678139404296874,0.11731588134765625,-29.740458015267176,2.6412213740458017,17.770992366412212,0.0
10.320000886917114,-7.5153990112304685,1.1085153686523437,0.3399766357421875,3.648854961832061,46.62595419847328,22.427480916030536,-9.68454571533203,-1.7262193969726563,0.229843359375,-30.48854961832061,1.9541984732824427,17.587786259541986,0.0
10.330000638961792,-8.568847741699217,1.4820108276367188,0.948103857421875,5.0534351145038165,52.87022900763359,21.267175572519083,-9.196128576660156,-1.3646949462890625,0.3112462158203125,-29.587786259541986,-0.22900763358778625,16.259541984732824,0.0
10.340000867843628,-9.45470235595703,1.3311761230468748,1.3215993164062498,5.145038167938932,55.00763358778626,20.519083969465647,-9.816226806640625,-1.5777788940429687,0.3854664672851562,-26.900763358778626,-1.0534351145038168,16.65648854961832,0.0
10.350000619888306,-10.678139404296875,2.0925322509765625,1.8339584716796873,-1.3587786259541985,53.14503816793893,19.00763358778626,-9.70369932861328,-1.0821791503906248,0.4477157104492187,-25.46564885496183,-3.480916030534351,15.49618320610687,0.0
10.360000610351562,-11.8369330078125,2.789244934082031,3.0238766967773434,-15.572519083969466,47.89312977099237,18.442748091603054,-10.17056865234375,-1.180341418457031,0.603338818359375,-24.641221374045802,-3.969465648854962,15.404580152671755,0.0
10.37000060081482,-12.054805358886718,1.7980454467773437,3.816357446289062,-26.519083969465647,40.48854961832061,18.671755725190838,-10.024522351074218,-0.4955997436523437,0.3687070556640625,-24.12213740458015,-6.091603053435114,15.770992366412214,0.0
10.380000829696655,-11.307814440917968,2.1835119140624997,3.9408559326171875,-34.274809160305345,33.74045801526717,17.00763358778626,-9.955090502929687,-1.3407529296874998,0.7015010864257812,-21.0381679389313,-6.748091603053435,17.297709923664122,0.0
10.390000343322754,-12.897564343261719,3.7708676147460936,3.9264907226562498,-45.908396946564885,26.198473282442748,13.694656488549619,-9.93354268798828,-1.3120225097656248,1.0295067138671874,-12.946564885496183,-8.83969465648855,17.00763358778626,0.0
10.40000033378601,-11.133037719726563,1.6352397338867186,2.2936451904296873,-58.152671755725194,13.435114503816793,12.946564885496183,-10.350133776855468,-0.17238251953125,0.5817910034179687,-8.870229007633588,-10.50381679389313,16.091603053435115,0.0
10.410001039505005,-9.528922607421874,1.0749965454101562,1.7645266235351562,-48.82442748091603,13.801526717557252,13.007633587786259,-10.479420666503906,-0.0718260498046875,0.028730419921875,-13.236641221374045,-9.572519083969466,16.83969465648855,0.0
10.420000553131104,-9.955090502929687,2.398990063476562,1.6424223388671875,-49.25190839694657,12.687022900763358,10.977099236641221,-9.595960253906249,1.158793603515625,0.15083470458984374,-24.625954198473284,-7.114503816793893,15.679389312977099,0.0
10.43000078201294,-9.658209497070311,2.2290017456054687,1.6472107421875,-46.79389312977099,11.129770992366412,14.549618320610687,-10.386046801757812,-0.14125789794921875,0.15562310791015624,-23.206106870229007,-5.572519083969466,18.15267175572519,0.0
10.440000534057617,-9.325415466308593,1.8650830932617186,1.6256629272460936,-42.717557251908396,10.977099236641221,18.396946564885496,-10.395623608398436,-0.26815058593749996,0.12210428466796874,-17.83206106870229,-6.259541984732825,17.46564885496183,0.0
10.450001001358032,-8.535328918457031,0.6919242797851562,1.2976572998046874,-33.20610687022901,12.122137404580153,22.015267175572518,-10.338162768554687,-0.9217676391601562,-0.05985504150390625,-10.854961832061068,-5.984732824427481,16.85496183206107,0.0
10.46000051498413,-8.257601525878906,0.373495458984375,1.3263877197265623,-24.82442748091603,13.358778625954198,21.358778625954198,-9.519345800781249,-0.105344873046875,-0.3280056274414062,-2.7022900763358777,-9.923664122137405,13.938931297709924,0.0
10.470000505447388,-8.113949426269532,-0.08379705810546874,1.0989385620117187,-14.870229007633588,14.061068702290076,18.65648854961832,-9.53131680908203,-0.07900865478515624,-0.4740519287109375,5.206106870229007,-13.083969465648854,12.106870229007633,0.0
10.480000257492065,-8.755595471191405,0.41898529052734373,1.2785036865234374,-9.007633587786259,14.50381679389313,15.297709923664122,-9.641450085449218,-0.23702596435546874,0.16280571289062498,6.748091603053435,-12.320610687022901,11.587786259541986,0.0
10.490000486373901,-8.827421520996094,-0.05027823486328125,1.177947216796875,-0.7633587786259542,13.633587786259541,12.885496183206106,-10.639832177734375,-1.66636435546875,1.177947216796875,17.480916030534353,-14.870229007633588,12.091603053435115,0.0
10.500000476837158,-9.7683427734375,1.1085153686523437,1.2880804931640624,8.045801526717558,13.877862595419847,10.549618320610687,-10.575188732910156,-2.3582886352539063,0.7158662963867187,31.389312977099237,-24.30534351145038,9.34351145038168,0.0
10.510000705718994,-10.036493359375,2.212242333984375,1.2306196533203124,14.045801526717558,14.183206106870228,10.351145038167939,-10.412383020019531,-0.1867477294921875,0.6416460449218749,39.099236641221374,-32.18320610687023,4.1679389312977095,0.0
10.520000696182251,-10.70686982421875,4.508281726074219,1.235408056640625,8.473282442748092,12.030534351145038,8.50381679389313,-8.86094034423828,2.70065947265625,-0.6177040283203125,21.557251908396946,-32.82442748091603,0.4122137404580153,0.0
10.530000686645508,-10.608707556152343,4.786009118652344,1.0678139404296874,-2.351145038167939,10.992366412213741,7.694656488549619,-10.321403356933594,1.8052280517578123,-0.3758896606445312,4.793893129770993,-26.0,1.8778625954198473,0.0
10.540000915527344,-9.404424121093749,2.5857377929687497,0.5315127685546874,-9.679389312977099,8.687022900763358,7.190839694656488,-11.587936035156249,1.0845733520507812,0.0430956298828125,4.625954198473282,-22.244274809160306,3.068702290076336,0.0
10.550000667572021,-9.91438907470703,2.5378537597656248,0.7876923461914062,-7.587786259541985,9.419847328244275,5.190839694656488,-11.4538607421875,-0.07900865478515624,0.23223756103515625,11.954198473282442,-23.69465648854962,3.1603053435114505,0.0
10.560000896453857,-10.065223779296874,2.829946362304687,0.9600748657226562,-9.450381679389313,8.549618320610687,3.954198473282443,-10.338162768554687,1.5969325073242187,-1.209071838378906,12.091603053435115,-27.72519083969466,-1.0534351145038168,0.0
10.570000648498535,-9.255983618164063,2.1116858642578125,0.8092401611328125,-5.251908396946565,10.13740458015267,4.9465648854961835,-9.181763366699219,1.8363526733398436,-0.565031591796875,-4.687022900763359,-20.610687022900763,-1.816793893129771,0.0
10.580000877380371,-9.550470422363281,2.9448680419921875,1.0342951171875,-9.16030534351145,10.900763358778626,4.9465648854961835,-9.452308154296874,1.6448165405273436,-0.33039982910156246,-19.587786259541986,-11.801526717557252,0.13740458015267176,0.0
10.590000629425049,-9.907206469726562,2.9951462768554684,0.9169792358398436,-14.030534351145038,9.541984732824428,4.290076335877862,-11.343727465820312,0.03591302490234375,0.06703764648437499,-13.664122137404581,-9.129770992366412,1.5114503816793894,0.0
10.600000381469727,-9.471461767578125,1.4987702392578124,0.4381389038085937,-10.854961832061068,8.885496183206106,5.251908396946565,-10.110713610839843,0.13646949462890623,0.6057330200195312,-13.114503816793894,-8.412213740458014,-2.717557251908397,0.0
10.610000610351562,-9.311050256347656,1.0486603271484374,0.5219359619140624,-4.061068702290076,11.206106870229007,4.809160305343512,-10.146626635742187,-0.201112939453125,1.47482822265625,-12.198473282442748,-10.351145038167939,-4.809160305343512,0.0
10.62000036239624,-9.49300958251953,1.9033903198242186,0.6631938598632812,-2.33587786259542,10.870229007633588,1.3740458015267176,-10.089165795898436,-0.01915361328125,1.9608511596679685,-13.099236641221374,-12.961832061068701,-6.427480916030534,0.0
10.630000591278076,-8.91840118408203,1.0007762939453124,0.8667010009765624,-1.2671755725190839,10.82442748091603,0.2595419847328244,-9.682151513671874,0.181959326171875,2.463633508300781,-15.49618320610687,-15.648854961832061,-7.908396946564886,0.0
10.640000581741333,-9.672574707031249,1.6903063720703124,1.2425906616210938,-3.1755725190839694,10.045801526717558,-1.6793893129770991,-9.883264453125,-0.05027823486328125,2.3319524169921872,-15.725190839694656,-17.84732824427481,-8.305343511450381,0.0
10.65000033378601,-9.557653027343749,1.6256629272460936,1.3120225097656248,-2.8396946564885495,8.412213740458014,-1.6488549618320612,-9.832986218261718,-1.0486603271484374,2.683900061035156,-13.068702290076336,-19.389312977099237,-8.51908396946565,0.0
10.660000562667847,-9.414000927734374,1.5897499023437498,1.180341418457031,1.8778625954198473,8.305343511450381,-0.7175572519083969,-9.483432775878907,-1.7501614135742187,2.7150246826171873,1.3587786259541985,-29.66412213740458,-9.541984732824428,0.0
10.670000314712524,-9.991003527832031,1.9225439331054686,1.0582371337890624,3.83206106870229,7.770992366412214,-1.633587786259542,-10.213664282226562,-1.707065783691406,2.042254016113281,12.83969465648855,-36.51908396946565,-10.854961832061068,0.0
10.68000078201294,-9.586383447265625,1.599326708984375,1.0941501586914062,6.778625954198473,8.030534351145038,-1.6030534351145038,-9.916783276367187,-2.099714855957031,2.482787121582031,23.389312977099237,-41.43511450381679,-12.01526717557252,0.0
10.690000772476196,-9.394847314453125,1.8435352783203125,1.3431471313476562,9.129770992366412,8.259541984732824,-2.8396946564885495,-9.121908325195312,-0.22744915771484372,1.5586252807617187,25.893129770992367,-49.81679389312977,-15.816793893129772,0.0
10.700000524520874,-9.375693701171874,2.0470424194335934,1.8291700683593748,8.870229007633588,7.419847328244275,-3.1755725190839694,-8.003816149902343,1.458068811035156,1.484405029296875,9.633587786259541,-46.10687022900763,-17.66412213740458,0.0
10.71000075340271,-9.502586389160156,2.300827795410156,2.4444798950195312,7.465648854961832,5.3893129770992365,-2.4885496183206106,-9.33978067626953,-0.201112939453125,1.9847931762695312,3.0229007633587788,-40.76335877862596,-13.236641221374045,0.0
10.720000505447388,-9.873687646484374,1.9033903198242186,2.839523168945312,6.854961832061068,1.8931297709923665,-2.2748091603053435,-10.146626635742187,-1.4820108276367188,2.4013842651367185,13.32824427480916,-44.656488549618324,-13.969465648854962,0.0
10.730000495910645,-9.70369932861328,1.189918225097656,3.0885201416015624,13.435114503816793,-2.519083969465649,-0.732824427480916,-8.882488159179687,0.10773907470703124,1.2114660400390624,18.977099236641223,-50.0763358778626,-18.793893129770993,0.0
10.740000486373901,-9.229647399902344,1.0869675537109373,2.849099975585937,23.022900763358777,-4.0458015267175576,0.5038167938931297,-7.017405065917968,0.9552864624023437,1.2210428466796874,4.870229007633588,-46.50381679389313,-20.763358778625953,0.0
10.750000476837158,-9.102754711914063,2.243366955566406,2.7820623291015623,24.12213740458015,-6.5038167938931295,-0.4732824427480916,-8.968679418945312,-0.10295067138671875,1.7501614135742187,-6.916030534351145,-35.06870229007634,-15.450381679389313,0.0
10.760000944137573,-9.323021264648437,2.863465185546875,2.858676782226562,18.549618320610687,-10.854961832061068,-0.7022900763358778,-9.464279162597656,-0.8978256225585937,1.8124106567382812,-0.5038167938931297,-34.88549618320611,-13.603053435114504,0.0
10.770000696182251,-9.60793126220703,2.877830395507812,3.0621839233398433,16.793893129770993,-15.251908396946565,0.2748091603053435,-8.971073620605468,-1.0726023437499999,2.104503259277344,1.8015267175572518,-31.61832061068702,-15.32824427480916,0.0
10.780000686645508,-8.911218579101561,1.66636435546875,3.306392492675781,21.81679389312977,-17.84732824427481,3.2519083969465647,-9.447519750976562,-1.7669208251953124,1.2904746948242187,11.557251908396946,-35.847328244274806,-15.923664122137405,0.0
10.790000438690186,-8.63827958984375,1.218648645019531,3.488351818847656,29.389312977099237,-19.206106870229007,4.549618320610687,-8.571241943359375,-1.5346832641601562,1.3455413330078123,19.66412213740458,-40.61068702290076,-17.282442748091604,0.0
10.8000009059906,-9.595960253906249,2.612074011230469,3.9743747558593747,29.64885496183206,-20.732824427480917,3.0229007633587788,-7.994239343261718,-0.9888052856445312,0.5961562133789062,29.81679389312977,-48.79389312977099,-18.045801526717558,0.0
10.810000658035278,-9.79946739501953,4.824316345214844,4.503493322753906,8.946564885496183,-33.16030534351145,0.8091603053435115,-6.617573388671874,0.6440402465820312,1.2617442749023438,21.236641221374047,-40.19847328244275,-18.27480916030534,0.0
10.820000886917114,-9.854534033203125,4.280832568359375,4.8698061767578125,-7.816793893129771,-42.80916030534351,1.9083969465648856,-7.254431030273437,2.5737667846679684,0.7350199096679687,7.893129770992366,-32.900763358778626,-16.106870229007633,0.0
10.830000400543213,-9.358934289550781,2.4205378784179685,5.288791467285156,-15.48091603053435,-51.66412213740458,2.564885496183206,-7.802703210449218,1.6543933471679686,0.9959878906249999,-7.022900763358779,-27.374045801526716,-12.977099236641221,0.0
10.840000867843628,-8.719682446289061,0.49799394531249996,4.967968444824218,-12.564885496183207,-59.541984732824424,2.183206106870229,-8.456320263671875,0.6967126831054687,1.3838485595703125,-10.183206106870228,-24.045801526717558,-12.67175572519084,0.0
10.850000619888306,-8.078036401367187,-0.8738836059570312,4.671087438964843,-1.5114503816793894,-65.64885496183206,-0.7480916030534351,-8.590395556640624,-0.7254431030273437,1.8507178833007811,-7.938931297709924,-22.442748091603054,-13.297709923664122,0.0
10.860000610351562,-7.369352709960937,-0.5985504150390625,4.517858532714843,12.778625954198473,-70.36641221374046,-4.244274809160306,-8.377311608886718,-1.8914193115234375,1.9871873779296874,4.778625954198473,-30.717557251908396,-16.16793893129771,0.0
10.87000060081482,-7.484274389648437,-0.1771709228515625,3.6559459350585937,23.96946564885496,-73.14503816793894,-8.351145038167939,-9.373299499511718,-2.806004345703125,2.4109610717773435,21.83206106870229,-34.76335877862596,-17.221374045801525,0.0
10.880000591278076,-7.266402038574219,-0.41419688720703124,2.0302830078125,34.38167938931298,-75.41984732824427,-9.954198473282442,-9.469067565917967,-3.0238766967773434,2.1691467041015624,42.33587786259542,-43.57251908396947,-18.916030534351144,0.0
10.890000581741333,-6.672640026855468,1.180341418457031,0.6153098266601562,36.656488549618324,-73.26717557251908,-11.48091603053435,-6.770802294921874,0.5386953735351562,1.2785036865234374,46.35114503816794,-50.595419847328245,-24.045801526717558,0.0
10.90000057220459,-7.220912207031249,3.725377783203125,-0.737414111328125,31.908396946564885,-70.01526717557252,-11.236641221374045,-7.204152795410156,0.5147533569335937,1.0678139404296874,30.702290076335878,-38.97709923664122,-21.801526717557252,0.0
10.910000562667847,-8.48505068359375,5.961562133789062,0.3112462158203125,20.259541984732824,-62.06106870229008,-7.587786259541985,-8.164227661132813,-0.46686932373046874,1.4173673828125,32.0,-39.83206106870229,-17.435114503816795,0.0
10.920000553131104,-7.644685900878906,4.309562988281249,0.34715924072265625,18.99236641221374,-56.67175572519084,-0.32061068702290074,-7.587225061035156,0.5195417602539062,1.0342951171875,32.412213740458014,-40.0,-18.366412213740457,0.0
10.93000078201294,-7.572859851074218,2.6862942626953124,0.8379705810546875,22.30534351145038,-46.97709923664122,4.717557251908397,-6.5768719604492185,2.4205378784179685,0.47165772705078124,18.03053435114504,-32.396946564885496,-21.51145038167939,0.0
10.940000295639038,-7.5465236328125,2.645592834472656,1.5155296508789062,21.17557251908397,-39.80152671755725,4.900763358778626,-7.8912886718749995,0.1867477294921875,1.4413093994140624,-4.656488549618321,-12.045801526717558,-18.671755725190838,0.0
10.950000524520874,-8.480262280273436,2.492363928222656,2.375048046875,13.19083969465649,-34.10687022900763,3.0839694656488548,-10.797849487304687,-1.3215993164062498,1.0726023437499999,6.519083969465649,-14.793893129770993,-15.068702290076336,0.0
10.960000276565552,-8.757989672851561,0.9169792358398436,3.0741549316406247,17.236641221374047,-28.442748091603054,-0.015267175572519083,-8.980650427246093,0.0909796630859375,1.0821791503906248,10.473282442748092,-10.473282442748092,-17.557251908396946,0.0
10.970000505447388,-8.576030346679687,0.565031591796875,3.478775012207031,22.763358778625953,-27.206106870229007,-4.229007633587786,-9.157821350097656,0.028730419921875,0.9959878906249999,11.358778625954198,-6.625954198473282,-16.610687022900763,0.0
10.980000495910645,-9.018957653808593,0.9528922607421875,3.7517140014648436,26.671755725190838,-27.297709923664122,-8.290076335877863,-10.831368310546875,-1.9321207397460936,1.5897499023437498,19.84732824427481,-5.801526717557252,-11.419847328244275,0.0
10.990000486373901,-8.875305554199219,0.9193734375,3.8043864379882812,32.18320610687023,-28.0,-11.603053435114504,-9.10993731689453,0.1771709228515625,1.455674609375,26.076335877862597,-8.763358778625955,-14.916030534351146,0.0
11.000000476837158,-8.40125362548828,1.2665326782226562,3.0023288818359375,40.16793893129771,-26.27480916030534,-14.396946564885496,-9.131485131835937,0.19871873779296872,1.8938135131835936,21.435114503816795,-3.053435114503817,-15.954198473282442,0.0
11.010000705718994,-8.152256652832031,2.281674182128906,2.061407629394531,40.18320610687023,-24.38167938931298,-16.290076335877863,-9.56962403564453,-0.23702596435546874,2.4875755249023435,15.083969465648854,5.175572519083969,-13.725190839694656,0.0
11.020000696182251,-7.563283044433593,2.877830395507812,1.5969325073242187,36.916030534351144,-20.3206106870229,-16.748091603053435,-7.50821640625,1.5753846923828123,2.0566192260742184,11.49618320610687,3.3740458015267176,-14.83969465648855,0.0
11.030000686645508,-8.619125976562499,4.853046765136718,1.2689268798828124,26.27480916030534,-17.053435114503817,-17.282442748091604,-8.892064965820312,0.181959326171875,2.5450363647460934,4.564885496183206,13.557251908396946,-11.419847328244275,0.0
11.040000438690186,-9.773131176757811,5.786785412597656,2.051830822753906,15.206106870229007,-13.877862595419847,-15.068702290076336,-9.610325463867188,-0.1005564697265625,1.5658078857421873,2.4580152671755724,15.282442748091603,-9.98473282442748,0.0
11.050000667572021,-9.72285294189453,5.063736511230468,3.019088293457031,6.259541984732825,-12.01526717557252,-11.206106870229007,-8.377311608886718,0.0526724365234375,1.407790576171875,-0.8244274809160306,15.374045801526718,-10.549618320610687,0.0
11.060000658035278,-9.890447058105469,4.3813890380859375,3.23696064453125,0.7633587786259542,-9.404580152671755,-9.358778625954198,-9.181763366699219,1.7980454467773437,1.2976572998046874,-13.603053435114504,25.16030534351145,-13.938931297709924,0.0
11.070000648498535,-10.194510668945313,3.3207577026367185,3.239354846191406,-0.13740458015267176,-5.1603053435114505,-8.595419847328245,-10.579977136230468,0.4381389038085937,3.0166940917968748,-31.709923664122137,40.67175572519084,-12.83969465648855,0.0
11.080000638961792,-8.954314208984375,2.0925322509765625,3.9815573608398434,2.6717557251908395,-1.2213740458015268,-10.030534351145038,-11.851298217773437,-2.068590234375,2.703053674316406,-20.229007633587788,36.229007633587784,-5.740458015267175,0.0
11.090000629425049,-9.004592443847656,0.9576806640625,4.242525341796875,11.709923664122137,1.7251908396946565,-11.648854961832061,-10.831368310546875,-0.30885201416015623,2.6695348510742187,-6.33587786259542,30.396946564885496,-7.00763358778626,0.0
11.100000619888306,-9.09796630859375,1.8555062866210936,4.7117888671875,17.96946564885496,1.4961832061068703,-15.419847328244275,-11.111489904785156,1.2210428466796874,3.1172505615234374,-14.045801526717558,33.267175572519086,-11.374045801526718,0.0
11.110000610351562,-9.512163195800781,3.835511059570312,5.324704492187499,12.381679389312977,-2.2595419847328246,-17.69465648854962,-14.104241979980468,-1.9991583862304687,4.374206433105469,-19.358778625954198,38.213740458015266,-9.603053435114504,0.0
11.12002420425415,-8.576030346679687,2.3535002319335936,5.0757075195312495,4.564885496183206,-11.389312977099237,-17.374045801526716,-15.892710620117187,-3.679887951660156,4.546588952636719,1.9083969465648856,24.65648854961832,-9.053435114503817,0.0
11.130000352859497,-11.305420239257812,2.9927520751953125,5.942408520507812,6.854961832061068,-13.770992366412214,-22.198473282442748,-14.542380883789061,-2.6288334228515624,4.762067102050781,17.87786259541985,11.83206106870229,-15.801526717557252,0.0
11.140000820159912,-12.23915888671875,3.833116857910156,6.998251452636718,13.282442748091603,-23.572519083969464,-20.748091603053435,-14.49928525390625,-1.4963760375976562,3.756502404785156,18.885496183206108,13.954198473282442,-16.900763358778626,0.0
11.15000057220459,-14.14733760986328,5.865794067382812,9.260772021484375,11.84732824427481,-34.48854961832061,-17.0381679389313,-13.295001818847656,-0.14125789794921875,2.518700146484375,20.33587786259542,9.206106870229007,-11.816793893129772,0.0
11.160000562667847,-14.391546179199217,3.5434184570312497,10.326191760253906,10.213740458015268,-51.64885496183206,-8.198473282442748,-12.713210815429687,1.0989385620117187,0.852335791015625,19.450381679389313,7.3893129770992365,-6.473282442748092,0.0
11.170000553131104,-11.595118640136718,-4.285620971679688,7.563283044433593,18.9618320610687,-71.09923664122137,4.091603053435114,-9.670180505371093,1.608903515625,0.11013327636718749,9.465648854961833,12.01526717557252,-2.366412213740458,0.0
11.18000078201294,-11.652579479980469,-3.7014357666015623,9.524134204101562,55.404580152671755,-64.54961832061069,2.7480916030534353,-8.40125362548828,1.8531120849609375,-0.63206923828125,-0.44274809160305345,15.038167938931299,0.5038167938931297,0.0
11.190000772476196,-15.454571716308592,1.838746875,9.87608184814453,38.10687022900763,-86.59541984732824,-6.473282442748092,-6.495469104003906,2.1068974609374997,-0.9169792358398436,-16.564885496183205,20.213740458015266,-1.1755725190839694,0.0
11.200000524520874,-15.33486163330078,1.898601916503906,8.9255837890625,14.15267175572519,-109.05343511450381,-6.015267175572519,-7.790732202148437,0.42377369384765623,-1.886630908203125,-31.603053435114504,29.893129770992367,-0.8854961832061069,0.0
11.21000075340271,-13.414711901855467,0.7206546997070312,6.902483386230468,-0.8396946564885496,-125.09923664122137,-5.526717557251908,-7.362170104980469,-0.612915625,-1.936909143066406,-43.603053435114504,36.656488549618324,-2.9770992366412212,0.0
11.220000505447388,-12.667720983886719,0.16998831787109375,4.910507604980468,-10.83969465648855,-137.95419847328245,-11.435114503816793,-10.733206042480468,-5.377376928710937,-0.9840168823242187,-38.18320610687023,45.12977099236641,2.9160305343511452,0.0
11.230000495910645,-12.176909643554687,-1.0510545288085937,3.5529952636718747,-11.816793893129772,-144.8854961832061,-15.251908396946565,-10.359710583496094,-6.323086584472656,-0.6272808349609375,-9.587786259541986,40.412213740458014,1.2671755725190839,0.0
11.240000486373901,-10.321403356933594,-2.0183119995117185,1.7621324218749999,2.2290076335877864,-142.82442748091603,-15.725190839694656,-8.971073620605468,-5.123591552734375,-0.8738836059570312,7.740458015267175,40.274809160305345,-2.4580152671755724,0.0
11.250000238418579,-9.80665,-0.2442085693359375,0.16041151123046873,16.0,-132.91603053435114,-16.35114503816794,-9.018957653808593,-3.134009973144531,-1.24498486328125,11.129770992366412,43.37404580152672,-2.030534351145038,0.0
11.260000467300415,-7.539341027832031,-0.30406361083984373,-0.8499415893554687,18.106870229007633,-123.41984732824427,-15.282442748091603,-10.582371337890624,-4.924872814941406,-0.19393033447265623,19.587786259541986,45.23664122137404,2.8702290076335877,0.0
11.270000696182251,-6.967126831054687,-0.00239420166015625,-1.695094775390625,25.908396946564885,-106.1526717557252,-13.267175572519085,-10.13226142578125,-4.477157104492187,0.36391865234375,41.87786259541985,37.267175572519086,1.8625954198473282,0.0
11.280000448226929,-7.232883215332031,1.6136919189453125,-1.6160861206054686,18.458015267175572,-88.91603053435115,-15.312977099236642,-10.28549033203125,-4.254496350097656,1.0510545288085937,51.70992366412214,34.534351145038165,2.8091603053435112,0.0
11.290000677108765,-6.754042883300781,0.6416460449218749,-1.0319009155273438,14.549618320610687,-73.64885496183206,-11.129770992366412,-9.883264453125,-2.789244934082031,1.01514150390625,54.62595419847328,29.83206106870229,2.946564885496183,0.0
11.3000009059906,-6.263231542968749,0.0909796630859375,-0.5817910034179687,21.068702290076335,-54.76335877862596,-4.961832061068702,-9.3852705078125,-0.55545478515625,0.4908113403320312,45.541984732824424,27.0381679389313,2.3053435114503817,0.0
11.310000658035278,-7.295132458496093,1.5083470458984374,-0.0526724365234375,17.34351145038168,-37.80152671755725,-1.9541984732824427,-9.169792358398437,-1.1755530151367186,1.120486376953125,30.885496183206108,29.053435114503817,4.961832061068702,0.0
11.320000886917114,-7.45075556640625,-0.8020575561523438,-0.30406361083984373,23.66412213740458,-19.66412213740458,4.1679389312977095,-10.070012182617187,-1.0773907470703123,1.4006079711914061,19.709923664122137,31.6793893129771,6.0,0.0
11.330000638961792,-8.250418920898436,2.6431986328124997,1.0941501586914062,21.083969465648856,-2.33587786259542,-0.10687022900763359,-9.334992272949219,-0.5722141967773438,1.4891934326171874,7.0534351145038165,33.74045801526717,5.694656488549619,0.0
11.340000867843628,-8.8872765625,3.6487633300781246,0.8116343627929687,-13.740458015267176,-7.7251908396946565,-3.66412213740458,-9.394847314453125,-0.7254431030273437,1.2018892333984375,-10.030534351145038,37.19083969465649,6.809160305343512,0.0
11.350000619888306,-7.958326318359375,1.7477672119140624,0.9720458740234375,-25.541984732824428,0.2900763358778626,3.312977099236641,-10.524910498046875,-3.342305517578125,1.4006079711914061,-13.618320610687023,36.18320610687023,9.557251908396946,0.0
11.360000610351562,-7.388506323242187,0.26815058593749996,0.4477157104492187,-33.267175572519086,4.213740458015267,1.9694656488549618,-10.268730920410155,-3.8953661010742184,0.5793968017578125,-3.5114503816793894,25.801526717557252,5.6183206106870225,0.0
11.37000060081482,-6.8210805297851556,-0.16280571289062498,0.42377369384765623,-31.46564885496183,13.312977099236642,0.2595419847328244,-9.91438907470703,-3.9360675292968748,0.5674257934570313,-2.122137404580153,23.541984732824428,1.3587786259541985,0.0
11.380000591278076,-6.3973068359375,0.39983167724609375,0.3184288208007812,-35.06870229007634,22.33587786259542,-2.213740458015267,-9.7683427734375,-2.4492682983398435,0.373495458984375,-1.618320610687023,18.549618320610687,-0.24427480916030533,0.0
11.390000820159912,-6.330269189453125,1.3335703247070312,0.6512228515624999,-45.80152671755725,30.48854961832061,-4.687022900763359,-9.682151513671874,-1.5514426757812498,0.2657563842773437,-6.213740458015267,16.564885496183205,0.5343511450381679,0.0
11.40000033378601,-6.512228515625,1.7381904052734374,0.8930372192382812,-60.99236641221374,36.33587786259542,-5.541984732824427,-9.926360083007811,-1.5969325073242187,0.3854664672851562,-7.648854961832061,16.045801526717558,1.7557251908396947,0.0
11.410001039505005,-5.197811804199218,-0.40222587890625,0.6775590698242188,-65.02290076335878,43.954198473282446,-2.595419847328244,-9.514557397460937,-1.4724340209960938,0.41419688720703124,-8.183206106870228,15.297709923664122,1.5725190839694656,0.0
11.420000553131104,-5.3007624755859375,0.5698199951171875,1.024718310546875,-64.27480916030534,53.11450381679389,-4.442748091603053,-9.667786303710937,-1.7453730102539062,0.584185205078125,-6.8396946564885495,15.374045801526718,2.1068702290076335,0.0
11.430000305175781,-4.180276098632812,-2.9281086303710935,0.8547299926757812,-61.52671755725191,61.80152671755725,-3.0076335877862594,-9.696516723632811,-1.8459294799804686,0.7829039428710937,-2.885496183206107,15.938931297709924,2.045801526717557,0.0
11.440000534057617,-3.835511059570312,-4.762067102050781,1.695094775390625,-30.763358778625953,82.0,-2.9923664122137406,-10.182539660644531,-3.746925598144531,1.6065093139648436,5.480916030534351,16.610687022900763,2.1526717557251906,0.0
11.450000762939453,-5.992686755371094,-3.1938650146484373,3.1507693847656246,-23.740458015267176,91.46564885496183,-12.13740458015267,-9.119514123535156,-1.5346832641601562,0.8020575561523438,17.129770992366414,8.610687022900763,-0.7175572519083969,0.0
11.46000051498413,-4.61602080078125,-5.853823059082031,4.450820886230469,7.603053435114504,107.17557251908397,-11.541984732824428,-9.327809667968749,-1.8411410766601561,0.6105214233398437,14.061068702290076,11.312977099236642,2.8091603053435112,0.0
11.470000743865967,-8.032546569824218,-2.480392919921875,5.070919116210937,15.312977099236642,111.61832061068702,-21.908396946564885,-10.256759912109374,-1.908178723144531,0.49320554199218747,17.435114503816795,9.86259541984733,5.435114503816794,0.0
11.480000495910645,-8.47786807861328,-0.9816226806640624,5.432443566894531,13.236641221374045,105.23664122137404,-26.977099236641223,-9.68454571533203,-1.6256629272460936,0.5913678100585937,16.946564885496183,8.458015267175572,4.824427480916031,0.0
11.490000247955322,-8.453926062011718,0.17238251953125,5.216965417480468,19.068702290076335,104.03053435114504,-24.82442748091603,-10.156203442382813,-2.4396914916992185,0.9193734375,16.65648854961832,9.297709923664122,5.877862595419847,0.0
11.500000476837158,-7.589619262695312,0.7829039428710937,4.759672900390624,28.061068702290076,102.42748091603053,-21.572519083969464,-9.239224206542968,-1.0366893188476562,0.4572925170898437,15.877862595419847,5.1603053435114505,4.99236641221374,0.0
11.510000705718994,-8.78432589111328,2.9951462768554684,5.360617517089843,35.12977099236641,105.2824427480916,-18.213740458015266,-10.496180078124999,-1.4867992309570313,-0.00718260498046875,10.030534351145038,5.908396946564886,6.412213740458015,0.0
11.520000696182251,-8.63827958984375,3.308786694335937,5.523423229980469,36.35114503816794,104.1526717557252,-11.893129770992367,-10.230423693847655,-1.5538368774414062,0.47165772705078124,4.534351145038168,10.488549618320612,8.473282442748092,0.0
11.530000686645508,-8.884882360839843,2.133233679199219,5.480327600097656,33.786259541984734,102.65648854961832,-6.900763358778626,-9.471461767578125,-1.6065093139648436,0.2609679809570312,1.0229007633587786,6.091603053435114,7.480916030534351,0.0
11.540000438690186,-8.86094034423828,1.7405846069335937,5.240907434082031,35.19083969465649,100.87022900763358,-4.351145038167939,-9.6917283203125,-1.39821376953125,0.2442085693359375,-3.3587786259541983,5.32824427480916,6.854961832061068,0.0
11.550000667572021,-9.938331091308592,1.7094599853515624,5.4013189453125,30.076335877862597,96.7175572519084,-3.5572519083969465,-9.60793126220703,-0.9792284790039062,0.24660277099609373,-9.908396946564885,4.854961832061068,5.923664122137405,0.0
11.560000896453857,-9.923965881347655,1.6017209106445311,5.705382556152343,28.671755725190838,90.3206106870229,1.251908396946565,-9.4618849609375,-1.0366893188476562,-0.02633621826171875,-17.66412213740458,5.129770992366412,5.267175572519084,0.0
11.570000648498535,-10.575188732910156,2.4301146850585935,4.841075756835937,23.786259541984734,85.54198473282443,6.442748091603053,-10.922347973632812,-1.5275006591796874,-0.055066638183593745,-27.236641221374047,10.595419847328245,6.519083969465649,0.0
11.580000877380371,-10.335768566894531,1.8818425048828125,4.994304663085937,12.305343511450381,80.44274809160305,7.938931297709924,-10.625466967773438,-1.5107412475585937,-0.5770026000976562,-29.6793893129771,10.076335877862595,6.702290076335878,0.0
11.590000629425049,-10.77630167236328,1.189918225097656,6.148309863281249,5.435114503816794,73.40458015267176,7.404580152671755,-8.264784130859374,-0.7326257080078125,-0.0383072265625,-30.38167938931298,11.114503816793894,6.412213740458015,0.0
11.600000381469727,-10.673351000976561,0.718260498046875,6.5577183471679685,5.893129770992366,64.68702290076335,8.351145038167939,-7.694964135742187,0.29927520751953124,-0.4333505004882812,-38.33587786259542,13.19083969465649,6.473282442748092,0.0
11.610000371932983,-12.140996618652343,0.41898529052734373,7.577648254394531,4.534351145038168,55.099236641221374,9.49618320610687,-10.177751257324218,-2.1811177124023438,-0.0143652099609375,-36.6412213740458,20.35114503816794,11.725190839694656,0.0
11.62000060081482,-15.497667346191406,3.2728736694335936,9.014169250488282,1.0229007633587786,44.79389312977099,14.351145038167939,-9.303867651367186,-3.418919970703125,-0.469263525390625,-24.366412213740457,17.633587786259543,11.740458015267176,0.0
11.630000591278076,-16.764200024414063,5.674257934570313,6.885723974609375,-8.900763358778626,32.44274809160305,30.47328244274809,-12.67250938720703,-7.082048510742187,1.484405029296875,-1.5572519083969465,24.763358778625953,17.419847328244273,0.0
11.640000343322754,-14.990096594238281,4.572925170898437,4.821922143554687,-24.702290076335878,23.206106870229007,40.656488549618324,-8.020575561523437,-3.35188232421875,-0.4070142822265625,14.045801526717558,6.748091603053435,11.19083969465649,0.0
11.65000057220459,-14.769830041503905,2.27927998046875,3.84987626953125,-42.74809160305343,9.98473282442748,42.0763358778626,-9.890447058105469,-2.2194249389648437,-0.7972691528320313,18.091603053435115,6.106870229007634,12.885496183206106,0.0
11.660000562667847,-13.079523669433593,-0.6967126831054687,3.8283284545898435,-42.25954198473283,6.366412213740458,37.786259541984734,-10.110713610839843,-1.4724340209960938,-0.5434837768554687,15.969465648854962,6.625954198473282,14.702290076335878,0.0
11.670000553131104,-10.496180078124999,-1.8291700683593748,3.066972326660156,-41.25190839694657,0.7938931297709924,23.64885496183206,-9.828197814941406,-0.4740519287109375,-0.3280056274414062,12.458015267175572,7.099236641221374,16.27480916030534,0.0
11.68000054359436,-8.389282617187499,-2.8754361938476563,1.8124106567382812,-36.58015267175573,-0.12213740458015267,13.114503816793894,-9.93354268798828,-0.086191259765625,-0.38307226562499996,8.793893129770993,7.969465648854962,16.99236641221374,0.0
11.690000295639038,-7.3286512817382805,-3.0310593017578125,1.6065093139648436,-28.12213740458015,3.66412213740458,6.748091603053435,-9.674968908691406,0.45968671875,-0.6607996582031249,2.564885496183206,7.8320610687022905,17.374045801526716,0.0
11.700000524520874,-6.83783994140625,-2.422932080078125,0.6488286499023437,-15.17557251908397,7.099236641221374,2.6106870229007635,-9.239224206542968,0.6727706665039062,-0.7589619262695312,-4.229007633587786,8.381679389312977,18.0,0.0
11.71000075340271,-6.449979272460937,-0.7733271362304687,0.3112462158203125,-5.251908396946565,11.419847328244275,1.0687022900763359,-9.502586389160156,0.6679822631835937,-0.8092401611328125,-10.290076335877863,8.778625954198473,17.862595419847327,0.0
11.720000505447388,-6.955155822753905,0.7350199096679687,0.3806780639648437,-1.3893129770992367,15.633587786259541,2.4885496183206106,-9.581595043945311,0.8858546142578124,-0.8020575561523438,-17.83206106870229,8.412213740458014,17.603053435114504,0.0
11.730000495910645,-7.656656909179687,1.9871873779296874,0.9409212524414062,1.8473282442748091,20.748091603053435,5.984732824427481,-9.557653027343749,0.9074024291992187,-0.5817910034179687,-25.022900763358777,8.244274809160306,17.923664122137403,0.0
11.740000486373901,-8.975862023925782,3.4428619873046875,0.9002198242187499,-3.2977099236641223,21.480916030534353,9.358778625954198,-10.16338604736328,0.11252747802734374,-0.1149216796875,-28.12213740458015,9.358778625954198,19.282442748091604,0.0
11.750000715255737,-8.94473740234375,3.4931402221679684,1.1540052001953125,-9.938931297709924,22.076335877862597,12.213740458015268,-9.315838659667968,0.36631285400390623,-0.09576806640624999,-28.778625954198475,6.061068702290076,19.51145038167939,0.0
11.760000705718994,-9.995791931152343,3.687070556640625,1.4030021728515625,-19.083969465648856,21.69465648854962,13.34351145038168,-10.843339318847656,-0.8283937744140625,0.09337386474609374,-21.267175572519083,4.931297709923665,21.450381679389313,0.0
11.770000457763672,-9.643844287109374,2.8658593872070313,1.4508862060546874,-25.206106870229007,20.702290076335878,13.923664122137405,-9.93354268798828,0.00718260498046875,-0.40940848388671874,-20.15267175572519,0.07633587786259542,19.709923664122137,0.0
11.780000686645508,-9.962273107910155,2.5953145996093747,1.4245499877929686,-29.83206106870229,20.366412213740457,14.427480916030534,-9.141061938476563,0.40222587890625,-0.06703764648437499,-29.603053435114504,3.5572519083969465,19.0381679389313,0.0
11.790000438690186,-10.89840595703125,3.4261025756835934,2.1164742675781247,-38.274809160305345,19.6793893129771,15.16030534351145,-10.165780249023436,-0.9169792358398436,0.19393033447265623,-25.51145038167939,6.106870229007634,22.076335877862597,0.0
11.8000009059906,-10.874463940429687,2.935291235351562,1.9009961181640624,-42.10687022900763,17.389312977099237,16.53435114503817,-10.098742602539062,-1.1085153686523437,0.14125789794921875,-20.870229007633586,5.251908396946565,22.427480916030536,0.0
11.810000658035278,-10.405200415039062,2.5234885498046875,1.7453730102539062,-42.36641221374046,16.198473282442748,19.34351145038168,-9.991003527832031,-1.216254443359375,-0.023942016601562498,-15.465648854961833,4.366412213740458,21.83206106870229,0.0
11.820000648498535,-11.212046374511718,3.574543078613281,2.1978771240234374,-49.43511450381679,14.65648854961832,19.358778625954198,-10.254365710449218,-1.209071838378906,-0.0909796630859375,-9.648854961832061,5.511450381679389,21.908396946564885,0.0
11.830000638961792,-9.016563452148437,1.2737152832031249,1.4437036010742186,-45.38931297709924,13.511450381679388,22.045801526717558,-9.775525378417969,-0.5746083984375,-0.14604630126953125,-5.923664122137405,5.175572519083969,21.480916030534353,0.0
11.840000867843628,-10.156203442382813,2.4444798950195312,2.0566192260742184,-48.74809160305343,12.946564885496183,19.572519083969464,-10.1131078125,-0.44532150878906246,-0.17238251953125,-2.9770992366412212,5.129770992366412,21.541984732824428,0.0
11.850000619888306,-9.303867651367186,1.2665326782226562,2.0757728393554684,-42.458015267175576,13.16030534351145,20.50381679389313,-10.149020837402343,-0.3447650390625,-0.0383072265625,-1.8931297709923665,5.938931297709924,21.053435114503817,0.0
11.860000610351562,-9.22485899658203,0.9026140258789062,1.924938134765625,-40.62595419847328,12.13740458015267,18.549618320610687,-10.395623608398436,-0.13168109130859373,0.00718260498046875,0.061068702290076333,5.511450381679389,20.38167938931298,0.0
11.87000036239624,-8.552088330078124,0.0383072265625,1.70467158203125,-32.56488549618321,13.236641221374045,17.557251908396946,-10.304643945312499,0.12689268798828124,0.1867477294921875,-0.3511450381679389,4.580152671755725,18.900763358778626,0.0
11.880000352859497,-8.655039001464843,-0.0143652099609375,1.8052280517578123,-24.68702290076336,13.17557251908397,15.358778625954198,-10.273519323730468,0.49799394531249996,0.17956512451171874,-1.3435114503816794,3.877862595419847,17.297709923664122,0.0
11.890000581741333,-9.117119921875,0.7302315063476562,1.7334020019531249,-17.282442748091604,12.763358778625955,13.969465648854962,-10.36210478515625,0.7996633544921875,0.181959326171875,-4.061068702290076,3.3740458015267176,16.061068702290076,0.0
11.90000057220459,-9.121908325195312,0.8379705810546875,1.9009961181640624,-10.702290076335878,14.198473282442748,12.290076335877863,-10.345345373535155,0.9744400756835937,0.43574470214843747,-7.450381679389313,2.50381679389313,16.16793893129771,0.0
11.910000562667847,-9.196128576660156,0.7948749511718749,2.0254946044921875,-5.175572519083969,13.435114503816793,10.396946564885496,-10.398017810058594,0.9361328491210937,0.7015010864257812,-12.030534351145038,0.5648854961832062,15.83206106870229,0.0
11.920000553131104,-9.504980590820312,0.8475473876953125,2.1356278808593747,0.5648854961832062,11.32824427480916,7.969465648854962,-10.524910498046875,0.8834604125976562,0.9744400756835937,-15.786259541984732,-1.5419847328244274,15.770992366412214,0.0
11.93000078201294,-9.41639512939453,1.1444283935546875,2.0254946044921875,7.221374045801527,10.259541984732824,5.908396946564886,-10.218452685546874,0.7110778930664062,0.9361328491210937,-19.022900763358777,-4.9465648854961835,16.27480916030534,0.0
11.940000534057617,-9.481038574218749,1.6543933471679686,1.9656395629882812,11.98473282442748,9.465648854961833,3.83206106870229,-10.307038146972655,0.6344634399414062,0.9026140258789062,-21.84732824427481,-8.229007633587786,16.580152671755727,0.0
11.950000762939453,-9.289502441406249,1.608903515625,1.8171990600585937,14.106870229007633,7.32824427480916,1.1603053435114503,-10.443507641601562,0.44532150878906246,0.8547299926757812,-23.908396946564885,-9.618320610687023,15.114503816793894,0.0
11.960000276565552,-9.41639512939453,1.6328455322265625,1.7190367919921874,15.129770992366412,5.282442748091603,-1.5419847328244274,-11.755530151367187,-0.8188169677734375,0.5195417602539062,-15.251908396946565,-10.213740458015268,16.244274809160306,0.0
11.970000982284546,-9.5384994140625,2.7198130859375,1.39821376953125,15.740458015267176,4.778625954198473,-3.099236641221374,-10.596736547851561,1.7525556152343749,-1.4006079711914061,-14.732824427480915,-15.938931297709924,10.030534351145038,0.0
11.980000495910645,-9.318232861328125,4.165910888671875,0.9457096557617187,16.85496183206107,5.938931297709924,-1.83206106870229,-10.024522351074218,1.3479355346679687,-0.8092401611328125,-28.38167938931298,-9.893129770992367,8.106870229007633,0.0
11.990000486373901,-10.16338604736328,5.786785412597656,0.6464344482421874,3.6793893129770994,3.9083969465648853,-0.33587786259541985,-11.21683477783203,-0.12449848632812499,-0.6464344482421874,-24.3206106870229,-5.572519083969466,8.442748091603054,0.0
12.000000476837158,-10.182539660644531,6.5026517089843745,1.0726023437499999,-13.648854961832061,3.099236641221374,1.1450381679389312,-10.896011755371093,-0.8259995727539062,-0.3902548706054687,-19.374045801526716,-5.236641221374046,6.366412213740458,0.0
12.010000705718994,-9.957484704589843,4.707000463867187,0.8882488159179687,-19.358778625954198,2.2290076335877864,5.022900763358779,-10.78348427734375,-1.0773907470703123,0.18435352783203124,-13.389312977099237,-7.0534351145038165,3.618320610687023,0.0
12.020000457763672,-9.196128576660156,3.1771056030273437,1.0989385620117187,-21.938931297709924,2.519083969465649,6.488549618320611,-10.596736547851561,-0.59376201171875,0.8786720092773437,-6.931297709923665,-8.870229007633588,1.4961832061068703,0.0
12.030000686645508,-8.698134631347656,1.7381904052734374,0.9002198242187499,-20.396946564885496,2.3053435114503817,8.534351145038167,-10.340556970214843,-0.39264907226562495,1.43652099609375,-4.0458015267175576,-10.366412213740459,-0.3969465648854962,0.0
12.040000915527344,-8.772354882812499,0.8930372192382812,0.6177040283203125,-19.114503816793892,3.2213740458015265,7.099236641221374,-9.911994873046874,-0.0143652099609375,1.407790576171875,-3.6030534351145036,-12.977099236641221,-2.6106870229007635,0.0
12.050000667572021,-9.445125549316407,1.0103531005859374,0.7230489013671875,-23.908396946564885,0.15267175572519084,4.137404580152672,-10.165780249023436,-0.1005564697265625,1.7166425903320313,-2.3053435114503817,-14.366412213740459,-4.137404580152672,0.0
12.060000896453857,-10.649408984374999,2.042254016113281,1.3335703247070312,-21.404580152671755,3.66412213740458,0.2595419847328244,-9.947907897949218,-0.055066638183593745,1.879448303222656,-2.9618320610687023,-15.770992366412214,-6.0458015267175576,0.0
12.070000648498535,-9.05965908203125,-0.32561142578124996,0.97683427734375,-9.053435114503817,4.9465648854961835,-0.33587786259541985,-10.70686982421875,-1.7645266235351562,2.7198130859375,4.473282442748092,-16.977099236641223,-5.648854961832061,0.0
12.08000111579895,-9.708487731933593,0.7398083129882812,1.5825672973632812,-0.183206106870229,9.893129770992367,-4.809160305343512,-9.435548742675781,-0.32082302246093747,1.35990654296875,8.076335877862595,-27.541984732824428,-11.297709923664122,0.0
12.090000629425049,-9.91438907470703,1.1444283935546875,1.467645617675781,-0.6412213740458015,6.8396946564885495,-7.770992366412214,-10.046070166015625,-1.7908628417968748,1.9656395629882812,13.374045801526718,-29.587786259541986,-11.679389312977099,0.0
12.100000619888306,-9.574412438964844,0.699106884765625,1.2018892333984375,2.7938931297709924,6.030534351145038,-8.122137404580153,-9.9981861328125,-1.5729904907226562,2.0733786376953125,25.557251908396946,-37.45038167938932,-13.251908396946565,0.0
12.110000848770142,-9.406818322753905,0.8116343627929687,1.3646949462890625,9.465648854961833,7.343511450381679,-9.450381679389313,-8.494627490234375,1.4508862060546874,1.0127473022460938,22.763358778625953,-44.19847328244275,-18.38167938931298,0.0
12.120000839233398,-9.10993731689453,1.6017209106445311,1.5682020874023437,10.977099236641221,8.335877862595419,-10.061068702290076,-7.922413293457031,1.9656395629882812,0.9744400756835937,3.099236641221374,-41.12977099236641,-17.64885496183206,0.0
12.130000591278076,-9.380482104492186,2.370259643554687,2.1068974609374997,7.358778625954199,7.083969465648855,-10.977099236641221,-9.009380847167968,0.4860229370117187,1.5777788940429687,-4.198473282442748,-38.38167938931298,-12.80916030534351,0.0
12.140000581741333,-9.588777648925781,2.2074539306640624,2.3367408203125,7.114503816793893,4.870229007633588,-10.274809160305344,-8.777143286132812,-0.20829554443359374,0.9816226806640624,-0.8244274809160306,-42.732824427480914,-14.13740458015267,0.0
12.15000033378601,-9.5001921875,1.5442600708007812,2.370259643554687,9.587786259541986,2.33587786259542,-7.9541984732824424,-8.67658681640625,0.12210428466796874,1.3718775512695311,-2.122137404580153,-42.50381679389313,-16.85496183206107,0.0
12.160000562667847,-9.244012609863281,1.3048399047851562,2.379836450195312,12.106870229007633,0.8702290076335878,-6.656488549618321,-8.087613208007811,1.0749965454101562,1.0989385620117187,-11.877862595419847,-42.656488549618324,-19.328244274809162,0.0
12.170000314712524,-9.112331518554686,1.68551796875,2.528276953125,12.961832061068701,-0.8244274809160306,-6.442748091603053,-7.917624890136718,0.6847416748046875,0.5195417602539062,-23.938931297709924,-38.18320610687023,-18.076335877862597,0.0
12.18000054359436,-9.081206896972656,1.675941162109375,2.8945898071289062,12.564885496183207,-2.9160305343511452,-7.404580152671755,-10.12507882080078,-0.0526724365234375,0.488417138671875,-18.38167938931298,-33.69465648854962,-15.83206106870229,0.0
12.190000295639038,-9.533711010742186,1.5945383056640625,3.4668040039062498,13.908396946564885,-7.145038167938932,-7.923664122137405,-9.622296472167967,-1.3287819213867187,1.1635820068359375,-11.664122137404581,-35.06870229007634,-16.366412213740457,0.0
12.200000524520874,-9.447519750976562,0.9983820922851562,3.778050219726562,19.64885496183206,-9.709923664122137,-6.748091603053435,-10.611101757812499,-4.572925170898437,3.411737365722656,-2.3053435114503817,-34.18320610687023,-15.32824427480916,0.0
12.21000051498413,-9.430760339355468,2.683900061035156,4.429273071289062,22.396946564885496,-14.01526717557252,-8.641221374045802,-8.078036401367187,-0.5099649536132812,0.9600748657226562,10.580152671755725,-46.732824427480914,-22.38167938931298,0.0
12.220000267028809,-11.398794104003905,5.1140147460937495,5.45877978515625,8.122137404580153,-23.099236641221374,-10.82442748091603,-7.934384301757812,0.25139117431640623,1.3239935180664062,-2.427480916030534,-39.55725190839695,-24.595419847328245,0.0
12.230000495910645,-10.462661254882812,4.417302062988281,5.832275244140624,-10.900763358778626,-38.87022900763359,-9.465648854961833,-8.947131604003905,0.603338818359375,0.8283937744140625,-6.6106870229007635,-36.961832061068705,-23.282442748091604,0.0
12.240000486373901,-9.423577734375,1.9895815795898437,5.849034655761718,-17.374045801526716,-50.76335877862596,-9.755725190839694,-10.206481677246094,-0.9313444458007812,0.8762778076171874,-9.206106870229007,-30.717557251908396,-21.022900763358777,0.0
12.250000476837158,-8.853757739257812,-0.1005564697265625,5.6191912963867185,-11.19083969465649,-58.68702290076336,-11.16030534351145,-9.94072529296875,-2.4660277099609376,1.6927005737304686,9.236641221374045,-36.732824427480914,-21.374045801526716,0.0
12.260000467300415,-8.619125976562499,-1.3215993164062498,4.508281726074219,6.793893129770993,-63.725190839694655,-12.687022900763358,-9.062053283691405,-1.8315642700195311,1.675941162109375,23.51145038167939,-41.64885496183206,-25.938931297709924,0.0
12.270000696182251,-8.068459594726562,-1.2904746948242187,3.1411925781249996,22.564885496183205,-67.00763358778626,-14.549618320610687,-7.620743884277343,-0.09576806640624999,1.1875240234375,21.0381679389313,-42.732824427480914,-30.137404580152673,0.0
12.280000686645508,-7.074865905761718,0.19632453613281248,1.944091748046875,28.412213740458014,-67.8473282442748,-16.793893129770993,-7.098807922363281,0.277727392578125,0.9720458740234375,12.732824427480915,-37.51145038167939,-30.442748091603054,0.0
12.290000677108765,-6.782773303222656,1.438915197753906,0.6751648681640625,29.87786259541985,-67.6793893129771,-16.82442748091603,-8.549694128417968,-1.16837041015625,1.2761094848632812,18.106870229007633,-32.54961832061068,-28.442748091603054,0.0
12.3000009059906,-7.0102224609374995,2.463633508300781,0.7015010864257812,38.50381679389313,-60.99236641221374,-17.374045801526716,-8.98304462890625,-1.714248388671875,1.2401964599609374,37.343511450381676,-36.33587786259542,-27.51145038167939,0.0
12.310000658035278,-6.9719152343749995,3.4069489624023435,0.4908113403320312,47.31297709923664,-57.87786259541985,-13.450381679389313,-7.206546997070312,-0.18435352783203124,0.7972691528320313,44.94656488549618,-41.343511450381676,-29.923664122137403,0.0
12.320000886917114,-7.0269818725585935,4.158728283691406,0.36152445068359373,53.954198473282446,-48.44274809160305,-4.793893129770993,-6.89530078125,0.1292868896484375,0.28490999755859375,33.80152671755725,-37.083969465648856,-29.251908396946565,0.0
12.330000400543213,-8.190563879394531,6.694187841796874,0.5458779785156249,47.48091603053435,-40.83969465648855,4.396946564885496,-8.288726147460936,-1.2210428466796874,1.2401964599609374,31.923664122137403,-32.62595419847328,-25.755725190839694,0.0
12.340000629425049,-8.221688500976562,6.045359191894531,1.1252747802734375,31.480916030534353,-34.47328244274809,11.038167938931299,-8.913612780761719,-0.8259995727539062,1.1635820068359375,42.38167938931298,-34.961832061068705,-25.83206106870229,0.0
12.350000381469727,-7.953537915039062,4.678270043945313,1.6232687255859375,30.702290076335878,-26.53435114503817,16.977099236641223,-8.238447912597655,-0.3136404174804687,1.13006318359375,41.465648854961835,-34.35114503816794,-27.64885496183206,0.0
12.360000371932983,-9.756371765136718,7.055712292480468,3.421314172363281,15.633587786259541,-22.65648854961832,18.595419847328245,-9.334992272949219,0.18914193115234373,1.0917559570312498,32.51908396946565,-28.091603053435115,-26.0,0.0
12.37000036239624,-8.267178332519531,4.639962817382812,3.3542765258789062,7.7251908396946565,-21.435114503816795,25.908396946564885,-8.355763793945313,1.6543933471679686,1.2401964599609374,13.145038167938932,-22.702290076335878,-24.99236641221374,0.0
12.380000352859497,-8.99501563720703,3.8762124877929685,3.23696064453125,-10.473282442748092,-20.977099236641223,23.46564885496183,-10.83376251220703,0.181959326171875,1.5035586425781249,11.572519083969466,-22.091603053435115,-20.671755725190838,0.0
12.390000581741333,-9.33978067626953,1.5921441040039062,3.7014357666015623,-19.083969465648856,-21.908396946564885,18.717557251908396,-10.347739575195313,0.9026140258789062,1.8531120849609375,8.580152671755725,-19.755725190839694,-22.519083969465647,0.0
12.40000057220459,-7.869740856933594,-1.5011644409179687,3.6942531616210936,-9.938931297709924,-20.885496183206108,14.961832061068701,-9.41639512939453,1.6543933471679686,1.7381904052734374,-0.5343511450381679,-20.427480916030536,-23.34351145038168,0.0
12.410000562667847,-7.821856823730468,-1.4317325927734375,3.6272155151367187,0.13740458015267176,-18.18320610687023,8.732824427480915,-10.1131078125,1.1947066284179686,1.675941162109375,-9.740458015267176,-19.404580152671755,-22.870229007633586,0.0
12.420000553131104,-7.625532287597656,-1.0702081420898437,2.578555187988281,9.969465648854962,-15.725190839694656,0.7480916030534351,-9.6151138671875,1.1947066284179686,2.0566192260742184,-20.198473282442748,-17.19083969465649,-22.625954198473284,0.0
12.43000078201294,-7.5537062377929685,-0.6272808349609375,2.6001030029296874,14.045801526717558,-13.633587786259541,-5.038167938931298,-8.796296899414061,1.24498486328125,2.2194249389648437,-26.15267175572519,-17.022900763358777,-21.374045801526716,0.0
12.440000534057617,-8.008604553222655,1.4963760375976562,2.530671154785156,16.045801526717558,-10.549618320610687,-9.312977099236642,-8.262389929199218,0.86191259765625,1.944091748046875,-31.954198473282442,-15.908396946564885,-19.068702290076335,0.0
12.450000762939453,-9.02135185546875,4.1563340820312495,2.6001030029296874,8.488549618320612,-8.122137404580153,-9.374045801526718,-7.682993127441406,0.11013327636718749,1.8531120849609375,-34.67175572519084,-12.442748091603054,-16.229007633587788,0.0
12.46000051498413,-9.203311181640624,4.75009609375,2.7629087158203123,-8.244274809160306,-6.595419847328245,-7.755725190839694,-6.713341455078124,-0.4740519287109375,1.5107412475585937,-32.76335877862596,-8.50381679389313,-14.427480916030534,0.0
12.470000982284546,-10.16338604736328,4.936843823242187,3.5122938354492184,-26.045801526717558,-5.6183206106870225,-7.083969465648855,-7.697358337402343,-1.8938135131835936,1.0414777221679687,-21.923664122137403,-2.33587786259542,-12.045801526717558,0.0
12.480000495910645,-9.114725720214842,1.599326708984375,3.438073583984375,-30.53435114503817,-5.068702290076335,-3.801526717557252,-8.334215979003906,-1.9967641845703124,1.218648645019531,-12.473282442748092,3.7557251908396947,-12.763358778625955,0.0
12.49000072479248,-7.625532287597656,0.023942016601562498,3.0526071166992184,-22.610687022900763,1.282442748091603,-4.458015267175573,-8.889670764160156,-0.5578489868164063,1.6232687255859375,-8.992366412213741,9.48091603053435,-14.50381679389313,0.0
12.500000476837158,-8.95670841064453,0.9935936889648437,2.760514514160156,-16.412213740458014,5.297709923664122,-7.572519083969466,-8.942343200683593,-1.5514426757812498,2.9664158569335934,-8.01526717557252,19.0381679389313,-7.450381679389313,0.0
12.510000944137573,-8.360552197265624,0.8810662109374999,3.2537200561523436,-11.618320610687023,8.793893129770993,-9.541984732824428,-8.741230261230468,-0.296881005859375,1.9704279663085937,-0.5648854961832062,17.938931297709924,-0.15267175572519084,0.0
12.520000696182251,-8.10197841796875,1.0223241088867188,3.6272155151367187,-5.343511450381679,11.694656488549619,-12.15267175572519,-9.246406811523437,1.8435352783203125,1.2880804931640624,-5.038167938931298,23.923664122137403,1.9541984732824427,0.0
12.530000686645508,-9.006986645507812,1.7549498168945312,4.211400720214844,-4.625954198473282,11.297709923664122,-15.801526717557252,-9.926360083007811,3.306392492675781,2.138022082519531,-25.87786259541985,33.29770992366412,-0.0,0.0
12.540001153945923,-8.418013037109375,1.668758557128906,4.122815258789062,-1.9236641221374047,9.206106870229007,-17.908396946564885,-12.878410729980468,-1.4867992309570313,4.185064501953125,-43.98473282442748,41.64885496183206,4.6106870229007635,0.0
12.550000667572021,-9.303867651367186,2.422932080078125,4.458003491210937,-1.8473282442748091,7.297709923664122,-21.34351145038168,-14.990096594238281,-5.190629199218749,5.082890124511718,-29.755725190839694,30.65648854961832,2.8702290076335877,0.0
12.560000896453857,-9.610325463867188,2.1811177124023438,4.651933825683593,-2.183206106870229,3.1908396946564888,-22.900763358778626,-14.915876342773437,-3.2130186279296873,4.510675927734375,-20.68702290076336,22.732824427480917,-6.519083969465649,0.0
12.570000648498535,-10.141838232421874,2.085349645996094,4.853046765136718,-2.3206106870229006,-1.4045801526717556,-25.19083969465649,-15.86398020019531,-5.643133312988281,3.938461730957031,-18.549618320610687,18.12213740458015,-13.17557251908397,0.0
12.580000877380371,-11.314997045898437,1.848323681640625,5.209782812499999,-6.732824427480916,-9.34351145038168,-28.290076335877863,-17.681179260253906,-6.983886242675781,3.392583752441406,7.587786259541985,9.740458015267176,-16.33587786259542,0.0
12.59000039100647,-12.828132495117186,1.180341418457031,6.969521032714844,-0.9618320610687023,-13.954198473282442,-28.412213740458014,-12.394781994628906,-1.0630255371093749,1.5442600708007812,22.18320610687023,-1.9389312977099236,-20.229007633587788,0.0
12.600000858306885,-14.46097802734375,2.454056701660156,8.283937744140625,8.50381679389313,-22.35114503816794,-23.419847328244273,-10.062829577636718,0.6775590698242188,0.5865794067382812,10.183206106870228,4.9465648854961835,-15.923664122137405,0.0
12.610000848770142,-15.397110876464843,2.1906945190429687,8.916006982421875,8.458015267175572,-38.900763358778626,-16.83969465648855,-8.884882360839843,1.9871873779296874,-0.6679822631835937,3.0381679389312977,2.900763358778626,-8.229007633587786,0.0
12.62000060081482,-14.618995336914061,-3.39018955078125,5.913678100585937,27.786259541984734,-56.76335877862596,-7.236641221374046,-5.367800122070312,4.240131140136718,-0.9361328491210937,-15.954198473282442,10.030534351145038,-4.977099236641221,0.0
12.630000591278076,-13.374010473632811,-2.43250888671875,7.682993127441406,56.274809160305345,-52.29007633587786,-7.572519083969466,-6.045359191894531,2.5737667846679684,-1.149216796875,-38.213740458015266,25.96946564885496,0.8549618320610687,0.0
12.640000343322754,-13.409923498535155,1.3263877197265623,8.157045056152343,40.2442748091603,-70.8854961832061,-12.687022900763358,-7.000645654296875,0.05985504150390625,-1.1276689819335937,-48.06106870229008,37.69465648854962,1.1755725190839694,0.0
12.65000057220459,-14.51125626220703,1.6136919189453125,7.52737001953125,22.625954198473284,-86.12213740458016,-12.274809160305344,-10.31661495361328,-5.336675500488281,-0.3016694091796875,-44.045801526717554,49.14503816793893,7.236641221374046,0.0
12.660000562667847,-11.935095275878906,-1.1707646118164061,5.1882349975585935,18.870229007633586,-98.79389312977099,-9.17557251908397,-10.378864196777343,-5.430049365234375,-0.7757213378906249,-13.099236641221374,43.57251908396947,5.083969465648855,0.0
12.670000553131104,-10.137049829101562,-2.6886884643554687,3.248931652832031,28.610687022900763,-103.20610687022901,-12.259541984732824,-10.09395419921875,-5.228936425781249,-0.7876923461914062,4.106870229007634,48.76335877862596,4.412213740458015,0.0
12.68000054359436,-9.991003527832031,-2.7940333374023436,2.157175695800781,29.17557251908397,-104.27480916030534,-16.83969465648855,-11.643002673339844,-5.832275244140624,-0.5889736083984375,27.938931297709924,43.93893129770992,6.213740458015267,0.0
12.690000295639038,-8.856151940917968,-3.0238766967773434,0.7445967163085937,35.98473282442748,-101.05343511450381,-21.572519083969464,-9.435548742675781,-3.294421484375,-0.612915625,44.83969465648855,37.61832061068702,2.4885496183206106,0.0
12.700000524520874,-7.730877160644531,-1.4915876342773438,-0.3687070556640625,43.11450381679389,-92.74809160305344,-25.282442748091604,-8.815450512695312,-1.3431471313476562,-1.158793603515625,38.152671755725194,36.87022900763359,0.04580152671755725,0.0
12.71000075340271,-7.666233715820312,0.8499415893554687,-1.0295067138671874,33.908396946564885,-83.0381679389313,-28.68702290076336,-9.603142858886718,-0.2561795776367187,-0.6512228515624999,23.022900763358777,39.57251908396947,2.33587786259542,0.0
12.720000267028809,-7.714117749023437,1.3096283081054687,-1.0486603271484374,22.549618320610687,-71.89312977099236,-27.96946564885496,-10.13226142578125,-2.0302830078125,0.354341845703125,10.091603053435115,39.29770992366412,5.083969465648855,0.0
12.730000495910645,-8.061276989746093,0.9217676391601562,-0.4836287353515625,16.9618320610687,-60.274809160305345,-25.0381679389313,-11.915941662597655,-3.3327287109375,0.21787235107421873,12.488549618320612,37.541984732824424,5.709923664122138,0.0
12.740000486373901,-7.807491613769531,-0.20350714111328125,-0.4165910888671875,25.66412213740458,-44.83969465648855,-19.84732824427481,-11.602301245117188,-4.975151049804687,0.5027823486328125,18.229007633587788,31.587786259541986,5.083969465648855,0.0
12.750000476837158,-7.673416320800781,-0.4261678955078125,-0.316034619140625,33.16030534351145,-28.076335877862597,-16.99236641221374,-9.68454571533203,-2.901772412109375,-0.047884033203124995,22.519083969465647,25.358778625954198,1.1908396946564885,0.0
12.760000467300415,-9.313444458007812,0.7948749511718749,-0.16041151123046873,30.47328244274809,-16.137404580152673,-18.045801526717558,-9.72285294189453,-2.798821740722656,-0.05027823486328125,18.610687022900763,25.740458015267176,2.045801526717557,0.0
12.770000457763672,-8.295908752441406,1.467645617675781,-0.36631285400390623,25.267175572519083,-3.6030534351145036,-15.297709923664122,-9.253589416503905,-2.5139117431640625,0.12210428466796874,17.755725190839694,23.129770992366414,3.282442748091603,0.0
12.780000686645508,-8.640673791503906,3.6008792968749996,-0.12210428466796874,6.809160305343512,3.5572519083969465,-15.770992366412214,-9.193734375,-2.379836450195312,0.16998831787109375,17.541984732824428,22.870229007633586,2.931297709923664,0.0
12.790000438690186,-8.52335791015625,4.13718046875,0.16759411621093748,-18.50381679389313,6.854961832061068,-13.007633587786259,-8.997409838867187,-1.254561669921875,-0.19393033447265623,14.305343511450381,22.625954198473284,1.9389312977099236,0.0
12.8000009059906,-7.644685900878906,3.9312791259765625,0.46208092041015625,-40.534351145038165,11.877862595419847,-8.717557251908397,-9.579200842285156,-1.8124106567382812,0.24181436767578124,5.175572519083969,29.480916030534353,3.312977099236641,0.0
12.810000658035278,-7.034164477539062,2.27927998046875,0.3711012573242187,-55.603053435114504,15.32824427480916,-3.984732824427481,-10.742782849121093,-2.123656872558594,0.6464344482421874,4.198473282442748,31.46564885496183,2.9770992366412212,0.0
12.820000886917114,-7.292738256835937,2.157175695800781,1.0223241088867188,-63.19083969465649,21.557251908396946,-4.213740458015267,-10.43871923828125,-1.8004396484374998,0.7852981445312499,0.6412213740458015,31.87786259541985,3.786259541984733,0.0
12.830000638961792,-6.945579016113281,0.8475473876953125,0.8690952026367187,-70.80916030534351,23.389312977099237,-3.6793893129770994,-9.9981861328125,-0.9959878906249999,0.6440402465820312,-0.7938931297709924,26.045801526717558,3.5114503816793894,0.0
12.840001106262207,-6.191405493164062,-0.0526724365234375,0.7900865478515624,-68.18320610687023,30.106870229007633,-0.732824427480916,-8.616731774902343,0.27293898925781246,0.4644751220703125,-7.9541984732824424,22.03053435114504,4.152671755725191,0.0
12.850000619888306,-5.303156677246093,-1.8411410766601561,0.07900865478515624,-61.14503816793893,36.0,1.2213740458015268,-9.648632690429688,-0.062249243164062495,0.699106884765625,-14.091603053435115,24.076335877862597,7.206106870229007,0.0
12.860000610351562,-3.8953661010742184,-2.703053674316406,-0.3806780639648437,-43.86259541984733,47.587786259541986,1.5572519083969465,-10.601524951171875,-0.3232172241210937,0.28012159423828126,-20.53435114503817,26.977099236641223,8.51908396946565,0.0
12.87000060081482,-5.394136340332031,-2.080561242675781,0.28969840087890625,-41.6793893129771,57.87786259541985,-4.320610687022901,-10.702081420898438,-1.5634136840820312,-0.5578489868164063,-17.541984732824428,22.625954198473284,9.145038167938932,0.0
12.880000591278076,-5.0948611328124995,-3.246537451171875,0.7278373046875,-32.79389312977099,67.08396946564885,-7.236641221374046,-11.003750830078124,-3.641580725097656,-0.22026655273437498,-8.351145038167939,21.374045801526716,9.755725190839694,0.0
12.890000581741333,-6.6271501953125,-2.920926025390625,1.467645617675781,-20.412213740458014,75.41984732824427,-10.366412213740459,-9.737218151855469,-2.5665841796874997,-0.603338818359375,2.595419847328244,15.145038167938932,5.816793893129771,0.0
12.900000810623169,-8.269572534179687,-1.388636962890625,2.920926025390625,-10.595419847328245,82.03053435114504,-13.419847328244275,-9.883264453125,-2.1811177124023438,-0.82360537109375,5.312977099236641,14.778625954198473,5.526717557251908,0.0
12.910000562667847,-9.045293872070312,0.5099649536132812,4.4819455078125,-11.557251908396946,81.57251908396947,-14.427480916030534,-9.521740002441407,-1.4532804077148436,-0.469263525390625,7.816793893129771,14.0,6.473282442748092,0.0
12.920000791549683,-9.97903251953125,1.2401964599609374,5.882553479003906,-14.427480916030534,76.3969465648855,-11.83206106870229,-9.540893615722656,-1.2737152832031249,-0.40940848388671874,8.534351145038167,13.877862595419847,7.068702290076335,0.0
12.93000078201294,-10.053252770996092,0.3591302490234375,6.4643444824218745,-10.091603053435115,70.7175572519084,-6.534351145038168,-9.6151138671875,-1.3192051147460937,-0.0718260498046875,7.511450381679389,13.618320610687023,6.534351145038168,0.0
12.940000295639038,-10.134655627441406,-0.2753331909179687,7.055712292480468,-3.648854961832061,65.06870229007633,-4.183206106870229,-10.105925207519531,-1.429338391113281,0.0,5.938931297709924,13.98473282442748,7.099236641221374,0.0
12.950000762939453,-10.608707556152343,-0.086191259765625,7.668627917480468,1.7099236641221374,58.06106870229008,-3.053435114503817,-10.244788903808594,-1.697488977050781,-0.3591302490234375,3.633587786259542,13.389312977099237,7.66412213740458,0.0
12.96000051498413,-10.620678564453124,0.40940848388671874,6.866570361328125,12.51908396946565,51.83206106870229,0.916030534351145,-10.556035119628906,-1.8459294799804686,-0.47644613037109373,2.6259541984732824,12.427480916030534,9.099236641221374,0.0
12.970000743865967,-10.694898815917968,0.70868369140625,6.758831286621094,23.572519083969464,48.88549618320611,4.030534351145038,-10.386046801757812,-1.7166425903320313,-0.6488286499023437,1.5267175572519085,11.526717557251908,10.15267175572519,0.0
12.980000734329224,-12.27746611328125,1.3958195678710936,8.513781103515624,29.297709923664122,43.66412213740458,6.396946564885496,-10.046070166015625,-1.8698714965820311,-0.8164227661132812,-0.8244274809160306,11.404580152671755,11.221374045801527,0.0
12.990000486373901,-14.640543151855468,2.2385785522460937,9.370905297851563,36.58015267175573,35.48091603053435,14.381679389312977,-9.967061511230469,-2.47081611328125,-1.1013327636718748,-2.8091603053435112,11.709923664122137,11.618320610687023,0.0
13.000000476837158,-13.338097448730467,2.6599580444335937,6.756437084960937,35.43511450381679,21.6793893129771,23.49618320610687,-10.254365710449218,-2.7437551025390623,-1.2042834350585936,-2.900763358778626,11.465648854961833,11.572519083969466,0.0
13.010000705718994,-14.724340209960937,5.046977099609375,6.449979272460937,19.69465648854962,13.603053435114504,26.27480916030534,-9.91438907470703,-2.4516625,-1.0917559570312498,-2.3206106870229006,10.305343511450381,11.404580152671755,0.0
13.020000696182251,-12.138602416992187,0.8283937744140625,4.896142395019531,12.412213740458014,3.2519083969465647,31.603053435114504,-9.519345800781249,-1.7022773803710936,-0.8547299926757812,-3.236641221374046,10.091603053435115,11.725190839694656,0.0
13.030000686645508,-11.295843432617186,-0.06464344482421874,5.250484240722656,24.778625954198475,6.061068702290076,32.80916030534351,-9.485826977539062,-1.2210428466796874,-0.3854664672851562,-6.641221374045801,11.17557251908397,12.229007633587786,0.0
13.040000915527344,-10.290278735351562,0.9074024291992187,4.726154077148437,23.16030534351145,2.8702290076335877,28.366412213740457,-9.526528405761718,-0.6943184814453125,0.12449848632812499,-9.251908396946565,11.969465648854962,13.053435114503817,0.0
13.050000667572021,-9.852139831542969,3.864241479492187,4.328716601562499,-2.3053435114503817,-2.7786259541984735,22.977099236641223,-9.313444458007812,-0.0526724365234375,-0.00718260498046875,-14.961832061068701,12.625954198473282,13.893129770992367,0.0
13.060001134872437,-8.212111694335936,4.61602080078125,2.942473840332031,-30.763358778625953,-13.511450381679388,22.702290076335878,-8.839392529296875,-0.21068974609375,0.028730419921875,-17.770992366412212,11.816793893129772,14.244274809160306,0.0
13.070000648498535,-6.48589229736328,2.8898014038085935,2.27927998046875,-55.20610687022901,-15.98473282442748,24.366412213740457,-10.773907470703124,-0.9983820922851562,-0.12449848632812499,-20.137404580152673,16.015267175572518,16.076335877862597,0.0
13.080000877380371,-5.7149593627929685,-0.5578489868164063,2.741360900878906,-67.69465648854961,-9.83206106870229,26.793893129770993,-9.770736975097655,-0.2442085693359375,-0.28012159423828126,-18.885496183206108,12.610687022900763,15.083969465648854,0.0
13.090000629425049,-4.580107775878906,-2.288856787109375,2.7844565307617186,-59.12977099236641,0.32061068702290074,28.83969465648855,-10.129867224121092,-1.5514426757812498,0.08140285644531249,-25.46564885496183,17.389312977099237,18.076335877862597,0.0
13.100000381469727,-7.71890615234375,-0.93852705078125,2.916137622070312,-57.49618320610687,7.984732824427481,25.221374045801525,-10.031704956054687,-1.3575123413085937,-0.13407529296874998,-18.27480916030534,10.992366412213741,18.732824427480917,0.0
13.110000610351562,-7.958326318359375,-0.3854664672851562,2.5067291381835934,-51.083969465648856,13.358778625954198,22.396946564885496,-9.255983618164063,-0.430956298828125,-0.6751648681640625,-21.114503816793892,9.572519083969466,17.251908396946565,0.0
13.12000036239624,-6.842628344726562,-1.6639701538085936,1.1755530151367186,-44.56488549618321,16.946564885496183,21.34351145038168,-9.773131176757811,-0.8475473876953125,-0.33039982910156246,-31.96946564885496,14.213740458015268,18.763358778625953,0.0
13.130000591278076,-9.062053283691405,0.8978256225585937,1.675941162109375,-48.06106870229008,22.38167938931298,17.358778625954198,-9.162609753417968,-0.9888052856445312,0.05027823486328125,-36.534351145038165,12.763358778625955,19.603053435114504,0.0
13.140000581741333,-9.746794958496093,0.3902548706054687,1.369483349609375,-49.267175572519086,22.061068702290076,18.442748091603054,-10.271125122070313,-2.2457611572265623,0.16998831787109375,-28.519083969465647,10.580152671755725,21.221374045801525,0.0
13.15000057220459,-8.645462194824217,-2.023100402832031,0.8762778076171874,-27.404580152671755,27.87786259541985,25.099236641221374,-9.215282189941405,-1.6735469604492186,0.14604630126953125,-28.33587786259542,7.6183206106870225,19.72519083969466,0.0
13.160000562667847,-9.023746057128905,-1.1851298217773436,2.013523596191406,-4.442748091603053,37.69465648854962,25.49618320610687,-9.840168823242188,-2.133233679199219,0.5458779785156249,-27.587786259541986,8.549618320610687,20.595419847328245,0.0
13.170000553131104,-10.627861169433594,0.06943184814453125,2.806004345703125,9.236641221374045,41.12977099236641,23.755725190839694,-9.97903251953125,-2.0446482177734375,0.8092401611328125,-25.786259541984734,8.763358778625955,20.763358778625953,0.0
13.18000054359436,-11.049240661621093,1.697488977050781,3.258508459472656,8.580152671755725,39.69465648854962,22.48854961832061,-10.216058483886718,-2.27927998046875,0.9600748657226562,-22.625954198473284,7.526717557251908,21.31297709923664,0.0
13.190001010894775,-11.97100830078125,2.73896669921875,3.246537451171875,-2.2900763358778624,34.29007633587786,21.83206106870229,-10.36210478515625,-2.0877438476562498,0.9193734375,-20.091603053435115,4.366412213740458,21.46564885496183,0.0
13.200000286102295,-9.100360510253905,1.4820108276367188,2.123656872558594,-8.900763358778626,27.81679389312977,24.137404580152673,-10.050858569335936,-1.8938135131835936,0.9792284790039062,-18.99236641221374,2.5343511450381677,21.19083969465649,0.0
13.21000075340271,-8.267178332519531,0.316034619140625,1.3479355346679687,-11.938931297709924,28.48854961832061,24.65648854961832,-9.923965881347655,-1.4101847778320311,1.0582371337890624,-18.671755725190838,1.1603053435114503,20.30534351145038,0.0
13.220000505447388,-7.498639599609374,-0.6751648681640625,1.1731588134765625,-10.82442748091603,29.114503816793892,24.427480916030536,-9.935936889648437,-1.2737152832031249,1.180341418457031,-18.48854961832061,0.183206106870229,19.31297709923664,0.0
13.230000495910645,-8.844180932617187,-0.3711012573242187,2.29843359375,-7.404580152671755,33.89312977099237,22.38167938931298,-9.821015209960937,-1.0606313354492187,1.2952630981445312,-18.977099236641223,-1.5419847328244274,18.65648854961832,0.0
13.240000486373901,-7.924807495117187,-1.1468225952148436,1.8028338500976562,-5.038167938931298,28.396946564885496,21.72519083969466,-10.27830772705078,-1.218648645019531,1.3551181396484375,-18.80916030534351,-2.3969465648854964,18.045801526717558,0.0
13.250000238418579,-9.320627062988281,-1.149216796875,2.214636535644531,2.351145038167939,33.343511450381676,18.885496183206108,-10.467449658203124,-1.2737152832031249,1.438915197753906,-19.022900763358777,-5.32824427480916,16.519083969465647,0.0
13.260000467300415,-8.602366564941406,-0.40222587890625,1.8698714965820311,7.282442748091603,35.12977099236641,15.923664122137405,-10.817003100585938,-1.235408056640625,1.5155296508789062,-17.709923664122137,-7.022900763358779,14.488549618320612,0.0
13.270000457763672,-8.245630517578125,1.2114660400390624,1.8555062866210936,4.580152671755725,33.603053435114504,11.358778625954198,-10.503362683105468,-0.70868369140625,1.68551796875,-18.15267175572519,-10.183206106870228,12.366412213740459,0.0
13.280000448226929,-8.504204296874999,1.886630908203125,1.6400281372070311,-4.778625954198473,29.83206106870229,10.870229007633588,-10.587159741210938,-0.9193734375,1.6998831787109374,-19.87786259541985,-12.351145038167939,10.854961832061068,0.0
13.290000677108765,-9.483432775878907,2.2673089721679687,1.7645266235351562,-8.0,30.458015267175572,11.511450381679388,-9.97903251953125,-0.7422025146484375,1.5610194824218748,-19.64885496183206,-16.65648854961832,10.381679389312977,0.0
13.3000009059906,-10.419565624999999,2.7820623291015623,1.8195932617187498,-12.381679389312977,31.6793893129771,11.419847328244275,-9.677363110351562,-0.8643067993164062,1.3934253662109375,-20.015267175572518,-19.251908396946565,10.229007633587786,0.0
13.3100004196167,-10.575188732910156,2.7940333374023436,2.1116858642578125,-14.50381679389313,32.06106870229008,12.534351145038167,-10.532093103027343,-2.482787121582031,1.5658078857421873,-12.106870229007633,-21.81679389312977,11.450381679389313,0.0
13.320001125335693,-9.473855969238281,2.39420166015625,1.426944189453125,-11.740458015267176,31.068702290076335,12.931297709923664,-10.230423693847655,-1.4700398193359374,0.15322890625,-4.0,-30.396946564885496,8.030534351145038,0.0
13.330000638961792,-9.70369932861328,2.0829554443359375,2.128445275878906,-9.404580152671755,31.068702290076335,12.0,-8.856151940917968,-1.0965443603515623,1.2497732666015624,-8.931297709923664,-28.35114503816794,6.061068702290076,0.0
13.340000867843628,-10.577582934570312,2.7198130859375,2.0973206542968748,-13.49618320610687,28.65648854961832,9.969465648854962,-10.831368310546875,-1.3335703247070312,0.45489831542968745,-10.51908396946565,-30.015267175572518,5.022900763358779,0.0
13.350000619888306,-8.884882360839843,1.5394716674804687,1.9728221679687499,-17.81679389312977,23.740458015267176,8.977099236641221,-11.015721838378905,-2.8203695556640622,1.0797849487304687,-1.5114503816793894,-37.38931297709924,2.549618320610687,0.0
13.360000610351562,-10.347739575195313,2.501940734863281,2.243366955566406,-19.480916030534353,21.419847328244273,7.1603053435114505,-11.844115612792969,-3.6296097167968746,1.180341418457031,21.740458015267176,-45.6793893129771,-1.0229007633587786,0.0
13.37000060081482,-9.581595043945311,1.199495031738281,1.5346832641601562,-24.061068702290076,13.526717557251908,7.038167938931298,-10.91037696533203,0.32082302246093747,-0.3591302490234375,37.98473282442748,-57.725190839694655,-7.6183206106870225,0.0
13.380000591278076,-10.062829577636718,2.2481553588867187,1.5682020874023437,-18.091603053435115,13.938931297709924,7.450381679389313,-10.376469995117187,0.8906430175781249,-0.4644751220703125,27.053435114503817,-49.66412213740458,-7.0534351145038165,0.0
13.390000581741333,-8.894459167480468,1.5586252807617187,1.0821791503906248,-12.534351145038167,14.641221374045802,8.961832061068701,-11.085153686523437,0.14604630126953125,-0.679953271484375,39.038167938931295,-52.274809160305345,-5.511450381679389,0.0
13.40000057220459,-10.1131078125,3.373430139160156,0.9121908325195311,-13.34351145038168,14.595419847328245,5.755725190839694,-9.363722692871093,2.9640216552734375,-0.8212111694335937,33.38931297709924,-52.778625954198475,-8.396946564885496,0.0
13.410000562667847,-9.892841259765625,3.394977954101562,0.7398083129882812,-19.801526717557252,12.595419847328245,5.740458015267175,-10.019733947753906,1.2832920898437499,-0.076614453125,20.870229007633586,-42.595419847328245,-6.061068702290076,0.0
13.420000553131104,-9.991003527832031,3.306392492675781,0.7493851196289062,-26.12213740458015,11.129770992366412,5.480916030534351,-10.479420666503906,0.8020575561523438,-0.3758896606445312,23.099236641221374,-44.152671755725194,-6.519083969465649,0.0
13.43000078201294,-9.387664709472656,1.43652099609375,0.6871358764648438,-19.435114503816795,11.816793893129772,7.938931297709924,-9.804255798339844,1.867477294921875,0.06943184814453125,16.931297709923665,-40.274809160305345,-8.67175572519084,0.0
13.440000295639038,-9.595960253906249,2.090138049316406,1.1827356201171875,-13.282442748091603,13.34351145038168,7.8320610687022905,-8.78432589111328,1.8842367065429686,0.37828386230468747,1.816793893129771,-37.45038167938932,-8.213740458015268,0.0
13.450000762939453,-9.414000927734374,1.7597382202148437,1.2497732666015624,-12.488549618320612,11.526717557251908,7.190839694656488,-10.216058483886718,-0.2346317626953125,1.8148048583984373,-1.8931297709923665,-31.053435114503817,-5.236641221374046,0.0
13.46000051498413,-9.227253198242186,0.852335791015625,1.5753846923828123,-5.1603053435114505,10.687022900763358,4.977099236641221,-10.381258398437499,-0.70868369140625,1.2832920898437499,4.183206106870229,-35.29770992366412,-8.01526717557252,0.0
13.470000743865967,-10.283096130371094,1.5466542724609373,2.205059729003906,-2.8244274809160306,7.877862595419847,3.3282442748091605,-10.723629235839843,-1.7717092285156248,2.731784094238281,14.335877862595419,-37.14503816793893,-10.305343511450381,0.0
13.480000495910645,-9.643844287109374,1.16837041015625,2.152387292480469,5.190839694656488,5.435114503816794,3.9083969465648853,-9.670180505371093,-0.3016694091796875,1.7501614135742187,18.03053435114504,-45.02290076335878,-13.618320610687023,0.0
13.49000072479248,-9.586383447265625,1.4772224243164063,2.408566870117187,10.687022900763358,4.564885496183206,3.66412213740458,-8.231265307617187,1.9105729248046874,1.3000515014648437,6.519083969465649,-44.70229007633588,-15.221374045801527,0.0
13.500000715255737,-9.504980590820312,2.099714855957031,2.291250988769531,10.122137404580153,2.2900763358778624,2.183206106870229,-9.028534460449219,1.13006318359375,2.300827795410156,-6.213740458015267,-37.70992366412214,-11.83206106870229,0.0
13.510000705718994,-9.696516723632811,2.1068974609374997,2.252943762207031,5.557251908396947,-0.6259541984732825,-0.6259541984732825,-10.184933862304687,0.06943184814453125,2.039859814453125,-8.045801526717558,-37.282442748091604,-9.83206106870229,0.0
13.520000457763672,-9.327809667968749,1.2880804931640624,1.9752163696289062,6.641221374045801,-3.7557251908396947,-2.2595419847328246,-10.321403356933594,-1.6424223388671875,2.6599580444335937,2.0,-41.83206106870229,-10.16793893129771,0.0
13.530000686645508,-9.294290844726563,0.9840168823242187,1.8914193115234375,11.86259541984733,-5.297709923664122,-1.83206106870229,-8.74601866455078,-1.1707646118164061,2.7557261108398436,12.442748091603054,-54.93129770992366,-15.49618320610687,0.0
13.540000915527344,-8.647856396484375,0.5722141967773438,2.2577321655273437,20.65648854961832,-4.305343511450381,-2.519083969465649,-7.338228088378906,1.3000515014648437,1.4820108276367188,0.9312977099236641,-55.847328244274806,-20.702290076335878,0.0
13.550000667572021,-8.499415893554687,1.0606313354492187,3.1962592163085937,23.770992366412212,-3.816793893129771,-4.473282442748092,-7.639897497558593,0.24181436767578124,1.6807295654296874,-13.740458015267176,-49.847328244274806,-17.297709923664122,0.0
13.560000896453857,-8.896853369140624,1.5251064575195312,3.7924154296875,19.053435114503817,-7.374045801526718,-7.984732824427481,-9.361328491210937,-0.7972691528320313,2.2960393920898436,-9.465648854961833,-49.69465648854962,-14.51908396946565,0.0
13.570000410079956,-9.153032946777342,1.0342951171875,4.077325427246094,18.47328244274809,-12.580152671755725,-11.236641221374045,-8.779537487792968,-0.11013327636718749,1.426944189453125,0.42748091603053434,-55.74045801526717,-17.801526717557252,0.0
13.580000638961792,-8.52335791015625,1.0654197387695312,4.675875842285156,23.374045801526716,-16.30534351145038,-13.83206106870229,-7.163451367187499,1.5011644409179687,0.8930372192382812,-4.717557251908397,-53.66412213740458,-21.64885496183206,0.0
13.590000629425049,-8.334215979003906,3.1459809814453124,5.758054992675781,10.549618320610687,-28.229007633587788,-17.450381679389313,-7.79552060546875,1.2306196533203124,0.7876923461914062,-21.053435114503817,-44.01526717557252,-19.96946564885496,0.0
13.600000858306885,-9.91438907470703,4.395754248046875,6.301538769531249,-5.145038167938932,-39.29770992366412,-17.389312977099237,-7.671022119140624,0.28490999755859375,1.0510545288085937,-26.595419847328245,-44.396946564885496,-17.49618320610687,0.0
13.610000371932983,-9.023746057128905,2.8730419921875,5.693411547851563,-12.122137404580153,-52.213740458015266,-15.206106870229007,-9.018957653808593,0.24181436767578124,1.5275006591796874,-24.30534351145038,-35.29770992366412,-17.740458015267176,0.0
13.620000839233398,-8.698134631347656,2.221819140625,5.252878442382812,-8.13740458015267,-59.9236641221374,-13.557251908396946,-7.4579381713867186,-0.22026655273437498,0.9744400756835937,-20.870229007633586,-41.221374045801525,-20.9618320610687,0.0
13.630000352859497,-7.156268762207031,1.448492004394531,5.463568188476562,-9.49618320610687,-67.95419847328245,-12.870229007633588,-8.530540515136718,-1.678335363769531,1.649604943847656,-8.82442748091603,-42.152671755725194,-20.290076335877863,0.0
13.640000581741333,-7.484274389648437,2.9448680419921875,2.7365724975585937,-6.122137404580153,-74.29007633587786,-12.564885496183207,-7.548917834472656,-1.0462661254882812,1.3838485595703125,0.5190839694656488,-46.412213740458014,-22.977099236641223,0.0
13.65000057220459,-6.698976245117187,3.392583752441406,-0.4525041137695312,-15.48091603053435,-77.52671755725191,-12.442748091603054,-5.463568188476562,1.2114660400390624,0.5746083984375,-4.732824427480916,-44.42748091603053,-25.221374045801525,0.0
13.660000324249268,-7.115567333984375,4.378994836425781,-0.59376201171875,-20.671755725190838,-74.12213740458016,-11.83206106870229,-6.325480786132812,1.5538368774414062,0.5003881469726562,-14.916030534351146,-34.67175572519084,-22.244274809160306,0.0
13.670000553131104,-7.378929516601562,3.787627026367187,0.2537853759765625,-25.938931297709924,-70.0,-7.66412213740458,-6.83783994140625,-0.3758896606445312,1.388636962890625,-14.122137404580153,-32.44274809160305,-18.290076335877863,0.0
13.68000054359436,-6.351817004394531,-0.09816226806640624,0.16759411621093748,-12.992366412213741,-61.19083969465649,-0.7022900763358778,-8.717288244628906,-1.9704279663085937,1.608903515625,-0.030534351145038167,-31.221374045801525,-15.755725190839694,0.0
13.690000772476196,-7.082048510742187,-0.45968671875,0.37828386230468747,12.488549618320612,-48.229007633587784,1.3435114503816794,-7.802703210449218,-1.8363526733398436,1.3862427612304686,15.83206106870229,-36.33587786259542,-18.702290076335878,0.0
13.700000524520874,-9.018957653808593,2.480392919921875,2.0183119995117185,27.053435114503817,-38.3206106870229,1.5267175572519085,-6.5409589355468745,-0.4213794921875,0.9696516723632812,18.519083969465647,-33.83206106870229,-21.14503816793893,0.0
13.71000075340271,-10.647014782714843,5.111620544433594,2.906560815429687,25.81679389312977,-31.984732824427482,4.656488549618321,-7.702146740722656,-0.2154781494140625,1.2761094848632812,11.587786259541986,-22.259541984732824,-17.69465648854962,0.0
13.720000505447388,-9.332598071289063,3.385401147460937,2.834734765625,14.916030534351146,-30.12213740458015,5.9541984732824424,-8.291120349121094,-0.028730419921875,1.216254443359375,3.801526717557252,-13.236641221374045,-14.183206106870228,0.0
13.730000495910645,-9.72285294189453,2.29843359375,3.404554760742187,6.748091603053435,-26.18320610687023,0.1984732824427481,-9.548076220703125,-0.4381389038085937,1.4939818359375,5.343511450381679,-6.458015267175573,-13.053435114503817,0.0
13.740000486373901,-9.909600671386718,0.63206923828125,3.2130186279296873,3.6946564885496183,-26.50381679389313,-6.8396946564885495,-11.372457885742186,-2.0159177978515626,2.4396914916992185,14.427480916030534,-2.213740458015267,-13.358778625954198,0.0
13.750000476837158,-8.693346228027343,-0.6560112548828124,2.825157958984375,11.83206106870229,-24.38167938931298,-11.694656488549619,-10.970232006835937,-1.675941162109375,2.683900061035156,22.778625954198475,-0.7022900763358778,-16.80916030534351,0.0
13.760000705718994,-6.8569935546875,-0.8978256225585937,1.3431471313476562,26.33587786259542,-20.259541984732824,-15.282442748091603,-8.942343200683593,0.8499415893554687,2.1691467041015624,21.587786259541986,2.351145038167939,-20.137404580152673,0.0
13.770000696182251,-7.711723547363281,2.583343591308594,1.2737152832031249,33.83206106870229,-15.251908396946565,-19.633587786259543,-10.330980163574218,0.17956512451171874,2.252943762207031,17.862595419847327,7.511450381679389,-15.923664122137405,0.0
13.780000686645508,-9.440337145996093,5.147533569335937,2.3247698120117186,31.587786259541986,-12.534351145038167,-19.022900763358777,-11.384428894042967,-0.3806780639648437,2.422932080078125,23.64885496183206,8.16793893129771,-11.206106870229007,0.0
13.790000677108765,-9.576806640625,4.927267016601562,2.6001030029296874,28.85496183206107,-10.351145038167939,-14.763358778625955,-10.05564697265625,1.149216796875,3.303998291015625,17.908396946564885,11.587786259541986,-12.900763358778626,0.0
13.8000009059906,-10.539275708007812,5.983109948730468,2.9927520751953125,19.053435114503817,-5.603053435114504,-13.358778625954198,-10.16338604736328,0.24660277099609373,3.4739866088867184,10.458015267175572,13.587786259541986,-12.51908396946565,0.0
13.810000658035278,-11.274295617675781,6.926425402832031,3.88818349609375,1.297709923664122,-4.442748091603053,-11.49618320610687,-9.572018237304688,-0.9720458740234375,3.2920272827148436,6.2748091603053435,16.900763358778626,-10.274809160305344,0.0
13.820001125335693,-11.018116040039061,6.313509777832031,3.9049429077148434,-17.14503816793893,-4.0458015267175576,-9.770992366412214,-11.034875451660156,-1.4987702392578124,3.871424084472656,6.351145038167939,23.129770992366414,-9.068702290076336,0.0
13.830000638961792,-9.926360083007811,3.1483751831054687,4.082113830566406,-30.03053435114504,-5.450381679389313,-8.885496183206106,-12.588712329101561,0.3112462158203125,3.4524387939453125,4.473282442748092,26.885496183206108,-14.488549618320612,0.0
13.840000867843628,-9.433154541015625,-0.5291185668945312,4.745307690429687,-15.908396946564885,2.9160305343511452,-10.244274809160306,-12.23915888671875,1.5107412475585937,4.446032482910156,-3.5114503816793894,29.801526717557252,-19.603053435114504,0.0
13.850000381469727,-8.595183959960938,-0.28730419921875,4.376600634765625,-2.2900763358778624,8.198473282442748,-15.236641221374045,-11.669338891601562,1.7549498168945312,5.295974072265625,-20.33587786259542,34.67175572519084,-17.587786259541986,0.0
13.860000610351562,-9.758765966796874,0.8355763793945312,5.068524914550781,3.3893129770992365,6.137404580152672,-17.786259541984734,-13.278242407226562,-0.20829554443359374,5.147533569335937,-24.076335877862597,34.13740458015267,-9.374045801526718,0.0
13.87000060081482,-10.273519323730468,0.07900865478515624,5.853823059082031,14.427480916030534,3.984732824427481,-19.0381679389313,-13.220781567382812,0.09816226806640624,4.46279189453125,-17.587786259541986,26.47328244274809,-8.183206106870228,0.0
13.880000591278076,-11.422736120605467,-0.02633621826171875,6.842628344726562,25.908396946564885,-1.465648854961832,-19.96946564885496,-11.386823095703125,-0.5195417602539062,3.3590649291992185,-26.229007633587788,30.580152671755727,-10.854961832061068,0.0
13.890000343322754,-13.429077111816406,1.4125789794921875,8.70771143798828,40.18320610687023,-9.145038167938932,-18.763358778625953,-12.55758770751953,-2.8898014038085935,1.9728221679687499,-17.52671755725191,27.328244274809162,-5.312977099236641,0.0
13.90000033378601,-15.193603735351562,3.201047619628906,10.235212097167969,43.14503816793893,-25.984732824427482,-15.389312977099237,-10.204087475585936,-1.3000515014648437,0.7326257080078125,-3.3740458015267176,17.17557251908397,-3.8625954198473282,0.0
13.910000324249268,-15.648502050781248,4.707000463867187,11.054029064941405,28.748091603053435,-48.30534351145038,-12.549618320610687,-7.697358337402343,0.3447650390625,-0.6727706665039062,-5.343511450381679,17.31297709923664,-4.641221374045801,0.0
13.920000553131104,-13.5224509765625,1.3455413330078123,10.876858142089842,23.52671755725191,-66.85496183206106,-7.0534351145038165,-7.41244833984375,-0.143652099609375,-1.0438719238281249,-17.64885496183206,29.358778625954198,-2.854961832061069,0.0
13.93000078201294,-12.387599389648436,-2.300827795410156,9.337386474609374,34.80916030534351,-80.80916030534351,-6.473282442748092,-9.617508068847656,-2.710236279296875,-1.0438719238281249,-14.061068702290076,35.23664122137404,-0.6259541984732825,0.0
13.940000772476196,-13.453019128417967,-1.9776105712890624,8.95670841064453,29.068702290076335,-98.41221374045801,-17.267175572519083,-9.811438403320311,-3.423708374023437,-0.70868369140625,3.633587786259542,33.9236641221374,-5.068702290076335,0.0
13.950000524520874,-13.36203946533203,-2.1787235107421874,7.766790185546874,24.641221374045802,-114.76335877862596,-24.213740458015266,-8.501810095214843,-1.5370774658203123,-1.3814543579101561,13.49618320610687,35.89312977099237,-8.992366412213741,0.0
13.96000051498413,-12.248735693359373,-1.7334020019531249,5.664681127929687,23.19083969465649,-126.18320610687023,-30.106870229007633,-8.350975390624999,-0.7302315063476562,-1.6136919189453125,6.99236641221374,44.19847328244275,-7.099236641221374,0.0
13.970000505447388,-11.669338891601562,-1.3766659545898436,3.881000891113281,18.931297709923665,-136.19847328244273,-35.38931297709924,-10.551246716308594,-2.5234885498046875,-0.7134720947265625,12.305343511450381,47.81679389312977,-0.1984732824427481,0.0
13.980000495910645,-10.965443603515624,-1.6831237670898436,2.272097375488281,20.229007633587788,-139.40458015267177,-37.80152671755725,-10.649408984374999,-3.0454245117187497,-0.4165910888671875,28.9618320610687,46.091603053435115,0.5801526717557252,0.0
13.990000486373901,-9.53131680908203,-2.233790148925781,1.158793603515625,34.38167938931298,-137.08396946564886,-36.88549618320611,-8.827421520996094,-2.2577321655273437,-0.9433154541015625,38.85496183206107,39.7557251908397,-1.3282442748091603,0.0
14.000000476837158,-9.512163195800781,-1.0582371337890624,0.7541735229492187,44.274809160305345,-128.3206106870229,-36.10687022900763,-8.832209924316405,-1.2306196533203124,-0.7637503295898437,41.465648854961835,37.38931297709924,-1.083969465648855,0.0
14.010000705718994,-8.434772448730468,-0.06943184814453125,0.316034619140625,44.213740458015266,-120.91603053435115,-33.603053435114504,-8.573636145019531,-0.36631285400390623,0.1388636962890625,33.083969465648856,40.68702290076336,0.8091603053435115,0.0
14.020000696182251,-9.239224206542968,1.3383587280273437,0.603338818359375,45.87786259541985,-108.45801526717557,-29.908396946564885,-9.172186560058593,0.46686932373046874,-0.00718260498046875,19.862595419847327,45.25190839694657,3.877862595419847,0.0
14.030000448226929,-7.9272016967773435,1.3958195678710936,-0.19871873779296872,38.10687022900763,-100.62595419847328,-25.87786259541985,-11.4538607421875,-2.597708801269531,1.1348515869140625,15.312977099236642,49.404580152671755,10.458015267175572,0.0
14.040001153945923,-7.898471276855468,0.9935936889648437,-0.7326257080078125,26.610687022900763,-90.27480916030534,-24.671755725190838,-9.753977563476562,-3.1771056030273437,0.9193734375,26.30534351145038,37.786259541984734,7.938931297709924,0.0
14.050000667572021,-7.369352709960937,-0.5698199951171875,-0.6440402465820312,31.14503816793893,-76.1526717557252,-23.129770992366414,-9.390058911132812,-2.8850130004882812,0.603338818359375,30.732824427480917,34.396946564885496,3.7709923664122136,0.0
14.060000896453857,-8.480262280273436,1.3742717529296875,0.040701428222656245,30.16793893129771,-60.56488549618321,-21.541984732824428,-10.589553942871094,-3.8857892944335934,1.3287819213867187,31.251908396946565,32.74809160305343,4.687022900763359,0.0
14.070000410079956,-8.480262280273436,2.1906945190429687,0.02154781494140625,19.022900763358777,-51.89312977099237,-18.061068702290076,-10.007762939453125,-2.3630770385742186,1.5346832641601562,31.022900763358777,26.48854961832061,3.267175572519084,0.0
14.080000638961792,-8.403647827148436,2.9281086303710935,-0.4165910888671875,12.564885496183207,-40.01526717557252,-11.16030534351145,-10.01015714111328,-2.288856787109375,2.085349645996094,23.0381679389313,24.946564885496183,2.2442748091603053,0.0
14.090000629425049,-7.7763669921875,3.1866824096679687,-0.7733271362304687,1.450381679389313,-29.69465648854962,-4.412213740458015,-10.13226142578125,-2.3774422485351563,2.250549560546875,15.755725190839694,22.610687022900763,1.2671755725190839,0.0
14.100000619888306,-7.81467421875,3.5601778686523438,-0.8188169677734375,-9.49618320610687,-18.519083969465647,-0.22900763358778625,-9.885658654785155,-2.185906115722656,2.185906115722656,9.007633587786259,19.893129770992367,-0.030534351145038167,0.0
14.110000848770142,-7.003039855957031,3.0334535034179684,-0.9648632690429687,-20.732824427480917,-7.969465648854962,3.954198473282443,-9.866505041503906,-2.6431986328124997,1.93451494140625,3.9083969465648853,18.33587786259542,-0.6106870229007634,0.0
14.120000839233398,-5.717353564453124,1.5131354492187499,-1.649604943847656,-28.916030534351144,2.6717557251908395,8.900763358778626,-9.739612353515625,-2.7748797241210936,1.3934253662109375,1.2671755725190839,16.885496183206108,-0.42748091603053434,0.0
14.130000591278076,-4.594472985839843,0.5386953735351562,-1.66636435546875,-35.00763358778626,15.374045801526718,11.221374045801527,-9.648632690429688,-2.6695348510742187,1.0773907470703123,1.2366412213740459,14.778625954198473,-0.5190839694656488,0.0
14.140000581741333,-4.972756848144531,0.9002198242187499,-0.9504980590820312,-40.091603053435115,30.870229007633586,11.389312977099237,-9.2320416015625,-2.2960393920898436,0.7637503295898437,0.13740458015267176,14.549618320610687,-0.3053435114503817,0.0
14.15000057220459,-4.7955859252929685,0.9361328491210937,-0.7972691528320313,-52.13740458015267,41.282442748091604,8.580152671755725,-9.701305126953125,-2.370259643554687,0.46208092041015625,1.618320610687023,14.778625954198473,1.2213740458015268,0.0
14.160000324249268,-6.449979272460937,4.580107775878906,0.9457096557617187,-65.66412213740458,58.6412213740458,3.6793893129770994,-9.476250170898437,-1.7214309936523438,0.3112462158203125,4.259541984732825,14.045801526717558,1.2213740458015268,0.0
14.170000553131104,-7.539341027832031,3.210624426269531,0.852335791015625,-103.89312977099236,52.94656488549618,0.916030534351145,-9.737218151855469,-1.656787548828125,0.4381389038085937,6.977099236641221,13.603053435114504,3.2519083969465647,0.0
14.18000054359436,-3.660734338378906,-3.6631285400390623,1.0654197387695312,-81.02290076335878,69.16030534351145,13.419847328244275,-9.07163009033203,-1.0606313354492187,0.18435352783203124,7.480916030534351,12.549618320610687,4.809160305343512,0.0
14.190000772476196,-3.227383837890625,-4.915296008300781,2.370259643554687,-49.7557251908397,87.49618320610686,10.870229007633588,-9.200916979980468,-1.4772224243164063,0.45489831542968745,8.702290076335878,15.007633587786259,5.374045801526718,0.0
14.200000286102295,-3.883395092773437,-5.116408947753906,3.5577836669921874,-27.129770992366414,99.37404580152672,5.32824427480916,-9.253589416503905,-1.4437036010742186,0.5578489868164063,11.221374045801527,14.641221374045802,5.709923664122138,0.0
14.21000051498413,-4.7931917236328125,-4.376600634765625,4.180276098632812,0.9770992366412213,110.73282442748092,1.2366412213740459,-9.4618849609375,-1.7310078002929687,0.44532150878906246,13.282442748091603,14.778625954198473,6.8396946564885495,0.0
14.220000505447388,-5.983109948730468,-2.829946362304687,4.204218115234375,21.81679389312977,118.80916030534351,-2.3053435114503817,-9.785102185058593,-1.656787548828125,0.2753331909179687,14.870229007633588,13.007633587786259,7.6183206106870225,0.0
14.230000495910645,-7.8338278320312495,-0.1484405029296875,5.161898779296875,30.870229007633586,123.63358778625954,-4.595419847328245,-10.070012182617187,-1.4437036010742186,0.21068974609375,14.916030534351146,11.816793893129772,8.213740458015268,0.0
14.24000072479248,-8.908824377441405,0.4381389038085937,6.172251879882812,34.99236641221374,125.06870229007633,-3.4656488549618323,-10.024522351074218,-1.1731588134765625,0.18914193115234373,13.053435114503817,10.244274809160306,8.091603053435115,0.0
14.250000476837158,-9.552864624023437,1.1659762084960936,6.864176159667968,34.06106870229008,121.34351145038168,-1.3129770992366412,-10.388441003417968,-1.2473790649414063,0.40940848388671874,10.80916030534351,8.854961832061068,9.16030534351145,0.0
14.260000467300415,-10.263942517089843,1.20667763671875,7.615955480957031,31.740458015267176,116.44274809160305,0.366412213740458,-9.883264453125,-0.33758243408203126,0.24660277099609373,7.083969465648855,6.870229007633588,8.351145038167939,0.0
14.270000457763672,-10.43871923828125,1.2042834350585936,7.201758593749999,25.740458015267176,107.5114503816794,0.13740458015267176,-10.788272680664061,-0.411802685546875,0.35673604736328124,-0.9618320610687023,11.587786259541986,10.793893129770993,0.0
14.280000686645508,-10.742782849121093,0.5793968017578125,6.399701037597656,13.282442748091603,96.1526717557252,-1.6030534351145038,-9.583989245605467,-1.0678139404296874,0.8355763793945312,-4.030534351145038,11.755725190839694,11.511450381679388,0.0
14.290000438690186,-9.94072529296875,-2.3822306518554686,5.487510205078125,17.740458015267176,87.61832061068702,-1.0229007633587786,-9.449913952636718,-1.608903515625,0.11252747802734374,-3.9083969465648853,9.740458015267176,11.664122137404581,0.0
14.3000009059906,-11.947066284179687,-1.0366893188476562,6.320692382812499,26.106870229007633,87.40458015267176,-5.267175572519084,-9.713276135253906,-2.511517541503906,-0.105344873046875,-4.244274809160306,11.038167938931299,11.770992366412214,0.0
14.310000896453857,-12.064382165527343,-0.076614453125,5.439626171875,18.50381679389313,78.65648854961832,-7.022900763358779,-10.560823522949217,-3.2632968627929686,-0.5315127685546874,-2.3053435114503817,11.435114503816793,12.778625954198473,0.0
14.320000648498535,-12.571952917480468,0.14125789794921875,5.422866760253906,10.961832061068701,73.2824427480916,-7.938931297709924,-10.012551342773437,-2.844311572265625,-0.8283937744140625,1.984732824427481,10.885496183206106,12.198473282442748,0.0
14.330000638961792,-11.949460485839843,-0.584185205078125,5.894524487304687,15.312977099236642,65.86259541984732,-5.312977099236641,-9.418789331054686,-2.6599580444335937,-0.6679822631835937,4.595419847328245,13.511450381679388,12.381679389312977,0.0
14.340000629425049,-13.965378283691406,-0.2346317626953125,7.915230688476562,27.34351145038168,63.541984732824424,-2.1374045801526718,-8.432378247070313,-1.3407529296874998,-1.0031704956054688,3.9236641221374047,14.916030534351146,11.114503816793894,0.0
14.350000619888306,-14.578293908691405,3.229778039550781,8.085219006347655,34.030534351145036,53.38931297709924,5.236641221374046,-9.157821350097656,-1.2856862915039062,-0.842758984375,-8.778625954198473,26.610687022900763,12.900763358778626,0.0
14.360000610351562,-14.930241552734374,5.183446594238281,7.431601953125,19.87786259541985,40.87022900763359,14.946564885496183,-8.547299926757812,-1.2042834350585936,-1.0582371337890624,-13.801526717557252,22.931297709923665,12.931297709923664,0.0
14.370000839233398,-13.455413330078125,3.239354846191406,7.1778165771484375,3.9236641221374047,29.267175572519083,23.480916030534353,-9.552864624023437,-1.4030021728515625,-0.8020575561523438,-21.84732824427481,27.770992366412212,13.32824427480916,0.0
14.380000829696655,-12.717999218749998,0.6009446166992187,6.438008264160156,-8.793893129770993,18.229007633587788,23.450381679389313,-10.78348427734375,-2.990357873535156,0.11252747802734374,-23.17557251908397,31.251908396946565,15.98473282442748,0.0
14.390000581741333,-10.77630167236328,-1.3431471313476562,5.3007624755859375,-12.946564885496183,7.740458015267175,22.580152671755727,-10.496180078124999,-3.5146880371093747,0.24899697265624998,-18.106870229007633,24.671755725190838,15.816793893129772,0.0
14.400000810623169,-9.452308154296874,-1.1827356201171875,3.976768957519531,-9.068702290076336,4.091603053435114,20.748091603053435,-9.91438907470703,-2.729389892578125,0.9337386474609375,-4.5038167938931295,17.61832061068702,14.13740458015267,0.0
14.410000562667847,-7.8170684204101555,0.14604630126953125,2.825157958984375,-2.717557251908397,5.114503816793893,17.480916030534353,-9.885658654785155,-2.384624853515625,1.1252747802734375,1.282442748091603,14.259541984732824,13.893129770992367,0.0
14.420000553131104,-6.8402341430664055,1.2665326782226562,2.059013427734375,-7.282442748091603,6.213740458015267,15.786259541984732,-8.904035974121093,-0.38307226562499996,1.1133037719726562,5.251908396946565,8.83969465648855,12.900763358778626,0.0
14.430000305175781,-6.406883642578125,1.7717092285156248,1.7860744384765623,-14.916030534351146,9.49618320610687,13.725190839694656,-10.199299072265624,-0.737414111328125,0.7924807495117187,-1.9541984732824427,9.099236641221374,16.076335877862597,0.0
14.440000295639038,-6.366182214355469,1.3455413330078123,1.6136919189453125,-26.106870229007633,12.687022900763358,13.282442748091603,-10.058041174316406,-0.062249243164062495,0.7541735229492187,-4.534351145038168,5.145038167938932,16.244274809160306,0.0
14.450000762939453,-6.6893994384765625,0.8738836059570312,1.3766659545898436,-31.17557251908397,15.511450381679388,12.900763358778626,-9.89523546142578,0.01915361328125,0.5578489868164063,-11.038167938931299,4.183206106870229,15.725190839694656,0.0
14.46000051498413,-8.013392956542969,1.0917559570312498,1.714248388671875,-34.045801526717554,18.18320610687023,13.908396946564885,-10.024522351074218,0.105344873046875,0.5698199951171875,-17.49618320610687,3.236641221374046,15.86259541984733,0.0
14.470000743865967,-8.128314636230469,0.814028564453125,1.6831237670898436,-33.80152671755725,20.65648854961832,17.435114503816795,-9.591171850585937,0.43574470214843747,0.24660277099609373,-24.458015267175572,2.030534351145038,15.34351145038168,0.0
14.480000257492065,-8.549694128417968,0.7302315063476562,1.7190367919921874,-31.0381679389313,23.328244274809162,18.9618320610687,-9.643844287109374,0.07900865478515624,0.13407529296874998,-31.69465648854962,2.687022900763359,15.84732824427481,0.0
14.490000486373901,-6.718129858398437,-2.664746447753906,1.5035586425781249,-11.389312977099237,29.251908396946565,21.84732824427481,-9.320627062988281,-0.45968671875,0.143652099609375,-36.99236641221374,3.7099236641221376,15.893129770992367,0.0
14.500000476837158,-8.492233288574218,-1.9584569580078124,2.7653029174804686,10.366412213740459,39.20610687022901,17.801526717557252,-9.423577734375,-1.218648645019531,0.201112939453125,-37.74045801526717,3.877862595419847,16.076335877862597,0.0
14.510000944137573,-10.046070166015625,-0.023942016601562498,3.1555577880859373,16.045801526717558,39.770992366412216,14.610687022900763,-10.04846436767578,-2.023100402832031,0.24660277099609373,-32.97709923664122,3.9389312977099236,16.68702290076336,0.0
14.520000457763672,-10.876858142089842,1.2976572998046874,2.935291235351562,16.427480916030536,38.56488549618321,14.16793893129771,-9.495403784179686,-1.6927005737304686,0.23702596435546874,-28.68702290076336,1.816793893129771,15.618320610687023,0.0
14.530000448226929,-10.658985791015624,2.5474305664062498,2.7461493041992187,6.427480916030534,34.656488549618324,13.694656488549619,-10.0748005859375,-1.917755529785156,0.25139117431640623,-21.282442748091604,1.7557251908396947,17.14503816793893,0.0
14.540000915527344,-10.510545288085936,2.3774422485351563,2.2649147705078123,-2.015267175572519,30.702290076335878,13.893129770992367,-9.610325463867188,-1.2378022583007813,0.24660277099609373,-17.267175572519083,0.6870229007633588,17.358778625954198,0.0
14.550000667572021,-11.415553515625,2.6192566162109374,2.2577321655273437,-12.610687022900763,27.053435114503817,12.793893129770993,-9.907206469726562,-1.2210428466796874,0.25139117431640623,-13.633587786259541,1.5267175572519085,18.3206106870229,0.0
14.560000658035278,-10.395623608398436,1.9728221679687499,1.9225439331054686,-28.38167938931298,19.66412213740458,12.259541984732824,-10.151415039062499,-1.2138602416992186,0.35673604736328124,-9.389312977099237,2.16793893129771,19.083969465648856,0.0
14.570000648498535,-10.819397302246093,2.712630480957031,2.3343466186523436,-28.442748091603054,20.412213740458014,12.916030534351146,-9.787496386718749,-0.7589619262695312,0.28012159423828126,-7.633587786259542,1.984732824427481,18.83969465648855,0.0
14.58000111579895,-9.603142858886718,1.917755529785156,1.6472107421875,-30.625954198473284,17.435114503816795,14.51908396946565,-9.732429748535155,-0.8475473876953125,0.4381389038085937,-5.4961832061068705,2.4122137404580153,18.732824427480917,0.0
14.590000629425049,-10.31661495361328,4.278438366699218,2.233790148925781,-35.099236641221374,18.717557251908396,15.206106870229007,-10.388441003417968,-1.3670891479492187,0.9002198242187499,-2.183206106870229,3.618320610687023,17.908396946564885,0.0
14.600000381469727,-8.973467822265624,2.013523596191406,1.0845733520507812,-40.0,14.106870229007633,18.244274809160306,-10.038887561035155,-0.7972691528320313,1.2234370483398436,0.5801526717557252,1.618320610687023,16.106870229007633,0.0
14.610000610351562,-7.9272016967773435,-0.4285620971679687,0.8307879760742187,-26.396946564885496,21.480916030534353,19.84732824427481,-10.230423693847655,-0.4477157104492187,1.4772224243164063,0.8396946564885496,-1.7404580152671756,15.587786259541986,0.0
14.62000036239624,-9.129090930175781,0.3854664672851562,0.9744400756835937,-17.862595419847327,26.30534351145038,14.946564885496183,-10.651803186035156,0.05985504150390625,1.8435352783203125,0.4122137404580153,-3.6030534351145036,14.50381679389313,0.0
14.630000591278076,-8.743624462890624,1.2401964599609374,1.695094775390625,-17.435114503816795,27.709923664122137,11.877862595419847,-10.512939489746094,0.33518823242187495,2.094926452636719,-4.229007633587786,-5.022900763358779,13.541984732824428,0.0
14.640000820159912,-8.657433203124999,-0.16041151123046873,1.4915876342773438,-14.15267175572519,26.106870229007633,11.938931297709924,-10.69968721923828,0.21787235107421873,2.0781670410156248,-9.98473282442748,-7.526717557251908,11.526717557251908,0.0
14.65000033378601,-8.968679418945312,-0.26336218261718747,1.917755529785156,-4.9465648854961835,31.267175572519083,9.877862595419847,-11.183315954589844,-0.6392518432617187,2.43250888671875,-14.83969465648855,-10.366412213740459,9.526717557251908,0.0
14.660000324249268,-8.425195642089843,0.13407529296874998,1.6903063720703124,2.549618320610687,30.366412213740457,7.267175572519084,-12.112266198730469,-1.5035586425781249,2.2601263671875,-9.038167938931299,-18.717557251908396,7.541984732824427,0.0
14.670000553131104,-9.81862100830078,1.0103531005859374,1.6256629272460936,5.6183206106870225,27.16030534351145,4.091603053435114,-11.939883679199218,-1.2761094848632812,2.176329309082031,-12.01526717557252,-25.72519083969466,3.1603053435114505,0.0
14.68000078201294,-8.923189587402343,1.5035586425781249,1.8004396484374998,5.541984732824427,24.702290076335878,1.8931297709923665,-9.725247143554688,-1.0749965454101562,2.1906945190429687,-15.358778625954198,-38.396946564885496,-2.0763358778625953,0.0
14.690000772476196,-10.297461340332031,2.2266075439453124,2.319981408691406,7.694656488549619,23.770992366412212,-0.4122137404580153,-11.14022032470703,-1.37906015625,2.549824768066406,-16.290076335877863,-39.404580152671755,-2.9160305343511452,0.0
14.700000524520874,-10.398017810058594,1.9656395629882812,1.946485949707031,3.5267175572519083,16.53435114503817,0.3969465648854962,-11.93270107421875,-2.6048914062499997,2.2936451904296873,4.748091603053435,-49.43511450381679,-3.1603053435114505,0.0
14.71000075340271,-11.276689819335937,4.319139794921875,2.2361843505859373,-0.22900763358778625,12.641221374045802,-0.0916030534351145,-10.180145458984374,-0.8906430175781249,0.9002198242187499,23.251908396946565,-64.77862595419847,-7.343511450381679,0.0
14.720000743865967,-10.802637890625,4.472368701171875,1.8004396484374998,-10.335877862595419,7.435114503816794,2.0610687022900764,-8.939948999023438,0.689530078125,-0.033518823242187495,16.641221374045802,-61.969465648854964,-10.67175572519084,0.0
14.730000495910645,-9.830592016601562,3.3494881225585935,1.6519991455078125,-13.954198473282442,6.717557251908397,3.5114503816793894,-10.81460889892578,-1.0941501586914062,-0.9074024291992187,23.31297709923664,-62.87022900763359,-10.229007633587786,0.0
14.740000486373901,-9.447519750976562,2.8610709838867185,1.656787548828125,-19.083969465648856,3.9236641221374047,2.931297709923664,-8.877699755859375,1.936909143066406,-1.5658078857421873,18.671755725190838,-60.44274809160305,-15.877862595419847,0.0
14.750000715255737,-9.81862100830078,2.5857377929687497,1.678335363769531,-21.557251908396946,2.015267175572519,3.801526717557252,-10.084377392578125,-0.5770026000976562,-1.0342951171875,6.5038167938931295,-43.603053435114504,-13.786259541984732,0.0
14.760000467300415,-10.129867224121092,2.8706477905273435,1.5705962890624998,-21.282442748091604,1.0687022900763359,6.213740458015267,-9.447519750976562,1.8267758666992187,-2.3056161987304686,12.625954198473282,-43.89312977099237,-14.564885496183207,0.0
14.770000696182251,-8.939948999023438,2.123656872558594,0.7829039428710937,-14.595419847328245,1.618320610687023,9.007633587786259,-7.271190441894531,2.980781066894531,-1.848323681640625,-5.221374045801527,-29.221374045801525,-15.709923664122137,0.0
14.780000686645508,-9.275137231445312,2.346317626953125,0.8068459594726562,-12.931297709923664,3.145038167938931,9.877862595419847,-10.280701928710936,-1.0079588989257813,-0.16280571289062498,-7.816793893129771,-18.0,-9.49618320610687,0.0
