timestamp,Thigh_L_Acc_X,Thigh_L_Acc_Y,Thigh_L_Acc_Z,Thigh_L_Gyr_X,Thigh_L_Gyr_Y,Thigh_L_Gyr_Z,Thigh_R_Acc_X,Thigh_R_Acc_Y,Thigh_R_Acc_Z,Thigh_R_Gyr_X,Thigh_R_Gyr_Y,Thigh_R_Gyr_Z,gpio_output
10.000000238418579,-2.5330653564453125,0.05985504150390625,6.770802294921874,-17.49618320610687,14.320610687022901,4.99236641221374,-14.250288281249999,-6.021417175292968,2.959233251953125,84.13740458015268,26.106870229007633,25.34351145038168,0.0
10.010000944137573,-1.6519991455078125,-0.4572925170898437,7.6279264892578125,-7.893129770992366,11.938931297709924,9.068702290076336,-10.144232434082031,-1.3934253662109375,1.3910311645507811,93.98473282442748,5.374045801526718,18.83969465648855,1.0
10.020000696182251,-1.7764976318359373,0.5817910034179687,7.857769848632812,2.1068702290076335,12.534351145038167,10.412213740458014,-11.291055029296874,-1.0797849487304687,0.9864110839843749,81.23664122137404,0.6564885496183206,17.72519083969466,1.0
10.030000686645508,-1.4245499877929686,0.9169792358398436,7.5153990112304685,4.473282442748092,10.763358778625955,13.282442748091603,-9.009380847167968,2.8802245971679685,-0.33039982910156246,67.78625954198473,-6.2748091603053435,12.977099236641221,1.0
10.040000915527344,-1.369483349609375,1.637633935546875,7.3286512817382805,5.0534351145038165,12.335877862595419,15.129770992366412,-9.208099584960937,2.272097375488281,1.1659762084960936,24.595419847328245,15.099236641221374,16.18320610687023,1.0
10.050000667572021,-2.9448680419921875,3.3016040893554686,7.271190441894531,-6.916030534351145,12.65648854961832,16.015267175572518,-10.409988818359375,-0.9097966308593749,0.7781155395507812,25.908396946564885,10.641221374045802,17.297709923664122,1.0
10.060000658035278,-4.007893579101562,3.318363500976562,7.055712292480468,-25.297709923664122,13.145038167938932,16.458015267175572,-9.698910925292969,-0.8786720092773437,0.33758243408203126,24.82442748091603,9.083969465648854,18.671755725190838,1.0
10.070000648498535,-4.786009118652344,3.0789433349609374,6.751648681640624,-33.343511450381676,16.82442748091603,21.0381679389313,-8.281543542480469,0.39983167724609375,-1.6519991455078125,-0.48854961832061067,18.12213740458015,17.755725190839694,1.0
10.080000638961792,-5.906495495605468,3.5960908935546874,6.900089184570312,-52.97709923664122,18.045801526717558,22.946564885496183,-8.245630517578125,0.062249243164062495,-2.6862942626953124,-16.045801526717558,29.755725190839694,20.366412213740457,1.0
10.09000039100647,-6.129156249999999,1.1156979736328125,6.038176586914062,-58.229007633587784,21.480916030534353,31.206106870229007,-8.192958081054687,-1.5634136840820312,-2.7269956909179687,-21.801526717557252,37.55725190839695,23.938931297709924,1.0
10.100000858306885,-5.856217260742187,-1.8219874633789062,8.678981018066406,-34.3206106870229,29.251908396946565,43.6793893129771,-9.050082275390624,-2.540247961425781,-2.3415292236328122,-18.83969465648855,49.00763358778626,24.50381679389313,1.0
10.110000371932983,-8.705317236328124,0.201112939453125,10.77630167236328,7.603053435114504,44.06106870229008,57.49618320610687,-10.424354028320312,-3.21780703125,-2.2673089721679687,-16.12213740458015,56.656488549618324,23.099236641221374,1.0
10.120000839233398,-6.694187841796874,-4.726154077148437,11.422736120605467,33.43511450381679,36.85496183206107,77.34351145038168,-9.423577734375,-1.3527239379882812,-2.8514941772460936,-25.786259541984734,60.62595419847328,20.748091603053435,1.0
10.130000591278076,-10.73799444580078,0.19153613281249998,15.990872888183592,90.19847328244275,56.80916030534351,90.97709923664122,-11.745953344726562,-3.517082238769531,-2.114080065917969,-26.12213740458015,66.85496183206106,26.18320610687023,1.0
10.140000820159912,-7.4579381713867186,-7.551312036132812,15.27740079345703,100.33587786259542,39.6793893129771,94.07633587786259,-11.635820068359374,-2.7078420776367187,-1.3766659545898436,-6.717557251908397,62.83969465648855,27.114503816793892,1.0
10.15000057220459,-7.4579381713867186,-5.875370874023437,12.04762275390625,133.23664122137404,52.045801526717554,84.56488549618321,-11.681309899902343,-3.6176387084960937,-1.3144167114257812,-5.419847328244275,60.458015267175576,28.18320610687023,1.0
10.160000324249268,-1.5298948608398437,-8.815450512695312,5.942408520507812,117.95419847328245,36.74809160305343,57.16030534351145,-11.192892761230468,-3.9791631591796874,-0.6296750366210937,8.977099236641221,55.43511450381679,25.87786259541985,1.0
10.170000314712524,-4.316745593261719,-2.4947581298828125,0.6584054565429687,131.95419847328245,64.22900763358778,33.41984732824427,-11.719617126464843,-2.636016027832031,-0.3232172241210937,9.954198473282442,50.916030534351144,20.48854961832061,1.0
10.18000054359436,-6.193799694824218,1.956062756347656,-0.7398083129882812,106.2442748091603,60.534351145038165,15.557251908396946,-12.65335577392578,-3.418919970703125,0.7206546997070312,4.885496183206107,50.16793893129771,15.48091603053435,1.0
10.190000534057617,-7.3837179199218745,6.5026517089843745,3.0047230834960934,86.2442748091603,69.06870229007633,19.66412213740458,-14.082694165039062,-3.593696691894531,0.7015010864257812,15.572519083969466,40.79389312977099,10.732824427480915,1.0
10.200000524520874,-2.3367408203125,-4.261678955078125,4.491522314453125,85.17557251908397,69.12977099236642,32.83969465648855,-14.784195251464842,-1.0917559570312498,0.4165910888671875,19.251908396946565,32.80916030534351,8.198473282442748,1.0
10.210000276565552,-4.108450048828125,-1.446097802734375,4.3813890380859375,118.85496183206106,95.78625954198473,36.030534351145036,-14.666879370117186,1.5562310791015623,-0.5961562133789062,8.778625954198473,23.328244274809162,6.351145038167939,0.0
10.220000505447388,-4.237736938476562,-0.5674257934570313,2.269703173828125,115.55725190839695,95.41984732824427,28.717557251908396,-14.46097802734375,3.7158009765625,-0.08140285644531249,-7.862595419847328,22.427480916030536,8.335877862595419,0.0
10.230000734329224,-9.545682019042967,5.128379956054687,3.7038299682617186,127.89312977099236,115.16030534351145,25.84732824427481,-15.057134240722656,4.771643908691406,-1.0031704956054688,-30.53435114503817,18.38167938931298,13.923664122137405,0.0
10.240000486373901,-10.04846436767578,2.703053674316406,4.125209460449218,93.8473282442748,104.56488549618321,16.16793893129771,-14.393940380859375,3.6248213134765623,-0.016759411621093748,-50.79389312977099,19.31297709923664,21.404580152671755,0.0
10.250000715255737,-7.180210778808593,-17.46091270751953,9.006986645507812,99.87786259541984,110.47328244274809,5.9541984732824424,-12.50730947265625,1.3551181396484375,0.2059013427734375,-55.847328244274806,6.488549618320611,26.03053435114504,0.0
10.260000705718994,-10.122684619140625,11.348515869140625,0.4261678955078125,141.08396946564886,101.09923664122137,-12.732824427480915,-13.6756798828125,0.06943184814453125,-0.1771709228515625,-53.86259541984733,-0.3511450381679389,29.17557251908397,0.0
10.270000696182251,-11.5304751953125,14.389151977539061,1.2641384765625,82.50381679389314,97.74045801526718,-6.900763358778626,-13.33091484375,0.9528922607421875,-1.369483349609375,-53.70992366412214,-11.755725190839694,26.427480916030536,0.0
10.280000925064087,-10.24718310546875,6.720524060058593,7.0461354858398435,32.595419847328245,97.45038167938931,-11.770992366412214,-14.38436357421875,0.1197100830078125,-1.3838485595703125,-51.9236641221374,-13.526717557251908,25.374045801526716,0.0
10.290000438690186,-8.449137658691406,5.202600207519531,3.957615344238281,-5.099236641221374,86.2442748091603,-23.328244274809162,-13.627795849609374,0.9696516723632812,-1.1516109985351561,-49.083969465648856,-20.0,21.16030534351145,0.0
10.300000667572021,-10.453084448242187,10.08677159423828,2.7653029174804686,-33.69465648854962,84.94656488549619,-32.13740458015267,-13.982137695312499,0.39743747558593745,-0.5410895751953124,-49.3587786259542,-24.48854961832061,22.16793893129771,0.0
10.310000658035278,-9.351751684570312,5.647921716308593,1.1827356201171875,-61.20610687022901,70.70229007633588,-31.34351145038168,-11.877634436035155,1.0845733520507812,-0.9313444458007812,-42.35114503816794,-43.12977099236641,19.450381679389313,0.0
10.320000648498535,-9.993397729492187,6.4739212890625,1.7357962036132812,-68.70229007633588,76.76335877862596,-33.465648854961835,-12.449848632812499,0.9050082275390624,-0.9433154541015625,-42.94656488549618,-44.458015267175576,20.091603053435115,0.0
10.330000400543213,-8.968679418945312,2.6815058593749996,0.3950432739257812,-65.45038167938931,78.6412213740458,-30.366412213740457,-10.24000050048828,0.06703764648437499,-1.8459294799804686,-46.25954198473283,-53.41984732824427,14.610687022900763,0.0
10.34000039100647,-9.509768994140625,2.085349645996094,0.8834604125976562,-40.274809160305345,87.41984732824427,-25.938931297709924,-10.682927807617187,-2.1930887207031247,-0.9576806640625,-33.29770992366412,-52.0763358778626,15.16030534351145,0.0
10.350000619888306,-8.245630517578125,2.3726538452148436,0.8714894042968749,-28.3206106870229,88.21374045801527,-24.198473282442748,-11.111489904785156,-2.2601263671875,-1.2497732666015624,-6.67175572519084,-63.465648854961835,8.702290076335878,0.0
10.360000848770142,-13.13219610595703,9.483432775878907,2.4971523315429685,-32.13740458015267,98.04580152671755,-32.152671755725194,-8.559270935058594,0.612915625,-2.3439234252929686,-8.687022900763358,-65.69465648854961,1.5572519083969465,0.0
10.37000060081482,-9.126696728515624,6.368576416015625,1.0965443603515623,-74.0,76.74809160305344,-30.80916030534351,-8.767566479492187,-2.0350714111328125,-2.0254946044921875,-4.396946564885496,-63.282442748091604,-1.1908396946564885,0.0
10.380000829696655,-8.520963708496094,-0.7230489013671875,-0.7254431030273437,-66.09160305343511,71.77099236641222,-24.091603053435115,-8.197746484375,0.3136404174804687,-2.6791116577148437,4.061068702290076,-69.09923664122137,-6.0458015267175576,0.0
10.390000581741333,-12.215216870117187,5.307945080566406,2.3247698120117186,-45.969465648854964,86.42748091603053,-24.412213740458014,-8.56166513671875,0.3112462158203125,-1.9536685546875,-8.534351145038167,-62.16793893129771,-7.694656488549619,0.0
10.40000057220459,-13.627795849609374,8.046911779785155,2.607285607910156,-74.07633587786259,77.08396946564885,-27.114503816793892,-9.052476477050782,-0.33758243408203126,-2.3965958618164063,5.862595419847328,-65.48091603053435,-9.877862595419847,0.0
10.410000562667847,-10.228029492187499,2.6815058593749996,0.97683427734375,-74.19847328244275,68.41221374045801,-21.053435114503817,-7.635109094238281,1.0821791503906248,-4.917690209960937,7.114503816793893,-62.25954198473283,-12.366412213740459,0.0
10.420000553131104,-13.862427612304687,10.335768566894531,3.114856359863281,-94.93129770992367,67.32824427480917,-22.519083969465647,-9.567229833984374,0.5793968017578125,-6.277596752929687,25.419847328244273,-50.595419847328245,-10.13740458015267,0.0
10.430000305175781,-12.018892333984374,6.1626750732421876,2.825157958984375,-132.3969465648855,46.79389312977099,-21.83206106870229,-7.939172705078125,4.187458703613281,-6.854599353027344,22.229007633587788,-44.29007633587786,-15.48091603053435,0.0
10.440000295639038,-11.654973681640625,1.13006318359375,2.578555187988281,-125.80152671755725,40.79389312977099,-12.793893129770993,-10.855310327148437,1.6998831787109374,-4.975151049804687,8.80916030534351,-30.16793893129771,-14.16793893129771,0.0
10.450000524520874,-9.447519750976562,-3.4572271972656248,1.5203180541992187,-101.41984732824427,39.74045801526717,-7.1603053435114505,-9.739612353515625,1.9584569580078124,-4.283226770019531,7.755725190839694,-33.02290076335878,-17.00763358778626,0.0
10.46000051498413,-12.071564770507813,2.2194249389648437,2.8730419921875,-70.21374045801527,53.23664122137404,-13.755725190839694,-9.773131176757811,0.4860229370117187,-1.6831237670898436,-2.732824427480916,-23.16030534351145,-13.954198473282442,0.0
10.470000505447388,-11.827356201171874,4.44363828125,1.9608511596679685,-88.87022900763358,41.55725190839695,-19.236641221374047,-10.702081420898438,-1.2521674682617188,0.33039982910156246,8.335877862595419,-29.053435114503817,-14.82442748091603,0.0
10.480000495910645,-12.38520518798828,4.106055847167968,2.2744915771484373,-93.45038167938931,39.63358778625954,-17.480916030534353,-10.740388647460938,-0.46208092041015625,2.2194249389648437,15.526717557251908,-37.770992366412216,-17.72519083969466,0.0
10.49000072479248,-10.565611926269531,2.0350714111328125,1.5873557006835937,-98.93129770992367,34.961832061068705,-16.702290076335878,-8.43956085205078,0.6200982299804687,2.5258827514648434,9.34351145038168,-48.6412213740458,-24.38167938931298,0.0
10.500000476837158,-9.411606726074218,-0.5363011718749999,1.0271125122070313,-82.67175572519083,39.87786259541985,-12.595419847328245,-11.52329259033203,-3.2537200561523436,3.6056677001953124,19.786259541984734,-54.06106870229008,-22.045801526717558,0.0
10.510000944137573,-7.149086157226562,-4.824316345214844,0.028730419921875,-52.274809160305345,46.916030534351144,-10.427480916030534,-9.337386474609374,-0.7733271362304687,2.8993782104492185,39.9236641221374,-77.5114503816794,-28.12213740458015,0.0
10.52000093460083,-6.5577183471679685,-5.310339282226562,0.05985504150390625,0.13740458015267176,65.5114503816794,-13.068702290076336,-11.307814440917968,-1.0103531005859374,2.655169641113281,47.00763358778626,-85.83206106870229,-30.458015267175572,0.0
10.530000686645508,-8.595183959960938,-0.39743747558593745,1.0726023437499999,14.51908396946565,73.0381679389313,-21.938931297709924,-11.135431921386719,-0.9888052856445312,2.4947581298828125,48.50381679389313,-90.85496183206106,-31.740458015267176,0.0
10.540000677108765,-10.065223779296874,2.04943662109375,1.3431471313476562,19.450381679389313,75.89312977099236,-24.198473282442748,-10.457872851562499,0.8930372192382812,2.300827795410156,42.51908396946565,-98.56488549618321,-34.38167938931298,0.0
10.550000667572021,-8.834604125976561,1.2497732666015624,1.426944189453125,26.106870229007633,75.64885496183206,-23.19083969465649,-10.290278735351562,1.8124106567382812,0.9600748657226562,32.595419847328245,-106.18320610687023,-37.221374045801525,0.0
10.560000658035278,-8.892064965820312,1.6304513305664061,1.7094599853515624,34.82442748091603,76.83969465648855,-24.763358778625953,-10.673351000976561,0.28490999755859375,1.2569558715820313,24.946564885496183,-105.77099236641222,-37.17557251908397,0.0
10.570000648498535,-9.457096557617186,2.408566870117187,2.0159177978515626,37.55725190839695,75.06870229007633,-24.65648854961832,-11.429918725585937,-0.9074024291992187,2.1499930908203124,20.870229007633586,-101.61832061068702,-36.412213740458014,0.0
10.580000400543213,-9.828197814941406,3.0502129150390624,2.5043349365234375,37.31297709923664,74.06106870229007,-23.297709923664122,-10.101136804199218,-0.507570751953125,1.889025109863281,22.900763358778626,-105.29770992366412,-36.656488549618324,0.0
10.59000039100647,-10.031704956054687,3.438073583984375,2.616862414550781,32.778625954198475,70.22900763358778,-22.15267175572519,-8.896853369140624,0.8020575561523438,0.74699091796875,29.068702290076335,-111.06870229007633,-37.32824427480916,0.0
10.600000858306885,-10.838550915527343,4.714183068847656,3.2034418212890623,21.0381679389313,65.78625954198473,-22.793893129770993,-9.76116016845703,-0.2705447875976562,1.0127473022460938,27.480916030534353,-104.06106870229007,-35.23664122137404,0.0
10.610000371932983,-10.062829577636718,4.522646936035156,3.3446997192382812,3.648854961832061,58.778625954198475,-20.946564885496183,-8.28633194580078,-0.34715924072265625,1.2976572998046874,21.099236641221374,-97.90839694656489,-36.717557251908396,0.0
10.62000060081482,-9.052476477050782,3.318363500976562,3.385401147460937,-2.6717557251908395,54.79389312977099,-18.68702290076336,-7.331045483398437,1.1947066284179686,0.13407529296874998,24.50381679389313,-101.00763358778626,-37.343511450381676,0.0
10.630000352859497,-8.987833032226561,2.96881005859375,3.5027170288085934,-6.519083969465649,51.786259541984734,-19.419847328244273,-7.105990527343749,0.5147533569335937,0.565031591796875,3.648854961832061,-81.1145038167939,-37.11450381679389,0.0
10.640000820159912,-8.755595471191405,2.5043349365234375,3.6822821533203123,-11.740458015267176,49.31297709923664,-19.480916030534353,-9.847351428222655,-1.8722656982421875,1.4508862060546874,16.48854961832061,-76.97709923664122,-34.13740458015267,0.0
10.65000057220459,-8.710105639648438,0.8188169677734375,3.6080619018554687,-7.480916030534351,49.52671755725191,-19.297709923664122,-6.912060192871094,-0.6536170532226562,0.9002198242187499,20.229007633587788,-77.69465648854961,-35.49618320610687,0.0
10.660000324249268,-8.451531860351562,0.7589619262695312,3.4620156005859375,1.633587786259542,48.88549618320611,-20.595419847328245,-8.535328918457031,-1.4820108276367188,1.3718775512695311,26.3206106870229,-72.19847328244275,-33.31297709923664,0.0
10.670000553131104,-8.104372619628906,0.1388636962890625,3.294421484375,8.15267175572519,47.37404580152672,-21.69465648854962,-8.176198669433592,-0.08379705810546874,1.0342951171875,38.82442748091603,-74.33587786259542,-31.64885496183206,0.0
10.68000054359436,-9.004592443847656,0.8020575561523438,3.4931402221679684,19.419847328244273,48.58015267175573,-24.48854961832061,-6.234501123046875,1.7334020019531249,0.5434837768554687,29.87786259541985,-69.40458015267176,-32.6412213740458,0.0
10.690000534057617,-9.509768994140625,2.2290017456054687,3.6487633300781246,20.580152671755727,44.534351145038165,-26.290076335877863,-7.651868505859374,0.028730419921875,1.419761584472656,25.740458015267176,-61.847328244274806,-29.00763358778626,0.0
10.700000762939453,-8.786720092773438,1.2210428466796874,3.5913024902343746,23.221374045801525,40.50381679389313,-24.946564885496183,-7.50821640625,0.06464344482421874,1.3335703247070312,31.328244274809162,-62.47328244274809,-27.206106870229007,0.0
10.71000051498413,-9.351751684570312,2.3582886352539063,3.9647979492187497,30.946564885496183,39.74045801526717,-24.35114503816794,-4.841075756835937,1.6639701538085936,0.6536170532226562,19.984732824427482,-56.595419847328245,-29.114503816793892,0.0
10.720000267028809,-9.686939916992188,4.007893579101562,4.347870214843749,28.259541984732824,36.29007633587786,-22.916030534351144,-6.016628771972656,0.8020575561523438,1.3766659545898436,5.358778625954199,-42.717557251908396,-26.9618320610687,0.0
10.730000734329224,-8.997409838867187,3.2345664428710936,3.775656018066406,19.206106870229007,28.458015267175572,-19.14503816793893,-5.983109948730468,-0.45010991210937495,1.5586252807617187,3.5419847328244276,-38.76335877862596,-24.38167938931298,0.0
10.740000486373901,-10.536881506347656,3.7038299682617186,3.763685009765625,16.793893129770993,28.595419847328245,-19.0381679389313,-4.2688615600585935,1.3623007446289062,1.0965443603515623,3.816793893129771,-38.717557251908396,-25.435114503816795,0.0
10.750000715255737,-8.827421520996094,3.5003228271484375,3.6296097167968746,10.183206106870228,24.198473282442748,-16.48854961832061,-4.529829541015625,1.4628572143554686,0.39983167724609375,-10.931297709923664,-25.34351145038168,-24.580152671755727,0.0
10.760000705718994,-9.260772021484375,2.6527754394531247,3.4165257690429685,1.5877862595419847,23.16030534351145,-14.748091603053435,-6.102820031738281,-0.7206546997070312,0.4908113403320312,-13.32824427480916,-17.0381679389313,-20.641221374045802,0.0
10.77000093460083,-10.876858142089842,3.284844677734375,4.5322237426757805,-4.015267175572519,23.984732824427482,-17.236641221374047,-5.683834741210937,-1.0606313354492187,0.4836287353515625,-8.625954198473282,-13.083969465648854,-18.625954198473284,0.0
10.780000686645508,-10.182539660644531,2.4301146850585935,4.489128112792969,-14.900763358778626,13.801526717557252,-17.374045801526716,-5.394136340332031,-0.8188169677734375,0.3327940307617187,-0.3511450381679389,-10.091603053435115,-18.213740458015266,0.0
10.790000915527344,-9.907206469726562,0.6153098266601562,6.1267620483398435,-17.46564885496183,9.251908396946565,-16.80916030534351,-5.087678527832031,-0.1388636962890625,0.1580173095703125,3.877862595419847,-3.83206106870229,-16.931297709923665,0.0
10.800000429153442,-13.623007446289062,2.868253588867187,7.869740856933594,-19.908396946564885,6.427480916030534,-21.633587786259543,-4.599261389160156,0.28012159423828126,-0.23223756103515625,-1.0534351145038168,7.022900763358779,-14.351145038167939,0.0
10.8100004196167,-12.610260144042968,1.7549498168945312,8.738836059570312,-26.33587786259542,-9.206106870229007,-19.6793893129771,-4.316745593261719,0.19393033447265623,0.055066638183593745,-1.0687022900763359,15.34351145038168,-10.366412213740459,0.0
10.820000886917114,-12.610260144042968,0.076614453125,9.900023864746093,-24.18320610687023,-23.00763358778626,-17.69465648854962,-4.517858532714843,1.120486376953125,-0.2154781494140625,-9.893129770992367,24.610687022900763,-8.854961832061068,0.0
10.830000638961792,-12.74912384033203,-1.13006318359375,11.353304272460937,-0.8854961832061069,-34.458015267175576,-15.450381679389313,-5.090072729492187,-0.16041151123046873,1.3048399047851562,-28.15267175572519,36.3206106870229,-8.732824427480915,0.0
10.84000039100647,-13.295001818847656,-2.1212626708984375,12.818555688476561,21.419847328244273,-47.32824427480916,-16.519083969465647,-6.849810949707031,-3.287238879394531,1.2497732666015624,-17.83206106870229,41.49618320610687,-2.6412213740458017,0.0
10.850000381469727,-14.961366174316405,-0.7422025146484375,14.506467858886717,40.961832061068705,-64.74809160305344,-19.954198473282442,-6.964732629394531,-1.1061211669921875,-0.21308394775390624,-4.5038167938931295,41.17557251908397,-2.564885496183206,0.0
10.860000848770142,-17.243040356445313,2.779668127441406,16.256629272460938,38.2442748091603,-98.27480916030534,-23.572519083969464,-10.137049829101562,-1.3263877197265623,0.34237083740234375,-0.32061068702290074,46.16793893129771,-3.5419847328244276,0.0
10.87000060081482,-19.378668237304687,4.283226770019531,17.788918334960936,28.412213740458014,-135.57251908396947,-20.68702290076336,-13.860033410644531,-1.3575123413085937,1.9321207397460936,3.1755725190839694,48.38167938931298,-6.595419847328245,0.0
10.880000829696655,-21.258116540527343,6.124367846679687,17.714698083496092,25.6793893129771,-173.05343511450383,-14.83969465648855,-13.237540979003905,2.568978381347656,2.7629087158203123,-16.549618320610687,43.770992366412216,-13.206106870229007,0.0
10.890000581741333,-21.741745275878905,5.1140147460937495,16.953341955566405,13.572519083969466,-217.81679389312978,-4.916030534351145,-16.17762061767578,0.7158662963867187,2.6288334228515624,-53.969465648854964,61.80152671755725,-12.717557251908397,0.0
10.90000057220459,-21.7968119140625,1.7573440185546874,16.558298681640625,28.610687022900763,-254.36641221374046,6.1679389312977095,-17.523161950683594,-2.7844565307617186,2.059013427734375,-58.30534351145038,67.95419847328245,-6.870229007633588,0.0
10.910000562667847,-19.89342159423828,-0.12210428466796874,7.766790185546874,39.66412213740458,-282.1832061068702,11.541984732824428,-9.076418493652342,2.5139117431640625,-1.0414777221679687,-39.43511450381679,39.847328244274806,-8.763358778625955,0.0
10.920000314712524,-17.973271862792966,0.8068459594726562,2.1356278808593747,18.977099236641223,-309.7709923664122,6.0458015267175576,-8.042123376464843,4.285620971679688,-3.172317199707031,-64.80916030534351,57.49618320610687,-0.732824427480916,0.0
10.93000054359436,-18.90461630859375,0.4285620971679687,-2.808398547363281,-15.465648854961833,-318.0763358778626,-0.7480916030534351,-10.462661254882812,-1.9009961181640624,-2.4875755249023435,-71.25190839694656,69.22137404580153,12.030534351145038,0.0
10.940000534057617,-17.578228588867187,1.0007762939453124,-6.720524060058593,-45.69465648854962,-318.7175572519084,-2.931297709923664,-1.4341267944335936,7.419630944824219,-5.6407391113281244,-72.97709923664122,44.534351145038165,-0.15267175572519084,0.0
10.950000762939453,-15.459360119628906,2.3223756103515623,-7.682993127441406,-63.55725190839695,-302.03053435114504,-0.3053435114503817,-4.247313745117188,13.974955090332031,-6.461950280761719,-210.6412213740458,108.33587786259542,-7.862595419847328,0.0
10.96000051498413,-12.454637036132812,1.216254443359375,-6.215347509765625,-77.74045801526718,-280.4580152671756,11.740458015267176,-12.988544006347656,-1.9632453613281249,-3.1387983764648437,-255.25190839694656,145.9236641221374,8.763358778625955,0.0
10.970000267028809,-11.056423266601563,-4.963180041503906,-3.2058360229492187,-57.221374045801525,-252.91603053435114,18.18320610687023,-9.557653027343749,-3.5386300537109374,-4.604049792480469,-188.13740458015266,114.30534351145039,12.122137404580153,0.0
10.980000495910645,-7.829039428710937,-7.994239343261718,-2.360682836914062,12.427480916030534,-216.73282442748092,23.633587786259543,-8.949525805664061,-0.2561795776367187,-4.819527941894531,-212.19847328244273,129.45038167938932,1.6030534351145038,0.0
10.99000072479248,-6.624755993652343,-8.283937744140625,-2.5905261962890624,69.66412213740458,-179.63358778625954,19.022900763358777,-12.725181823730468,-11.343727465820312,-1.7741034301757812,-172.12213740458014,138.01526717557252,14.0,0.0
11.000000476837158,-4.388571643066406,-7.9655089233398435,-2.4013842651367185,119.54198473282443,-151.75572519083968,9.587786259541986,-10.374075793457031,-12.952630981445312,-0.9313444458007812,-68.83969465648855,102.42748091603053,30.778625954198475,0.0
11.010000944137573,-6.979097839355468,-0.7254431030273437,-1.2617442749023438,140.77862595419847,-125.06870229007633,-3.1297709923664123,-12.363657373046875,-13.883975427246092,0.3854664672851562,3.068702290076336,87.26717557251908,42.88549618320611,0.0
11.020000457763672,-7.75721337890625,4.290409374999999,0.00239420166015625,127.29770992366412,-114.44274809160305,-4.916030534351145,-10.275913525390624,-7.287949853515625,-0.3711012573242187,51.31297709923664,63.603053435114504,41.343511450381676,0.0
11.030000686645508,-6.818686328125,4.886565588378906,-1.3670891479492187,99.66412213740458,-111.34351145038168,2.854961832061069,-12.495338464355468,-8.82981572265625,2.3630770385742186,82.90076335877863,62.48854961832061,45.51145038167939,0.0
11.040000677108765,-5.118803149414062,5.410895751953125,-0.9720458740234375,74.85496183206106,-97.00763358778626,10.488549618320612,-11.726799731445311,-2.4301146850585935,0.70868369140625,96.29007633587786,51.37404580152672,39.41984732824427,0.0
11.050000667572021,-6.160280871582031,7.211335400390625,-0.39264907226562495,24.82442748091603,-89.14503816793894,8.65648854961832,-10.014945544433592,-0.2154781494140625,0.17238251953125,85.41984732824427,44.6412213740458,35.11450381679389,0.0
11.060000658035278,-1.5011644409179687,1.455674609375,-3.0166940917968748,-5.221374045801527,-87.46564885496183,16.30534351145038,-11.54244620361328,-4.386177441406249,2.128445275878906,75.43511450381679,53.48091603053435,35.81679389312977,0.0
11.070000410079956,-0.48123453369140623,1.429338391113281,-3.5721488769531247,-9.84732824427481,-59.343511450381676,17.14503816793893,-8.865728747558594,-0.6488286499023437,0.9864110839843749,67.92366412213741,44.61068702290076,29.72519083969466,0.0
11.08000111579895,-2.636016027832031,4.216189123535156,-3.229778039550781,-33.69465648854962,-41.083969465648856,9.16030534351145,-8.566453540039062,-1.1947066284179686,0.43574470214843747,51.908396946564885,43.11450381679389,25.587786259541986,0.0
11.09000039100647,-1.180341418457031,2.5641899780273434,-3.287238879394531,-55.282442748091604,-27.603053435114504,9.908396946564885,-11.473014355468749,-5.930437512207031,1.180341418457031,53.221374045801525,45.770992366412216,26.885496183206108,0.0
11.100000381469727,0.06943184814453125,-0.4525041137695312,-3.1124621582031247,-57.89312977099237,-7.3893129770992365,12.900763358778626,-9.6917283203125,-4.455609289550781,1.5370774658203123,54.68702290076336,44.0763358778626,23.72519083969466,0.0
11.110000610351562,-1.0534487304687499,0.1771709228515625,0.13407529296874998,-52.48854961832061,12.778625954198473,9.679389312977099,-7.788338000488281,-2.0374656127929685,0.5530605834960938,59.19083969465649,35.19083969465649,19.587786259541986,0.0
11.120000839233398,-3.1364041748046874,1.1468225952148436,4.367023828124999,-59.954198473282446,14.183206106870228,8.961832061068701,-12.919112158203124,-9.82580361328125,3.7158009765625,65.48091603053435,48.80916030534351,26.12213740458015,0.0
11.130000352859497,-1.6017209106445311,-2.9855694702148434,6.5577183471679685,-22.412213740458014,21.374045801526716,21.52671755725191,-11.587936035156249,-11.14022032470703,2.3223756103515623,140.36641221374046,7.511450381679389,25.862595419847327,0.0
11.140000820159912,-1.3431471313476562,-2.463633508300781,7.8338278320312495,15.099236641221374,30.442748091603054,25.770992366412212,-10.752359655761719,-2.896984008789062,0.15562310791015624,163.72519083969465,-8.427480916030534,19.053435114503817,0.0
11.15000057220459,-2.8419173706054686,0.4070142822265625,8.904035974121093,34.10687022900763,33.55725190839695,26.82442748091603,-8.070853796386718,4.446032482910156,-2.4253262817382812,142.93129770992365,-21.0381679389313,9.83206106870229,0.0
11.160000324249268,-3.632003918457031,3.438073583984375,9.72285294189453,26.916030534351144,31.801526717557252,26.946564885496183,-10.448296044921875,2.094926452636719,0.9337386474609375,98.67175572519083,-1.4961832061068703,13.450381679389313,0.0
11.170000553131104,-3.347093920898437,2.0374656127929685,8.999804040527343,3.984732824427481,16.259541984732824,31.16030534351145,-8.71489404296875,4.790797521972656,0.354341845703125,74.9618320610687,-9.587786259541986,11.679389312977099,0.0
11.180000305175781,-3.1962592163085937,1.7956512451171873,8.939948999023438,8.793893129770993,21.206106870229007,33.63358778625954,-8.590395556640624,6.7085530517578125,-0.7876923461914062,30.18320610687023,-3.4198473282442747,11.938931297709924,0.0
11.190000772476196,-2.896984008789062,2.1308394775390624,8.252813122558594,-7.221374045801527,15.511450381679388,31.358778625954198,-8.394071020507813,4.6639048339843745,-0.14125789794921875,-20.916030534351144,16.33587786259542,16.671755725190838,0.0
11.200000286102295,-3.7804444213867185,2.04943662109375,8.030152368164062,-25.31297709923664,15.526717557251908,27.893129770992367,-10.058041174316406,1.608903515625,-1.149216796875,-44.778625954198475,21.49618320610687,19.740458015267176,0.0
11.21000051498413,-6.2201359130859375,2.7269956909179687,10.218452685546874,-31.938931297709924,16.137404580152673,26.3206106870229,-9.014169250488282,-1.6615759521484375,-1.3670891479492187,-67.45038167938931,30.916030534351144,23.068702290076335,0.0
11.220000743865967,-7.733271362304687,3.0214824951171875,10.213664282226562,-39.89312977099237,12.15267175572519,28.610687022900763,-9.449913952636718,-4.256890551757812,-1.4413093994140624,-54.51908396946565,29.389312977099237,24.931297709923665,0.0
11.230000734329224,-8.892064965820312,2.0781670410156248,9.351751684570312,-44.656488549618324,11.938931297709924,29.740458015267176,-9.555258825683593,-4.103661645507812,-1.3311761230468748,-45.63358778625954,32.87022900763359,24.641221374045802,0.0
11.240000486373901,-10.70686982421875,1.9847931762695312,11.166556542968749,-32.2442748091603,10.732824427480915,37.05343511450382,-9.1554271484375,-4.359841223144531,-1.6208745239257811,-38.0763358778626,33.969465648854964,24.3206106870229,0.0
11.250000715255737,-12.667720983886719,3.4332851806640625,12.514492077636717,-20.732824427480917,8.885496183206106,50.10687022900763,-9.909600671386718,-3.361459130859375,-1.9536685546875,-30.16793893129771,35.80152671755725,24.564885496183205,0.0
11.260000467300415,-11.226411584472656,0.5961562133789062,10.309432348632813,-16.68702290076336,8.183206106870228,59.465648854961835,-10.091559997558592,-1.0869675537109373,-2.8012159423828122,-33.63358778625954,39.19083969465649,24.427480916030536,0.0
11.270000696182251,-8.765172277832031,-3.507505432128906,7.848193041992187,-13.877862595419847,8.244274809160306,56.06106870229008,-9.6917283203125,-1.4173673828125,-2.583343591308594,-44.396946564885496,48.70229007633588,28.48854961832061,0.0
11.280000448226929,-7.453149768066406,-4.6639048339843745,5.413289953613281,-19.0381679389313,9.404580152671755,43.37404580152672,-10.915165368652342,-4.378994836425781,-1.3814543579101561,-36.0763358778626,52.229007633587784,30.68702290076336,0.0
11.290000677108765,-7.381323718261719,-3.2537200561523436,4.122815258789062,-25.419847328244273,15.98473282442748,31.435114503816795,-10.587159741210938,-4.094084838867187,-1.8555062866210936,-21.19083969465649,50.16793893129771,27.34351145038168,0.0
11.300000667572021,-4.012681982421875,-2.1452046874999997,3.0813375366210938,-1.6946564885496183,23.31297709923664,31.786259541984734,-10.383652600097655,-2.7629087158203123,-2.059013427734375,-13.526717557251908,53.43511450381679,22.458015267175572,0.0
11.310000658035278,-1.7764976318359373,-2.5330653564453125,0.7541735229492187,41.69465648854962,46.0763358778626,34.79389312977099,-11.846509814453125,-1.5562310791015623,-2.3774422485351563,-12.885496183206106,56.29007633587786,18.290076335877863,0.0
11.320000648498535,-5.035006091308594,0.18435352783203124,3.0693665283203124,45.770992366412216,63.6793893129771,22.85496183206107,-14.190433239746094,-2.29843359375,-1.5155296508789062,-13.206106870229007,61.465648854961835,19.64885496183206,0.0
11.330000638961792,-4.637568615722656,-1.0271125122070313,4.237736938476562,46.595419847328245,69.66412213740458,23.374045801526716,-16.072275744628904,-3.0238766967773434,0.047884033203124995,2.9770992366412212,54.87022900763359,20.076335877862597,0.0
11.340000867843628,-6.1267620483398435,0.15083470458984374,3.9169139160156248,69.57251908396947,87.54198473282443,24.27480916030534,-17.053898425292967,-0.40462008056640625,0.2609679809570312,12.702290076335878,43.80152671755725,18.18320610687023,0.0
11.350000619888306,-9.406818322753905,5.157110375976562,3.440467785644531,64.90076335877863,93.09923664122137,16.717557251908396,-14.425065002441405,2.7437551025390623,1.24498486328125,3.404580152671756,30.610687022900763,16.977099236641223,0.0
11.360000848770142,-4.096479040527344,-1.5298948608398437,1.3048399047851562,69.02290076335878,90.93129770992367,25.96946564885496,-13.663708874511718,4.170699291992188,0.9983820922851562,-19.16030534351145,20.137404580152673,20.442748091603054,0.0
11.37000060081482,-5.384559533691406,-3.871424084472656,2.0087351928710935,124.42748091603053,119.92366412213741,28.9618320610687,-14.240711474609375,3.497928625488281,0.8690952026367187,-40.33587786259542,14.320610687022901,25.66412213740458,0.0
11.380000591278076,-8.116343627929687,-1.5179238525390624,1.9033903198242186,138.8854961832061,124.70229007633588,16.3206106870229,-15.899893225097655,0.4908113403320312,2.588131994628906,-40.656488549618324,11.19083969465649,30.610687022900763,0.0
11.390000581741333,-11.202469567871093,7.345410693359375,3.414131567382812,139.09923664122138,134.24427480916032,10.213740458015268,-14.125789794921873,1.3551181396484375,0.8690952026367187,-34.93129770992366,-9.465648854961833,25.770992366412212,0.0
11.40000033378601,-6.562506750488281,0.9002198242187499,2.094926452636719,117.05343511450381,124.6412213740458,12.16793893129771,-13.565546606445311,1.8435352783203125,0.39264907226562495,-48.961832061068705,-12.900763358778626,23.81679389312977,0.0
11.410000324249268,-8.264784130859374,2.6862942626953124,1.9009961181640624,138.10687022900763,141.80152671755727,12.305343511450381,-12.447454431152343,1.6735469604492186,-0.430956298828125,-58.94656488549618,-18.16793893129771,22.412213740458014,0.0
11.420000314712524,-7.56567724609375,5.238513232421875,3.19865341796875,107.8473282442748,131.5114503816794,-0.3816793893129771,-12.337321154785155,0.7517793212890624,-0.6943184814453125,-59.55725190839695,-22.793893129770993,21.557251908396946,0.0
11.43000054359436,-10.20887587890625,8.872911352539061,3.7421371948242186,81.20610687022901,131.34351145038167,-9.32824427480916,-12.114660400390624,0.5865794067382812,-1.16837041015625,-60.732824427480914,-27.0381679389313,18.641221374045802,0.0
11.440000534057617,-5.219359619140625,-4.53940634765625,-0.040701428222656245,66.16793893129771,112.25954198473282,-4.33587786259542,-11.997344519042969,-1.1611878051757811,-1.13006318359375,-60.412213740458014,-28.366412213740457,15.694656488549619,0.0
11.450000524520874,-7.747636572265624,0.8930372192382812,1.7717092285156248,116.13740458015268,135.64885496183206,-4.549618320610687,-10.517727893066406,-1.235408056640625,-0.8882488159179687,-49.465648854961835,-36.30534351145038,9.816793893129772,0.0
11.46000075340271,-9.406818322753905,5.837063647460937,3.9312791259765625,92.42748091603053,130.0916030534351,-16.977099236641223,-11.846509814453125,-1.369483349609375,-1.2904746948242187,-36.29007633587786,-40.091603053435115,5.358778625954199,0.0
11.470000505447388,-10.857704528808593,10.781090075683593,3.603273498535156,56.30534351145038,120.67175572519083,-26.53435114503817,-11.489773767089844,-3.6391865234374996,-0.10295067138671875,-16.564885496183205,-45.32824427480916,2.5801526717557253,0.0
11.480000734329224,-9.387664709472656,9.466673364257812,3.0119056884765625,8.946564885496183,101.16030534351145,-30.946564885496183,-11.276689819335937,-3.1842882080078123,-0.0909796630859375,4.748091603053435,-60.10687022900763,-1.5267175572519085,0.0
11.49000072479248,-7.864952453613281,6.066907006835937,1.7669208251953124,-28.458015267175572,85.45038167938931,-29.770992366412212,-9.299079248046874,0.5817910034179687,-0.38786066894531246,-0.7786259541984732,-65.70992366412214,-7.877862595419847,0.0
11.500000238418579,-7.8912886718749995,2.5713725830078125,0.6584054565429687,-32.19847328244275,82.3969465648855,-26.15267175572519,-9.277531433105468,-1.7764976318359373,-0.5961562133789062,2.9923664122137406,-62.045801526717554,-6.152671755725191,0.0
11.510000705718994,-8.14028564453125,0.9217676391601562,0.9864110839843749,-17.328244274809162,84.93129770992367,-23.801526717557252,-8.59278975830078,0.07900865478515624,-3.3303345092773435,29.740458015267176,-71.41984732824427,-11.893129770992367,0.0
11.520000696182251,-8.662221606445312,1.7884686401367187,1.7908628417968748,-9.893129770992367,90.65648854961832,-23.603053435114504,-7.256825231933593,1.388636962890625,-5.633556506347656,24.30534351145038,-57.02290076335878,-12.076335877862595,0.0
11.530000686645508,-10.606313354492187,5.837063647460937,2.214636535644531,-17.740458015267176,94.3969465648855,-28.99236641221374,-9.445125549316407,0.5578489868164063,-5.896918688964844,39.908396946564885,-44.29007633587786,-9.893129770992367,0.0
11.540000677108765,-13.129801904296874,9.445125549316407,3.2249896362304686,-45.9236641221374,88.99236641221374,-36.56488549618321,-8.463502868652343,2.703053674316406,-5.487510205078125,29.297709923664122,-33.908396946564885,-14.51908396946565,0.0
11.550000667572021,-11.030087048339842,4.944026428222656,1.6112977172851561,-72.62595419847328,71.43511450381679,-34.229007633587784,-9.275137231445312,1.4724340209960938,-4.328716601562499,18.748091603053435,-27.435114503816795,-14.854961832061068,0.0
11.560000658035278,-13.005303417968749,3.517082238769531,0.7015010864257812,-85.23664122137404,65.16030534351145,-33.49618320610687,-8.492233288574218,2.039859814453125,-3.2417490478515623,7.358778625954199,-25.786259541984734,-16.519083969465647,0.0
11.570000648498535,-9.466673364257812,1.6639701538085936,1.4221557861328125,-67.08396946564885,67.16030534351145,-29.72519083969466,-8.058882788085937,2.9855694702148434,-0.32561142578124996,-17.52671755725191,-23.740458015267176,-19.206106870229007,0.0
11.580000638961792,-8.307879760742187,1.8267758666992187,1.2713210815429687,-58.30534351145038,68.74809160305344,-27.206106870229007,-9.176974963378905,2.588131994628906,1.458068811035156,-36.48854961832061,-21.61832061068702,-19.358778625954198,0.0
11.590000867843628,-13.237540979003905,9.162609753417968,1.5849614990234373,-82.67175572519083,65.52671755725191,-35.70992366412214,-11.130643518066405,-1.37906015625,3.9336733276367184,-43.48091603053435,-20.83969465648855,-16.213740458015266,0.0
11.600000858306885,-12.581529724121093,8.073247998046874,1.838746875,-121.77099236641222,48.51908396946565,-36.274809160305345,-12.907141149902342,-4.905719201660156,4.9823336547851556,-14.916030534351146,-38.656488549618324,-17.709923664122137,0.0
11.610000610351562,-10.067617980957031,1.0342951171875,-0.16280571289062498,-122.1526717557252,37.11450381679389,-25.633587786259543,-11.985373510742187,-4.460397692871093,5.061342309570312,18.366412213740457,-63.83206106870229,-23.389312977099237,0.0
11.620000839233398,-8.303091357421874,-5.315127685546875,-1.0726023437499999,-72.50381679389314,49.64885496183206,-13.572519083969466,-10.139444030761718,-1.8171990600585937,3.7900212280273435,30.870229007633586,-81.52671755725191,-33.541984732824424,0.0
11.630000591278076,-17.673996655273438,10.1131078125,4.843469958496094,-59.06870229007634,67.00763358778626,-28.748091603053435,-11.480196960449218,-2.4779987182617185,3.0430303100585934,48.70229007633588,-93.38931297709924,-35.7557251908397,0.0
11.640000820159912,-20.808006628417967,19.31163059082031,4.496310717773437,-166.9770992366412,22.931297709923665,-45.267175572519086,-11.942277880859374,-1.4820108276367188,3.246537451171875,63.55725190839695,-100.99236641221374,-36.045801526717554,0.0
11.650000810623169,-15.957354064941406,9.239224206542968,0.8044517578125,-238.06106870229007,-24.946564885496183,-23.419847328244273,-10.457872851562499,0.9840168823242187,1.848323681640625,55.02290076335878,-108.87022900763358,-34.67175572519084,0.0
11.660000562667847,-11.367669482421874,-1.6998831787109374,-0.2442085693359375,-210.0,-25.19083969465649,-3.114503816793893,-9.141061938476563,1.3455413330078123,1.6041151123046875,39.87786259541985,-109.78625954198473,-35.969465648854964,0.0
11.670000553131104,-13.321338037109374,-4.8506525634765625,3.3399113159179685,-136.51908396946564,3.450381679389313,-4.580152671755725,-9.143456140136719,1.4604630126953124,1.0821791503906248,40.0763358778626,-111.32824427480917,-34.961832061068705,0.0
11.68000054359436,-6.229712719726562,-12.105083593749999,1.3670891479492187,-76.35114503816794,-0.42748091603053434,-4.183206106870229,-8.908824377441405,0.22026655273437498,1.20667763671875,43.603053435114504,-109.77099236641222,-31.6793893129771,0.0
11.690000534057617,-3.1268273681640624,-13.47696114501953,1.22583125,16.99236641221374,26.045801526717558,-11.19083969465649,-8.935160595703124,0.0,0.6751648681640625,45.343511450381676,-105.45038167938931,-29.358778625954198,0.0
11.700000286102295,-4.8506525634765625,-8.705317236328124,1.7022773803710936,85.93893129770993,50.88549618320611,-29.801526717557252,-7.879317663574218,-0.7206546997070312,0.7158662963867187,46.25954198473283,-94.76335877862596,-30.396946564885496,0.0
11.71000051498413,-8.710105639648438,-1.0079588989257813,1.5346832641601562,112.4885496183206,58.412213740458014,-44.51908396946565,-8.310273962402343,-0.3327940307617187,0.8116343627929687,42.35114503816794,-88.18320610687023,-32.030534351145036,0.0
11.720000505447388,-8.372523205566406,1.2306196533203124,0.9600748657226562,124.51908396946565,62.51908396946565,-43.6793893129771,-7.963114721679687,0.28012159423828126,0.16041151123046873,47.64885496183206,-87.66412213740458,-32.916030534351144,0.0
11.730000734329224,-10.577582934570312,5.9400143188476555,2.039859814453125,122.65648854961832,71.23664122137404,-46.732824427480914,-7.9846625366210935,-1.3718775512695311,0.70868369140625,43.57251908396947,-78.07633587786259,-32.595419847328245,0.0
11.740000486373901,-11.434707128906249,9.210493786621093,2.272097375488281,84.80916030534351,59.74045801526717,-44.961832061068705,-7.785943798828124,-0.316034619140625,0.967257470703125,50.25954198473283,-76.0,-33.23664122137404,0.0
11.750000715255737,-10.189722265624999,8.128314636230469,2.104503259277344,57.14503816793893,50.045801526717554,-36.3206106870229,-8.418013037109375,-1.7741034301757812,1.0558429321289062,38.50381679389313,-66.12213740458016,-31.450381679389313,0.0
11.760000705718994,-9.006986645507812,7.343016491699219,2.176329309082031,39.11450381679389,46.152671755725194,-30.717557251908396,-10.01733974609375,-3.1699229980468746,2.3032219970703123,52.12213740458015,-69.2824427480916,-29.328244274809162,0.0
11.770000696182251,-8.681375219726561,5.686228942871093,2.3319524169921872,25.923664122137403,39.038167938931295,-24.641221374045802,-8.846575134277343,-1.8004396484374998,1.8626888916015625,60.97709923664122,-73.83206106870229,-32.74809160305343,0.0
11.780000686645508,-8.801085302734375,4.826710546875,3.038241906738281,20.946564885496183,38.10687022900763,-20.290076335877863,-9.33978067626953,-1.3910311645507811,1.8411410766601561,61.00763358778626,-72.47328244274809,-33.00763358778626,0.0
11.790000677108765,-9.473855969238281,5.05655390625,4.211400720214844,13.19083969465649,37.89312977099237,-19.96946564885496,-10.721235034179687,-1.3527239379882812,2.1116858642578125,71.48091603053435,-74.0,-31.114503816793892,0.0
11.800000667572021,-8.640673791503906,2.9640216552734375,4.218583325195312,7.129770992366412,32.045801526717554,-18.015267175572518,-8.667010009765624,0.833182177734375,1.3766659545898436,73.1145038167939,-76.99236641221374,-31.541984732824428,0.0
11.810000658035278,-8.465897070312499,2.310404602050781,4.005499377441406,10.244274809160306,31.17557251908397,-18.259541984732824,-9.797073193359374,0.17956512451171874,1.0917559570312498,72.21374045801527,-72.83969465648855,-28.549618320610687,0.0
11.820000410079956,-7.041347082519531,0.7852981445312499,3.5482068603515624,19.557251908396946,32.70229007633588,-17.419847328244273,-7.407659936523437,1.9225439331054686,0.8044517578125,69.05343511450381,-71.49618320610686,-28.519083969465647,0.0
11.830000638961792,-8.535328918457031,2.4109610717773435,4.4196962646484375,29.49618320610687,38.30534351145038,-19.893129770992367,-6.691793640136718,2.2361843505859373,-0.1771709228515625,61.49618320610687,-67.64885496183206,-25.984732824427482,0.0
11.840000867843628,-7.4699091796875,2.8467057739257813,4.024652990722656,28.27480916030534,37.37404580152672,-20.366412213740457,-3.181894006347656,5.7508723876953125,-0.6871358764648438,32.458015267175576,-54.88549618320611,-26.671755725190838,0.0
11.850000381469727,-8.111555224609374,2.5641899780273434,4.6351744140625,25.893129770992367,39.80152671755725,-19.572519083969464,-3.5218706420898434,4.496310717773437,-0.37828386230468747,-5.587786259541985,-32.30534351145038,-22.83969465648855,0.0
11.860000610351562,-7.915230688476562,2.5641899780273434,5.015852478027344,21.61832061068702,41.16030534351145,-19.374045801526716,-4.371812231445312,2.8802245971679685,-0.35673604736328124,-25.068702290076335,-17.755725190839694,-18.12213740458015,0.0
11.87000060081482,-10.089165795898436,3.7421371948242186,5.837063647460937,18.748091603053435,39.12977099236641,-20.793893129770993,-4.656722229003906,1.0175357055664063,-0.21068974609375,-31.404580152671755,-10.366412213740459,-14.534351145038167,0.0
11.880000829696655,-11.281478222656249,4.242525341796875,6.452373474121093,0.5190839694656488,29.022900763358777,-20.48854961832061,-5.480327600097656,-0.33039982910156246,-0.10295067138671875,-26.610687022900763,-4.732824427480916,-12.045801526717558,0.0
11.890000581741333,-11.628637463378906,3.071760729980469,6.904877587890625,-15.114503816793894,19.221374045801525,-18.33587786259542,-5.061342309570312,-0.21068974609375,-0.6703764648437499,-28.412213740458014,2.931297709923664,-10.82442748091603,0.0
11.90000033378601,-11.757924353027343,4.0222587890625,7.575254052734374,-29.297709923664122,7.633587786259542,-18.18320610687023,-3.1962592163085937,1.2306196533203124,-0.8116343627929687,-35.45038167938932,10.580152671755725,-11.770992366412214,0.0
11.910000562667847,-10.59194814453125,1.350329736328125,7.812280017089844,-38.13740458015267,-5.312977099236641,-16.27480916030534,-3.9552211425781247,-0.6823474731445313,-0.28012159423828126,-47.099236641221374,26.137404580152673,-7.893129770992366,0.0
11.920000314712524,-10.182539660644531,-0.44532150878906246,8.427589843749999,-27.267175572519083,-10.427480916030534,-15.648854961832061,-5.91846650390625,-3.6008792968749996,1.4173673828125,-37.267175572519086,28.99236641221374,-4.488549618320611,0.0
11.93000054359436,-11.513715783691406,-0.1149216796875,9.119514123535156,-17.786259541984734,-19.46564885496183,-18.366412213740457,-5.7700260009765625,-2.212242333984375,3.047818713378906,-32.79389312977099,25.587786259541986,-9.083969465648854,0.0
11.940000534057617,-11.020510241699219,-1.3192051147460937,9.476250170898437,-1.9236641221374047,-30.85496183206107,-17.389312977099237,-5.961562133789062,-3.2920272827148436,2.3415292236328122,-28.900763358778626,31.282442748091604,-4.106870229007634,0.0
11.950000524520874,-11.690886706542969,-1.0271125122070313,10.04846436767578,12.992366412213741,-39.02290076335878,-18.106870229007633,-9.801861596679688,-5.68862314453125,-0.4213794921875,-3.2061068702290076,31.786259541984734,1.8778625954198473,0.0
11.96000051498413,-12.418724011230468,-1.3024457031249999,11.176133349609374,30.671755725190838,-53.61832061068702,-21.00763358778626,-11.077971081542968,-3.124433166503906,-1.8124106567382812,17.908396946564885,29.69465648854962,-3.7557251908396947,0.0
11.970000505447388,-13.996502905273436,-1.7238251953125,12.418724011230468,53.66412213740458,-69.66412213740458,-22.732824427480917,-13.934253662109374,-2.042254016113281,1.2114660400390624,22.48854961832061,39.23664122137404,-10.702290076335878,0.0
11.980000495910645,-15.377957263183593,-0.7924807495117187,13.634978454589843,75.0381679389313,-85.52671755725191,-26.27480916030534,-14.882357519531249,0.00718260498046875,4.115632653808594,25.755725190839694,34.85496183206107,-11.49618320610687,0.0
11.990000247955322,-19.646818823242185,2.942473840332031,15.294160205078125,67.89312977099236,-119.20610687022901,-32.595419847328245,-14.255076684570312,0.9576806640625,3.821145849609375,12.13740458015267,31.786259541984734,-10.335877862595419,0.0
12.000000476837158,-22.354660900878905,5.4707507934570305,16.01720910644531,55.14503816793893,-156.21374045801528,-28.15267175572519,-12.042834350585936,-0.612915625,1.944091748046875,-12.13740458015267,39.69465648854962,-10.763358778625955,0.0
12.010000944137573,-23.44881105957031,5.49708701171875,14.975731384277342,34.10687022900763,-193.29770992366412,-14.763358778625955,-4.7189714721679685,5.327098693847656,-1.5131354492187499,-25.206106870229007,25.587786259541986,-17.404580152671755,0.0
12.020000457763672,-24.169465759277344,3.3782185424804685,14.46097802734375,20.35114503816794,-228.06106870229007,-2.8091603053435112,-1.697488977050781,13.804966772460936,-5.140350964355468,-99.78625954198473,50.48854961832061,-14.458015267175572,0.0
12.030000448226929,-22.97715333251953,2.549824768066406,12.23915888671875,18.015267175572518,-258.59541984732823,11.511450381679388,-5.331887097167969,6.79953271484375,-5.5545478515625,-155.23664122137404,84.4885496183206,9.541984732824428,0.0
12.040000677108765,-20.568586462402344,1.2569558715820313,6.438008264160156,9.19083969465649,-279.70992366412213,24.80916030534351,-8.47786807861328,-2.133233679199219,-2.588131994628906,-154.3053435114504,89.23664122137404,20.458015267175572,0.0
12.050000667572021,-18.488025219726563,-0.2753331909179687,1.3910311645507811,0.8244274809160306,-289.64885496183206,28.03053435114504,-11.219228979492186,-7.438784558105469,0.7565677246093749,-132.50381679389312,100.62595419847328,19.709923664122137,0.0
12.0600004196167,-14.867992309570312,-1.24498486328125,-3.6391865234374996,-10.549618320610687,-290.7480916030534,26.045801526717558,-5.267243652343749,-0.01915361328125,-3.2609026611328122,-105.05343511450381,81.58778625954199,6.870229007633588,0.0
12.070000648498535,-11.465831750488281,1.7764976318359373,-6.358999609374999,-25.541984732824428,-280.6564885496183,20.15267175572519,-10.563217724609375,3.9983167724609374,-5.286397265624999,-159.72519083969465,120.09160305343511,6.656488549618321,0.0
12.080000638961792,-8.33182177734375,0.28730419921875,-4.589684582519531,-43.48091603053435,-265.2977099236641,18.900763358778626,-4.060566015625,4.8650177734375,-7.8170684204101555,-178.15267175572518,116.12213740458016,11.17557251908397,0.0
12.090149402618408,-7.663839514160156,-3.0334535034179684,-4.465186096191406,-27.16030534351145,-234.25954198473283,21.46564885496183,-11.975796704101562,-0.7876923461914062,-5.303156677246093,-221.63358778625954,144.90076335877862,19.96946564885496,0.0
12.100000381469727,-7.189787585449218,-6.430825659179687,-2.6623522460937497,-0.4580152671755725,-210.51908396946564,20.366412213740457,-14.037204333496092,-11.81777939453125,0.5746083984375,-161.4198473282443,143.14503816793894,32.79389312977099,0.0
12.110000610351562,-5.91846650390625,-10.735600244140624,-2.5570073730468748,49.25190839694657,-186.94656488549617,17.83206106870229,-9.478644372558593,-9.70369932861328,-0.24181436767578124,-81.6793893129771,100.65648854961832,36.12213740458015,0.0
12.12000060081482,-5.190629199218749,-8.015787158203125,0.011971008300781249,127.92366412213741,-146.29007633587787,15.038167938931299,-11.719617126464843,-6.773196496582031,-1.9967641845703124,-46.30534351145038,90.13740458015268,39.81679389312977,0.0
12.130000829696655,-7.580042456054687,-1.6017209106445311,1.3814543579101561,148.12213740458014,-127.29770992366412,8.13740458015267,-12.215216870117187,-9.509768994140625,0.8954314208984374,-5.893129770992366,86.36641221374046,44.42748091603053,0.0
12.140000581741333,-9.131485131835937,4.455609289550781,2.346317626953125,135.81679389312978,-120.33587786259542,9.389312977099237,-10.647014782714843,-5.193023400878906,-0.5482721801757812,32.6412213740458,65.52671755725191,44.274809160305345,0.0
12.15000057220459,-9.284714038085937,7.857769848632812,1.9919757812499999,94.70229007633588,-121.96946564885496,15.725190839694656,-12.397176196289061,-7.096413720703125,0.9457096557617187,49.465648854961835,67.22137404580153,48.412213740458014,0.0
12.160000562667847,-6.6151791870117185,5.329492895507812,0.8690952026367187,60.70229007633588,-120.42748091603053,24.12213740458015,-9.30147344970703,-3.603273498535156,-0.22505495605468748,82.7175572519084,50.0763358778626,43.9236641221374,0.0
12.170000553131104,-7.582436657714843,6.215347509765625,0.8403647827148437,19.206106870229007,-115.7557251908397,17.908396946564885,-9.423577734375,-1.7166425903320313,-0.5506663818359374,76.27480916030534,48.51908396946565,39.63358778625954,0.0
12.18000054359436,-3.0119056884765625,1.1611878051757811,-1.4413093994140624,-11.969465648854962,-116.56488549618321,20.15267175572519,-11.659762084960937,-5.925649108886718,2.6192566162109374,70.16793893129771,59.20610687022901,37.93893129770992,0.0
12.190000534057617,-2.3726538452148436,0.5602431884765625,-2.0374656127929685,-14.15267175572519,-92.47328244274809,19.114503816793892,-9.095572106933593,-1.218648645019531,0.22744915771484372,67.0381679389313,48.51908396946565,29.419847328244273,0.0
12.200000524520874,-2.4205378784179685,1.20667763671875,-2.8467057739257813,-31.801526717557252,-81.12977099236642,11.053435114503817,-8.796296899414061,-1.4221557861328125,-0.22744915771484372,53.83206106870229,45.221374045801525,24.106870229007633,0.0
12.21000051498413,-2.2170307373046874,1.3766659545898436,-3.3207577026367185,-38.70229007633588,-60.67175572519084,8.412213740458014,-8.530540515136718,-1.426944189453125,-0.18914193115234373,44.0,45.52671755725191,20.916030534351144,0.0
12.220000505447388,-2.346317626953125,2.5617957763671875,-3.0741549316406247,-58.01526717557252,-46.0,5.282442748091603,-9.749189160156249,-2.559401574707031,0.59376201171875,35.786259541984734,50.47328244274809,21.46564885496183,0.0
12.230000257492065,-2.300827795410156,2.39420166015625,-2.3511060302734372,-64.16793893129771,-29.49618320610687,8.122137404580153,-8.872911352539061,-1.448492004394531,-0.023942016601562498,35.725190839694655,45.083969465648856,20.549618320610687,0.0
12.24000072479248,-1.3431471313476562,1.2665326782226562,-1.1372457885742187,-65.38931297709924,-14.732824427480915,13.435114503816793,-12.31577333984375,-2.999934680175781,-0.4477157104492187,38.93129770992366,46.85496183206107,23.46564885496183,0.0
12.250000476837158,-1.458068811035156,0.03591302490234375,1.3527239379882812,-53.343511450381676,5.541984732824427,19.96946564885496,-9.919177478027343,-1.6735469604492186,-0.21787235107421873,34.83969465648855,46.01526717557252,23.16030534351145,0.0
12.260000705718994,-2.085349645996094,-0.0430956298828125,4.161122485351562,-48.36641221374046,14.488549618320612,21.19083969465649,-10.615890161132812,-2.463633508300781,-0.3016694091796875,37.74045801526717,42.3206106870229,25.51145038167939,0.0
12.270000696182251,-1.3479355346679687,-1.0031704956054688,6.746860278320312,-42.48854961832061,17.740458015267176,21.251908396946565,-9.332598071289063,-1.6017209106445311,-0.28969840087890625,39.43511450381679,38.30534351145038,26.50381679389313,0.0
12.280000686645508,-0.6919242797851562,-0.7445967163085937,7.709329345703124,-22.091603053435115,22.442748091603054,22.3206106870229,-12.413935607910156,-6.404489440917969,1.9847931762695312,46.42748091603053,43.17557251908397,30.33587786259542,0.0
12.290000438690186,-0.5339069702148437,-0.3280056274414062,7.762001782226562,-18.931297709923665,19.389312977099237,22.35114503816794,-9.050082275390624,-2.518700146484375,0.3591302490234375,67.77099236641222,21.480916030534353,24.091603053435115,0.0
12.300000667572021,-1.3168109130859373,0.9744400756835937,8.664615808105468,-7.068702290076335,21.908396946564885,24.977099236641223,-11.319785449218749,-1.158793603515625,0.11252747802734374,52.87022900763359,26.045801526717558,21.083969465648856,0.0
12.310000658035278,-1.0462661254882812,1.5969325073242187,9.030928662109375,-0.549618320610687,23.49618320610687,32.50381679389313,-8.070853796386718,0.25139117431640623,0.0,42.18320610687023,19.908396946564885,15.648854961832061,0.0
12.320000648498535,-3.9504327392578125,4.189852905273438,8.966285217285156,-6.122137404580153,28.778625954198475,34.88549618320611,-10.845733520507812,-2.3678654418945313,1.5346832641601562,35.57251908396947,28.061068702290076,18.641221374045802,0.0
12.330000638961792,-4.601655590820312,4.125209460449218,8.578424548339843,-18.106870229007633,25.862595419847327,37.099236641221374,-9.679757312011718,-1.924938134765625,0.7422025146484375,41.43511450381679,17.52671755725191,17.083969465648856,0.0
12.340000867843628,-5.592855078125,3.6080619018554687,10.702081420898438,-21.221374045801525,23.81679389312977,42.656488549618324,-9.165003955078124,-1.0678139404296874,0.03591302490234375,31.633587786259543,19.83206106870229,17.358778625954198,0.0
12.350000619888306,-7.864952453613281,3.5625720703124997,11.001356628417968,-20.290076335877863,26.900763358778626,52.213740458015266,-9.476250170898437,1.7166425903320313,-1.7573440185546874,15.17557251908397,15.526717557251908,14.641221374045802,0.0
12.360000610351562,-9.809044201660155,1.7621324218749999,10.55364091796875,-20.091603053435115,23.603053435114504,56.48854961832061,-12.12423720703125,-1.7166425903320313,-0.18914193115234373,-4.656488549618321,32.274809160305345,23.297709923664122,0.0
12.370000839233398,-7.8362220336914055,-3.318363500976562,8.453926062011718,3.450381679389313,22.610687022900763,68.03053435114504,-10.12507882080078,-0.5027823486328125,-1.4149731811523436,-8.442748091603054,24.641221374045802,23.893129770992367,0.0
12.380000829696655,-9.291896643066405,-2.7748797241210936,6.48589229736328,20.27480916030534,38.900763358778626,66.79389312977099,-11.980585107421874,-2.8107927490234372,-1.675941162109375,-11.511450381679388,26.15267175572519,28.68702290076336,0.0
12.390000581741333,-10.158597644042969,-1.7118541870117185,5.72693037109375,26.519083969465647,48.88549618320611,52.58015267175573,-10.484209069824217,-1.1923124267578125,-2.408566870117187,-14.15267175572519,23.587786259541986,27.389312977099237,0.0
12.40000057220459,-9.172186560058593,-1.6711527587890624,3.9312791259765625,12.198473282442748,44.458015267175576,37.3587786259542,-11.961431494140625,-3.9552211425781247,-2.176329309082031,-16.717557251908396,30.931297709923665,28.671755725190838,0.0
12.410000562667847,-8.959102612304687,0.047884033203124995,5.406107348632812,20.870229007633586,58.534351145038165,31.358778625954198,-11.786654772949218,-2.4253262817382812,-1.7717092285156248,-13.32824427480916,33.11450381679389,22.198473282442748,0.0
12.420000553131104,-1.8243816650390623,-6.7085530517578125,4.814739538574218,51.725190839694655,62.36641221374046,38.44274809160305,-11.518504187011718,-1.5346832641601562,-1.5418658691406248,-22.82442748091603,38.56488549618321,10.183206106870228,0.0
12.43000054359436,-2.789244934082031,-4.766855505371093,4.299986181640625,112.09160305343511,96.04580152671755,39.70992366412214,-15.557522387695311,-0.29448680419921874,-1.4796166259765624,-25.557251908396946,45.267175572519086,6.061068702290076,0.0
12.440000295639038,-5.135562561035156,-2.461239306640625,2.760514514160156,112.0,99.3587786259542,21.740458015267176,-15.978901879882812,2.231395947265625,-1.0797849487304687,-31.358778625954198,40.396946564885496,6.442748091603053,0.0
12.450000524520874,-9.86411083984375,3.4332851806640625,4.680664245605469,110.36641221374046,111.96946564885496,15.587786259541986,-16.4338001953125,4.321533996582031,-1.3287819213867187,-52.38167938931298,35.541984732824424,11.114503816793894,0.0
12.46000051498413,-8.415618835449218,3.3159692993164063,2.5450363647460934,91.32824427480917,106.10687022900764,12.80916030534351,-17.717092285156248,2.6719290527343746,-0.6919242797851562,-59.221374045801525,32.274809160305345,18.671755725190838,0.0
12.470000505447388,-9.811438403320311,4.441244079589843,2.9927520751953125,82.25954198473282,113.31297709923665,8.67175572519084,-17.238251953124998,1.7836802368164062,0.031124621582031248,-57.587786259541986,17.206106870229007,23.099236641221374,0.0
12.480105638504028,-6.536170532226562,-4.580107775878906,1.158793603515625,82.35114503816794,103.14503816793894,11.32824427480916,-14.58787071533203,1.7884686401367187,-0.23223756103515625,-57.267175572519086,-3.312977099236641,20.900763358778626,0.0
12.49000072479248,-6.41646044921875,-0.9648632690429687,2.2457611572265623,132.2290076335878,128.0,13.435114503816793,-15.356409448242186,1.2761094848632812,0.086191259765625,-57.16030534351145,-10.381679389312977,22.549618320610687,0.0
12.500000476837158,-7.242460021972656,3.4428619873046875,2.5905261962890624,116.51908396946565,121.43511450381679,0.5648854961832062,-14.142549206542968,2.3582886352539063,-0.105344873046875,-58.33587786259542,-22.9618320610687,21.69465648854962,0.0
12.510000705718994,-10.27830772705078,8.504204296874999,3.23696064453125,88.73282442748092,120.87022900763358,-6.519083969465649,-13.61103643798828,0.814028564453125,0.3399766357421875,-60.68702290076336,-29.541984732824428,23.801526717557252,0.0
12.520000696182251,-6.406883642578125,0.2705447875976562,0.9026140258789062,61.02290076335878,106.07633587786259,-6.076335877862595,-12.703634008789061,-0.258573779296875,0.9433154541015625,-59.98473282442748,-40.6412213740458,22.3206106870229,0.0
12.530000686645508,-8.518569506835936,1.9871873779296874,2.2074539306640624,84.1526717557252,119.57251908396947,-9.236641221374045,-12.342109558105468,-3.3638533325195312,1.407790576171875,-40.091603053435115,-57.6793893129771,18.30534351145038,0.0
12.540000677108765,-7.196970190429687,0.8307879760742187,2.3343466186523436,78.09160305343511,115.98473282442748,-15.083969465648854,-11.080365283203124,-0.34237083740234375,-0.13168109130859373,-34.74809160305343,-70.54961832061069,7.038167938931298,0.0
12.550000667572021,-8.487444885253906,5.298368273925781,2.3774422485351563,81.95419847328245,122.13740458015268,-19.328244274809162,-9.80665,0.6871358764648438,-0.6416460449218749,-44.33587786259542,-67.87786259541984,0.32061068702290074,0.0
12.560000658035278,-9.923965881347655,6.687005236816406,2.89219560546875,53.12977099236641,115.95419847328245,-26.412213740458014,-9.890447058105469,-3.497928625488281,0.7924807495117187,-30.793893129770993,-68.73282442748092,0.7175572519083969,0.0
12.570000648498535,-9.095572106933593,7.560888842773437,1.5131354492187499,30.442748091603054,108.35114503816794,-30.47328244274809,-8.9255837890625,-0.9074024291992187,-1.8507178833007811,-5.465648854961832,-86.53435114503817,-3.83206106870229,0.0
12.580000400543213,-10.383652600097655,7.395688928222656,2.4899697265625,-2.1526717557251906,101.3587786259542,-32.56488549618321,-8.032546569824218,-0.011971008300781249,-4.450820886230469,-8.091603053435115,-77.58778625954199,-4.549618320610687,0.0
12.590000629425049,-8.772354882812499,4.228160131835938,1.8315642700195311,-15.954198473282442,92.87022900763358,-30.610687022900763,-7.682993127441406,0.15562310791015624,-8.109161022949218,15.16030534351145,-77.43511450381679,-8.305343511450381,0.0
12.600000858306885,-9.239224206542968,3.785232824707031,2.5570073730468748,-24.977099236641223,89.69465648854961,-31.19083969465649,-9.291896643066405,0.6751648681640625,-7.903259680175781,15.84732824427481,-57.786259541984734,-7.435114503816794,0.0
12.610000610351562,-8.59997236328125,3.423708374023437,2.7653029174804686,-27.740458015267176,84.50381679389314,-31.374045801526716,-10.678139404296875,0.7709329345703124,-7.134720947265625,17.00763358778626,-40.44274809160305,-14.763358778625955,0.0
12.62000060081482,-10.17056865234375,2.6336218261718747,2.2098481323242187,-25.587786259541986,85.17557251908397,-33.52671755725191,-9.727641345214844,0.1197100830078125,-5.614402893066406,6.625954198473282,-30.549618320610687,-17.83206106870229,0.0
12.630000352859497,-7.716511950683593,1.0606313354492187,1.8195932617187498,-22.65648854961832,79.29770992366412,-34.13740458015267,-9.404424121093749,-1.2593500732421874,-2.8514941772460936,7.9541984732824424,-23.709923664122137,-17.69465648854962,0.0
12.640000581741333,-14.413093994140624,14.58787071533203,4.6447512207031245,-40.76335877862596,87.25190839694656,-48.29007633587786,-9.871293444824218,-2.703053674316406,0.4429273071289062,18.12213740458015,-21.633587786259543,-20.549618320610687,0.0
12.65000057220459,-10.32379755859375,3.9552211425781247,1.5634136840820312,-62.10687022900763,65.77099236641222,-42.3206106870229,-9.682151513671874,-0.8044517578125,2.0302830078125,33.69465648854962,-33.17557251908397,-27.740458015267176,0.0
12.660000562667847,-12.164938635253906,6.438008264160156,1.7645266235351562,-70.07633587786259,62.18320610687023,-40.2442748091603,-10.029310754394531,-0.023942016601562498,2.511517541503906,29.251908396946565,-41.80152671755725,-32.48854961832061,0.0
12.670000553131104,-8.856151940917968,-0.51714755859375,0.1292868896484375,-57.89312977099237,59.83206106870229,-30.916030534351144,-9.30147344970703,0.06703764648437499,3.9049429077148434,25.450381679389313,-45.404580152671755,-33.63358778625954,0.0
12.68000054359436,-13.565546606445311,7.592013464355468,3.0454245117187497,-62.97709923664122,64.01526717557252,-37.32824427480916,-11.939883679199218,-2.925714428710937,4.6351744140625,40.48854961832061,-53.541984732824424,-30.366412213740457,0.0
12.690000534057617,-10.967837805175781,2.612074011230469,0.7733271362304687,-88.7175572519084,47.3587786259542,-35.38931297709924,-9.835380419921874,1.0941501586914062,3.447650390625,60.0,-78.27480916030534,-36.67175572519084,0.0
12.700000524520874,-16.462530615234375,11.693280908203125,3.9983167724609374,-91.7557251908397,53.63358778625954,-38.67175572519084,-11.77228956298828,0.06943184814453125,2.987963671875,58.06106870229008,-83.92366412213741,-35.267175572519086,0.0
12.710000276565552,-13.972560888671874,8.202534887695313,2.6862942626953124,-152.4732824427481,18.793893129770993,-41.221374045801525,-10.697293017578124,1.8914193115234375,2.6575638427734374,55.14503816793893,-92.07633587786259,-37.847328244274806,0.0
12.720000505447388,-18.04749211425781,10.383652600097655,3.3973721557617185,-174.83969465648855,5.022900763358779,-36.30534351145038,-10.958260998535156,1.637633935546875,1.89620771484375,47.12977099236641,-99.46564885496183,-35.847328244274806,0.0
12.730000734329224,-13.915100048828124,5.57370146484375,1.4508862060546874,-205.32824427480915,-24.03053435114504,-27.34351145038168,-9.967061511230469,2.3343466186523436,0.5698199951171875,47.32824427480916,-109.89312977099236,-35.908396946564885,0.0
12.740000486373901,-11.664550488281249,-0.9935936889648437,0.8858546142578124,-178.67175572519085,-21.84732824427481,-14.244274809160306,-11.535263598632811,1.254561669921875,0.7302315063476562,41.17557251908397,-109.77099236641222,-31.068702290076335,0.0
12.750000476837158,-4.809951135253906,-10.01015714111328,-0.565031591796875,-125.49618320610686,-20.595419847328245,-4.030534351145038,-9.974244116210937,-0.7230489013671875,0.10773907470703124,48.36641221374046,-112.56488549618321,-31.282442748091604,0.0
12.760000705718994,-5.892130285644531,-7.728482958984374,1.8435352783203125,-82.30534351145039,0.8396946564885496,-11.633587786259541,-9.421183532714844,-1.3479355346679687,-0.181959326171875,52.97709923664122,-112.30534351145039,-31.541984732824428,0.0
12.770000696182251,-3.418919970703125,-10.726023437499999,0.7781155395507812,-12.396946564885496,16.625954198473284,-10.900763358778626,-9.203311181640624,-1.5586252807617187,0.2561795776367187,58.06106870229008,-107.77099236641222,-34.274809160305345,0.0
12.780000448226929,-3.0502129150390624,-7.975085729980468,0.7326257080078125,62.87022900763359,46.732824427480914,-24.412213740458014,-8.188169677734374,-1.1085153686523437,0.9552864624023437,54.19847328244275,-96.65648854961832,-36.458015267175576,0.0
12.790000677108765,-7.079654309082031,-1.7788918334960937,1.16837041015625,94.47328244274809,64.76335877862596,-38.0,-7.096413720703125,-0.4381389038085937,0.928950244140625,50.18320610687023,-86.42748091603053,-38.29007633587786,0.0
12.800000667572021,-8.329427575683594,1.5298948608398437,0.9600748657226562,106.77862595419847,72.36641221374046,-41.00763358778626,-5.820304235839844,0.8451531860351562,0.17238251953125,49.786259541984734,-84.76335877862596,-37.908396946564885,0.0
12.810000658035278,-9.011775048828124,2.703053674316406,1.2042834350585936,106.62595419847328,78.30534351145039,-41.41984732824427,-8.504204296874999,-0.6607996582031249,0.852335791015625,43.31297709923664,-71.26717557251908,-33.52671755725191,0.0
12.820000886917114,-8.851363537597656,3.1100679565429687,1.3048399047851562,102.01526717557252,81.29770992366412,-42.06106870229008,-7.37414111328125,0.49320554199218747,0.5578489868164063,47.06870229007634,-72.79389312977099,-34.213740458015266,0.0
12.830000638961792,-11.358092675781249,7.350199096679687,2.5809493896484375,89.16030534351145,82.3206106870229,-44.48854961832061,-8.853757739257812,-0.9145850341796874,1.35990654296875,39.81679389312977,-63.770992366412216,-32.732824427480914,0.0
12.840000867843628,-12.701239807128905,9.6151138671875,3.1771056030273437,47.87786259541985,67.43511450381679,-40.33587786259542,-11.111489904785156,-2.825157958984375,1.9895815795898437,57.465648854961835,-67.5114503816794,-28.610687022900763,0.0
12.850000381469727,-10.845733520507812,7.532158422851562,3.0885201416015624,22.366412213740457,54.595419847328245,-32.47328244274809,-8.801085302734375,-0.10773907470703124,0.8810662109374999,63.63358778625954,-71.00763358778626,-30.53435114503817,0.0
12.860000848770142,-9.315838659667968,4.8698061767578125,2.6336218261718747,10.259541984732824,45.12977099236641,-25.801526717557252,-9.593566052246093,-1.1085153686523437,1.35990654296875,66.87022900763358,-68.35114503816794,-28.259541984732824,0.0
12.870000839233398,-9.402029919433593,4.632780212402343,3.414131567382812,5.358778625954199,43.66412213740458,-24.137404580152673,-8.465897070312499,0.3495534423828125,1.1875240234375,70.83969465648855,-68.76335877862596,-28.427480916030536,0.0
12.880000829696655,-8.688557824707031,3.4859576171874997,3.4644098022460934,11.221374045801527,42.06106870229008,-20.610687022900763,-9.873687646484374,-1.407790576171875,1.5729904907226562,67.86259541984732,-61.51145038167939,-25.206106870229007,0.0
12.890000581741333,-8.690952026367187,4.393360046386719,3.7900212280273435,8.717557251908397,41.05343511450382,-19.96946564885496,-8.054094384765625,0.9097966308593749,1.0366893188476562,74.03053435114504,-68.62595419847328,-27.389312977099237,0.0
12.90000057220459,-8.896853369140624,5.046977099609375,4.103661645507812,5.32824427480916,39.786259541984734,-19.541984732824428,-7.8721350585937495,1.5131354492187499,0.9935936889648437,56.412213740458014,-55.12977099236641,-26.9618320610687,0.0
12.910000562667847,-7.939172705078125,5.015852478027344,4.2497079467773435,-7.419847328244275,37.87786259541985,-16.900763358778626,-7.656656909179687,1.5514426757812498,0.7996633544921875,50.87022900763359,-52.13740458015267,-24.65648854961832,0.0
12.920000553131104,-6.715735656738281,3.2800562744140622,4.058171813964844,-9.770992366412214,38.51908396946565,-14.625954198473282,-4.833893151855468,4.163516687011718,0.33758243408203126,33.099236641221374,-48.44274809160305,-24.519083969465647,0.0
12.930000305175781,-6.959944226074218,3.3207577026367185,5.0206408813476555,-17.34351145038168,39.786259541984734,-15.893129770992367,-4.786009118652344,3.2824504760742186,0.09576806640624999,7.404580152671755,-32.36641221374046,-21.419847328244273,0.0
12.940000534057617,-7.556100439453124,3.361459130859375,5.911283898925781,-27.572519083969464,36.412213740458014,-16.900763358778626,-4.584896179199219,2.9568390502929685,0.2346317626953125,-3.5114503816793894,-25.114503816793892,-19.480916030534353,0.0
12.950000524520874,-8.17141026611328,1.707065783691406,6.313509777832031,-30.641221374045802,30.259541984732824,-15.86259541984733,-5.6191912963867185,1.2473790649414063,0.0909796630859375,-14.641221374045802,-14.50381679389313,-15.541984732824428,0.0
12.96000051498413,-8.86812294921875,0.3399766357421875,7.194575988769531,-20.99236641221374,28.717557251908396,-15.49618320610687,-4.42448466796875,1.47482822265625,0.19871873779296872,-17.954198473282442,-12.625954198473282,-14.900763358778626,0.0
12.970000505447388,-8.920795385742187,-0.5626373901367188,7.192181787109375,-7.8320610687022905,22.16793893129771,-15.511450381679388,-4.529829541015625,0.4477157104492187,-0.11013327636718749,-23.984732824427482,-4.763358778625954,-14.977099236641221,0.0
12.980000495910645,-10.019733947753906,-0.1292868896484375,8.192958081054687,-0.7480916030534351,16.366412213740457,-17.435114503816795,-4.151545678710937,-0.21308394775390624,-0.5626373901367188,-22.946564885496183,0.7938931297709924,-14.67175572519084,0.0
12.99000072479248,-11.475408557128906,2.5953145996093747,9.066841687011719,-2.5801526717557253,8.351145038167939,-21.404580152671755,-3.1699229980468746,0.9409212524414062,-1.199495031738281,-26.778625954198475,8.65648854961832,-14.961832061068701,0.0
13.000000476837158,-13.618219042968748,4.115632653808594,9.150638745117186,-22.198473282442748,-13.297709923664122,-21.480916030534353,-4.647145422363281,-0.296881005859375,0.70868369140625,-36.595419847328245,19.923664122137403,-11.709923664122137,0.0
13.010000705718994,-10.742782849121093,-1.1875240234375,8.588001354980468,-13.557251908396946,-26.778625954198475,-14.885496183206106,-5.154716174316406,-1.9656395629882812,2.437297290039062,-33.17557251908397,22.076335877862597,-5.480916030534351,0.0
13.020000696182251,-10.570400329589843,-2.1930887207031247,9.090783703613281,7.358778625954199,-32.88549618320611,-15.98473282442748,-4.053383410644531,-0.25139117431640623,1.0366893188476562,-30.564885496183205,21.862595419847327,-4.137404580152672,0.0
13.030000686645508,-13.680468286132811,0.19153613281249998,10.86009873046875,18.458015267175572,-42.33587786259542,-21.557251908396946,-5.963956335449218,-0.9026140258789062,-1.1444283935546875,-31.374045801526716,29.389312977099237,-2.351145038167939,0.0
13.040000438690186,-15.116989282226562,1.0941501586914062,11.999738720703125,11.786259541984732,-68.58015267175573,-23.96946564885496,-9.296685046386719,-2.4564509033203126,-2.0374656127929685,-23.19083969465649,38.61068702290076,-3.6946564885496183,0.0
13.050000429153442,-14.832079284667968,-0.852335791015625,14.128183996582031,18.061068702290076,-90.90076335877863,-23.14503816793893,-10.632649572753905,-1.6424223388671875,-0.6679822631835937,-19.862595419847327,48.36641221374046,-8.854961832061068,0.0
13.0600004196167,-17.92059942626953,0.02633621826171875,16.268600280761717,29.862595419847327,-114.58015267175573,-27.297709923664122,-14.937424157714842,-5.173869787597656,2.7269956909179687,-16.80916030534351,51.11450381679389,-10.106870229007633,0.0
13.070000648498535,-19.972430249023436,1.0462661254882812,18.018761694335936,33.603053435114504,-151.09923664122138,-31.66412213740458,-14.144943408203124,-5.284003063964843,3.411737365722656,-9.221374045801527,46.656488549618324,-16.091603053435115,0.0
13.080000638961792,-21.377826623535157,0.7852981445312499,16.79053624267578,45.06870229007634,-186.29007633587787,-28.564885496183205,-14.884751721191405,-5.140350964355468,3.797203833007812,7.129770992366412,42.50381679389313,-15.938931297709924,0.0
13.090276002883911,-22.436063757324217,-0.07900865478515624,16.47689582519531,53.41984732824427,-217.3587786259542,-21.633587786259543,-12.322955944824217,-1.350329736328125,2.6623522460937497,20.9618320610687,28.106870229007633,-14.534351145038167,0.0
13.100000858306885,-21.957223425292966,0.3016694091796875,13.986926098632813,76.91603053435115,-248.54961832061068,-7.572519083969466,-8.202534887695313,2.7054478759765623,0.05746083984375,10.732824427480915,27.14503816793893,-12.564885496183207,0.0
13.110000610351562,-20.420145959472656,1.5562310791015623,5.286397265624999,65.74045801526718,-270.21374045801525,4.961832061068702,-9.758765966796874,0.8714894042968749,0.3591302490234375,-0.24427480916030533,32.94656488549618,-1.8473282442748091,0.0
13.120000839233398,-18.854338073730467,0.36391865234375,-0.5386953735351562,20.106870229007633,-286.80916030534354,2.2748091603053435,-10.960655200195312,-0.3902548706054687,1.388636962890625,1.297709923664122,28.9618320610687,3.7709923664122136,0.0
13.130000591278076,-15.978901879882812,-0.5913678100585937,-3.6200329101562496,1.9389312977099236,-286.36641221374043,3.6946564885496183,-1.848323681640625,10.522516296386717,-2.592920397949219,-21.572519083969464,11.816793893129772,-10.061068702290076,0.0
13.140000820159912,-11.228805786132812,3.6822821533203123,-5.856217260742187,-17.328244274809162,-272.91603053435114,8.335877862595419,-1.0630255371093749,15.689203479003906,-4.6064439941406246,-144.77862595419847,70.97709923664122,-9.740458015267176,0.0
13.15000057220459,-11.099518896484375,7.455543969726562,-4.977545251464844,-66.6412213740458,-255.64885496183206,11.603053435114504,-7.620743884277343,5.72693037109375,-5.4899044067382805,-243.1908396946565,119.41984732824427,14.946564885496183,0.0
13.160000562667847,-9.016563452148437,1.0271125122070313,-3.469198205566406,-96.30534351145039,-236.53435114503816,19.480916030534353,-16.515203051757812,-5.68862314453125,-3.1076737548828124,-220.06106870229007,133.74045801526717,33.465648854961835,0.0
13.170000553131104,-6.1076084350585935,-7.982268334960937,-0.6679822631835937,-43.603053435114504,-211.17557251908397,25.83206106870229,-10.575188732910156,-0.5051765502929687,-8.619125976562499,-171.31297709923663,100.33587786259542,18.18320610687023,0.0
13.18000054359436,-4.7572786987304685,-9.847351428222655,-0.24660277099609373,35.083969465648856,-173.63358778625954,25.709923664122137,-9.552864624023437,4.486733911132812,-8.224082702636718,-211.81679389312978,126.4885496183206,12.305343511450381,0.0
13.190000534057617,-7.017405065917968,-5.45877978515625,1.3383587280273437,72.21374045801527,-147.64885496183206,16.732824427480917,-12.279860314941406,-6.1267620483398435,-3.27526787109375,-236.0916030534351,155.00763358778627,19.114503816793892,0.0
13.200000524520874,-5.398924743652343,-5.590460876464843,1.9943699829101562,97.98473282442748,-134.68702290076337,13.709923664122137,-4.61602080078125,-3.4811692138671875,-5.628768103027343,-173.38931297709922,114.53435114503817,19.770992366412212,0.0
13.210000276565552,-7.141903552246093,-0.852335791015625,1.3862427612304686,130.36641221374046,-107.19083969465649,10.091603053435115,-10.40041201171875,-5.1690813842773435,-3.593696691894531,-178.0,133.54198473282443,28.519083969465647,0.0
13.220000505447388,-7.400477331542969,0.7110778930664062,0.6631938598632812,115.12977099236642,-109.20610687022901,6.748091603053435,-8.154650854492187,-15.456965917968748,1.0749965454101562,-113.5114503816794,136.27480916030535,35.32824427480916,0.0
13.230000257492065,-6.8569935546875,1.209071838378906,0.13168109130859373,109.74045801526718,-100.25954198473282,6.931297709923665,-10.165780249023436,-14.484920043945312,0.4955997436523437,-12.076335877862595,111.8473282442748,54.94656488549618,0.0
13.240000486373901,-7.000645654296875,2.3870190551757813,-0.9169792358398436,91.12977099236642,-95.55725190839695,2.7480916030534353,-11.25514200439453,-11.082759484863281,-0.842758984375,62.51908396946565,93.74045801526718,58.916030534351144,0.0
13.250000953674316,-6.56968935546875,5.463568188476562,-0.565031591796875,61.51145038167939,-86.21374045801527,-1.4045801526717556,-11.240776794433593,-5.070919116210937,-2.379836450195312,105.93893129770993,74.07633587786259,55.87786259541985,0.0
13.260000705718994,-7.6997525390625,9.246406811523437,-0.13407529296874998,4.030534351145038,-84.4885496183206,-2.8091603053435112,-8.889670764160156,1.139639990234375,-3.071760729980469,103.29770992366412,65.49618320610686,48.83969465648855,0.0
13.270000696182251,-4.503493322753906,6.579266162109374,-2.2744915771484373,-46.18320610687023,-83.98473282442748,6.778625954198473,-9.916783276367187,-1.9776105712890624,0.5123591552734374,87.34351145038168,81.78625954198473,50.961832061068705,0.0
13.280000686645508,-1.6519991455078125,2.5378537597656248,-3.746925598144531,-64.91603053435115,-63.05343511450382,15.16030534351145,-11.633425866699218,-4.594472985839843,1.6208745239257811,99.38931297709924,82.42748091603053,54.94656488549618,0.0
13.290000438690186,-0.9361328491210937,1.2641384765625,-3.0885201416015624,-70.01526717557252,-38.48854961832061,14.183206106870228,-9.514557397460937,-1.3814543579101561,-0.086191259765625,100.47328244274809,71.5114503816794,51.19083969465649,0.0
13.300000667572021,-0.5530605834960938,-0.26815058593749996,-1.9800047729492187,-67.1145038167939,-19.083969465648856,12.335877862595419,-6.8402341430664055,3.88818349609375,-2.3965958618164063,74.83969465648855,63.69465648854962,41.541984732824424,0.0
13.3100004196167,1.3144167114257812,-3.4524387939453125,-0.46208092041015625,-51.66412213740458,-2.8396946564885495,15.114503816793894,-10.309432348632813,-3.4620156005859375,1.2306196533203124,36.74809160305343,86.33587786259542,41.80152671755725,0.0
13.320000410079956,0.0047884033203125,-3.0909143432617188,2.4349030883789062,-21.64885496183206,21.374045801526716,16.83969465648855,-10.922347973632812,-7.747636572265624,4.316745593261719,52.0,79.77099236641222,40.10687022900763,0.0
13.330000400543213,-2.0542250244140625,-0.4525041137695312,6.375759020996093,-5.206106870229007,32.29007633587786,14.320610687022901,-9.193734375,-4.089296435546875,2.9831752685546875,66.87022900763358,58.12213740458015,32.25954198473283,0.0
13.34000039100647,-3.0550013183593747,1.1276689819335937,7.3094976684570305,8.122137404580153,35.37404580152672,17.450381679389313,-13.929465258789062,-7.862558251953125,3.919308117675781,65.08396946564885,56.33587786259542,31.404580152671755,0.0
13.350000381469727,-2.6216508178710938,2.327164013671875,7.252036828613281,10.122137404580153,34.0,22.625954198473284,-10.390835205078124,-4.256890551757812,3.27526787109375,78.65648854961832,32.54961832061068,22.65648854961832,0.0
13.360000848770142,-3.976768957519531,3.660734338378906,7.977479931640625,10.870229007633588,35.64885496183206,28.091603053435115,-11.489773767089844,-2.9927520751953125,3.5529952636718747,72.62595419847328,21.435114503816795,18.793893129770993,0.0
13.37000060081482,-4.321533996582031,4.637568615722656,8.176198669433592,3.3282442748091605,30.778625954198475,36.67175572519084,-9.907206469726562,2.636016027832031,1.3192051147460937,56.900763358778626,7.068702290076335,10.931297709923664,0.0
13.380000829696655,-4.522646936035156,5.980715747070312,8.604760766601562,-14.305343511450381,27.114503816793892,41.603053435114504,-11.652579479980469,1.3910311645507811,2.0973206542968748,21.587786259541986,20.625954198473284,14.381679389312977,0.0
13.390000581741333,-4.395754248046875,3.9552211425781247,7.544129431152343,-36.3206106870229,19.801526717557252,45.11450381679389,-11.034875451660156,-1.70467158203125,1.4532804077148436,33.20610687022901,3.2977099236641223,14.610687022900763,0.0
13.40000057220459,-4.970362646484375,2.96881005859375,8.240842114257813,-48.0763358778626,17.282442748091604,46.0763358778626,-9.586383447265625,2.061407629394531,-1.0007762939453124,29.068702290076335,-7.694656488549619,13.068702290076336,0.0
13.410000562667847,-5.015852478027344,2.281674182128906,9.562441430664062,-31.954198473282442,19.206106870229007,54.12213740458015,-7.987056738281249,2.729389892578125,-1.9321207397460936,-16.65648854961832,6.229007633587786,15.770992366412214,0.0
13.420000553131104,-5.870582470703124,3.6391865234374996,8.86812294921875,-31.862595419847327,23.64885496183206,59.51145038167939,-11.314997045898437,-1.0558429321289062,-1.7669208251953124,-29.14503816793893,20.564885496183205,22.763358778625953,0.0
13.43000054359436,-9.150638745117186,3.2800562744140622,10.091559997558592,-49.19083969465649,17.52671755725191,57.41984732824427,-9.399635717773437,-1.908178723144531,-1.8076222534179687,-16.82442748091603,14.0,24.091603053435115,0.0
13.440000534057617,-8.544905725097657,-2.288856787109375,10.998962426757812,-26.48854961832061,16.106870229007633,72.54961832061069,-10.199299072265624,-1.6160861206054686,-1.8339584716796873,-18.85496183206107,20.137404580152673,27.557251908396946,0.0
13.450000524520874,-8.504204296874999,-4.223371728515625,10.836156713867187,13.86259541984733,32.87022900763359,78.65648854961832,-9.349357482910156,-1.0797849487304687,-3.0047230834960934,-29.709923664122137,22.0,24.061068702290076,0.0
13.460000276565552,-2.7844565307617186,-12.935871569824219,9.234435803222656,50.274809160305345,33.9236641221374,71.08396946564885,-10.953472595214842,-1.6448165405273436,-2.6719290527343746,-28.580152671755727,30.778625954198475,24.38167938931298,0.0
13.470000267028809,-4.5322237426757805,-8.741230261230468,5.430049365234375,113.72519083969466,64.27480916030534,54.412213740458014,-11.738770739746093,-2.6144682128906247,-2.4851813232421875,-18.671755725190838,31.206106870229007,21.87786259541985,0.0
13.480000257492065,-1.3407529296874998,-9.332598071289063,-1.0845733520507812,139.78625954198472,76.03053435114504,38.58015267175573,-11.303026037597656,-2.2361843505859373,-2.2936451904296873,-19.389312977099237,32.47328244274809,16.137404580152673,0.0
13.49000072479248,-3.861847277832031,-1.4317325927734375,-1.0486603271484374,188.41221374045801,110.38167938931298,35.02290076335878,-12.8329208984375,-1.1563994018554686,-2.5139117431640625,-32.13740458015267,38.99236641221374,11.83206106870229,0.0
13.500000238418579,-10.407594616699217,10.522516296386717,4.0222587890625,159.58778625954199,115.19083969465649,19.81679389312977,-15.004461804199218,-2.195482922363281,-1.24498486328125,-30.38167938931298,47.70992366412214,13.297709923664122,0.0
13.510000944137573,-10.371681591796875,9.495403784179686,4.893748193359374,102.7175572519084,97.98473282442748,22.99236641221374,-16.237475659179687,-1.924938134765625,-0.9193734375,-16.30534351145038,40.030534351145036,14.396946564885496,0.0
13.520000696182251,-7.563283044433593,2.712630480957031,4.096479040527344,86.25954198473282,96.54961832061069,32.94656488549618,-15.99326708984375,0.5530605834960938,-1.7645266235351562,-20.68702290076336,27.893129770992367,14.702290076335878,0.0
13.530000448226929,-9.97903251953125,4.69263525390625,3.718195178222656,75.87786259541984,103.86259541984732,23.52671755725191,-16.68997977294922,-0.02154781494140625,-1.1276689819335937,-18.442748091603054,20.763358778625953,17.862595419847327,0.0
13.540000677108765,-2.731784094238281,-9.37808790283203,-0.852335791015625,92.1526717557252,94.59541984732824,29.358778625954198,-15.504849951171874,0.2154781494140625,-0.30406361083984373,-14.748091603053435,9.725190839694656,20.641221374045802,0.0
13.550000429153442,-8.980650427246093,-8.20971749267578,2.166752502441406,179.57251908396947,137.00763358778627,30.48854961832061,-16.182409020996094,-0.2346317626953125,1.6735469604492186,-11.633587786259541,4.030534351145038,24.213740458015266,0.0
13.5600004196167,-8.825027319335938,-3.394977954101562,4.146757275390625,180.77862595419847,136.36641221374046,9.86259541984733,-12.492944262695312,2.1715409057617188,1.3742717529296875,-10.045801526717558,-17.022900763358777,17.206106870229007,0.0
13.570000410079956,-12.43069501953125,9.418789331054686,3.229778039550781,157.0229007633588,143.5114503816794,-11.34351145038168,-12.904746948242186,2.2744915771484373,1.5945383056640625,-16.793893129770993,-19.740458015267176,19.419847328244273,0.0
13.58000111579895,-11.563994018554688,13.55357559814453,4.912901806640625,84.50381679389314,121.96946564885496,-30.9618320610687,-12.406753002929687,4.187458703613281,0.6368576416015624,-38.68702290076336,-26.091603053435115,18.68702290076336,0.0
13.590000629425049,-11.415553515625,14.38436357421875,4.089296435546875,15.312977099236642,98.62595419847328,-41.267175572519086,-12.65335577392578,2.4157494750976563,0.44053310546874996,-56.3206106870229,-29.770992366412212,21.66412213740458,0.0
13.600000858306885,-10.424354028320312,9.555258825683593,2.4971523315429685,-42.030534351145036,79.16030534351145,-43.83206106870229,-12.650961572265624,1.6807295654296874,0.15562310791015624,-65.66412213740458,-40.656488549618324,23.022900763358777,0.0
13.610000610351562,-9.526528405761718,4.247313745117188,1.4987702392578124,-59.465648854961835,71.6793893129771,-39.31297709923664,-12.083535778808592,-0.40940848388671874,0.3758896606445312,-74.29007633587786,-47.55725190839695,22.48854961832061,0.0
13.620000839233398,-10.716446630859375,5.623979699707031,1.93451494140625,-73.92366412213741,76.76335877862596,-42.0763358778626,-12.026074938964843,-2.4588451049804685,0.7876923461914062,-61.31297709923664,-60.79389312977099,17.893129770992367,0.0
13.630000829696655,-10.067617980957031,1.915361328125,0.7493851196289062,-73.5114503816794,75.08396946564885,-42.06106870229008,-10.9941740234375,-2.81558115234375,0.7733271362304687,-53.465648854961835,-73.2824427480916,9.435114503816793,0.0
13.640000820159912,-9.449913952636718,2.379836450195312,2.3630770385742186,-57.74045801526717,82.22900763358778,-41.29770992366412,-11.858480822753906,-6.543353137207031,2.398990063476562,-28.076335877862597,-79.72519083969466,6.641221374045801,0.0
13.65000033378601,-8.049305981445311,0.2609679809570312,0.18435352783203124,-49.603053435114504,77.14503816793894,-38.732824427480914,-10.151415039062499,-2.8275521606445313,0.8547299926757812,5.770992366412214,-107.09923664122137,-5.267175572519084,0.0
13.660000562667847,-9.832986218261718,2.9855694702148434,2.3127988037109373,-25.786259541984734,87.83206106870229,-38.213740458015266,-10.407594616699217,-1.9536685546875,-0.8571241943359375,12.793893129770993,-112.06106870229007,-11.648854961832061,0.0
13.670000553131104,-7.6997525390625,0.6081272216796875,1.0893617553710937,-9.664122137404581,86.82442748091603,-33.7557251908397,-8.506598498535157,-0.507570751953125,-4.393360046386719,21.801526717557252,-103.29770992366412,-15.114503816793894,0.0
13.68000054359436,-12.263100903320312,10.000580334472655,2.85388837890625,-21.206106870229007,91.90839694656489,-42.35114503816794,-7.675810522460937,0.5051765502929687,-5.736507177734374,35.37404580152672,-90.68702290076335,-16.793893129770993,0.0
13.690000772476196,-10.817003100585938,7.81467421875,2.6216508178710938,-68.04580152671755,70.54961832061069,-43.52671755725191,-7.6997525390625,3.8570588745117185,-7.570465649414062,45.86259541984733,-88.36641221374046,-19.709923664122137,0.0
13.700000524520874,-11.882422839355469,6.0525417968749995,2.779668127441406,-82.33587786259542,57.86259541984733,-38.80916030534351,-9.665392102050781,2.7581203125,-6.950367419433594,28.198473282442748,-60.36641221374046,-14.396946564885496,0.0
13.71000051498413,-9.466673364257812,0.42377369384765623,1.9536685546875,-61.770992366412216,61.404580152671755,-30.16793893129771,-8.535328918457031,3.289633081054687,-7.091625317382812,22.229007633587788,-50.6412213740458,-18.595419847328245,0.0
13.720000267028809,-11.664550488281249,5.741295581054687,2.6240450195312497,-59.93893129770992,60.29007633587786,-32.412213740458014,-8.904035974121093,1.9297265380859374,-4.503493322753906,6.870229007633588,-31.450381679389313,-15.022900763358779,0.0
13.730000734329224,-8.068459594726562,1.3335703247070312,2.020706201171875,-62.01526717557252,52.47328244274809,-27.81679389312977,-9.241618408203124,-0.1292868896484375,-2.834734765625,10.625954198473282,-27.709923664122137,-11.587786259541986,0.0
13.740000247955322,-13.606248034667967,6.574477758789062,3.7517140014648436,-67.7557251908397,53.87786259541985,-32.01526717557252,-9.516951599121093,-0.8810662109374999,-0.5410895751953124,19.572519083969464,-30.931297709923665,-12.076335877862595,0.0
13.750000953674316,-11.235988391113281,4.939238024902344,2.147598889160156,-92.61068702290076,36.67175572519084,-29.984732824427482,-8.310273962402343,1.0127473022460938,0.21308394775390624,21.61832061068702,-38.67175572519084,-18.396946564885496,0.0
13.760000705718994,-11.516109985351562,5.42047255859375,2.1715409057617188,-91.5114503816794,36.99236641221374,-22.106870229007633,-9.162609753417968,-0.7972691528320313,1.8722656982421875,13.450381679389313,-35.89312977099237,-16.99236641221374,0.0
13.770000696182251,-9.720458740234374,1.37906015625,0.9002198242187499,-89.0381679389313,35.37404580152672,-17.52671755725191,-10.486603271484375,-1.9991583862304687,2.422932080078125,33.98473282442748,-50.595419847328245,-18.137404580152673,0.0
13.780000448226929,-12.524068884277343,3.342305517578125,2.3582886352539063,-80.97709923664122,42.38167938931298,-19.435114503816795,-9.26316622314453,-0.51714755859375,3.1100679565429687,44.274809160305345,-64.83969465648855,-23.083969465648856,0.0
13.790000677108765,-11.082759484863281,2.540247961425781,2.262520568847656,-88.03053435114504,34.67175572519084,-18.717557251908396,-11.504138977050781,-0.6464344482421874,2.437297290039062,59.02290076335878,-77.90839694656489,-24.12213740458015,0.0
13.8000009059906,-11.355698474121093,2.2002713256835937,2.674323254394531,-81.34351145038168,36.732824427480914,-17.96946564885496,-11.422736120605467,-1.3335703247070312,3.229778039550781,57.32824427480916,-84.12213740458016,-24.65648854961832,0.0
13.810000658035278,-9.038111267089842,-0.17956512451171874,2.0374656127929685,-75.05343511450381,32.36641221374046,-17.31297709923664,-10.620678564453124,0.01915361328125,2.4061726684570313,52.74809160305343,-92.94656488549619,-28.793893129770993,0.0
13.820000886917114,-6.698976245117187,-3.438073583984375,1.8459294799804686,-48.412213740458014,38.030534351145036,-15.83206106870229,-10.216058483886718,0.8954314208984374,2.1260510742187497,48.25954198473283,-102.87022900763358,-30.580152671755727,0.0
13.830000638961792,-6.7085530517578125,-2.473210314941406,2.0925322509765625,-4.717557251908397,50.961832061068705,-21.0381679389313,-10.666168395996094,0.38307226562499996,2.2744915771484373,48.961832061068705,-105.63358778625954,-31.83206106870229,0.0
13.840000867843628,-7.551312036132812,-0.6871358764648438,1.6352397338867186,8.198473282442748,52.10687022900763,-24.68702290076336,-10.924742175292968,0.277727392578125,2.3630770385742186,44.70229007633588,-104.12213740458016,-30.916030534351144,0.0
13.850000619888306,-7.419630944824219,1.0366893188476562,1.2713210815429687,18.244274809160306,54.961832061068705,-23.053435114503817,-9.191340173339842,-0.24660277099609373,2.6815058593749996,33.3587786259542,-103.22137404580153,-29.6793893129771,0.0
13.860000848770142,-8.975862023925782,1.649604943847656,1.1875240234375,23.893129770992367,59.98473282442748,-21.66412213740458,-7.898471276855468,1.5490484741210937,1.9033903198242186,25.801526717557252,-103.98473282442748,-30.53435114503817,0.0
13.87000060081482,-9.03332286376953,0.8116343627929687,1.149216796875,33.25190839694657,63.465648854961835,-19.6793893129771,-8.367734802246094,1.4532804077148436,0.8834604125976562,19.328244274809162,-101.81679389312977,-25.755725190839694,0.0
13.880000591278076,-9.380482104492186,1.5921441040039062,1.5921441040039062,40.76335877862596,68.04580152671755,-20.885496183206108,-8.034940771484374,0.34237083740234375,1.3479355346679687,8.458015267175572,-91.92366412213741,-23.49618320610687,0.0
13.890000581741333,-9.277531433105468,2.2744915771484373,1.9297265380859374,43.70992366412214,68.13740458015268,-20.885496183206108,-6.9719152343749995,0.5770026000976562,0.6631938598632812,7.694656488549619,-93.5114503816794,-24.50381679389313,0.0
13.90000057220459,-9.674968908691406,2.655169641113281,2.4875755249023435,42.74809160305343,66.87022900763358,-20.671755725190838,-8.525752111816406,-1.1276689819335937,1.3120225097656248,0.9923664122137404,-82.99236641221374,-23.31297709923664,0.0
13.910000562667847,-9.323021264648437,3.1004911499023438,3.0166940917968748,36.33587786259542,63.63358778625954,-21.129770992366414,-7.4603323730468745,-1.448492004394531,1.0893617553710937,3.9083969465648853,-82.35114503816794,-27.221374045801525,0.0
13.920000553131104,-9.34696328125,2.5426421630859375,3.39018955078125,29.17557251908397,58.87022900763359,-22.83969465648855,-8.820238916015624,-2.693476867675781,1.5753846923828123,3.66412213740458,-73.08396946564885,-26.366412213740457,0.0
13.93000054359436,-10.690110412597656,3.402160559082031,4.220977526855468,19.69465648854962,54.3206106870229,-25.31297709923664,-9.828197814941406,-2.8227637573242186,1.3192051147460937,26.30534351145038,-78.56488549618321,-28.717557251908396,0.0
13.940000534057617,-10.019733947753906,3.019088293457031,3.84987626953125,16.732824427480917,47.38931297709924,-24.198473282442748,-7.48906279296875,-0.584185205078125,0.4955997436523437,24.977099236641223,-72.85496183206106,-35.099236641221374,0.0
13.950000524520874,-8.927977990722656,3.246537451171875,3.4332851806640625,19.572519083969464,44.51908396946565,-20.68702290076336,-9.72285294189453,-2.923320227050781,0.8667010009765624,30.244274809160306,-62.534351145038165,-33.12977099236641,0.0
13.96000051498413,-8.700528833007812,3.8187516479492185,3.42849677734375,16.793893129770993,42.534351145038165,-19.450381679389313,-9.842563024902343,-2.6599580444335937,0.9911994873046874,53.7557251908397,-67.23664122137404,-32.38167938931298,0.0
13.970000505447388,-9.016563452148437,4.276044165039062,3.2728736694335936,13.465648854961833,41.57251908396947,-19.282442748091604,-6.967126831054687,-0.09337386474609374,0.39983167724609375,56.61068702290076,-63.908396946564885,-35.45038167938932,0.0
13.980000495910645,-8.63109698486328,5.082890124511718,3.1028853515624997,1.8931297709923665,37.51145038167939,-18.946564885496183,-7.999027746582031,-0.086191259765625,0.5889736083984375,54.68702290076336,-56.29007633587786,-34.396946564885496,0.0
13.99000096321106,-9.323021264648437,5.1690813842773435,3.2417490478515623,-9.17557251908397,35.52671755725191,-16.732824427480917,-7.522581616210937,0.7829039428710937,0.24660277099609373,52.030534351145036,-51.11450381679389,-34.35114503816794,0.0
14.000000476837158,-8.513781103515624,3.976768957519531,2.7820623291015623,-8.80916030534351,33.66412213740458,-13.267175572519085,-6.208164904785156,2.779668127441406,-0.1197100830078125,37.7557251908397,-39.847328244274806,-34.99236641221374,0.0
14.010000944137573,-7.105990527343749,2.9664158569335934,2.7844565307617186,-8.488549618320612,34.01526717557252,-9.312977099236642,-6.41646044921875,2.7054478759765623,-0.03591302490234375,10.931297709923664,-20.366412213740457,-31.083969465648856,0.0
14.020000696182251,-7.900865478515625,2.176329309082031,2.7533319091796873,-6.854961832061068,36.62595419847328,-8.061068702290076,-7.580042456054687,0.8954314208984374,0.46208092041015625,9.648854961832061,-17.129770992366414,-25.6793893129771,0.0
14.030000686645508,-8.683769421386717,1.209071838378906,3.0310593017578125,-0.5038167938931297,39.48091603053435,-9.32824427480916,-6.256048937988281,1.7357962036132812,0.8882488159179687,4.244274809160306,-13.465648854961833,-24.65648854961832,0.0
14.040000438690186,-9.76116016845703,2.0087351928710935,3.4739866088867184,1.3740458015267176,40.717557251908396,-12.412213740458014,-6.785167504882812,0.689530078125,1.3335703247070312,-0.3511450381679389,-11.34351145038168,-24.18320610687023,0.0
14.050000667572021,-10.352527978515624,2.6312276245117188,4.007893579101562,-8.259541984732824,35.786259541984734,-14.641221374045802,-6.478709692382812,0.507570751953125,1.189918225097656,-4.748091603053435,-8.396946564885496,-24.290076335877863,0.0
14.0600004196167,-10.072406384277343,0.5770026000976562,4.407725256347656,-8.687022900763358,31.862595419847327,-15.465648854961833,-5.987898352050781,0.5410895751953124,0.7972691528320313,-11.358778625954198,-4.122137404580153,-23.51145038167939,0.0
14.070000648498535,-10.225635290527343,0.086191259765625,5.487510205078125,-6.320610687022901,29.954198473282442,-19.267175572519083,-5.659892724609374,1.1468225952148436,2.123656872558594,-18.35114503816794,-2.122137404580153,-23.64885496183206,0.0
14.080000638961792,-12.246341491699217,0.3136404174804687,6.835445739746094,-10.076335877862595,18.38167938931298,-24.412213740458014,-5.513846423339843,1.1468225952148436,3.0837317382812497,-28.748091603053435,2.2290076335877864,-21.923664122137403,0.0
14.090000629425049,-11.1474029296875,-0.6536170532226562,7.893682873535155,-8.80916030534351,5.435114503816794,-25.328244274809162,-3.699041564941406,1.0821791503906248,3.603273498535156,-46.76335877862596,8.442748091603054,-15.374045801526718,0.0
14.100000858306885,-13.32373223876953,1.2689268798828124,9.603142858886718,-13.358778625954198,-6.778625954198473,-27.954198473282442,-3.8283284545898435,0.19153613281249998,2.2840683837890623,-49.099236641221374,10.854961832061068,-7.908396946564886,0.0
14.110000848770142,-13.000515014648437,0.11731588134765625,10.596736547851561,-9.282442748091603,-26.229007633587788,-25.81679389312977,-2.9855694702148434,-1.0749965454101562,-1.9584569580078124,-38.3206106870229,17.16030534351145,-1.1450381679389312,0.0
14.120000839233398,-13.357251062011718,-0.8882488159179687,11.659762084960937,9.16030534351145,-40.2442748091603,-21.206106870229007,-4.367023828124999,-1.5945383056640625,-4.027047192382812,-21.786259541984734,27.72519083969466,2.732824427480916,0.0
14.130000591278076,-15.52639776611328,0.9145850341796874,13.661314672851562,24.0,-55.32824427480916,-21.358778625954198,-6.248866333007812,-1.6208745239257811,-3.632003918457031,-9.053435114503817,45.37404580152672,1.2213740458015268,0.0
14.140000581741333,-17.566257580566404,1.5729904907226562,14.97094298095703,28.50381679389313,-87.63358778625954,-21.267175572519083,-11.635820068359374,-3.3303345092773435,0.8810662109374999,7.694656488549619,53.89312977099237,4.366412213740458,0.0
14.150000810623169,-18.289306481933593,1.6208745239257811,15.98608448486328,30.717557251908396,-119.54198473282443,-20.549618320610687,-12.866439721679686,-3.564966271972656,3.3590649291992185,14.641221374045802,44.62595419847328,2.4427480916030535,0.0
14.160000562667847,-22.443246362304688,5.236119030761718,17.4297880859375,27.31297709923664,-154.83969465648855,-20.85496183206107,-14.475343237304687,-5.717353564453124,4.082113830566406,8.65648854961832,48.35114503816794,-3.5267175572519083,0.0
14.170000553131104,-23.180660473632813,5.298368273925781,15.741875915527343,10.335877862595419,-203.81679389312978,-13.404580152671755,-15.172055920410155,-5.219359619140625,2.906560815429687,20.35114503816794,40.80916030534351,-11.557251908396946,0.0
14.18000054359436,-22.653936108398437,2.8945898071289062,14.190433239746094,9.938931297709924,-238.8854961832061,-6.183206106870229,-11.257536206054686,0.02154781494140625,0.01915361328125,16.610687022900763,31.755725190839694,-17.69465648854962,0.0
14.190000534057617,-22.05059729003906,-0.00239420166015625,13.306972827148437,24.717557251908396,-269.00763358778624,0.21374045801526717,-9.473855969238281,-0.5889736083984375,-0.70868369140625,-4.931297709923665,42.152671755725194,-12.702290076335878,0.0
14.200000524520874,-19.42894647216797,-1.956062756347656,6.143521459960938,34.3206106870229,-291.37404580152673,8.15267175572519,-10.307038146972655,-3.447650390625,0.3687070556640625,2.6106870229007635,41.63358778625954,-4.290076335877862,0.0
14.21000051498413,-16.979678173828123,-0.7852981445312499,-1.0271125122070313,17.557251908396946,-300.1374045801527,6.320610687022901,-6.505045910644531,0.14125789794921875,-0.93852705078125,8.030534351145038,28.870229007633586,-10.488549618320612,0.0
14.220000505447388,-14.841656091308593,1.3455413330078123,-3.2058360229492187,-8.67175572519084,-299.40458015267177,2.6412213740458017,-3.191470812988281,6.356605407714843,-1.1540052001953125,-37.786259541984734,46.0763358778626,-17.206106870229007,0.0
14.230000257492065,-12.983755603027342,3.69664736328125,-7.319074475097656,-50.67175572519084,-289.31297709923666,6.229007633587786,-8.228871105957031,4.206612316894531,-1.6065093139648436,-74.35114503816794,74.53435114503817,-3.404580152671756,0.0
14.240000486373901,-11.235988391113281,3.1699229980468746,-7.127538342285156,-80.29007633587786,-270.53435114503816,9.755725190839694,-3.9911341674804683,7.766790185546874,-4.084508032226562,-100.59541984732824,77.52671755725191,-3.1755725190839694,0.0
14.250000715255737,-9.821015209960937,-0.8690952026367187,-2.980781066894531,-74.47328244274809,-243.206106870229,18.12213740458015,-6.993463049316406,8.106766821289062,-3.31357509765625,-177.61832061068702,121.32824427480917,3.83206106870229,0.0
14.260000467300415,-8.645462194824217,-3.871424084472656,-0.201112939453125,-41.57251908396947,-213.1908396946565,27.068702290076335,-15.813701965332031,-5.1331683593749995,-0.45489831542968745,-185.09923664122138,142.61068702290078,21.954198473282442,0.0
14.270000696182251,-7.587225061035156,-6.035782385253906,2.3726538452148436,11.816793893129772,-187.5267175572519,26.83969465648855,-5.961562133789062,0.948103857421875,-5.116408947753906,-147.09923664122138,106.04580152671755,14.610687022900763,0.0
14.280000686645508,-6.373364819335937,-5.109226342773437,1.7932570434570312,67.29770992366412,-164.6259541984733,24.50381679389313,-6.679822631835937,10.39322940673828,-6.845022546386718,-208.3053435114504,130.5648854961832,9.557251908396946,0.0
14.290000677108765,-8.322244970703125,0.5363011718749999,3.1483751831054687,73.37404580152672,-151.9083969465649,18.519083969465647,-12.069170568847655,1.8650830932617186,-2.454056701660156,-307.96946564885496,174.94656488549617,4.656488549618321,0.0
14.300000667572021,-5.355829113769531,-3.1364041748046874,1.848323681640625,80.09160305343511,-148.0,20.27480916030534,-10.450690246582031,-10.970232006835937,-1.2785036865234374,-193.23664122137404,139.78625954198472,31.740458015267176,0.0
14.310000658035278,-6.275202551269531,-2.3582886352539063,-0.03591302490234375,102.61068702290076,-128.70229007633588,17.16030534351145,-9.038111267089842,-13.560758203125,1.1037269653320312,-125.70992366412214,128.91603053435114,39.038167938931295,0.0
14.320000886917114,-8.298302954101562,2.7724855224609373,1.3263877197265623,82.01526717557252,-126.70229007633588,5.129770992366412,-8.808267907714843,-12.808978881835937,2.308010400390625,-23.099236641221374,110.06106870229007,51.05343511450382,0.0
14.330000400543213,-7.350199096679687,3.23696064453125,-0.6751648681640625,52.18320610687023,-129.2824427480916,1.5267175572519085,-10.64222637939453,-13.773842150878906,1.2785036865234374,50.80916030534351,89.26717557251908,58.396946564885496,0.0
14.340001106262207,-4.417302062988281,2.978386865234375,-1.3072341064453123,41.282442748091604,-114.38167938931298,4.442748091603053,-11.391611499023437,-5.540182641601562,-1.7932570434570312,101.31297709923665,65.5114503816794,55.25190839694657,0.0
14.350000858306885,-5.0014872680664055,6.3973068359375,-0.5267243652343749,2.213740458015267,-102.62595419847328,0.2900763358778626,-10.271125122070313,-0.7398083129882812,-1.944091748046875,101.29770992366412,56.82442748091603,48.79389312977099,0.0
14.360000848770142,0.22026655273437498,1.0630255371093749,-3.6487633300781246,-21.0381679389313,-89.98473282442748,9.49618320610687,-12.186486450195313,-3.095702746582031,0.3112462158203125,95.61832061068702,65.26717557251908,50.70229007633588,0.0
14.37000036239624,1.3742717529296875,0.718260498046875,-3.8379052612304685,-13.038167938931299,-55.61832061068702,15.557251908396946,-9.892841259765625,-1.2617442749023438,0.8379705810546875,91.29770992366412,61.86259541984733,49.20610687022901,0.0
14.380000829696655,1.9943699829101562,0.016759411621093748,-3.5242648437499997,-9.664122137404581,-33.37404580152672,16.595419847328245,-10.524910498046875,-3.1579519897460937,0.7038952880859375,86.30534351145039,63.66412213740458,49.9236641221374,0.0
14.390000343322754,0.7924807495117187,1.254561669921875,-1.8363526733398436,8.65648854961832,1.0076335877862594,17.206106870229007,-8.801085302734375,-2.0877438476562498,0.47165772705078124,78.76335877862596,61.52671755725191,46.213740458015266,0.0
14.40000057220459,-1.2880804931640624,3.0980969482421874,0.5458779785156249,-17.755725190839694,4.717557251908397,13.16030534351145,-10.62307276611328,-4.378994836425781,1.5562310791015623,78.21374045801527,59.02290076335878,42.80916030534351,0.0
14.410000562667847,-0.5386953735351562,0.9600748657226562,2.8131869506835936,-6.687022900763359,16.946564885496183,20.076335877862597,-8.307879760742187,-2.0542250244140625,1.0869675537109373,67.55725190839695,54.6412213740458,35.11450381679389,0.0
14.420000314712524,-1.8555062866210936,1.3311761230468748,5.482721801757812,1.83206106870229,25.129770992366414,23.862595419847327,-9.579200842285156,-2.1452046874999997,0.6847416748046875,60.396946564885496,49.49618320610687,29.64885496183206,0.0
14.43000054359436,-1.7381904052734374,2.2864625854492187,6.098031628417968,8.381679389312977,32.74809160305343,29.297709923664122,-9.751583361816406,-1.6400281372070311,0.7350199096679687,49.41984732824427,46.30534351145038,25.267175572519083,0.0
14.440000534057617,-2.2074539306640624,2.3295582153320313,6.0142345703124995,2.213740458015267,32.38167938931298,33.41984732824427,-11.719617126464843,-1.5227122558593749,0.7972691528320313,41.52671755725191,45.06870229007634,24.229007633587788,0.0
14.450000524520874,-2.959233251953125,1.697488977050781,6.950367419433594,-0.07633587786259542,36.3206106870229,36.76335877862596,-12.227187878417968,-1.2832920898437499,1.209071838378906,31.49618320610687,44.70229007633588,23.755725190839694,0.0
14.46000051498413,-4.223371728515625,2.829946362304687,7.9655089233398435,-13.374045801526718,36.3206106870229,34.33587786259542,-13.189656945800781,-5.585672473144531,3.1507693847656246,27.633587786259543,45.969465648854964,28.091603053435115,0.0
14.470000505447388,-4.151545678710937,2.9089550170898435,7.7763669921875,-35.25190839694657,28.580152671755727,32.29007633587786,-11.006145031738281,-3.27526787109375,1.7262193969726563,56.274809160305345,20.83969465648855,27.17557251908397,0.0
14.480000257492065,-5.097255334472656,2.9544448486328125,7.620743884277343,-61.57251908396947,26.458015267175572,28.045801526717558,-11.559205615234374,-1.917755529785156,1.6711527587890624,51.7557251908397,14.977099236641221,27.129770992366414,0.0
14.49000072479248,-5.5641246582031245,1.13006318359375,9.208099584960937,-65.6030534351145,25.022900763358777,29.450381679389313,-9.030928662109375,0.7445967163085937,0.05746083984375,34.87022900763359,6.0458015267175576,21.709923664122137,0.0
14.500000476837158,-5.473144995117187,0.507570751953125,10.443507641601562,-41.221374045801525,29.083969465648856,37.93893129770992,-10.35492218017578,-0.7876923461914062,0.5746083984375,19.541984732824428,8.793893129770993,22.595419847328245,0.0
14.510000944137573,-7.445967163085937,1.3215993164062498,12.409147204589843,-35.32824427480916,31.87786259541985,42.94656488549618,-9.042899670410156,1.9800047729492187,-0.9792284790039062,5.709923664122138,2.4732824427480917,19.282442748091604,0.0
14.520000457763672,-9.358934289550781,0.016759411621093748,13.769053747558592,-16.396946564885496,25.419847328244273,53.038167938931295,-8.619125976562499,2.978386865234375,-2.0781670410156248,-33.29770992366412,12.51908396946565,18.366412213740457,0.0
14.530000686645508,-12.275071911621094,1.5490484741210937,12.895170141601561,-5.633587786259542,25.862595419847327,59.55725190839695,-11.231199987792968,-0.488417138671875,-2.403778466796875,-53.51145038167939,23.52671755725191,24.732824427480917,0.0
14.540000677108765,-7.596801867675781,-5.846640454101562,5.777208605957031,7.603053435114504,31.572519083969464,60.93129770992366,-12.038045947265624,-2.3439234252929686,-2.308010400390625,-55.221374045801525,31.14503816793893,29.00763358778626,0.0
14.550000667572021,-8.729259252929687,-1.0654197387695312,1.8435352783203125,4.717557251908397,44.68702290076336,37.19083969465649,-9.897629663085937,-1.8363526733398436,-3.438073583984375,-59.282442748091604,33.06870229007634,28.549618320610687,0.0
14.5600004196167,-4.074931225585937,-5.908889697265625,-2.5953145996093747,28.9618320610687,54.091603053435115,37.38931297709924,-10.615890161132812,-4.240131140136718,-2.7150246826171873,-62.3206106870229,46.6412213740458,28.33587786259542,0.0
14.570000886917114,-5.698199951171874,-5.322310290527343,0.7900865478515624,96.03053435114504,89.31297709923665,36.030534351145036,-12.871228125,-6.1626750732421876,-1.915361328125,-45.6793893129771,50.25954198473283,23.61832061068702,0.0
14.580000638961792,-2.099714855957031,-10.730811840820312,-1.2904746948242187,160.8091603053435,111.29770992366412,38.25954198473283,-14.044386938476562,-3.507505432128906,-1.6998831787109374,-35.61832061068702,47.786259541984734,11.022900763358779,0.0
14.590000629425049,-4.979939453125,-1.7094599853515624,4.185064501953125,214.53435114503816,144.8854961832061,36.94656488549618,-16.405069775390626,-4.338293408203125,-1.1635820068359375,-25.755725190839694,46.62595419847328,7.175572519083969,0.0
14.600000858306885,-8.576030346679687,5.801150622558594,4.182670300292968,198.53435114503816,140.7175572519084,23.374045801526716,-17.26219396972656,-3.3303345092773435,-0.0526724365234375,1.5114503816793894,35.083969465648856,6.6106870229007635,0.0
14.610000610351562,-13.2159931640625,13.757082739257811,5.604826086425781,149.16030534351145,134.41221374045801,15.709923664122137,-18.193538415527343,0.8547299926757812,-0.5458779785156249,14.13740458015267,15.49618320610687,6.732824427480916,0.0
14.620000839233398,-3.5290532470703124,-0.8954314208984374,0.22026655273437498,108.13740458015268,114.87022900763358,24.48854961832061,-16.232687255859375,3.9528269409179684,-1.2593500732421874,-0.2595419847328244,-1.6793893129770991,7.129770992366412,0.0
14.630000352859497,-5.971138940429687,-0.229843359375,2.6599580444335937,146.0916030534351,139.58778625954199,23.328244274809162,-16.47689582519531,3.744531396484375,-0.062249243164062495,-23.19083969465649,-5.267175572519084,9.908396946564885,0.0
14.640000581741333,-10.036493359375,1.0654197387695312,1.4341267944335936,129.48091603053436,131.4351145038168,4.99236641221374,-15.282189196777344,3.801992236328125,1.62805712890625,-37.41984732824427,-10.213740458015268,11.145038167938932,0.0
14.650000810623169,-11.628637463378906,7.860164050292968,2.442085693359375,109.34351145038168,128.44274809160305,-3.8931297709923665,-13.766659545898436,4.601655590820312,0.9648632690429687,-46.16793893129771,-25.114503816793892,10.885496183206106,0.0
14.660000562667847,-9.770736975097655,3.172317199707031,2.4205378784179685,67.55725190839695,111.38931297709924,-9.251908396946565,-13.512874169921874,3.6655227416992187,0.3687070556640625,-59.404580152671755,-30.244274809160306,12.977099236641221,0.0
14.670000314712524,-10.98699141845703,5.315127685546875,3.375824340820312,59.6793893129771,113.77099236641222,-17.46564885496183,-12.437877624511717,0.7230489013671875,0.7517793212890624,-62.87022900763359,-34.595419847328245,15.954198473282442,0.0
14.68000054359436,-10.632649572753905,7.4411787597656245,4.0988732421875,17.114503816793892,102.53435114503817,-30.916030534351144,-14.080299963378906,-2.5354595581054684,1.3239935180664062,-46.717557251908396,-42.79389312977099,15.770992366412214,0.0
14.690000295639038,-9.79946739501953,7.237671618652343,1.924938134765625,-13.34351145038168,93.54198473282443,-37.099236641221374,-12.00931552734375,-2.559401574707031,1.1156979736328125,-21.633587786259543,-65.64885496183206,11.801526717557252,0.0
14.700000524520874,-9.78031378173828,6.79953271484375,2.760514514160156,-44.25954198473283,88.59541984732824,-41.45038167938932,-9.543287817382812,2.1356278808593747,-0.9409212524414062,-26.748091603053435,-79.69465648854961,3.9236641221374047,0.0
14.71000051498413,-10.230423693847655,4.165910888671875,0.97683427734375,-59.587786259541986,85.77099236641222,-41.06870229007634,-10.261548315429687,-0.6871358764648438,-0.41898529052734373,-33.57251908396947,-75.77099236641222,5.190839694656488,0.0
14.720000505447388,-10.579977136230468,1.9632453613281249,1.618480322265625,-51.282442748091604,88.4885496183206,-40.44274809160305,-10.330980163574218,0.04548983154296875,-1.2689268798828124,-24.16793893129771,-82.51908396946565,2.9923664122137406,0.0
14.730000734329224,-8.17859287109375,-1.3239935180664062,0.8020575561523438,-27.862595419847327,89.6793893129771,-35.64885496183206,-10.350133776855468,-1.2210428466796874,-1.209071838378906,-25.022900763358777,-81.00763358778626,1.0381679389312977,0.0
14.740000486373901,-9.18655177001953,3.287238879394531,2.4492682983398435,-9.86259541984733,95.8473282442748,-37.282442748091604,-9.229647399902344,-0.8068459594726562,-4.074931225585937,-12.641221374045802,-83.12977099236642,-5.099236641221374,0.0
14.750000715255737,-8.542511523437499,3.0047230834960934,1.2569558715820313,-9.34351145038168,92.21374045801527,-36.88549618320611,-9.888052856445311,-2.27927998046875,-5.6407391113281244,11.587786259541986,-75.31297709923665,-5.450381679389313,0.0
14.760000705718994,-11.2240173828125,7.994239343261718,2.2194249389648437,-6.931297709923665,98.3206106870229,-40.961832061068705,-9.289502441406249,0.011971008300781249,-6.133944653320312,20.580152671755727,-63.725190839694655,-10.061068702290076,0.0
14.770000457763672,-10.709264025878905,5.91846650390625,1.6328455322265625,-39.63358778625954,82.04580152671755,-37.847328244274806,-10.287884533691406,-0.277727392578125,-5.9017070922851556,26.229007633587788,-51.05343511450382,-12.65648854961832,0.0
14.780000686645508,-13.895946435546874,11.056423266601563,3.5769372802734374,-54.534351145038165,80.42748091603053,-39.908396946564885,-9.363722692871093,-0.12689268798828124,-4.84586416015625,20.717557251908396,-40.656488549618324,-16.702290076335878,0.0
