timestamp,Thigh_L_Acc_X,Thigh_L_Acc_Y,Thigh_L_Acc_Z,Thigh_L_Gyr_X,Thigh_L_Gyr_Y,Thigh_L_Gyr_Z,Thigh_R_Acc_X,Thigh_R_Acc_Y,Thigh_R_Acc_Z,Thigh_R_Gyr_X,Thigh_R_Gyr_Y,Thigh_R_Gyr_Z,gpio_output
10.000000476837158,-7.407659936523437,-0.43574470214843747,7.060500695800781,40.74809160305343,36.35114503816794,-5.068702290076335,-9.17458076171875,-3.399766357421875,-0.21308394775390624,-12.473282442748092,34.412213740458014,6.763358778625954,0.0
10.010000705718994,-8.645462194824217,1.1923124267578125,7.522581616210937,46.2442748091603,33.725190839694655,-4.091603053435114,-9.399635717773437,-3.948038537597656,-1.714248388671875,-0.3511450381679389,35.20610687022901,5.129770992366412,1.0
10.020093202590942,-10.263942517089843,3.9935283691406247,8.303091357421874,40.38167938931298,27.984732824427482,-0.7633587786259542,-9.153032946777342,-3.361459130859375,0.4644751220703125,3.7709923664122136,34.42748091603053,5.267175572519084,1.0
10.030000686645508,-10.596736547851561,6.0716954101562495,8.379705810546875,21.251908396946565,17.96946564885496,5.938931297709924,-9.33978067626953,-1.6711527587890624,0.373495458984375,4.320610687022901,37.70992366412214,5.984732824427481,1.0
10.040001153945923,-10.797849487304687,6.854599353027344,8.252813122558594,-2.900763358778626,6.2748091603053435,14.977099236641221,-8.86812294921875,-0.8738836059570312,0.3232172241210937,-5.435114503816794,42.412213740458014,8.442748091603054,1.0
10.05000114440918,-10.309432348632813,6.093243225097656,7.4770917846679685,-27.053435114503817,-4.580152671755725,22.625954198473284,-10.153809240722655,-1.936909143066406,1.1348515869140625,-7.419847328244275,43.80152671755725,12.076335877862595,1.0
10.060001134872437,-8.55448253173828,2.7581203125,6.1267620483398435,-35.74045801526717,-10.732824427480915,30.717557251908396,-9.90241806640625,-2.1811177124023438,1.4101847778320311,-5.938931297709924,42.67175572519084,12.106870229007633,1.0
10.070000886917114,-8.123526232910155,2.2481553588867187,4.900930798339844,-30.259541984732824,-7.343511450381679,33.6793893129771,-9.476250170898437,-1.0342951171875,0.7876923461914062,-10.854961832061068,41.404580152671755,12.488549618320612,1.0
10.08000111579895,-8.355763793945313,3.0526071166992184,2.8203695556640622,-36.48854961832061,-5.145038167938932,35.786259541984734,-9.708487731933593,-1.7022773803710936,1.467645617675781,-16.83969465648855,41.465648854961835,15.969465648854962,1.0
10.090001106262207,-9.095572106933593,3.816357446289062,2.0566192260742184,-45.6793893129771,-2.2595419847328246,39.98473282442748,-10.467449658203124,-1.867477294921875,1.8315642700195311,-13.893129770992367,37.74045801526717,17.374045801526716,1.0
10.100000858306885,-9.119514123535156,2.461239306640625,1.8195932617187498,-53.89312977099237,2.4427480916030535,45.11450381679389,-9.900023864746093,-0.20829554443359374,0.39983167724609375,-21.297709923664122,34.152671755725194,16.213740458015266,1.0
10.110000848770142,-10.304643945312499,0.9696516723632812,3.995922570800781,-63.43511450381679,6.99236641221374,46.274809160305345,-10.766724865722656,-0.1388636962890625,0.4381389038085937,-40.12213740458015,31.84732824427481,19.114503816793892,1.0
10.120001077651978,-11.793837377929687,-0.3064578125,6.5385647338867185,-64.77862595419847,6.702290076335878,47.3587786259542,-10.934318981933593,-1.2042834350585936,0.009576806640625,-44.091603053435115,29.221374045801525,21.954198473282442,1.0
10.130000591278076,-11.992556115722655,-2.786850732421875,7.678204724121093,-43.00763358778626,11.34351145038168,46.94656488549618,-10.824185705566405,-1.1061211669921875,0.18435352783203124,-42.900763358778626,23.0381679389313,21.16030534351145,1.0
10.140000820159912,-12.794613671875,-2.138022082519531,7.175422375488281,-22.610687022900763,9.236641221374045,39.57251908396947,-9.995791931152343,-0.6440402465820312,0.11013327636718749,-50.82442748091603,17.954198473282442,19.786259541984734,1.0
10.150000810623169,-13.239935180664062,-0.6679822631835937,5.054159704589844,-18.213740458015266,5.358778625954199,33.38931297709924,-10.081983190917969,-0.00718260498046875,-0.7230489013671875,-62.396946564885496,18.076335877862597,21.221374045801525,1.0
10.160000801086426,-12.004527124023436,0.8571241943359375,1.9009961181640624,-18.50381679389313,0.4580152671755725,30.412213740458014,-11.666944689941406,-0.47884033203125,-0.9983820922851562,-65.31297709923665,17.72519083969466,22.610687022900763,1.0
10.170001029968262,-8.315062365722655,0.7302315063476562,-0.699106884765625,-22.30534351145038,1.3893129770992367,31.099236641221374,-11.097124694824219,-0.7637503295898437,-1.7717092285156248,-63.41984732824427,14.259541984732824,21.66412213740458,1.0
10.18000054359436,-8.760383874511719,1.1348515869140625,-0.5770026000976562,-23.633587786259543,4.870229007633588,26.778625954198475,-12.334926953124999,-1.848323681640625,-2.437297290039062,-64.04580152671755,9.49618320610687,21.984732824427482,1.0
10.190000772476196,-6.459556079101562,-0.45010991210937495,-0.8954314208984374,-18.442748091603054,8.030534351145038,27.633587786259543,-12.066776367187499,-1.5346832641601562,-2.7964275390625,-65.41984732824427,3.404580152671756,20.290076335877863,1.0
10.200000524520874,-7.805097412109374,2.039859814453125,0.028730419921875,-17.00763358778626,13.969465648854962,23.374045801526716,-12.648567370605468,-0.5482721801757812,-3.4763808105468748,-43.770992366412216,-0.16793893129770993,16.045801526717558,1.0
10.210090637207031,-8.901641772460938,3.289633081054687,0.07900865478515624,-23.022900763358777,17.587786259541986,22.625954198473284,-13.204022155761718,-0.35194764404296874,-2.834734765625,-40.51908396946565,-1.5267175572519085,14.412213740458014,0.0
10.22010064125061,-8.013392956542969,1.649604943847656,-0.6847416748046875,-22.99236641221374,23.297709923664122,26.549618320610687,-12.969390393066405,-0.469263525390625,-3.1603461914062496,-37.7557251908397,-4.961832061068702,14.290076335877863,0.0
10.230000495910645,-8.456320263671875,1.0199299072265624,-0.20350714111328125,-10.67175572519084,35.74045801526717,25.786259541984734,-12.648567370605468,0.3806780639648437,-2.6384102294921874,-28.38167938931298,-6.320610687022901,16.564885496183205,0.0
10.24005675315857,-8.269572534179687,1.4125789794921875,-0.3064578125,2.1068702290076335,43.14503816793893,23.0381679389313,-11.731588134765625,0.6248866333007812,-3.0023288818359375,-25.755725190839694,-9.816793893129772,17.206106870229007,0.0
10.250040054321289,-8.84178673095703,2.27927998046875,0.16041151123046873,6.580152671755725,46.94656488549618,20.732824427480917,-11.180921752929686,0.7852981445312499,-2.0566192260742184,-23.72519083969466,-11.099236641221374,16.580152671755727,0.0
10.260197401046753,-9.313444458007812,3.2130186279296873,0.6105214233398437,7.465648854961832,48.091603053435115,19.297709923664122,-10.828974108886719,0.8834604125976562,-3.1459809814453124,-24.53435114503817,-11.49618320610687,15.251908396946565,0.0
10.27000093460083,-9.87608184814453,3.660734338378906,0.7948749511718749,0.183206106870229,45.587786259541986,18.82442748091603,-10.479420666503906,1.139639990234375,-1.5801730957031248,-24.916030534351144,-11.709923664122137,13.374045801526718,0.0
10.280001401901245,-10.156203442382813,3.9911341674804683,1.3000515014648437,-9.755725190839694,43.16030534351145,18.38167938931298,-9.86411083984375,1.005564697265625,-2.2266075439453124,-28.30534351145038,-13.236641221374045,11.908396946564885,0.0
10.290000677108765,-10.369287390136718,3.4715924072265625,1.7645266235351562,-21.083969465648856,37.93893129770992,18.48854961832061,-9.332598071289063,1.005564697265625,-2.3965958618164063,-31.328244274809162,-12.763358778625955,10.885496183206106,0.0
10.30000114440918,-10.54645831298828,2.4205378784179685,2.269703173828125,-26.702290076335878,35.14503816793893,18.427480916030536,-8.741230261230468,0.6272808349609375,-3.1962592163085937,-32.99236641221374,-12.335877862595419,9.587786259541986,0.0
10.3100004196167,-11.324573852539062,2.7150246826171873,2.825157958984375,-29.96946564885496,31.389312977099237,17.19083969465649,-8.497021691894531,0.5003881469726562,-4.170699291992188,-33.343511450381676,-9.84732824427481,9.099236641221374,0.0
10.320001125335693,-9.279925634765624,0.9552864624023437,2.1068974609374997,-25.022900763358777,28.27480916030534,18.03053435114504,-8.382100012207031,0.6153098266601562,-4.422090466308593,-31.83206106870229,-6.0,7.694656488549619,0.0
10.33000111579895,-10.429142431640624,1.3742717529296875,2.3487118286132813,-26.366412213740457,24.18320610687023,13.877862595419847,-9.3852705078125,0.12210428466796874,-3.6463691284179687,-30.33587786259542,-3.954198473282443,5.282442748091603,0.0
10.340000867843628,-8.789114294433594,0.26815058593749996,1.944091748046875,-17.083969465648856,23.282442748091604,14.366412213740459,-9.665392102050781,-0.19393033447265623,-3.1555577880859373,-26.870229007633586,-5.114503816793893,4.8396946564885495,0.0
10.350000619888306,-8.667010009765624,0.4070142822265625,2.0063409912109376,-9.541984732824428,24.244274809160306,12.458015267175572,-9.466673364257812,0.1484405029296875,-1.0366893188476562,-25.557251908396946,-7.1603053435114505,5.236641221374046,0.0
10.360000848770142,-7.745242370605468,-0.44532150878906246,1.5227122558593749,-0.48854961832061067,25.114503816793892,11.679389312977099,-9.188945971679686,-0.507570751953125,-0.93852705078125,-23.52671755725191,-9.801526717557252,5.557251908396947,0.0
10.37000060081482,-8.40843623046875,0.2561795776367187,1.8602946899414061,11.740458015267176,28.931297709923665,9.32824427480916,-9.205705383300781,-1.7286135986328124,-0.27293898925781246,-17.450381679389313,-13.312977099236642,6.122137404580153,0.0
10.380000591278076,-8.765172277832031,0.9097966308593749,1.8124106567382812,20.091603053435115,33.52671755725191,7.908396946564886,-9.138667736816405,-1.0797849487304687,1.1372457885742187,-4.854961832061068,-20.732824427480917,3.6793893129770994,0.0
10.390000820159912,-8.920795385742187,2.0638018310546875,1.438915197753906,23.786259541984734,35.954198473282446,5.969465648854962,-8.643067993164061,0.07900865478515624,0.40940848388671874,8.412213740458014,-26.045801526717558,0.7022900763358778,0.0
10.40000057220459,-9.765948571777344,2.8610709838867185,1.4508862060546874,15.068702290076336,35.02290076335878,5.343511450381679,-8.896853369140624,0.8092401611328125,-0.9121908325195311,12.687022900763358,-27.297709923664122,1.297709923664122,0.0
10.410000324249268,-9.993397729492187,2.6144682128906247,1.3742717529296875,4.2748091603053435,34.6412213740458,5.221374045801527,-9.129090930175781,0.6344634399414062,0.009576806640625,-4.213740458015267,-29.587786259541986,4.122137404580153,0.0
10.420000791549683,-10.465055456542968,2.4564509033203126,1.426944189453125,-6.351145038167939,33.587786259541986,4.0,-9.368511096191405,0.5530605834960938,0.6584054565429687,-12.0,-30.16793893129771,6.2748091603053435,0.0
10.43000078201294,-10.522516296386717,1.668758557128906,1.197100830078125,-13.908396946564885,31.389312977099237,2.9923664122137406,-9.514557397460937,-0.8858546142578124,-0.2537853759765625,-23.69465648854962,-32.48854961832061,8.274809160305344,0.0
10.440000772476196,-10.627861169433594,0.8116343627929687,1.2378022583007813,-15.923664122137405,31.099236641221374,0.7938931297709924,-8.813056311035156,0.09576806640624999,-0.8403647827148437,-19.282442748091604,-36.25954198473283,7.022900763358779,0.0
10.450001001358032,-9.600748657226562,-0.2537853759765625,1.0199299072265624,-9.557251908396946,30.16793893129771,-2.4885496183206106,-9.777919580078125,0.13168109130859373,-0.8212111694335937,-11.49618320610687,-37.099236641221374,5.6183206106870225,0.0
10.460000991821289,-9.373299499511718,-0.9840168823242187,1.3263877197265623,-2.732824427480916,28.900763358778626,-5.877862595419847,-9.579200842285156,1.0319009155273438,-1.22583125,-7.740458015267175,-35.64885496183206,3.786259541984733,0.0
10.470000982284546,-10.1131078125,-0.00718260498046875,2.2385785522460937,3.801526717557252,31.709923664122137,-11.587786259541986,-9.210493786621093,1.4867992309570313,-1.7094599853515624,-15.603053435114504,-33.06870229007634,4.259541984732825,0.0
10.480000972747803,-9.227253198242186,0.9792284790039062,1.886630908203125,8.534351145038167,30.045801526717558,-14.244274809160306,-9.088389501953124,1.1228805786132812,-2.1356278808593747,-22.80916030534351,-29.358778625954198,5.7251908396946565,0.0
10.49000096321106,-9.315838659667968,1.120486376953125,1.68551796875,10.259541984732824,27.72519083969466,-15.694656488549619,-9.677363110351562,0.23223756103515625,-0.8259995727539062,-22.717557251908396,-27.87786259541985,6.824427480916031,0.0
10.500000476837158,-9.30147344970703,1.484405029296875,1.3527239379882812,17.893129770992367,28.015267175572518,-15.908396946564885,-9.751583361816406,-1.7717092285156248,-0.5267243652343749,-16.625954198473284,-25.404580152671755,6.564885496183206,0.0
10.510000705718994,-9.119514123535156,2.39420166015625,1.120486376953125,23.49618320610687,27.83206106870229,-14.885496183206106,-9.291896643066405,-1.7118541870117185,0.3950432739257812,-4.977099236641221,-26.412213740458014,3.4656488549618323,0.0
10.52000117301941,-9.191340173339842,3.383006945800781,1.0414777221679687,24.076335877862597,26.396946564885496,-13.618320610687023,-8.705317236328124,-1.5849614990234373,-1.8459294799804686,1.5725190839694656,-29.282442748091604,1.0687022900763359,0.0
10.530000925064087,-9.069235888671875,3.191470812988281,1.3359645263671873,24.045801526717558,26.396946564885496,-10.381679389312977,-8.609549169921875,-0.5434837768554687,-1.5777788940429687,5.816793893129771,-29.282442748091604,-0.8549618320610687,0.0
10.540001153945923,-9.370905297851563,3.19865341796875,1.66636435546875,20.33587786259542,26.717557251908396,-8.916030534351146,-9.246406811523437,-1.4867992309570313,-1.350329736328125,-2.7480916030534353,-28.30534351145038,0.030534351145038167,0.0
10.550000667572021,-9.950302099609374,3.404554760742187,2.013523596191406,13.816793893129772,24.137404580152673,-8.977099236641221,-8.870517150878905,-1.1707646118164061,-1.3239935180664062,1.9236641221374047,-24.53435114503817,0.0916030534351145,0.0
10.560000896453857,-8.796296899414061,2.4564509033203126,1.1659762084960936,10.183206106870228,19.404580152671755,-6.809160305343512,-9.294290844726563,0.3327940307617187,-1.1013327636718748,14.549618320610687,-23.862595419847327,-1.5877862595419847,0.0
10.570000648498535,-9.619902270507811,1.7405846069335937,1.5873557006835937,15.725190839694656,20.85496183206107,-6.5038167938931295,-9.184157568359375,0.373495458984375,-1.3479355346679687,16.732824427480917,-18.625954198473284,-1.8473282442748091,0.0
10.580000877380371,-10.187328063964843,2.166752502441406,1.8555062866210936,18.580152671755727,21.17557251908397,-7.358778625954199,-10.137049829101562,-0.7924807495117187,-0.9121908325195311,25.297709923664122,-17.236641221374047,-2.0,0.0
10.590000629425049,-10.867281335449219,2.427720483398437,2.2840683837890623,19.862595419847327,18.885496183206108,-8.198473282442748,-9.483432775878907,-1.2210428466796874,-1.608903515625,36.0763358778626,-20.47328244274809,-5.206106870229007,0.0
10.600000619888306,-9.72285294189453,2.4013842651367185,2.0374656127929685,23.267175572519083,15.877862595419847,-6.854961832061068,-10.038887561035155,-1.455674609375,-1.1851298217773436,29.068702290076335,-24.717557251908396,-6.763358778625954,0.0
10.610000610351562,-10.651803186035156,2.7461493041992187,2.6623522460937497,23.923664122137403,14.13740458015267,-6.412213740458015,-9.299079248046874,-0.11252747802734374,-1.0534487304687499,35.725190839694655,-25.129770992366414,-8.625954198473282,0.0
10.62000060081482,-10.759542260742187,3.8139632446289062,2.578555187988281,15.725190839694656,6.870229007633588,-5.770992366412214,-9.639055883789062,0.814028564453125,-0.7015010864257812,34.01526717557252,-25.83206106870229,-8.564885496183207,0.0
10.630000591278076,-9.107543115234375,2.712630480957031,2.176329309082031,16.85496183206107,4.580152671755725,-2.0610687022900764,-9.105148913574219,1.7645266235351562,-0.4333505004882812,23.129770992366414,-22.16793893129771,-7.511450381679389,0.0
10.640001058578491,-9.923965881347655,3.83072265625,2.1835119140624997,9.19083969465649,0.7022900763358778,-1.8931297709923665,-8.750807067871094,2.039859814453125,-0.8786720092773437,3.83206106870229,-19.770992366412212,-4.931297709923665,0.0
10.650099992752075,-9.433154541015625,3.3782185424804685,1.8531120849609375,7.9541984732824424,-0.030534351145038167,1.6030534351145038,-9.583989245605467,0.7661445312499999,-0.6751648681640625,1.8015267175572518,-14.076335877862595,-3.3740458015267176,0.0
10.660001039505005,-9.334992272949219,2.7533319091796873,1.2018892333984375,6.793893129770993,-2.519083969465649,3.312977099236641,-9.497797985839844,-0.06464344482421874,-0.7230489013671875,10.595419847328245,-12.977099236641221,-4.854961832061068,0.0
10.67000126838684,-9.303867651367186,2.3870190551757813,0.9720458740234375,8.83969465648855,-2.8702290076335877,5.190839694656488,-9.363722692871093,-0.46208092041015625,-0.8954314208984374,13.374045801526718,-12.900763358778626,-6.015267175572519,0.0
10.68000054359436,-9.373299499511718,2.109291662597656,1.0726023437499999,7.267175572519084,-2.519083969465649,5.312977099236641,-9.557653027343749,-0.8858546142578124,-0.6823474731445313,17.34351145038168,-13.374045801526718,-6.5038167938931295,0.0
10.690001249313354,-9.404424121093749,1.2785036865234374,0.9552864624023437,6.213740458015267,-1.786259541984733,3.7404580152671754,-9.370905297851563,-0.2154781494140625,-0.5195417602539062,26.50381679389313,-17.374045801526716,-8.122137404580153,0.0
10.700000524520874,-9.483432775878907,1.0175357055664063,1.1252747802734375,7.0534351145038165,-0.9923664122137404,1.1145038167938932,-9.756371765136718,-0.20829554443359374,0.033518823242187495,30.396946564885496,-18.427480916030536,-8.50381679389313,0.0
10.710000991821289,-9.428366137695312,0.8044517578125,1.2425906616210938,8.977099236641221,0.2595419847328244,-1.450381679389313,-9.787496386718749,-0.16759411621093748,-0.3112462158203125,37.099236641221374,-21.053435114503817,-8.641221374045802,0.0
10.720000743865967,-9.579200842285156,0.63206923828125,1.2569558715820313,12.946564885496183,1.7099236641221374,-3.9083969465648853,-10.510545288085936,-0.06943184814453125,-0.011971008300781249,36.83969465648855,-24.702290076335878,-9.007633587786259,0.0
10.730000257492065,-9.392453112792968,0.948103857421875,1.448492004394531,16.717557251908396,2.351145038167939,-6.717557251908397,-10.223241088867187,0.814028564453125,0.07900865478515624,29.66412213740458,-26.778625954198475,-8.732824427480915,0.0
10.74000072479248,-9.6151138671875,1.3407529296874998,1.6328455322265625,17.16030534351145,2.33587786259542,-8.641221374045802,-9.514557397460937,1.3287819213867187,-0.4836287353515625,24.259541984732824,-25.557251908396946,-8.351145038167939,0.0
10.750000715255737,-9.536105212402344,2.2194249389648437,1.687912170410156,15.84732824427481,1.7251908396946565,-10.15267175572519,-9.5384994140625,1.668758557128906,0.9552864624023437,8.458015267175572,-24.38167938931298,-6.732824427480916,0.0
10.760000705718994,-9.552864624023437,2.882618798828125,1.3383587280273437,12.67175572519084,0.2900763358778626,-10.0,-9.222464794921875,2.221819140625,0.507570751953125,4.625954198473282,-19.51145038167939,-6.564885496183206,0.0
10.770000696182251,-9.330203869628905,2.8131869506835936,0.8571241943359375,11.251908396946565,-0.2748091603053435,-8.305343511450381,-10.031704956054687,0.32082302246093747,0.201112939453125,2.4885496183206106,-13.923664122137405,-4.763358778625954,0.0
10.780000686645508,-8.257601525878906,1.7573440185546874,0.277727392578125,21.557251908396946,5.465648854961832,-5.770992366412214,-9.689334118652344,0.01915361328125,0.47884033203125,5.801526717557252,-14.01526717557252,-6.213740458015267,0.0
10.790000677108765,-8.935160595703124,1.8171990600585937,0.055066638183593745,31.129770992366414,9.618320610687023,-6.152671755725191,-9.739612353515625,-0.5147533569335937,-0.2609679809570312,8.900763358778626,-13.618320610687023,-7.099236641221374,0.0
10.8000009059906,-8.78432589111328,2.138022082519531,-0.009576806640625,31.709923664122137,13.32824427480916,-6.549618320610687,-10.237606298828124,-0.20829554443359374,0.6057330200195312,11.587786259541986,-13.450381679389313,-7.648854961832061,0.0
10.8100004196167,-9.368511096191405,2.7557261108398436,0.3112462158203125,27.0381679389313,15.038167938931299,-8.458015267175572,-10.43871923828125,-1.177947216796875,0.05746083984375,14.15267175572519,-14.106870229007633,-7.877862595419847,0.0
10.820001125335693,-9.679757312011718,2.2768857788085937,0.565031591796875,23.022900763358777,16.03053435114504,-10.076335877862595,-10.544064111328124,-0.086191259765625,0.22026655273437498,25.740458015267176,-18.671755725190838,-10.01526717557252,0.0
10.830000638961792,-9.521740002441407,2.2960393920898436,0.6416460449218749,21.862595419847327,16.244274809160306,-11.17557251908397,-10.407594616699217,0.5865794067382812,1.0654197387695312,28.396946564885496,-21.221374045801525,-10.763358778625955,0.0
10.840000867843628,-10.64222637939453,2.5163059448242184,0.9911994873046874,15.511450381679388,14.778625954198473,-12.641221374045802,-11.401188305664062,0.19393033447265623,0.18914193115234373,28.778625954198475,-21.00763358778626,-9.633587786259541,0.0
10.850000381469727,-10.441113439941406,2.2960393920898436,0.8068459594726562,9.34351145038168,11.511450381679388,-14.076335877862595,-10.613495959472656,0.7062894897460937,-0.19632453613281248,29.908396946564885,-23.801526717557252,-9.969465648854962,0.0
10.860000610351562,-10.70686982421875,2.549824768066406,1.4700398193359374,9.664122137404581,13.664122137404581,-16.15267175572519,-9.909600671386718,1.3766659545898436,-0.5363011718749999,23.16030534351145,-24.83969465648855,-10.458015267175572,0.0
10.870000839233398,-9.665392102050781,2.212242333984375,1.3096283081054687,8.610687022900763,13.282442748091603,-17.068702290076335,-9.964667309570311,1.2330138549804688,-0.5219359619140624,7.862595419847328,-22.595419847328245,-8.946564885496183,0.0
10.880000591278076,-10.383652600097655,3.3782185424804685,1.5059528442382812,-3.5267175572519083,9.068702290076336,-18.916030534351144,-9.665392102050781,1.7669208251953124,-0.7230489013671875,10.0,-18.290076335877863,-8.305343511450381,0.0
10.890000581741333,-9.402029919433593,2.4109610717773435,1.1109095703125,-7.480916030534351,7.4961832061068705,-17.14503816793893,-9.330203869628905,1.62805712890625,-0.5147533569335937,-1.251908396946565,-12.16793893129771,-5.893129770992366,0.0
10.90000057220459,-7.802703210449218,-0.08858546142578125,-0.023942016601562498,1.7404580152671756,9.526717557251908,-14.473282442748092,-9.495403784179686,0.02154781494140625,-0.55545478515625,-7.908396946564886,-13.022900763358779,-4.656488549618321,0.0
10.910001039505005,-7.936778503417968,0.7134720947265625,0.031124621582031248,15.770992366412214,15.755725190839694,-16.99236641221374,-9.473855969238281,-0.8164227661132812,-0.22505495605468748,-4.091603053435114,-11.34351145038168,-6.549618320610687,0.0
10.920000553131104,-9.279925634765624,1.5514426757812498,0.40940848388671874,19.81679389312977,19.022900763358777,-17.81679389312977,-9.655815295410155,-0.6871358764648438,0.316034619140625,2.1526717557251906,-11.053435114503817,-7.969465648854962,0.0
10.930001020431519,-8.580818749999999,1.714248388671875,0.12689268798828124,23.801526717557252,22.18320610687023,-18.03053435114504,-9.622296472167967,-0.8643067993164062,0.3950432739257812,7.7251908396946565,-10.885496183206106,-8.687022900763358,0.0
10.940000534057617,-9.526528405761718,2.3535002319335936,0.6584054565429687,22.763358778625953,25.17557251908397,-19.801526717557252,-10.297461340332031,-2.482787121582031,0.2753331909179687,18.702290076335878,-11.221374045801527,-8.687022900763358,0.0
10.950001001358032,-9.880870251464843,2.3822306518554686,0.6272808349609375,17.068702290076335,23.603053435114504,-20.0,-9.83777462158203,-0.23702596435546874,0.4644751220703125,37.7557251908397,-15.893129770992367,-11.877862595419847,0.0
10.960000276565552,-9.928754284667969,2.051830822753906,0.718260498046875,18.793893129770993,23.87786259541985,-19.51145038167939,-9.962273107910155,-0.00718260498046875,1.0438719238281249,30.80916030534351,-20.83969465648855,-11.48091603053435,0.0
10.970000505447388,-9.334992272949219,2.5139117431640625,0.6344634399414062,14.870229007633588,22.3206106870229,-19.6793893129771,-9.667786303710937,0.8379705810546875,1.4820108276367188,32.10687022900763,-21.862595419847327,-11.312977099236642,0.0
10.980000495910645,-9.952696301269532,2.844311572265625,1.2042834350585936,8.83969465648855,21.435114503816795,-20.53435114503817,-8.70771143798828,1.180341418457031,1.235408056640625,26.931297709923665,-22.625954198473284,-11.282442748091603,0.0
10.990000486373901,-9.507374792480467,2.1116858642578125,0.9935936889648437,0.33587786259541985,15.49618320610687,-19.633587786259543,-8.468291271972657,1.917755529785156,1.16837041015625,17.053435114503817,-21.984732824427482,-10.65648854961832,0.0
11.000000715255737,-10.309432348632813,3.299209887695312,1.7094599853515624,-6.244274809160306,14.076335877862595,-20.732824427480917,-8.51617530517578,1.4508862060546874,0.2442085693359375,-1.8015267175572518,-19.374045801526716,-8.977099236641221,0.0
11.010000944137573,-9.404424121093749,2.3918074584960936,1.4820108276367188,-13.038167938931299,10.458015267175572,-18.580152671755727,-8.099584216308592,1.1133037719726562,0.4381389038085937,-10.50381679389313,-9.923664122137405,-7.694656488549619,0.0
11.020000696182251,-9.536105212402344,2.233790148925781,1.886630908203125,-15.221374045801527,9.068702290076336,-18.48854961832061,-9.102754711914063,0.23223756103515625,1.1133037719726562,-8.900763358778626,-9.664122137404581,-6.33587786259542,0.0
11.030000686645508,-9.181763366699219,1.0031704956054688,1.8100164550781248,-10.778625954198473,6.534351145038168,-17.908396946564885,-8.674192614746094,-0.6440402465820312,0.833182177734375,-8.534351145038167,-9.358778625954198,-9.17557251908397,0.0
11.040000915527344,-8.686163623046875,-0.32561142578124996,1.7286135986328124,12.244274809160306,12.427480916030534,-17.068702290076335,-8.434772448730468,-0.689530078125,0.7158662963867187,-6.458015267175573,-8.900763358778626,-9.740458015267176,0.0
11.050000667572021,-9.239224206542968,0.8667010009765624,2.094926452636719,26.076335877862597,15.16030534351145,-18.16793893129771,-8.628702783203124,-1.1468225952148436,0.23223756103515625,-1.099236641221374,-8.091603053435115,-10.335877862595419,0.0
11.060009956359863,-9.631873278808593,2.501940734863281,2.6479870361328124,27.923664122137403,14.366412213740459,-17.96946564885496,-8.767566479492187,-1.1156979736328125,0.7517793212890624,6.152671755725191,-8.763358778625955,-11.679389312977099,0.0
11.070000886917114,-10.122684619140625,3.21780703125,3.1292215698242187,23.129770992366414,9.83206106870229,-17.14503816793893,-8.786720092773438,-0.8355763793945312,0.8499415893554687,10.274809160305344,-9.694656488549619,-12.702290076335878,0.0
11.080000877380371,-9.947907897949218,3.1220389648437497,3.3399113159179685,18.85496183206107,3.9389312977099236,-16.045801526717558,-8.47786807861328,0.00239420166015625,1.209071838378906,11.34351145038168,-9.908396946564885,-14.198473282442748,0.0
11.090000629425049,-10.831368310546875,3.900154504394531,4.077325427246094,9.34351145038168,-2.33587786259542,-16.3206106870229,-8.319850769042969,0.6823474731445313,1.8148048583984373,8.977099236641221,-9.618320610687023,-15.17557251908397,0.0
11.100000619888306,-10.0748005859375,3.1004911499023438,3.9264907226562498,3.5419847328244276,-10.51908396946565,-14.229007633587786,-7.826645227050781,1.407790576171875,1.9416975463867185,3.877862595419847,-9.526717557251908,-13.801526717557252,0.0
11.110000610351562,-9.809044201660155,1.9680337646484374,3.7421371948242186,-1.4198473282442747,-20.916030534351144,-12.091603053435115,-7.522581616210937,1.2018892333984375,0.9169792358398436,-1.251908396946565,-9.068702290076336,-11.114503816793894,0.0
11.120000839233398,-10.647014782714843,2.099714855957031,4.893748193359374,3.5267175572519083,-26.65648854961832,-11.450381679389313,-8.233659509277343,-0.062249243164062495,0.6248866333007812,-6.137404580152672,-7.7251908396946565,-12.045801526717558,0.0
11.130001068115234,-10.273519323730468,1.4101847778320311,5.468356591796875,2.931297709923664,-37.29770992366412,-10.610687022900763,-9.576806640625,-2.6599580444335937,-0.4908113403320312,-6.2748091603053435,-5.709923664122138,-18.12213740458015,0.0
11.140000820159912,-10.182539660644531,0.0718260498046875,5.966350537109375,14.15267175572519,-47.05343511450382,-7.435114503816794,-10.905588562011719,-2.308010400390625,-1.1659762084960936,7.6183206106870225,-0.732824427480916,-23.114503816793892,0.0
11.150000810623169,-10.896011755371093,0.9361328491210937,7.350199096679687,32.47328244274809,-53.12977099236641,-4.961832061068702,-12.552799304199217,-1.915361328125,-2.224213342285156,22.595419847328245,4.824427480916031,-23.83206106870229,0.0
11.160001039505005,-11.494562170410155,2.9376854370117185,8.17141026611328,31.49618320610687,-71.58778625954199,-3.312977099236641,-12.473790649414061,-0.3758896606445312,-2.906560815429687,30.106870229007633,7.557251908396947,-23.786259541984734,0.0
11.17000126838684,-12.696451403808593,4.525041137695312,9.215282189941405,33.3587786259542,-90.04580152671755,0.8702290076335878,-12.282254516601562,-0.7948749511718749,-1.8267758666992187,20.106870229007633,9.34351145038168,-19.404580152671755,0.0
11.18000078201294,-15.021221215820312,6.138733056640625,9.746794958496093,32.778625954198475,-112.38167938931298,10.687022900763358,-11.317391247558593,0.8283937744140625,-0.8786720092773437,25.282442748091604,15.312977099236642,-14.82442748091603,0.0
11.190001010894775,-15.75624112548828,4.778826513671874,9.392453112792968,29.908396946564885,-137.08396946564886,24.30534351145038,-10.85291612548828,1.5729904907226562,0.7541735229492187,16.641221374045802,15.664122137404581,-10.50381679389313,0.0
11.200000286102295,-15.895104821777343,2.5713725830078125,9.18655177001953,26.412213740458014,-156.01526717557252,31.770992366412212,-9.3852705078125,1.8411410766601561,-0.6584054565429687,4.870229007633588,17.954198473282442,-8.625954198473282,0.0
11.21000051498413,-14.980519787597656,0.16519991455078123,5.528211633300781,11.587786259541986,-169.6946564885496,33.02290076335878,-9.591171850585937,-0.21068974609375,-0.28012159423828126,-10.50381679389313,20.80916030534351,-5.1603053435114505,0.0
11.220000267028809,-14.389151977539061,-0.9504980590820312,0.8738836059570312,-8.778625954198473,-176.9618320610687,25.66412213740458,-10.038887561035155,-3.299209887695312,-0.8810662109374999,-9.19083969465649,23.206106870229007,-3.0076335877862594,0.0
11.230000257492065,-13.548787194824218,-1.1516109985351561,-2.3415292236328122,-13.603053435114504,-176.0763358778626,18.641221374045802,-10.457872851562499,-5.324704492187499,-1.8363526733398436,2.519083969465649,18.625954198473284,-4.931297709923665,0.0
11.240000486373901,-11.719617126464843,-2.085349645996094,-4.422090466308593,-18.595419847328245,-168.45801526717557,15.49618320610687,-9.138667736816405,-4.872200378417968,-0.24899697265624998,10.488549618320612,17.19083969465649,-9.587786259541986,0.0
11.250000476837158,-10.139444030761718,-2.3774422485351563,-5.197811804199218,-22.48854961832061,-147.98473282442748,12.366412213740459,-9.145850341796875,-4.285620971679688,0.0526724365234375,8.946564885496183,18.47328244274809,-10.931297709923664,0.0
11.260000705718994,-8.319850769042969,-3.7325603881835936,-5.444414575195312,-28.412213740458014,-127.55725190839695,7.6183206106870225,-9.4618849609375,-4.024652990722656,0.6392518432617187,10.717557251908397,20.47328244274809,-10.030534351145038,0.0
11.27000093460083,-7.132326745605468,-3.3590649291992185,-5.97592734375,-26.427480916030536,-109.98473282442748,3.49618320610687,-9.476250170898437,-3.900154504394531,0.8930372192382812,14.366412213740459,21.053435114503817,-10.244274809160306,0.0
11.280000686645508,-8.724470849609375,-1.62805712890625,-3.7995980346679685,-21.49618320610687,-85.05343511450381,2.519083969465649,-9.813832604980469,-2.863465185546875,0.6703764648437499,14.366412213740459,21.14503816793893,-10.259541984732824,0.0
11.290000677108765,-7.864952453613281,-2.4564509033203126,-2.7078420776367187,-4.748091603053435,-62.458015267175576,5.374045801526718,-9.519345800781249,-2.3391350219726563,1.675941162109375,11.022900763358779,20.290076335877863,-9.389312977099237,0.0
11.3000009059906,-7.747636572265624,-1.1563994018554686,-1.5394716674804687,9.450381679389313,-43.61832061068702,4.488549618320611,-9.138667736816405,-2.4205378784179685,1.6615759521484375,9.618320610687023,20.885496183206108,-7.633587786259542,0.0
11.3100004196167,-7.56567724609375,0.9074024291992187,-0.17238251953125,7.3893129770992365,-30.48854961832061,2.3206106870229006,-9.145850341796875,-2.47081611328125,1.4508862060546874,11.312977099236642,20.83969465648855,-6.549618320610687,0.0
11.320000648498535,-8.683769421386717,2.588131994628906,0.9552864624023437,-13.755725190839694,-28.290076335877863,0.5190839694656488,-9.193734375,-2.0542250244140625,2.0661960327148434,13.297709923664122,20.732824427480917,-5.816793893129771,0.0
11.330000400543213,-6.9910688476562495,0.2346317626953125,0.3950432739257812,-18.80916030534351,-22.748091603053435,4.6106870229007635,-9.430760339355468,-1.6711527587890624,2.1883003173828124,14.030534351145038,20.137404580152673,-4.717557251908397,0.0
11.340000867843628,-7.2903440551757805,1.8459294799804686,1.177947216796875,-31.938931297709924,-15.19083969465649,0.4580152671755725,-9.476250170898437,-1.2641384765625,1.7908628417968748,13.282442748091603,18.18320610687023,-3.5877862595419847,0.0
11.350000858306885,-7.50821640625,2.427720483398437,1.7669208251953124,-49.25190839694657,-11.404580152671755,-1.4045801526717556,-8.678981018066406,0.239420166015625,0.6584054565429687,6.213740458015267,17.801526717557252,-3.66412213740458,0.0
11.360000848770142,-7.024587670898437,1.944091748046875,1.5011644409179687,-62.62595419847328,-11.694656488549619,0.549618320610687,-10.084377392578125,-0.689530078125,1.85790048828125,-9.709923664122137,19.801526717557252,0.9312977099236641,0.0
11.37000060081482,-5.7508723876953125,1.1228805786132812,1.848323681640625,-67.08396946564885,-6.061068702290076,4.015267175572519,-9.382876306152344,-0.8762778076171874,0.02154781494140625,-8.900763358778626,22.53435114503817,1.5267175572519085,0.0
11.380000829696655,-5.999869360351562,-0.15322890625,2.7820623291015623,-56.19847328244275,2.519083969465649,5.847328244274809,-9.524134204101562,-1.24498486328125,-0.055066638183593745,-13.49618320610687,20.80916030534351,2.4885496183206106,0.0
11.390000343322754,-5.655104321289063,-1.5131354492187499,3.4859576171874997,-48.83969465648855,4.809160305343512,7.526717557251908,-9.619902270507811,-1.3527239379882812,0.011971008300781249,-18.458015267175572,23.022900763358777,2.946564885496183,0.0
11.40000057220459,-6.787561706542968,-0.6392518432617187,5.394136340332031,-35.19083969465649,13.49618320610687,5.358778625954199,-9.65342109375,-2.118868469238281,0.27293898925781246,-20.870229007633586,25.770992366412212,5.312977099236641,0.0
11.410000562667847,-6.811503723144531,-1.5705962890624998,6.007051965332031,-35.63358778625954,11.114503816793894,3.4656488549618323,-9.595960253906249,-2.1499930908203124,-0.5123591552734374,-10.412213740458014,23.34351145038168,4.763358778625954,0.0
11.420000791549683,-7.098807922363281,-1.5490484741210937,6.2392895263671875,-23.61832061068702,12.977099236641221,2.4580152671755724,-9.80665,-2.2936451904296873,-0.00718260498046875,-3.9236641221374047,22.48854961832061,4.396946564885496,0.0
11.430001020431519,-6.648698010253906,-1.905784521484375,5.963956335449218,-14.992366412213741,14.702290076335878,0.5648854961832062,-9.248801013183593,-1.448492004394531,0.4740519287109375,-1.1603053435114503,23.83206106870229,3.2213740458015265,0.0
11.440000534057617,-6.543353137207031,-1.9919757812499999,5.753266589355468,-5.587786259541985,13.98473282442748,-1.633587786259542,-9.794678991699218,-1.714248388671875,0.6177040283203125,0.7022900763358778,23.83206106870229,4.793893129770993,0.0
11.450001001358032,-6.469132885742187,-1.4437036010742186,5.623979699707031,5.0534351145038165,15.114503816793894,-2.6412213740458017,-9.900023864746093,-1.39821376953125,0.7852981445312499,1.251908396946565,24.65648854961832,5.526717557251908,0.0
11.46000051498413,-7.079654309082031,-0.2705447875976562,5.358223315429687,14.625954198473282,15.541984732824428,-4.3816793893129775,-9.639055883789062,-1.1611878051757811,1.0678139404296874,-1.2671755725190839,24.18320610687023,6.564885496183206,0.0
11.470000743865967,-7.110778930664062,1.2018892333984375,5.061342309570312,14.931297709923664,14.977099236641221,-3.5114503816793894,-9.6151138671875,-1.2018892333984375,1.1540052001953125,-4.748091603053435,25.129770992366414,8.030534351145038,0.0
11.480000495910645,-6.8569935546875,1.9991583862304687,4.548983154296875,13.801526717557252,16.564885496183205,-0.5343511450381679,-9.129090930175781,-0.7110778930664062,1.235408056640625,-8.961832061068701,24.946564885496183,8.67175572519084,0.0
11.49000072479248,-7.259219433593749,2.987963671875,4.742913488769531,6.687022900763359,18.47328244274809,2.8396946564885495,-9.045293872070312,-1.2306196533203124,1.4987702392578124,-25.740458015267176,29.099236641221374,11.84732824427481,0.0
11.500000476837158,-7.170633972167968,2.0566192260742184,4.829104748535156,-3.648854961832061,20.106870229007633,9.007633587786259,-9.600748657226562,-2.5641899780273434,1.1731588134765625,-26.412213740458014,33.603053435114504,15.099236641221374,0.0
11.510000705718994,-6.2201359130859375,0.3495534423828125,4.69263525390625,9.267175572519085,26.931297709923665,14.335877862595419,-8.779537487792968,-2.1547814941406247,0.5003881469726562,-24.85496183206107,34.58015267175573,13.419847328244275,0.0
11.520000696182251,-7.860164050292968,0.9241618408203125,4.53940634765625,16.03053435114504,32.70229007633588,15.374045801526718,-9.165003955078124,-3.1100679565429687,0.6416460449218749,-25.740458015267176,38.152671755725194,13.86259541984733,0.0
11.530000925064087,-7.8553756469726554,1.714248388671875,2.798821740722656,13.511450381679388,35.41984732824427,18.33587786259542,-9.670180505371093,-4.333505004882812,1.177947216796875,-14.290076335877863,37.55725190839695,15.206106870229007,0.0
11.540000915527344,-9.636661682128906,2.3630770385742186,2.195482922363281,8.748091603053435,39.37404580152672,21.404580152671755,-9.248801013183593,-2.959233251953125,-0.181959326171875,-3.2213740458015265,37.465648854961835,12.992366412213741,0.0
11.550000667572021,-12.059593762207031,3.3159692993164063,3.6248213134765623,2.9160305343511452,42.35114503816794,27.96946564885496,-9.028534460449219,-1.2114660400390624,-0.8547299926757812,-7.648854961832061,37.282442748091604,13.312977099236642,0.0
11.560001134872437,-14.49210264892578,5.307945080566406,5.97592734375,-3.404580152671756,40.33587786259542,40.58015267175573,-9.950302099609374,-1.4317325927734375,-1.1085153686523437,-15.770992366412214,39.98473282442748,17.862595419847327,0.0
11.570000648498535,-14.669273571777342,5.815515832519531,6.773196496582031,-15.129770992366412,35.725190839694655,49.14503816793893,-11.226411584472656,-1.8315642700195311,-0.0047884033203125,-12.091603053435115,39.05343511450382,22.198473282442748,0.0
11.58000111579895,-14.688427185058593,3.8953661010742184,7.414842541503906,-36.13740458015267,25.862595419847327,45.66412213740458,-11.844115612792969,-0.1484405029296875,-0.1580173095703125,-13.908396946564885,36.56488549618321,23.16030534351145,0.0
11.590000867843628,-13.536816186523437,-0.19393033447265623,7.036558679199218,-54.045801526717554,11.297709923664122,37.89312977099237,-10.831368310546875,1.458068811035156,-1.3263877197265623,-25.633587786259543,37.23664122137404,24.458015267175572,0.0
11.600000619888306,-11.001356628417968,-1.946485949707031,5.0757075195312495,-46.18320610687023,3.4198473282442747,29.938931297709924,-11.051634863281249,0.8714894042968749,-1.1348515869140625,-40.458015267175576,36.70229007633588,26.076335877862597,0.0
11.610000848770142,-7.850587243652344,-2.0733786376953125,1.235408056640625,-32.25954198473283,0.8549618320610687,27.450381679389313,-11.264718811035156,-0.3064578125,-0.24181436767578124,-39.14503816793893,32.36641221374046,24.80916030534351,0.0
11.62000036239624,-7.687781530761718,-3.0909143432617188,-0.34715924072265625,-21.236641221374047,7.7251908396946565,24.015267175572518,-11.463437548828125,-0.239420166015625,-0.1580173095703125,-29.16030534351145,29.19083969465649,22.33587786259542,0.0
11.630000591278076,-5.872976672363281,-3.5865140869140624,-1.2378022583007813,-1.5572519083969465,16.519083969465647,18.83969465648855,-11.03248125,0.4477157104492187,-1.3575123413085937,-27.954198473282442,21.572519083969464,18.50381679389313,0.0
11.640000581741333,-8.769960681152343,0.7062894897460937,0.5315127685546874,0.549618320610687,27.81679389312977,8.916030534351146,-10.771513269042968,1.1468225952148436,-1.5394716674804687,-32.961832061068705,14.687022900763358,16.442748091603054,0.0
11.65000057220459,-8.767566479492187,3.0502129150390624,-0.8403647827148437,-3.6030534351145036,28.732824427480917,7.129770992366412,-12.064382165527343,1.0893617553710937,-1.8435352783203125,-38.229007633587784,11.664122137404581,15.633587786259541,0.0
11.660000562667847,-8.901641772460938,2.91134921875,-1.5490484741210937,-10.946564885496183,32.961832061068705,10.458015267175572,-13.17050333251953,-0.19153613281249998,-1.4532804077148436,-34.29007633587786,11.908396946564885,15.129770992366412,0.0
11.670000553131104,-8.70771143798828,1.0893617553710937,-1.0462661254882812,2.5801526717557253,45.64885496183206,10.778625954198473,-12.275071911621094,0.6464344482421874,-1.2425906616210938,-32.213740458015266,4.366412213740458,14.778625954198473,0.0
11.68000054359436,-9.375693701171874,1.4604630126953124,-0.47644613037109373,13.587786259541986,53.06870229007634,7.251908396946565,-11.623849060058593,1.407790576171875,-1.5059528442382812,-33.603053435114504,0.7938931297709924,16.48854961832061,0.0
11.690000772476196,-9.562441430664062,2.2553379638671873,-0.040701428222656245,18.793893129770993,59.43511450381679,4.488549618320611,-11.40837091064453,1.024718310546875,-1.637633935546875,-35.404580152671755,-0.07633587786259542,18.076335877862597,0.0
11.700000524520874,-10.034099157714843,2.786850732421875,0.37828386230468747,18.47328244274809,59.7557251908397,2.33587786259542,-10.963049401855468,0.5458779785156249,-1.4987702392578124,-34.82442748091603,-1.7709923664122138,17.16030534351145,0.0
11.71000075340271,-10.412383020019531,3.459621398925781,0.430956298828125,14.51908396946565,59.038167938931295,2.198473282442748,-10.395623608398436,0.13646949462890623,-1.6807295654296874,-36.35114503816794,-2.931297709923664,15.32824427480916,0.0
11.720000505447388,-10.39322940673828,4.029441394042968,1.2042834350585936,7.404580152671755,54.83969465648855,3.49618320610687,-10.213664282226562,-0.2346317626953125,-1.8148048583984373,-37.083969465648856,-3.66412213740458,12.534351145038167,0.0
11.730000734329224,-10.83376251220703,4.6351744140625,1.8507178833007811,-5.862595419847328,48.58015267175573,3.2061068702290076,-9.900023864746093,-0.9121908325195311,-2.6719290527343746,-35.908396946564885,-4.290076335877862,9.145038167938932,0.0
11.740000486373901,-10.77630167236328,3.6918589599609373,1.8435352783203125,-15.816793893129772,43.14503816793893,4.580152671755725,-9.605537060546874,-1.1348515869140625,-3.0334535034179684,-29.801526717557252,-3.7404580152671754,6.732824427480916,0.0
11.750000476837158,-10.01015714111328,3.593696691894531,1.3407529296874998,-26.38167938931298,36.61068702290076,5.770992366412214,-9.938331091308592,-0.8930372192382812,-2.7437551025390623,-21.022900763358777,-3.5114503816793894,4.458015267175573,0.0
11.760110855102539,-9.162609753417968,2.0470424194335934,1.1947066284179686,-28.900763358778626,36.74809160305343,7.022900763358779,-9.564835632324218,-0.03591302490234375,-2.616862414550781,-12.885496183206106,-5.267175572519084,3.145038167938931,0.0
11.770000696182251,-10.031704956054687,2.0925322509765625,1.886630908203125,-29.603053435114504,37.786259541984734,5.297709923664122,-9.246406811523437,0.316034619140625,-2.4756045166015626,-7.816793893129771,-6.244274809160306,3.114503816793893,0.0
11.780000686645508,-9.251195214843749,0.8499415893554687,1.7477672119140624,-26.564885496183205,37.93893129770992,5.206106870229007,-9.205705383300781,-0.22026655273437498,-2.166752502441406,-3.618320610687023,-7.893129770992366,3.3282442748091605,0.0
11.790001392364502,-8.080430603027343,0.6200982299804687,1.6065093139648436,-19.022900763358777,38.12213740458015,4.213740458015267,-8.93755479736328,-0.6607996582031249,-1.7166425903320313,1.7251908396946565,-10.916030534351146,3.267175572519084,0.0
11.8000009059906,-8.279149340820313,1.0678139404296874,1.8531120849609375,-12.687022900763358,39.37404580152672,3.267175572519084,-8.884882360839843,-0.15322890625,-1.5442600708007812,7.190839694656488,-13.465648854961833,2.6259541984732824,0.0
11.810001134872437,-9.253589416503905,1.8195932617187498,2.1260510742187497,-10.67175572519084,39.221374045801525,2.9618320610687023,-8.84178673095703,0.23702596435546874,-0.8954314208984374,6.900763358778626,-15.404580152671755,2.122137404580153,0.0
11.820000886917114,-8.971073620605468,1.2306196533203124,1.9512743530273435,-8.717557251908397,38.10687022900763,4.0458015267175576,-8.975862023925782,0.26815058593749996,-0.4213794921875,6.488549618320611,-16.732824427480917,2.0763358778625953,0.0
11.830000877380371,-9.181763366699219,1.1348515869140625,1.8267758666992187,-1.7557251908396947,36.19847328244275,5.145038167938932,-8.78432589111328,0.34715924072265625,-0.5889736083984375,14.931297709923664,-20.244274809160306,0.9312977099236641,0.0
11.840000867843628,-10.046070166015625,2.003946789550781,1.7860744384765623,1.1603053435114503,33.19083969465649,5.175572519083969,-8.884882360839843,-0.36631285400390623,-0.7541735229492187,15.221374045801527,-28.137404580152673,-0.1984732824427481,0.0
11.850000619888306,-10.35492218017578,1.2138602416992186,1.927332336425781,3.3587786259541983,28.48854961832061,6.6106870229007635,-8.614337573242187,1.0797849487304687,-1.2689268798828124,18.885496183206108,-29.34351145038168,-0.9007633587786259,0.0
11.860000610351562,-9.490615380859374,1.1061211669921875,1.4891934326171874,5.8320610687022905,23.374045801526716,6.900763358778626,-8.470685473632813,2.389413256835937,-1.1755530151367186,9.267175572519085,-29.83206106870229,0.22900763358778625,0.0
11.870000839233398,-9.6151138671875,1.9991583862304687,1.5897499023437498,4.778625954198473,21.328244274809162,6.809160305343512,-8.825027319335938,2.961627453613281,-2.166752502441406,-2.900763358778626,-28.137404580152673,2.183206106870229,0.0
11.880000591278076,-10.702081420898438,3.201047619628906,1.8124106567382812,-8.213740458015268,15.068702290076336,6.229007633587786,-9.217676391601563,0.45010991210937495,-0.1867477294921875,-20.33587786259542,-28.18320610687023,5.801526717557252,0.0
11.89000129699707,-9.414000927734374,1.9728221679687499,1.6543933471679686,-5.282442748091603,16.80916030534351,7.923664122137405,-9.756371765136718,0.3711012573242187,-2.693476867675781,-9.511450381679388,-20.061068702290076,5.740458015267175,0.0
11.900001287460327,-9.457096557617186,1.1276689819335937,0.928950244140625,-6.015267175572519,12.351145038167939,7.465648854961832,-9.4618849609375,0.39983167724609375,-1.4101847778320311,-4.458015267175573,-22.99236641221374,5.511450381679389,0.0
11.910000562667847,-10.16338604736328,2.0446482177734375,1.5394716674804687,-7.969465648854962,13.34351145038168,5.6183206106870225,-9.260772021484375,-1.3096283081054687,-1.350329736328125,-9.572519083969466,-27.61832061068702,5.709923664122138,0.0
11.920000553131104,-9.414000927734374,1.8267758666992187,1.4987702392578124,-3.1603053435114505,16.671755725190838,5.419847328244275,-9.835380419921874,-0.967257470703125,-0.8355763793945312,-2.427480916030534,-25.938931297709924,3.648854961832061,0.0
11.930001020431519,-9.821015209960937,2.3582886352539063,1.7549498168945312,-2.7938931297709924,17.389312977099237,3.0229007633587788,-9.138667736816405,0.8451531860351562,-1.7549498168945312,3.5572519083969465,-23.954198473282442,1.7404580152671756,0.0
11.940000534057617,-9.5384994140625,1.85790048828125,1.5682020874023437,-2.8396946564885495,16.9618320610687,3.099236641221374,-8.820238916015624,0.19393033447265623,-0.7661445312499999,-5.32824427480916,-24.47328244274809,2.6259541984732824,0.0
11.950000762939453,-9.141061938476563,1.7597382202148437,0.9528922607421875,-4.778625954198473,15.038167938931299,3.312977099236641,-9.90241806640625,0.34715924072265625,-1.4125789794921875,1.6946564885496183,-20.18320610687023,3.0076335877862594,0.0
11.96000051498413,-9.545682019042967,2.085349645996094,1.4508862060546874,-2.9618320610687023,15.969465648854962,3.099236641221374,-9.3852705078125,0.12210428466796874,-1.4532804077148436,-2.213740458015267,-17.83206106870229,3.099236641221374,0.0
11.970000982284546,-10.232817895507813,2.157175695800781,1.429338391113281,-0.15267175572519084,14.213740458015268,3.49618320610687,-9.641450085449218,-0.24181436767578124,-1.407790576171875,-0.061068702290076333,-16.0,2.7480916030534353,0.0
11.980000495910645,-10.71884083251953,2.250549560546875,1.4700398193359374,2.213740458015267,11.877862595419847,2.2595419847328246,-9.718064538574218,-0.7350199096679687,-0.9217676391601562,4.061068702290076,-15.007633587786259,1.633587786259542,0.0
11.99000072479248,-10.002974536132811,1.2880804931640624,1.1420341918945311,9.541984732824428,10.717557251908397,2.6717557251908395,-10.287884533691406,-0.9552864624023437,-1.714248388671875,15.541984732824428,-15.374045801526718,1.0687022900763359,0.0
12.000000715255737,-10.505756884765624,2.0446482177734375,1.5514426757812498,16.748091603053435,10.458015267175572,0.24427480916030533,-9.883264453125,0.040701428222656245,-0.35673604736328124,23.72519083969466,-18.12213740458015,-1.3129770992366412,0.0
12.010000705718994,-9.3086560546875,1.6112977172851561,1.16837041015625,20.427480916030536,7.786259541984733,0.6106870229007634,-9.33978067626953,-0.5363011718749999,-0.7302315063476562,22.16793893129771,-22.870229007633586,-3.1297709923664123,0.0
12.020000696182251,-10.817003100585938,2.626439221191406,1.484405029296875,13.389312977099237,2.931297709923664,-1.7404580152671756,-10.46984385986328,0.0143652099609375,-0.5746083984375,29.19083969465649,-21.16030534351145,-3.2061068702290076,0.0
12.030000925064087,-8.736441857910156,1.0630255371093749,0.6871358764648438,18.83969465648855,2.183206106870229,1.1297709923664123,-9.411606726074218,1.1827356201171875,-0.8978256225585937,27.69465648854962,-21.328244274809162,-4.030534351145038,0.0
12.040000915527344,-9.255983618164063,2.1404162841796874,0.8499415893554687,22.244274809160306,3.236641221374046,-0.9923664122137404,-9.153032946777342,2.3630770385742186,-1.8555062866210936,19.81679389312977,-18.671755725190838,-3.480916030534351,0.0
12.050000667572021,-9.526528405761718,3.21780703125,0.9911994873046874,18.16793893129771,3.816793893129771,-0.9923664122137404,-8.506598498535157,2.001552587890625,-0.6105214233398437,-0.8396946564885496,-16.900763358778626,-1.1755725190839694,0.0
12.060000896453857,-9.811438403320311,3.1866824096679687,0.8954314208984374,11.16030534351145,3.099236641221374,-0.366412213740458,-9.892841259765625,0.9169792358398436,-0.8403647827148437,-2.7480916030534353,-10.259541984732824,1.0076335877862594,0.0
12.070016384124756,-9.459490759277344,2.085349645996094,0.63206923828125,5.786259541984733,1.9083969465648856,-0.13740458015267176,-9.890447058105469,-0.19153613281249998,-0.6703764648437499,-1.1603053435114503,-11.679389312977099,0.6564885496183206,0.0
12.08000111579895,-9.5001921875,1.5586252807617187,0.7900865478515624,7.526717557251908,2.030534351145038,-1.9236641221374047,-9.797073193359374,-0.047884033203124995,-0.6751648681640625,3.4198473282442747,-11.816793893129772,-2.0763358778625953,0.0
12.090000629425049,-9.471461767578125,1.695094775390625,0.8164227661132812,8.091603053435115,2.6412213740458017,-3.1755725190839694,-9.842563024902343,0.016759411621093748,-0.4740519287109375,5.282442748091603,-10.763358778625955,-3.1603053435114505,0.0
12.100000619888306,-9.696516723632811,1.85790048828125,0.8379705810546875,8.305343511450381,3.450381679389313,-3.816793893129771,-10.69968721923828,-1.01514150390625,-0.7805097412109374,16.213740458015266,-10.595419847328245,-3.618320610687023,0.0
12.110000610351562,-9.198522778320312,0.8451531860351562,0.5315127685546874,13.465648854961833,4.824427480916031,-3.3435114503816794,-10.314220751953124,-1.1947066284179686,-1.0127473022460938,17.46564885496183,-13.358778625954198,-4.488549618320611,0.0
12.12000060081482,-9.950302099609374,1.7717092285156248,1.120486376953125,22.0,10.274809160305344,-6.519083969465649,-9.81862100830078,-0.5315127685546874,-0.3064578125,24.198473282442748,-15.954198473282442,-5.374045801526718,0.0
12.130000591278076,-9.603142858886718,2.1595698974609374,0.63206923828125,25.00763358778626,11.618320610687023,-7.3893129770992365,-9.526528405761718,-0.3399766357421875,-0.7158662963867187,32.50381679389313,-18.091603053435115,-6.290076335877862,0.0
12.140000581741333,-8.844180932617187,2.6695348510742187,0.28012159423828126,21.022900763358777,11.083969465648854,-8.045801526717558,-9.631873278808593,0.21308394775390624,-0.59376201171875,30.137404580152673,-19.251908396946565,-6.717557251908397,0.0
12.15000057220459,-8.765172277832031,3.0454245117187497,0.5985504150390625,15.358778625954198,12.045801526717558,-7.694656488549619,-10.158597644042969,0.22744915771484372,0.16759411621093748,16.015267175572518,-21.46564885496183,-5.114503816793893,0.0
12.160000324249268,-8.609549169921875,2.365471240234375,0.5913678100585937,9.84732824427481,10.15267175572519,-5.526717557251908,-9.737218151855469,1.5873557006835937,-0.70868369140625,16.85496183206107,-21.31297709923664,-4.809160305343512,0.0
12.170001029968262,-9.5001921875,2.3678654418945313,0.8954314208984374,5.343511450381679,8.65648854961832,-5.114503816793893,-9.545682019042967,2.128445275878906,-0.20829554443359374,5.9541984732824424,-17.129770992366414,-2.2442748091603053,0.0
12.18000078201294,-10.350133776855468,3.1124621582031247,1.4867992309570313,1.6030534351145038,8.274809160305344,-5.526717557251908,-9.756371765136718,1.189918225097656,-0.296881005859375,2.0763358778625953,-14.01526717557252,-0.4122137404580153,0.0
12.190000772476196,-8.429984045410155,0.14125789794921875,0.46686932373046874,7.984732824427481,5.816793893129771,-2.549618320610687,-9.313444458007812,1.0582371337890624,-0.2825157958984375,-1.465648854961832,-13.17557251908397,-0.7175572519083969,0.0
12.200000524520874,-8.949525805664061,0.2154781494140625,0.6296750366210937,15.908396946564885,7.022900763358779,-5.6183206106870225,-9.363722692871093,0.5219359619140624,-0.430956298828125,-3.8473282442748094,-11.541984732824428,-0.4580152671755725,0.0
12.210000991821289,-9.229647399902344,0.2059013427734375,0.6607996582031249,18.763358778625953,5.374045801526718,-7.099236641221374,-10.168174450683592,-0.373495458984375,-0.70868369140625,7.4961832061068705,-10.80916030534351,-1.2671755725190839,0.0
12.220000505447388,-8.664615808105468,0.507570751953125,0.7996633544921875,25.572519083969464,5.679389312977099,-8.946564885496183,-9.229647399902344,1.697488977050781,-0.7661445312499999,14.15267175572519,-12.412213740458014,-4.961832061068702,0.0
12.230000257492065,-9.91438907470703,1.7597382202148437,1.1037269653320312,23.14503816793893,3.6030534351145036,-10.931297709923664,-9.5001921875,2.3870190551757813,0.3447650390625,8.67175572519084,-9.893129770992367,-3.5114503816793894,0.0
12.240000486373901,-9.227253198242186,1.6807295654296874,1.180341418457031,27.114503816793892,6.732824427480916,-11.236641221374045,-9.631873278808593,1.1061211669921875,0.22505495605468748,-4.320610687022901,-6.091603053435114,-0.8702290076335878,0.0
12.250000715255737,-9.938331091308592,2.27927998046875,1.0965443603515623,18.9618320610687,1.9694656488549618,-12.580152671755725,-10.295067138671874,0.21787235107421873,0.00718260498046875,1.7709923664122138,-7.099236641221374,-0.7786259541984732,0.0
12.260000705718994,-8.489839086914062,0.5243301635742187,0.2657563842773437,28.244274809160306,2.732824427480916,-10.641221374045802,-9.344569079589844,-0.507570751953125,0.30885201416015623,-8.580152671755725,-7.6183206106870225,-1.2213740458015268,0.0
12.270000457763672,-10.350133776855468,2.8107927490234372,0.7733271362304687,24.9618320610687,3.5572519083969465,-14.259541984732824,-9.619902270507811,-1.1923124267578125,0.33518823242187495,-2.4885496183206106,-7.786259541984733,-1.5725190839694656,0.0
12.280000448226929,-8.123526232910155,1.0989385620117187,-0.2154781494140625,27.34351145038168,3.572519083969466,-11.450381679389313,-9.785102185058593,-1.3623007446289062,0.14125789794921875,5.0534351145038165,-8.01526717557252,-3.267175572519084,0.0
12.290000438690186,-8.449137658691406,1.7477672119140624,0.02633621826171875,31.053435114503817,7.511450381679389,-13.816793893129772,-9.911994873046874,-1.3072341064453123,0.3447650390625,12.961832061068701,-9.297709923664122,-4.641221374045801,0.0
12.3000009059906,-9.344569079589844,2.094926452636719,0.40462008056640625,30.671755725190838,10.51908396946565,-14.442748091603054,-9.883264453125,-0.7948749511718749,0.5195417602539062,18.580152671755727,-10.091603053435115,-5.221374045801527,0.0
12.310000658035278,-10.172962854003906,2.43250888671875,0.7541735229492187,26.091603053435115,9.374045801526718,-15.83206106870229,-10.263942517089843,-0.22266075439453123,0.6871358764648438,22.671755725190838,-11.068702290076336,-5.450381679389313,0.0
12.320001125335693,-8.954314208984375,1.7357962036132812,0.2705447875976562,23.068702290076335,6.9465648854961835,-15.664122137404581,-10.005368737792969,0.03591302490234375,0.6967126831054687,23.19083969465649,-12.01526717557252,-6.33587786259542,0.0
12.330000638961792,-8.489839086914062,0.6560112548828124,0.26336218261718747,26.27480916030534,7.770992366412214,-16.35114503816794,-10.941501586914061,-1.2785036865234374,0.59376201171875,27.297709923664122,-11.709923664122137,-5.923664122137405,0.0
12.340000867843628,-10.232817895507813,1.2425906616210938,1.2497732666015624,32.50381679389313,10.106870229007633,-19.206106870229007,-10.479420666503906,-0.39264907226562495,0.7110778930664062,38.091603053435115,-16.47328244274809,-9.068702290076336,0.0
12.350000858306885,-10.342951171874999,1.637633935546875,1.0702081420898437,38.16793893129771,8.290076335877863,-20.106870229007633,-9.701305126953125,-1.1348515869140625,-0.3711012573242187,37.587786259541986,-20.53435114503817,-11.877862595419847,0.0
12.360000610351562,-10.448296044921875,2.6910826660156246,1.2234370483398436,32.67175572519084,4.687022900763359,-20.83969465648855,-10.184933862304687,0.5219359619140624,0.5698199951171875,36.06106870229008,-21.022900763358777,-13.129770992366412,0.0
12.370001077651978,-10.793061083984375,4.280832568359375,2.0733786376953125,29.068702290076335,4.778625954198473,-20.99236641221374,-9.258377819824219,1.4628572143554686,0.1197100830078125,20.0,-19.14503816793893,-13.312977099236642,0.0
12.380001783370972,-9.466673364257812,3.1411925781249996,1.1468225952148436,17.83206106870229,-1.7404580152671756,-16.931297709923665,-8.889670764160156,0.21308394775390624,-0.7254431030273437,6.67175572519084,-16.763358778625953,-11.84732824427481,0.0
12.390000581741333,-9.425971936035156,3.2513258544921873,1.1755530151367186,18.732824427480917,-0.2748091603053435,-16.259541984732824,-9.244012609863281,0.39264907226562495,-0.6536170532226562,12.778625954198473,-12.366412213740459,-11.267175572519085,0.0
12.40000057220459,-9.208099584960937,2.980781066894531,0.9026140258789062,15.32824427480916,-1.6793893129770991,-15.755725190839694,-9.473855969238281,-0.32082302246093747,-0.09816226806640624,12.595419847328245,-10.687022900763358,-12.488549618320612,0.0
12.410000562667847,-9.016563452148437,2.5258827514648434,0.842758984375,12.122137404580153,-2.763358778625954,-15.48091603053435,-9.442731347656249,0.04548983154296875,0.0909796630859375,15.312977099236642,-9.572519083969466,-14.15267175572519,0.0
12.420000553131104,-8.911218579101561,1.956062756347656,0.9361328491210937,11.923664122137405,-3.1603053435114505,-16.27480916030534,-9.188945971679686,0.34715924072265625,-0.10773907470703124,16.12213740458015,-8.885496183206106,-16.0,0.0
12.43000078201294,-8.963891015625,1.9009961181640624,1.1635820068359375,12.854961832061068,-2.2442748091603053,-16.916030534351144,-9.244012609863281,0.82360537109375,-0.033518823242187495,14.16793893129771,-7.221374045801527,-16.885496183206108,0.0
12.440000295639038,-9.193734375,2.3391350219726563,1.3670891479492187,13.48091603053435,-1.618320610687023,-17.52671755725191,-9.212887988281249,0.6703764648437499,-0.3327940307617187,10.916030534351146,-5.908396946564886,-16.702290076335878,0.0
12.450001001358032,-9.325415466308593,2.422932080078125,1.407790576171875,12.80916030534351,-1.4198473282442747,-17.14503816793893,-9.167398156738281,0.8882488159179687,0.28012159423828126,8.106870229007633,-5.938931297709924,-16.671755725190838,0.0
12.46000051498413,-9.270348828125,2.300827795410156,1.1923124267578125,13.17557251908397,-0.5038167938931297,-16.48854961832061,-8.911218579101561,0.9888052856445312,0.2561795776367187,4.763358778625954,-5.847328244274809,-16.595419847328245,0.0
12.470000743865967,-8.43956085205078,0.7254431030273437,0.7829039428710937,17.022900763358777,1.1297709923664123,-15.32824427480916,-8.451531860351562,0.9959878906249999,0.5051765502929687,0.8854961832061069,-5.7251908396946565,-16.625954198473284,0.0
12.480000495910645,-8.360552197265624,0.5243301635742187,0.7757213378906249,23.740458015267176,4.67175572519084,-17.404580152671755,-8.29351455078125,0.33758243408203126,0.16998831787109375,-2.549618320610687,-5.3893129770992365,-16.595419847328245,0.0
12.490000486373901,-9.586383447265625,1.5275006591796874,1.8411410766601561,25.541984732824428,10.67175572519084,-21.129770992366414,-7.951143713378905,0.21068974609375,0.6272808349609375,-4.33587786259542,-5.8320610687022905,-16.595419847328245,0.0
12.500000476837158,-9.981426721191406,2.5163059448242184,2.592920397949219,21.404580152671755,10.13740458015267,-23.64885496183206,-7.773972790527344,0.17477672119140625,0.6272808349609375,-4.442748091603053,-6.809160305343512,-16.641221374045802,0.0
12.510000944137573,-10.982203015136719,3.7301661865234372,3.727771984863281,9.877862595419847,6.549618320610687,-25.51145038167939,-7.769184387207031,0.1388636962890625,1.01514150390625,-4.854961832061068,-7.770992366412214,-16.763358778625953,0.0
12.520000696182251,-10.448296044921875,3.181894006347656,4.139574670410156,-1.0229007633587786,-4.244274809160306,-23.755725190839694,-7.762001782226562,0.4908113403320312,1.2713210815429687,-6.396946564885496,-8.900763358778626,-16.717557251908396,0.0
12.530000925064087,-11.235988391113281,4.632780212402343,5.1714755859374995,-13.129770992366412,-11.740458015267176,-22.900763358778626,-7.829039428710937,0.6081272216796875,1.1923124267578125,-7.648854961832061,-9.34351145038168,-14.641221374045802,0.0
12.540000915527344,-10.86009873046875,4.005499377441406,5.693411547851563,-25.709923664122137,-24.076335877862597,-18.0,-8.908824377441405,-0.2825157958984375,1.1444283935546875,-7.557251908396947,-9.725190839694656,-13.98473282442748,0.0
12.550000667572021,-11.020510241699219,2.7054478759765623,5.935225915527344,-20.977099236641223,-31.419847328244273,-12.183206106870228,-10.053252770996092,-2.729389892578125,-1.2306196533203124,-0.2748091603053435,-7.877862595419847,-17.282442748091604,0.0
12.560001134872437,-12.358868969726561,4.441244079589843,6.72291826171875,-25.34351145038168,-40.48854961832061,-8.244274809160306,-11.197681164550781,-1.7262193969726563,-1.6831237670898436,14.229007633587786,-0.24427480916030533,-22.99236641221374,0.0
12.570000886917114,-11.736376538085937,1.8315642700195311,6.100425830078125,-21.893129770992367,-50.900763358778626,-0.2748091603053435,-12.198457458496094,-2.3870190551757813,-2.8610709838867185,19.938931297709924,3.236641221374046,-23.923664122137403,0.0
12.580000877380371,-11.781866369628906,1.2689268798828124,5.913678100585937,2.5801526717557253,-55.98473282442748,3.572519083969466,-12.133814013671874,-2.0159177978515626,-2.9376854370117185,29.893129770992367,6.259541984732825,-27.14503816793893,0.0
12.590000629425049,-14.393940380859375,3.574543078613281,7.240065820312499,2.0,-67.83206106870229,4.030534351145038,-11.915941662597655,0.13407529296874998,-0.86191259765625,26.671755725190838,12.458015267175572,-28.18320610687023,0.0
12.600000619888306,-15.049951635742186,3.6559459350585937,8.0828248046875,-9.145038167938932,-87.6793893129771,8.320610687022901,-11.40837091064453,1.5897499023437498,0.17238251953125,11.725190839694656,13.633587786259541,-23.801526717557252,0.0
12.610000610351562,-15.109806677246093,1.6208745239257811,8.494627490234375,-10.091603053435115,-105.37404580152672,10.076335877862595,-10.929530578613281,1.8842367065429686,1.3359645263671873,-3.83206106870229,12.534351145038167,-18.50381679389313,0.0
12.62000060081482,-15.48809053955078,1.3144167114257812,9.643844287109374,-6.595419847328245,-123.09923664122137,9.419847328244275,-9.619902270507811,1.905784521484375,0.5123591552734374,-12.885496183206106,16.33587786259542,-14.198473282442748,0.0
12.630000352859497,-15.86398020019531,0.7589619262695312,10.658985791015624,6.305343511450381,-145.17557251908397,10.702290076335878,-10.436325036621094,-0.8810662109374999,-0.5913678100585937,-15.541984732824428,17.84732824427481,-8.702290076335878,0.0
12.640000581741333,-14.77940684814453,-0.9983820922851562,7.513004809570312,31.068702290076335,-165.23664122137404,16.3206106870229,-10.625466967773438,-2.3319524169921872,-1.3718775512695311,1.8015267175572518,17.14503816793893,-9.267175572519085,0.0
12.65000057220459,-12.701239807128905,-1.9752163696289062,2.844311572265625,31.34351145038168,-173.61832061068702,18.931297709923665,-9.907206469726562,-3.2034418212890623,-1.5394716674804687,6.442748091603053,10.13740458015267,-12.610687022900763,0.0
12.660000562667847,-11.944672082519531,-2.142810485839844,0.16998831787109375,23.633587786259543,-178.27480916030535,15.129770992366412,-9.87608184814453,-4.151545678710937,-1.0319009155273438,15.648854961832061,12.610687022900763,-14.229007633587786,0.0
12.670000314712524,-11.305420239257812,-0.8259995727539062,-1.8555062866210936,5.236641221374046,-181.3587786259542,10.244274809160306,-8.992621435546875,-3.6008792968749996,-1.0199299072265624,17.19083969465649,10.916030534351146,-16.549618320610687,0.0
12.68000054359436,-10.31661495361328,-1.2210428466796874,-3.5960908935546874,-14.595419847328245,-176.4732824427481,7.022900763358779,-8.731653454589843,-2.7964275390625,-0.7565677246093749,15.221374045801527,13.34351145038168,-17.328244274809162,0.0
12.690231084823608,-9.97903251953125,-1.369483349609375,-4.158728283691406,-31.19083969465649,-168.90076335877862,1.251908396946565,-8.94473740234375,-2.5905261962890624,-0.5315127685546874,12.198473282442748,17.358778625954198,-16.458015267175572,0.0
12.700000762939453,-8.300697155761718,-2.978386865234375,-5.6024318847656245,-21.267175572519083,-148.15267175572518,0.9465648854961832,-9.14824454345703,-3.2345664428710936,-0.22505495605468748,9.969465648854962,19.954198473282442,-16.12213740458015,0.0
12.71013617515564,-11.52329259033203,1.4149731811523436,-3.2920272827148436,-21.480916030534353,-122.77862595419847,-2.2900763358778624,-9.514557397460937,-3.967192150878906,0.4285620971679687,13.282442748091603,22.061068702290076,-15.358778625954198,0.0
12.720000505447388,-8.288726147460936,-0.6703764648437499,-3.421314172363281,-11.404580152671755,-103.7557251908397,7.908396946564886,-10.031704956054687,-3.6727053466796873,1.5179238525390624,17.81679389312977,21.557251908396946,-14.305343511450381,0.0
12.730000495910645,-7.070077502441406,-2.1643583007812497,-3.294421484375,5.9541984732824424,-78.80916030534351,10.442748091603054,-9.670180505371093,-2.7724855224609373,1.5682020874023437,21.6793893129771,21.099236641221374,-11.801526717557252,0.0
12.740000486373901,-6.351817004394531,-0.8092401611328125,-2.729389892578125,12.244274809160306,-58.93129770992366,8.183206106870228,-9.619902270507811,-2.2960393920898436,2.4660277099609376,22.38167938931298,19.251908396946565,-8.977099236641221,0.0
12.750000715255737,-6.481103894042969,0.7972691528320313,-1.889025109863281,6.198473282442748,-41.541984732824424,6.67175572519084,-9.76116016845703,-2.109291662597656,2.463633508300781,21.374045801526716,17.297709923664122,-7.511450381679389,0.0
12.760000705718994,-6.4475850708007805,2.1811177124023438,-0.7565677246093749,-10.65648854961832,-29.34351145038168,3.8625954198473282,-9.725247143554688,-1.6208745239257811,2.798821740722656,18.30534351145038,15.297709923664122,-6.9465648854961835,0.0
12.77000093460083,-4.309562988281249,-0.4261678955078125,-1.438915197753906,-32.534351145038165,-25.022900763358777,3.5572519083969465,-9.603142858886718,-1.5562310791015623,2.001552587890625,13.022900763358779,12.122137404580153,-6.1679389312977095,0.0
12.780001163482666,-4.893748193359374,0.0047884033203125,-0.8283937744140625,-33.20610687022901,-8.076335877862595,-0.7938931297709924,-9.504980590820312,-1.1563994018554686,1.675941162109375,6.305343511450381,10.198473282442748,-5.4961832061068705,0.0
12.790000438690186,-4.453215087890625,0.3902548706054687,-0.4644751220703125,-50.68702290076336,1.5877862595419847,-6.763358778625954,-8.463502868652343,0.12689268798828124,1.1540052001953125,-11.572519083969466,9.404580152671755,-5.694656488549619,0.0
12.8000009059906,-5.252878442382812,1.4341267944335936,0.1005564697265625,-67.2824427480916,8.15267175572519,-8.687022900763358,-8.379705810546875,0.6177040283203125,-0.44532150878906246,-28.671755725190838,17.114503816793892,-2.2595419847328246,0.0
12.810000658035278,-3.42849677734375,-1.1444283935546875,0.6488286499023437,-62.70229007633588,19.72519083969466,-4.67175572519084,-8.827421520996094,-0.9864110839843749,-0.6440402465820312,-38.6412213740458,21.740458015267176,1.8625954198473282,0.0
12.820001125335693,-6.028599780273437,0.9552864624023437,2.7724855224609373,-76.04580152671755,22.244274809160306,-6.549618320610687,-9.662997900390625,-2.906560815429687,-0.55545478515625,-31.84732824427481,17.954198473282442,2.6259541984732824,0.0
12.830000638961792,-3.603273498535156,-3.047818713378906,2.664746447753906,-54.0763358778626,29.66412213740458,1.7099236641221374,-9.471461767578125,-2.6288334228515624,-0.3687070556640625,-25.404580152671755,14.732824427480915,0.8549618320610687,0.0
12.840000867843628,-4.570530969238281,-3.1603461914062496,4.048595007324218,-19.206106870229007,43.43511450381679,3.3893129770992365,-10.019733947753906,-2.6886884643554687,-0.5458779785156249,-16.641221374045802,18.30534351145038,2.0,0.0
12.850000619888306,-5.355829113769531,-2.288856787109375,5.480327600097656,9.007633587786259,55.06870229007634,2.8244274809160306,-9.433154541015625,-1.47482822265625,-1.01514150390625,-9.251908396946565,13.16030534351145,2.045801526717557,0.0
12.86000108718872,-6.725312463378906,-0.296881005859375,6.373364819335937,27.480916030534353,60.01526717557252,2.9923664122137406,-9.6151138671875,-1.254561669921875,-0.5626373901367188,-11.755725190839694,16.82442748091603,2.885496183206107,0.0
12.870001554489136,-7.410054138183593,0.8164227661132812,6.682216833496093,33.11450381679389,59.587786259541986,5.740458015267175,-9.734823950195311,-1.6208745239257811,-0.9337386474609375,-12.702290076335878,18.442748091603054,4.564885496183206,0.0
12.880000829696655,-8.686163623046875,1.898601916503906,7.345410693359375,32.29007633587786,55.70992366412214,7.343511450381679,-9.670180505371093,-1.7357962036132812,-0.8786720092773437,-12.916030534351146,19.404580152671755,4.931297709923665,0.0
12.89000129699707,-9.734823950195311,2.6767174560546874,8.36294639892578,20.870229007633586,46.87022900763359,7.755725190839694,-8.877699755859375,-0.9217676391601562,-0.6153098266601562,-21.0381679389313,24.48854961832061,5.343511450381679,0.0
12.900001287460327,-9.18655177001953,1.7453730102539062,8.161833459472655,7.221374045801527,34.961832061068705,8.366412213740459,-8.889670764160156,-1.4987702392578124,-0.5051765502929687,-34.045801526717554,27.129770992366414,8.488549618320612,0.0
12.910000562667847,-11.14022032470703,2.4396914916992185,8.798691101074219,-4.687022900763359,27.66412213740458,5.465648854961832,-9.765948571777344,-2.9951462768554684,-0.36631285400390623,-29.404580152671755,35.3587786259542,10.916030534351146,0.0
12.920000553131104,-9.581595043945311,0.9409212524414062,7.3669585083007805,-14.427480916030534,14.65648854961832,7.679389312977099,-10.1131078125,-4.180276098632812,-0.4429273071289062,-15.816793893129772,35.083969465648856,8.916030534351146,0.0
12.930001020431519,-9.605537060546874,0.6679822631835937,6.1818286865234375,-17.251908396946565,8.122137404580153,8.213740458015268,-9.085995300292968,-2.9568390502929685,-0.16041151123046873,-5.190839694656488,32.30534351145038,5.877862595419847,0.0
12.940000772476196,-9.995791931152343,2.032677209472656,5.935225915527344,-21.435114503816795,5.145038167938932,8.793893129770993,-9.162609753417968,-2.0278888061523435,0.0718260498046875,-7.358778625954199,33.221374045801525,6.702290076335878,0.0
12.950000762939453,-8.231265307617187,1.1420341918945311,4.69263525390625,-21.19083969465649,4.702290076335878,13.251908396946565,-9.627084875488281,-1.927332336425781,0.1867477294921875,-12.122137404580153,36.30534351145038,9.312977099236642,0.0
12.960000276565552,-7.783549597167968,1.707065783691406,3.9456443359374997,-19.129770992366414,7.847328244274809,15.83206106870229,-10.20887587890625,-2.8898014038085935,1.0462661254882812,-11.34351145038168,35.55725190839695,10.65648854961832,0.0
12.970000505447388,-6.770802294921874,1.5514426757812498,2.8012159423828122,-21.022900763358777,10.80916030534351,18.580152671755727,-9.885658654785155,-2.3223756103515623,0.7829039428710937,-4.259541984732825,33.603053435114504,8.778625954198473,0.0
12.980000495910645,-6.548141540527343,1.199495031738281,1.618480322265625,-22.80916030534351,15.770992366412214,21.72519083969466,-9.813832604980469,-2.0374656127929685,1.4149731811523436,-8.183206106870228,24.870229007633586,8.381679389312977,0.0
12.99000072479248,-5.9950809570312495,0.6607996582031249,0.45010991210937495,-23.282442748091604,25.16030534351145,25.00763358778626,-10.204087475585936,-1.429338391113281,0.9959878906249999,-7.022900763358779,22.732824427480917,9.022900763358779,0.0
13.000000715255737,-8.425195642089843,3.0980969482421874,1.5322890624999999,-43.55725190839695,32.091603053435115,25.282442748091604,-10.678139404296875,-1.7094599853515624,1.2785036865234374,-9.893129770992367,24.763358778625953,10.67175572519084,0.0
13.010000705718994,-9.363722692871093,1.3335703247070312,2.849099975585937,-53.908396946564885,34.50381679389313,31.282442748091604,-10.120290417480469,-1.484405029296875,1.7405846069335937,-22.564885496183205,21.297709923664122,12.427480916030534,0.0
13.020001411437988,-10.912771166992187,-0.6727706665039062,5.722141967773437,-42.58015267175573,41.70992366412214,36.94656488549618,-9.854534033203125,-1.7262193969726563,1.1947066284179686,-31.31297709923664,16.717557251908396,14.885496183206106,0.0
13.030001163482666,-14.312537524414061,-0.7852981445312499,9.313444458007812,-29.49618320610687,40.93129770992366,40.19847328244275,-10.182539660644531,-1.8219874633789062,0.5865794067382812,-36.18320610687023,19.938931297709924,15.923664122137405,0.0
13.040000915527344,-15.782577343749999,-0.3016694091796875,10.450690246582031,-14.687022900763358,37.05343511450382,43.725190839694655,-10.022128149414062,-1.89620771484375,0.32561142578124996,-40.62595419847328,21.984732824427482,17.709923664122137,0.0
13.05299687385559,-16.948553552246093,0.19153613281249998,9.117119921875,-9.603053435114504,19.84732824427481,37.05343511450382,-10.943895788574219,-3.5027170288085934,-0.3136404174804687,-34.44274809160305,21.923664122137403,19.358778625954198,0.0
13.06448745727539,-16.824055065917968,2.6288334228515624,8.044517578125,-12.82442748091603,5.786259541984733,30.595419847328245,-10.977414611816405,-2.8706477905273435,-0.8667010009765624,-18.65648854961832,17.862595419847327,18.732824427480917,0.0
13.077556610107422,-8.678981018066406,-0.5386953735351562,0.9145850341796874,-9.923664122137405,-14.488549618320612,29.6793893129771,-9.945513696289062,-2.0877438476562498,-0.7900865478515624,-18.0,13.679389312977099,18.213740458015266,0.0
13.082539081573486,-7.122749938964843,-0.41419688720703124,0.21068974609375,-10.50381679389313,-14.931297709923664,28.106870229007633,-9.988609326171874,0.2154781494140625,-2.806004345703125,-16.03053435114504,15.114503816793894,17.633587786259543,0.0
13.090000867843628,-6.193799694824218,-0.086191259765625,0.21068974609375,-12.50381679389313,-13.221374045801527,27.49618320610687,-10.915165368652342,0.18435352783203124,-2.6910826660156246,-10.763358778625955,21.282442748091604,18.900763358778626,0.0
13.10219931602478,-4.448426684570312,0.4070142822265625,0.28730419921875,-4.809160305343512,1.5572519083969465,29.69465648854962,-11.109095703125,1.2425906616210938,-3.6918589599609373,-19.557251908396946,21.740458015267176,18.244274809160306,0.0
13.110000610351562,-5.351040710449219,1.687912170410156,0.44053310546874996,-8.076335877862595,5.557251908396947,28.977099236641223,-11.449072338867186,0.38307226562499996,-2.0542250244140625,-28.65648854961832,19.770992366412212,19.083969465648856,0.0
13.12000060081482,-3.8379052612304685,0.4477157104492187,-0.4525041137695312,-4.595419847328245,14.595419847328245,32.656488549618324,-12.220005273437499,0.507570751953125,-2.6048914062499997,-20.061068702290076,19.84732824427481,17.206106870229007,0.0
13.138330459594727,-8.588001354980468,3.5194764404296874,0.031124621582031248,-27.068702290076335,24.900763358778626,31.938931297709924,-11.073182678222656,1.5658078857421873,-2.128445275878906,-11.893129770992367,5.190839694656488,18.412213740458014,0.0
13.14359712600708,-8.322244970703125,2.1643583007812497,0.016759411621093748,-26.045801526717558,29.96946564885496,33.3587786259542,-11.010933435058593,1.9129671264648436,-2.2649147705078123,-19.801526717557252,4.0,21.068702290076335,0.0
13.15000057220459,-7.908048083496094,0.296881005859375,-0.20829554443359374,-19.72519083969466,33.87786259541985,33.93893129770992,-11.099518896484375,2.0350714111328125,-2.1212626708984375,-26.18320610687023,3.3282442748091605,23.221374045801525,0.0
13.160000324249268,-8.693346228027343,-0.6584054565429687,0.19393033447265623,-10.442748091603054,39.29770992366412,31.099236641221374,-11.109095703125,1.8842367065429686,-2.166752502441406,-30.091603053435115,3.3740458015267176,25.16030534351145,0.0
13.170000553131104,-9.888052856445311,0.9050082275390624,1.9225439331054686,-0.32061068702290074,49.51145038167939,21.221374045801525,-9.72285294189453,0.6847416748046875,-1.0007762939453124,-34.58015267175573,0.6259541984732825,27.0381679389313,0.0
13.18000054359436,-9.641450085449218,1.3383587280273437,1.8555062866210936,0.07633587786259542,49.00763358778626,19.419847328244273,-9.667786303710937,0.06464344482421874,-1.0486603271484374,-34.717557251908396,0.5038167938931297,26.83969465648855,0.0
13.195354461669922,-11.279084020996093,2.5163059448242184,2.2098481323242187,-6.229007633587786,44.35114503816794,15.251908396946565,-9.967061511230469,0.06464344482421874,-1.3670891479492187,-34.045801526717554,-4.351145038167939,22.3206106870229,0.0
13.207796096801758,-11.022904443359375,2.4444798950195312,2.1116858642578125,-10.0,41.64885496183206,14.625954198473282,-10.01733974609375,0.16759411621093748,-1.197100830078125,-34.38167938931298,-5.755725190839694,21.755725190839694,0.0
13.21194314956665,-10.486603271484375,2.3511060302734372,1.8650830932617186,-19.31297709923664,35.6793893129771,11.435114503816793,-10.342951171874999,0.1771709228515625,-1.7310078002929687,-38.030534351145036,-8.198473282442748,20.458015267175572,0.0
13.221399068832397,-10.943895788574219,2.8419173706054686,2.3056161987304686,-23.52671755725191,35.20610687022901,9.206106870229007,-10.402806213378906,0.20829554443359374,-1.5969325073242187,-39.29770992366412,-9.206106870229007,20.3206106870229,0.0
13.230000734329224,-8.987833032226561,1.2473790649414063,1.5179238525390624,-21.51145038167939,31.49618320610687,8.992366412213741,-10.709264025878905,-0.06464344482421874,-1.9033903198242186,-40.595419847328245,-10.045801526717558,18.671755725190838,0.0
13.24000072479248,-9.404424121093749,1.0582371337890624,1.2737152832031249,-20.53435114503817,28.885496183206108,6.213740458015267,-10.639832177734375,-0.05985504150390625,-2.157175695800781,-40.67175572519084,-11.587786259541986,17.206106870229007,0.0
13.250000476837158,-9.478644372558593,1.1156979736328125,1.5921441040039062,-12.381679389312977,32.091603053435115,4.061068702290076,-10.17056865234375,-0.06464344482421874,-2.4301146850585935,-40.412213740458014,-11.038167938931299,14.549618320610687,0.0
13.260000467300415,-8.647856396484375,0.009576806640625,1.235408056640625,0.6564885496183206,34.12213740458015,1.7099236641221374,-9.842563024902343,-0.2705447875976562,-2.8658593872070313,-40.29007633587786,-10.82442748091603,11.48091603053435,0.0
13.27000093460083,-9.311050256347656,-0.055066638183593745,1.0582371337890624,11.007633587786259,35.49618320610687,-2.0610687022900764,-9.473855969238281,-0.9935936889648437,-3.8187516479492185,-37.770992366412216,-8.412213740458014,8.748091603053435,0.0
13.280000686645508,-9.473855969238281,0.36391865234375,0.9050082275390624,21.709923664122137,39.267175572519086,-5.541984732824427,-10.218452685546874,-2.748543505859375,-3.385401147460937,-27.17557251908397,-5.175572519083969,5.3893129770992365,0.0
13.290004014968872,-9.028534460449219,0.9504980590820312,0.2442085693359375,32.61068702290076,41.603053435114504,-8.488549618320612,-9.639055883789062,-1.659181750488281,-2.7748797241210936,-16.778625954198475,-10.83969465648855,1.3282442748091603,0.0
13.30000114440918,-9.64623848876953,2.3223756103515623,0.2657563842773437,33.25190839694657,44.030534351145036,-11.022900763358779,-9.9215716796875,-0.076614453125,-2.5953145996093747,-0.9770992366412213,-12.396946564885496,0.3053435114503817,0.0
13.310000658035278,-9.476250170898437,2.8850130004882812,0.411802685546875,30.931297709923665,46.12213740458015,-11.816793893129772,-9.928754284667969,-0.09337386474609374,-1.8100164550781248,-5.3893129770992365,-10.732824427480915,1.5572519083969465,0.0
13.320031881332397,-9.617508068847656,3.5410242553710933,0.354341845703125,25.251908396946565,45.81679389312977,-11.755725190839694,-9.299079248046874,0.5003881469726562,-1.1707646118164061,-8.687022900763358,-13.145038167938932,-0.07633587786259542,0.0
13.330000877380371,-10.160991845703125,3.69664736328125,0.1867477294921875,14.916030534351146,44.18320610687023,-11.526717557251908,-9.763554370117188,-0.181959326171875,-0.7565677246093749,-7.129770992366412,-10.885496183206106,-0.21374045801526717,0.0
13.340001106262207,-9.299079248046874,3.418919970703125,0.4477157104492187,8.15267175572519,43.98473282442748,-10.01526717557252,-9.390058911132812,-0.239420166015625,-0.16998831787109375,-6.198473282442748,-12.458015267175572,-1.7099236641221374,0.0
13.350000858306885,-10.429142431640624,3.1699229980468746,1.139639990234375,2.366412213740458,42.87022900763359,-10.351145038167939,-9.521740002441407,-0.17238251953125,0.5051765502929687,-5.923664122137405,-15.86259541984733,-2.6259541984732824,0.0
13.360000610351562,-9.751583361816406,1.7693150268554687,1.3670891479492187,-0.366412213740458,39.38931297709924,-8.442748091603054,-10.383652600097655,-1.9536685546875,0.4429273071289062,10.793893129770993,-18.763358778625953,-3.9389312977099236,0.0
13.370000839233398,-9.354145886230468,1.1851298217773436,1.8028338500976562,4.9465648854961835,38.229007633587784,-8.763358778625955,-9.890447058105469,-2.3726538452148436,1.3958195678710936,18.80916030534351,-28.33587786259542,-6.748091603053435,0.0
13.380000829696655,-9.588777648925781,1.465251416015625,2.0781670410156248,5.374045801526718,33.74045801526717,-10.091603053435115,-9.555258825683593,-0.8379705810546875,1.1947066284179686,29.541984732824428,-38.58015267175573,-9.297709923664122,0.0
13.390000581741333,-10.912771166992187,2.104503259277344,3.0071172851562498,0.24427480916030533,30.977099236641223,-11.557251908396946,-9.210493786621093,0.9050082275390624,0.6344634399414062,31.52671755725191,-44.229007633587784,-9.816793893129772,0.0
13.400001049041748,-10.419565624999999,1.7286135986328124,3.0214824951171875,-2.0916030534351147,27.236641221374047,-10.80916030534351,-8.317456567382813,2.5953145996093747,-0.105344873046875,17.72519083969466,-46.16793893129771,-8.916030534351146,0.0
13.410001277923584,-10.886434948730468,2.6048914062499997,3.342305517578125,-4.809160305343512,25.633587786259543,-12.412213740458014,-8.777143286132812,1.2330138549804688,-0.3136404174804687,6.9465648854961835,-45.099236641221374,-4.916030534351145,0.0
13.420000791549683,-9.062053283691405,0.6751648681640625,1.8938135131835936,-2.6412213740458017,21.61832061068702,-10.564885496183207,-8.406042028808594,0.8164227661132812,-1.2330138549804688,8.305343511450381,-44.36641221374046,-4.519083969465649,0.0
13.430001020431519,-8.762778076171875,0.4644751220703125,1.209071838378906,4.6106870229007635,20.33587786259542,-11.312977099236642,-7.79552060546875,1.3359645263671873,-1.93451494140625,3.114503816793893,-42.36641221374046,-4.916030534351145,0.0
13.440001010894775,-8.343792785644531,1.0845733520507812,0.7565677246093749,9.114503816793894,19.740458015267176,-10.106870229007633,-8.113949426269532,1.9800047729492187,-1.1635820068359375,3.145038167938931,-34.94656488549618,-2.946564885496183,0.0
13.45000147819519,-10.192116467285155,1.9009961181640624,1.6615759521484375,11.49618320610687,22.15267175572519,-10.335877862595419,-9.509768994140625,-1.3168109130859373,-1.4915876342773438,-6.290076335877862,-30.366412213740457,0.549618320610687,0.0
13.46000075340271,-9.287108239746093,1.2808978881835937,1.2761094848632812,17.72519083969466,22.15267175572519,-9.679389312977099,-8.774749084472656,-1.4820108276367188,-2.1404162841796874,5.236641221374046,-29.72519083969466,-1.8015267175572518,0.0
13.470001220703125,-9.665392102050781,1.1180921752929687,1.235408056640625,26.625954198473284,21.984732824427482,-10.793893129770993,-10.271125122070313,-1.6328455322265625,-0.9840168823242187,12.50381679389313,-30.671755725190838,-2.0610687022900764,0.0
13.480000734329224,-9.900023864746093,1.4413093994140624,1.39821376953125,32.88549618320611,22.80916030534351,-12.0,-10.24000050048828,-0.93852705078125,-0.16759411621093748,25.69465648854962,-30.045801526717558,-3.8473282442748094,0.0
13.49000096321106,-9.567229833984374,2.4564509033203126,1.3383587280273437,33.70992366412214,20.396946564885496,-12.977099236641221,-9.892841259765625,-0.06464344482421874,-1.1611878051757811,25.66412213740458,-31.282442748091604,-5.251908396946565,0.0
13.500000953674316,-10.649408984374999,2.987963671875,1.9033903198242186,27.251908396946565,18.977099236641223,-13.435114503816793,-9.842563024902343,0.70868369140625,-0.16519991455078123,19.31297709923664,-30.870229007633586,-3.984732824427481,0.0
13.510000944137573,-8.86094034423828,1.9847931762695312,0.9840168823242187,23.206106870229007,14.610687022900763,-11.587786259541986,-10.350133776855468,-0.16280571289062498,-1.0271125122070313,11.557251908396946,-30.03053435114504,-2.5801526717557253,0.0
13.52000117301941,-9.969455712890625,2.3774422485351563,1.6448165405273436,24.610687022900763,17.61832061068702,-12.595419847328245,-10.05564697265625,-0.430956298828125,-1.2593500732421874,18.65648854961832,-27.17557251908397,-2.854961832061069,0.0
13.530001163482666,-9.236830004882812,2.1452046874999997,0.9337386474609375,27.389312977099237,15.038167938931299,-11.49618320610687,-9.880870251464843,-0.40222587890625,-0.5746083984375,31.236641221374047,-27.251908396946565,-4.519083969465649,0.0
13.540000438690186,-10.771513269042968,3.057395520019531,1.5490484741210937,25.099236641221374,15.618320610687023,-13.17557251908397,-9.751583361816406,-0.5386953735351562,-1.149216796875,34.717557251908396,-28.33587786259542,-7.083969465648855,0.0
13.550000667572021,-9.904812268066406,2.427720483398437,1.120486376953125,21.6793893129771,8.977099236641221,-10.625954198473282,-9.720458740234374,-0.9624690673828125,-1.5562310791015623,33.49618320610687,-29.587786259541986,-8.229007633587786,0.0
13.560000896453857,-9.34696328125,2.588131994628906,1.1180921752929687,24.85496183206107,7.801526717557252,-8.458015267175572,-10.17056865234375,0.09337386474609374,-1.1420341918945311,31.374045801526716,-29.923664122137403,-9.083969465648854,0.0
13.570000648498535,-9.842563024902343,2.6815058593749996,1.3048399047851562,21.022900763358777,4.320610687022901,-5.343511450381679,-9.660603698730467,0.8092401611328125,-1.2665326782226562,25.709923664122137,-26.549618320610687,-8.870229007633588,0.0
13.58000111579895,-10.728417639160156,4.347870214843749,2.128445275878906,16.244274809160306,2.198473282442748,-3.5114503816793894,-9.694122521972655,0.23223756103515625,-1.4867992309570313,14.80916030534351,-21.801526717557252,-6.3816793893129775,0.0
13.590000629425049,-10.014945544433592,3.227383837890625,1.7094599853515624,8.351145038167939,-3.6793893129770994,0.13740458015267176,-9.14824454345703,0.5722141967773438,-0.9050082275390624,1.5725190839694656,-20.671755725190838,-6.061068702290076,0.0
13.600000619888306,-9.145850341796875,1.5442600708007812,0.9911994873046874,14.50381679389313,-5.068702290076335,1.7557251908396947,-9.366116894531249,-0.4955997436523437,-1.180341418457031,8.061068702290076,-17.450381679389313,-6.687022900763359,0.0
13.610000610351562,-9.176974963378905,1.3383587280273437,0.9265560424804687,18.30534351145038,-5.6183206106870225,-0.4122137404580153,-9.481038574218749,-0.316034619140625,-0.5219359619140624,13.419847328244275,-15.923664122137405,-9.19083969465649,0.0
13.62000060081482,-9.131485131835937,1.3311761230468748,0.7110778930664062,20.9618320610687,-6.122137404580153,-1.83206106870229,-9.512163195800781,-0.7278373046875,-0.948103857421875,17.603053435114504,-15.206106870229007,-10.961832061068701,0.0
13.630240440368652,-9.229647399902344,1.2425906616210938,0.5793968017578125,23.633587786259543,-5.709923664122138,-2.4732824427480917,-10.632649572753905,-1.6256629272460936,-0.13407529296874998,29.114503816793892,-14.641221374045802,-11.038167938931299,0.0
13.640000581741333,-9.093177905273437,0.8451531860351562,0.28969840087890625,29.114503816793892,-4.748091603053435,-2.9923664122137406,-10.398017810058594,-1.6711527587890624,-0.09337386474609374,41.7557251908397,-21.81679389312977,-13.603053435114504,0.0
13.650000810623169,-9.085995300292968,0.8906430175781249,0.1388636962890625,36.06106870229008,-2.2900763358778624,-4.229007633587786,-9.437942944335937,-0.5339069702148437,0.40222587890625,50.70229007633588,-25.84732824427481,-16.442748091603054,0.0
13.660000562667847,-9.296685046386719,1.6448165405273436,0.18435352783203124,37.32824427480916,0.07633587786259542,-6.580152671755725,-9.406818322753905,0.9935936889648437,0.29448680419921874,50.35114503816794,-25.450381679389313,-17.17557251908397,0.0
13.670001029968262,-9.356540087890625,2.4061726684570313,-0.0383072265625,30.977099236641223,1.4961832061068703,-8.305343511450381,-9.220070593261719,2.1883003173828124,-0.6057330200195312,35.847328244274806,-25.862595419847327,-15.893129770992367,0.0
13.68000054359436,-9.157821350097656,2.2840683837890623,-0.13646949462890623,25.46564885496183,3.435114503816794,-8.717557251908397,-8.99501563720703,1.6041151123046875,0.1197100830078125,15.98473282442748,-22.35114503816794,-13.664122137404581,0.0
13.690000772476196,-10.266336718749999,3.4763808105468748,0.3327940307617187,13.007633587786259,2.8244274809160306,-11.251908396946565,-9.050082275390624,1.8602946899414061,0.10295067138671875,12.80916030534351,-17.572519083969464,-12.305343511450381,0.0
13.700000286102295,-10.014945544433592,2.6384102294921874,0.30885201416015623,1.5572519083969465,2.0,-12.65648854961832,-9.579200842285156,0.7062894897460937,0.17477672119140625,4.595419847328245,-12.50381679389313,-10.442748091603054,0.0
13.71000075340271,-9.622296472167967,1.618480322265625,0.24181436767578124,0.183206106870229,2.763358778625954,-11.908396946564885,-9.289502441406249,0.39743747558593745,-0.14125789794921875,3.450381679389313,-12.030534351145038,-11.450381679389313,0.0
13.720000505447388,-9.603142858886718,1.2808978881835937,0.24181436767578124,3.572519083969466,4.5038167938931295,-11.206106870229007,-9.227253198242186,0.5506663818359374,-0.2154781494140625,0.8396946564885496,-9.83206106870229,-11.297709923664122,0.0
13.730000257492065,-8.537723120117187,-0.36152445068359373,-0.4477157104492187,10.595419847328245,6.931297709923665,-10.351145038167939,-9.447519750976562,0.3758896606445312,0.0143652099609375,-0.916030534351145,-7.770992366412214,-11.34351145038168,0.0
13.740000247955322,-9.239224206542968,0.21068974609375,-0.08140285644531249,20.900763358778626,12.15267175572519,-13.618320610687023,-10.137049829101562,-1.3527239379882812,0.7134720947265625,2.885496183206107,-5.557251908396947,-9.84732824427481,0.0
13.750000476837158,-8.726865051269531,1.024718310546875,-0.30406361083984373,25.984732824427482,15.664122137404581,-16.106870229007633,-10.500968481445312,-2.463633508300781,0.7326257080078125,15.725190839694656,-9.038167938931299,-11.236641221374045,0.0
13.760000705718994,-10.002974536132811,1.7405846069335937,0.2442085693359375,28.38167938931298,20.870229007633586,-17.862595419847327,-9.512163195800781,-1.7477672119140624,0.6392518432617187,19.633587786259543,-16.717557251908396,-13.84732824427481,0.0
13.77000093460083,-8.497021691894531,2.1906945190429687,-0.28012159423828126,26.15267175572519,20.99236641221374,-17.49618320610687,-9.473855969238281,-0.07900865478515624,1.1180921752929687,28.106870229007633,-16.35114503816794,-15.603053435114504,0.0
13.780001163482666,-10.66137999267578,3.878606689453125,0.9026140258789062,15.389312977099237,22.27480916030534,-19.6793893129771,-9.150638745117186,1.2210428466796874,1.0486603271484374,22.916030534351144,-16.53435114503817,-15.526717557251908,0.0
13.790000915527344,-10.330980163574218,4.108450048828125,0.9074024291992187,1.83206106870229,18.38167938931298,-17.862595419847327,-9.062053283691405,1.350329736328125,0.4213794921875,14.381679389312977,-11.17557251908397,-13.755725190839694,0.0
13.800000429153442,-10.666168395996094,4.3454760131835934,1.3072341064453123,-11.206106870229007,15.297709923664122,-17.282442748091604,-9.327809667968749,0.8571241943359375,0.105344873046875,6.916030534351145,-12.320610687022901,-11.969465648854962,0.0
13.810000658035278,-8.80347950439453,1.0797849487304687,0.5291185668945312,-9.16030534351145,13.435114503816793,-13.007633587786259,-9.054870678710937,0.7038952880859375,0.5267243652343749,-0.32061068702290074,-8.15267175572519,-11.755725190839694,0.0
13.820000648498535,-9.586383447265625,0.9169792358398436,0.9840168823242187,-4.091603053435114,13.312977099236642,-13.450381679389313,-8.875305554199219,0.016759411621093748,0.08140285644531249,-2.8396946564885495,-7.0534351145038165,-10.641221374045802,0.0
13.83000111579895,-9.732429748535155,0.8212111694335937,1.2521674682617188,0.48854961832061067,13.053435114503817,-12.473282442748092,-8.916006982421875,-0.05027823486328125,0.3495534423828125,-1.9389312977099236,-5.969465648854962,-11.145038167938932,0.0
13.840001344680786,-8.781931689453124,0.7278373046875,1.43652099609375,8.351145038167939,14.580152671755725,-13.511450381679388,-8.786720092773438,-0.4165910888671875,0.08858546142578125,-1.8473282442748091,-5.633587786259542,-11.389312977099237,0.0
13.850000858306885,-9.849745629882811,1.189918225097656,2.4851813232421875,9.49618320610687,16.931297709923665,-16.18320610687023,-8.95670841064453,-1.1133037719726562,0.16041151123046873,2.0,-4.519083969465649,-11.969465648854962,0.0
13.860000848770142,-10.134655627441406,0.8283937744140625,2.6695348510742187,10.259541984732824,11.282442748091603,-17.221374045801525,-8.473079675292968,0.16280571289062498,0.39983167724609375,4.473282442748092,-8.01526717557252,-15.053435114503817,0.0
13.87000060081482,-9.78031378173828,1.2689268798828124,2.7748797241210936,12.778625954198473,8.244274809160306,-18.793893129770993,-8.779537487792968,0.22266075439453123,0.4477157104492187,-3.068702290076336,-4.564885496183206,-14.534351145038167,0.0
13.880000829696655,-10.077194787597655,1.7693150268554687,3.258508459472656,6.656488549618321,2.5343511450381677,-19.557251908396946,-9.181763366699219,0.28490999755859375,1.4125789794921875,-3.969465648854962,-4.213740458015267,-13.938931297709924,0.0
13.890000581741333,-10.429142431640624,1.915361328125,3.450044592285156,12.717557251908397,-0.2595419847328244,-20.244274809160306,-9.411606726074218,-0.239420166015625,1.177947216796875,-5.0534351145038165,-5.221374045801527,-14.854961832061068,0.0
13.90000057220459,-11.200075366210937,3.782838623046875,4.134786267089844,14.381679389312977,-2.4732824427480917,-22.35114503816794,-9.926360083007811,-0.062249243164062495,2.176329309082031,-7.648854961832061,-6.99236641221374,-15.389312977099237,0.0
13.910001039505005,-10.168174450683592,2.4444798950195312,3.3494881225585935,12.992366412213741,-9.893129770992367,-20.641221374045802,-9.64623848876953,-1.2282254516601563,-0.09337386474609374,-7.404580152671755,-6.458015267175573,-16.061068702290076,0.0
13.920000553131104,-11.317391247558593,3.679887951660156,4.204218115234375,8.412213740458014,-16.549618320610687,-19.84732824427481,-9.179369165039063,-0.39983167724609375,-2.3391350219726563,-2.6564885496183206,0.3511450381679389,-16.35114503816794,0.0
13.93000078201294,-10.75714805908203,1.465251416015625,4.199429711914062,7.770992366412214,-25.00763358778626,-15.740458015267176,-9.062053283691405,-0.47644613037109373,-4.271255761718749,2.381679389312977,7.511450381679389,-14.335877862595419,0.0
13.940000295639038,-11.456254943847656,1.9991583862304687,4.970362646484375,23.404580152671755,-27.96946564885496,-12.870229007633588,-9.402029919433593,-2.389413256835937,-5.030217687988281,15.938931297709924,13.358778625954198,-12.488549618320612,0.0
13.950000762939453,-11.396399902343749,0.9433154541015625,4.675875842285156,21.16030534351145,-40.06106870229008,-9.053435114503817,-9.30147344970703,-1.9584569580078124,-3.5122938354492184,31.053435114503817,17.587786259541986,-17.87786259541985,0.0
13.96000051498413,-10.448296044921875,-0.3280056274414062,4.714183068847656,45.7557251908397,-43.45038167938932,-4.366412213740458,-8.614337573242187,0.70868369140625,-0.9002198242187499,26.671755725190838,21.282442748091604,-18.9618320610687,0.0
13.970000743865967,-12.904746948242186,3.1699229980468746,7.211335400390625,29.603053435114504,-52.93129770992366,-9.312977099236642,-9.581595043945311,2.0829554443359375,2.04943662109375,21.801526717557252,24.595419847328245,-13.908396946564885,0.0
13.980000495910645,-13.235146777343749,2.9927520751953125,8.01818135986328,11.511450381679388,-71.69465648854961,-11.664122137404581,-9.545682019042967,2.0063409912109376,1.7812860351562498,20.18320610687023,25.022900763358777,-10.213740458015268,0.0
13.99000072479248,-13.625401647949218,1.5610194824218748,8.090007409667969,1.450381679389313,-96.50381679389314,-10.396946564885496,-10.517727893066406,1.0534487304687499,0.6607996582031249,14.65648854961832,25.893129770992367,-8.564885496183207,0.0
14.000000715255737,-14.149731811523436,1.254561669921875,8.291120349121094,-3.3282442748091605,-117.12977099236642,-9.664122137404581,-10.611101757812499,0.49799394531249996,0.36391865234375,3.450381679389313,28.9618320610687,-7.32824427480916,0.0
14.010001182556152,-14.190433239746094,1.3527239379882812,8.319850769042969,2.0,-138.33587786259542,-6.6106870229007635,-12.148179223632813,-1.8219874633789062,1.2880804931640624,1.3435114503816794,25.19083969465649,-5.221374045801527,0.0
14.020000457763672,-14.841656091308593,0.4429273071289062,7.455543969726562,21.480916030534353,-158.6259541984733,-1.4809160305343512,-12.294225524902343,-4.7884033203125,1.5107412475585937,10.244274809160306,19.068702290076335,-5.938931297709924,0.0
14.030000925064087,-14.240711474609375,1.005564697265625,5.686228942871093,39.23664122137404,-172.8091603053435,3.816793893129771,-10.101136804199218,-3.2920272827148436,0.1771709228515625,13.297709923664122,11.98473282442748,-10.427480916030534,0.0
14.040000438690186,-14.630966345214842,2.528276953125,2.607285607910156,27.66412213740458,-181.6793893129771,6.5038167938931295,-9.488221179199218,-2.817975354003906,0.016759411621093748,6.549618320610687,11.679389312977099,-9.893129770992367,0.0
14.050000667572021,-13.749900134277343,2.8730419921875,0.229843359375,-3.4656488549618323,-188.45801526717557,8.351145038167939,-9.514557397460937,-3.0909143432617188,-0.6177040283203125,4.183206106870229,13.877862595419847,-8.442748091603054,0.0
14.060001134872437,-12.167332836914062,1.0462661254882812,-1.675941162109375,-19.251908396946565,-186.01526717557252,11.221374045801527,-9.193734375,-3.7612908081054686,-0.6272808349609375,3.7404580152671754,14.442748091603054,-9.48091603053435,0.0
14.070000648498535,-11.954248889160155,0.7158662963867187,-2.3295582153320313,-20.564885496183205,-163.54198473282443,12.381679389312977,-9.631873278808593,-4.350264416503906,-0.4908113403320312,4.916030534351145,14.854961832061068,-11.114503816793894,0.0
14.080000877380371,-10.297461340332031,-0.7900865478515624,-4.240131140136718,-56.76335877862596,-152.35114503816794,8.564885496183207,-9.519345800781249,-3.9049429077148434,-0.2657563842773437,9.633587786259541,15.022900763358779,-11.954198473282442,0.0
14.090000629425049,-8.319850769042969,-3.1699229980468746,-4.836287353515624,-46.88549618320611,-129.57251908396947,10.748091603053435,-9.854534033203125,-4.2329485351562495,-0.5674257934570313,11.419847328244275,15.221374045801527,-10.366412213740459,0.0
14.100000619888306,-6.921636999511718,-3.469198205566406,-4.216189123535156,-27.64885496183206,-100.22900763358778,10.366412213740459,-9.85692823486328,-3.6272155151367187,-0.14125789794921875,15.49618320610687,15.435114503816793,-9.541984732824428,0.0
14.110000610351562,-6.694187841796874,-3.6272155151367187,-2.5641899780273434,-10.381679389312977,-72.77862595419847,6.702290076335878,-9.507374792480467,-2.980781066894531,0.45968671875,14.595419847328245,14.687022900763358,-8.564885496183207,0.0
14.12000060081482,-6.351817004394531,-2.6240450195312497,-1.5418658691406248,2.8702290076335877,-54.091603053435115,3.2519083969465647,-9.299079248046874,-2.492363928222656,0.7589619262695312,14.091603053435115,14.687022900763358,-7.374045801526718,0.0
14.130000352859497,-6.8976949829101555,-0.9528922607421875,-0.23223756103515625,5.465648854961832,-39.770992366412216,0.7633587786259542,-9.222464794921875,-2.1260510742187497,0.7493851196289062,11.251908396946565,15.099236641221374,-6.778625954198473,0.0
14.140000581741333,-5.140350964355468,-0.9624690673828125,-0.354341845703125,6.412213740458015,-31.52671755725191,2.3053435114503817,-8.382100012207031,-0.10295067138671875,0.9074024291992187,8.82442748091603,13.618320610687023,-7.572519083969466,0.0
14.150000810623169,-4.814739538574218,0.8164227661132812,0.35194764404296874,-5.755725190839694,-22.82442748091603,1.3282442748091603,-7.651868505859374,1.0534487304687499,0.8379705810546875,-19.16030534351145,17.984732824427482,-4.717557251908397,0.0
14.160000562667847,-5.53539423828125,2.710236279296875,1.4149731811523436,-31.17557251908397,-19.389312977099237,0.16793893129770993,-9.418789331054686,-0.24181436767578124,0.9528922607421875,-30.717557251908396,23.81679389312977,2.0610687022900764,0.0
14.170000553131104,-6.854599353027344,2.5354595581054684,2.1068974609374997,-56.458015267175576,-17.587786259541986,-0.04580152671755725,-9.10993731689453,-0.679953271484375,0.1197100830078125,-34.93129770992366,25.328244274809162,2.3053435114503817,0.0
14.18000054359436,-7.338228088378906,1.5538368774414062,2.0781670410156248,-62.88549618320611,-14.50381679389313,1.0534351145038168,-10.211270080566406,-2.616862414550781,-0.19632453613281248,-30.38167938931298,26.48854961832061,3.4656488549618323,0.0
14.190000772476196,-6.263231542968749,0.39743747558593745,2.2601263671875,-62.12213740458015,-8.549618320610687,0.8396946564885496,-9.878476049804688,-2.147598889160156,0.40222587890625,-27.114503816793892,23.450381679389313,2.6106870229007635,0.0
14.200000524520874,-5.600037683105469,-0.9696516723632812,2.5522189697265625,-50.152671755725194,0.16793893129770993,0.22900763358778625,-8.633491186523438,-0.9121908325195311,0.086191259765625,-21.46564885496183,19.6793893129771,1.450381679389313,0.0
14.21000075340271,-7.307103466796875,1.189918225097656,4.070142822265625,-58.47328244274809,0.6717557251908397,-4.824427480916031,-8.566453540039062,-0.3495534423828125,-1.0342951171875,-26.244274809160306,22.137404580152673,3.312977099236641,0.0
14.220000505447388,-7.304709265136719,1.0773907470703123,5.305550878906249,-61.93893129770992,4.2748091603053435,-2.8396946564885495,-8.214505895996094,1.216254443359375,-0.36391865234375,-34.778625954198475,24.38167938931298,5.4961832061068705,0.0
14.230000495910645,-7.082048510742187,0.5363011718749999,5.566518859863281,-64.54961832061069,4.625954198473282,-0.48854961832061067,-9.351751684570312,-1.0941501586914062,-0.8188169677734375,-44.44274809160305,33.41984732824427,9.770992366412214,0.0
14.240000486373901,-6.792350109863281,-1.1635820068359375,5.3007624755859375,-60.030534351145036,6.473282442748092,2.519083969465649,-9.552864624023437,-2.70065947265625,-1.3431471313476562,-42.51908396946565,32.19847328244275,10.580152671755725,0.0
14.250000715255737,-5.872976672363281,-2.961627453613281,4.4196962646484375,-44.42748091603053,8.702290076335878,4.152671755725191,-8.913612780761719,-1.4604630126953124,-1.1037269653320312,-36.62595419847328,38.50381679389313,8.564885496183207,0.0
14.260000705718994,-6.986280444335937,-1.618480322265625,4.659116430664063,-31.236641221374047,14.977099236641221,3.1755725190839694,-9.3852705078125,-2.693476867675781,-0.8714894042968749,-40.58015267175573,42.458015267175576,9.84732824427481,0.0
14.270000696182251,-7.809885815429687,-1.158793603515625,4.819527941894531,-26.748091603053435,16.213740458015266,2.183206106870229,-9.95987890625,-4.525041137695312,-0.41898529052734373,-30.213740458015266,43.80152671755725,12.076335877862595,0.0
14.280000448226929,-5.829881042480468,-4.125209460449218,4.120421057128906,3.267175572519084,24.732824427480917,6.717557251908397,-9.574412438964844,-2.77727392578125,-0.6272808349609375,-16.977099236641223,41.17557251908397,10.442748091603054,0.0
14.290000677108765,-5.76523759765625,-4.005499377441406,3.758896606445312,43.43511450381679,37.908396946564885,6.656488549618321,-9.545682019042967,-3.1220389648437497,0.0383072265625,-18.27480916030534,43.16030534351145,10.229007633587786,0.0
14.3000009059906,-6.37815322265625,-2.6312276245117188,3.5529952636718747,70.22900763358778,49.29770992366412,7.893129770992366,-10.675745202636719,-4.383783239746093,0.833182177734375,-0.8396946564885496,43.70992366412214,12.061068702290076,0.0
14.310000658035278,-7.503428002929687,-0.6057330200195312,4.132392065429687,93.89312977099236,59.465648854961835,9.022900763358779,-10.723629235839843,-3.801992236328125,1.1659762084960936,14.381679389312977,34.01526717557252,9.618320610687023,0.0
14.320001125335693,-8.10197841796875,1.7836802368164062,4.228160131835938,97.98473282442748,61.05343511450382,10.916030534351146,-10.405200415039062,-2.1356278808593747,0.842758984375,21.267175572519083,30.259541984732824,7.908396946564886,0.0
14.330000638961792,-9.3852705078125,4.967968444824218,5.434837768554687,78.19847328244275,58.534351145038165,12.702290076335878,-9.253589416503905,-0.028730419921875,1.2497732666015624,8.320610687022901,24.580152671755727,8.82442748091603,0.0
14.340001106262207,-9.545682019042967,6.4284314575195305,6.081272216796875,43.343511450381676,47.66412213740458,15.618320610687023,-10.137049829101562,-1.1875240234375,1.917755529785156,-8.076335877862595,23.435114503816795,13.404580152671755,0.0
14.350000858306885,-10.144232434082031,6.347028601074219,7.0078282592773435,10.061068702290076,37.038167938931295,19.908396946564885,-9.222464794921875,-0.8379705810546875,1.5682020874023437,-10.274809160305344,21.6793893129771,13.129770992366412,0.0
14.360000848770142,-10.50815108642578,5.341463903808593,7.3932947265625,-16.82442748091603,26.48854961832061,25.862595419847327,-9.560047229003906,-1.6041151123046875,0.9816226806640624,-16.564885496183205,21.6793893129771,14.0,0.0
14.370183229446411,-9.952696301269532,3.9145197143554684,7.242460021972656,-37.038167938931295,17.34351145038168,34.412213740458014,-8.118737829589843,-0.1867477294921875,1.0414777221679687,-10.534351145038167,22.15267175572519,12.15267175572519,0.0
14.380000591278076,-10.029310754394531,2.3774422485351563,6.019022973632812,-49.7557251908397,12.885496183206106,40.47328244274809,-9.222464794921875,-2.511517541503906,0.5123591552734374,-23.022900763358777,19.129770992366414,15.251908396946565,0.0
14.390000581741333,-9.662997900390625,0.7709329345703124,4.630386010742187,-47.38931297709924,12.50381679389313,46.213740458015266,-9.014169250488282,-1.3910311645507811,-0.9074024291992187,-23.221374045801525,19.6793893129771,14.641221374045802,0.0
14.400000810623169,-11.803414184570311,2.346317626953125,5.068524914550781,-47.465648854961835,12.580152671755725,48.67175572519084,-9.006986645507812,-2.70065947265625,-0.8068459594726562,-35.7557251908397,18.80916030534351,17.66412213740458,0.0
14.410000562667847,-13.014880224609374,1.4341267944335936,6.021417175292968,-56.48854961832061,8.885496183206106,53.20610687022901,-10.137049829101562,-3.411737365722656,-0.5746083984375,-28.946564885496183,21.17557251908397,19.770992366412212,0.0
14.420001029968262,-13.254300390625,-1.1037269653320312,7.122749938964843,-55.02290076335878,4.244274809160306,53.81679389312977,-11.386823095703125,-2.952050646972656,-1.3383587280273437,-21.16030534351145,25.114503816793892,21.51145038167939,0.0
14.430001020431519,-13.855245007324218,-2.2194249389648437,7.362170104980469,-46.6412213740458,-1.984732824427481,48.36641221374046,-11.128249316406249,-3.2058360229492187,-1.0821791503906248,-14.732824427480915,17.801526717557252,21.46564885496183,0.0
14.440000534057617,-13.204022155761718,-3.191470812988281,5.870582470703124,-37.267175572519086,-10.641221374045802,43.06870229007634,-10.735600244140624,-2.3223756103515623,-1.0007762939453124,-10.885496183206106,13.603053435114504,21.083969465648856,0.0
14.450000762939453,-10.235212097167969,-3.907337109375,3.919308117675781,0.061068702290076333,0.9618320610687023,40.274809160305345,-10.398017810058594,-0.33039982910156246,-1.4987702392578124,-17.419847328244273,11.801526717557252,19.64885496183206,0.0
14.46000051498413,-8.82981572265625,-0.3112462158203125,2.0159177978515626,-1.251908396946565,3.099236641221374,28.65648854961832,-11.267113012695312,-0.26815058593749996,-1.4963760375976562,-17.083969465648856,15.282442748091603,21.221374045801525,0.0
14.470000743865967,-6.078878015136718,-2.250549560546875,-0.7924807495117187,-10.030534351145038,0.8091603053435115,24.80916030534351,-11.757924353027343,-0.1197100830078125,-1.5107412475585937,-18.03053435114504,13.877862595419847,22.015267175572518,0.0
14.480000495910645,-4.853046765136718,-2.3056161987304686,-1.120486376953125,-0.4122137404580153,11.465648854961833,19.389312977099237,-12.042834350585936,0.5363011718749999,-2.1930887207031247,-20.763358778625953,10.702290076335878,21.786259541984734,0.0
14.490000247955322,-5.9017070922851556,0.3711012573242187,-0.44053310546874996,-0.12213740458015267,20.977099236641223,13.725190839694656,-11.135431921386719,2.2290017456054687,-2.786850732421875,-32.25954198473283,8.702290076335878,20.076335877862597,0.0
14.500000476837158,-7.297526660156249,2.128445275878906,-0.6272808349609375,-2.9923664122137406,28.99236641221374,13.740458015267176,-11.966219897460936,0.8643067993164062,-1.6328455322265625,-44.717557251908396,8.198473282442748,22.83969465648855,0.0
14.510000705718994,-7.690175732421874,1.2569558715820313,-0.9361328491210937,7.282442748091603,41.52671755725191,17.0381679389313,-12.9861498046875,-0.2825157958984375,-2.616862414550781,-34.93129770992366,16.9618320610687,22.580152671755727,0.0
14.520000696182251,-8.954314208984375,0.6871358764648438,-0.8068459594726562,21.72519083969466,52.900763358778626,16.18320610687023,-13.541604589843748,-1.4053963745117186,-1.458068811035156,-23.419847328244273,9.786259541984732,22.50381679389313,0.0
14.530000686645508,-9.641450085449218,1.419761584472656,-0.02154781494140625,32.42748091603053,60.62595419847328,13.572519083969466,-11.154585534667968,0.7757213378906249,-0.8188169677734375,-21.083969465648856,-2.4732824427480917,20.366412213740457,0.0
14.540000438690186,-11.221623181152344,3.2058360229492187,1.3551181396484375,29.923664122137403,63.343511450381676,8.641221374045802,-10.896011755371093,1.5801730957031248,-1.0486603271484374,-28.83969465648855,-7.099236641221374,21.954198473282442,0.0
14.550000667572021,-11.121066711425781,3.507505432128906,1.8148048583984373,15.969465648854962,59.17557251908397,5.587786259541985,-10.769119067382812,1.1348515869140625,-0.93852705078125,-33.45038167938932,-8.748091603053435,22.366412213740457,0.0
14.560000896453857,-11.219228979492186,3.1579519897460937,1.695094775390625,1.8931297709923665,50.80916030534351,2.9770992366412212,-10.58476553955078,0.5793968017578125,-0.9552864624023437,-38.51908396946565,-12.870229007633588,21.31297709923664,0.0
14.570000648498535,-10.903194360351561,2.825157958984375,1.467645617675781,-8.396946564885496,44.47328244274809,1.3435114503816794,-10.484209069824217,0.6560112548828124,-1.2976572998046874,-41.6793893129771,-14.564885496183207,18.931297709923665,0.0
14.580000877380371,-11.329362255859374,3.1507693847656246,1.8746598999023436,-17.603053435114504,38.97709923664122,-0.12213740458015267,-9.97184991455078,0.7948749511718749,-1.8028338500976562,-44.3206106870229,-15.297709923664122,17.236641221374047,0.0
14.590000629425049,-11.690886706542969,3.42849677734375,2.1739351074218747,-23.893129770992367,32.36641221374046,-1.816793893129771,-9.629479077148437,-0.1867477294921875,-2.602497204589844,-44.06106870229008,-12.549618320610687,13.618320610687023,0.0
14.600000619888306,-8.805873706054687,0.05746083984375,0.5674257934570313,-19.404580152671755,27.61832061068702,1.3587786259541985,-9.361328491210937,-1.8746598999023436,-4.00310517578125,-38.13740458015267,-8.396946564885496,10.51908396946565,0.0
14.610000610351562,-9.203311181640624,-0.4070142822265625,1.1635820068359375,-0.32061068702290074,34.916030534351144,-0.7022900763358778,-9.976638317871092,-3.6056677001953124,-3.39018955078125,-24.12213740458015,-6.183206106870229,6.366412213740458,0.0
14.62000060081482,-9.3852705078125,-0.3447650390625,0.7326257080078125,15.740458015267176,38.93129770992366,-4.595419847328245,-9.765948571777344,-1.7310078002929687,-3.0813375366210938,1.0229007633587786,-8.305343511450381,1.0534351145038168,0.0
14.630000591278076,-8.650250598144531,0.44532150878906246,0.6775590698242188,26.610687022900763,43.74045801526717,-6.67175572519084,-9.904812268066406,-0.7589619262695312,-2.4492682983398435,2.900763358778626,-7.435114503816794,2.3053435114503817,0.0
14.640000581741333,-9.141061938476563,0.8978256225585937,0.8283937744140625,27.282442748091604,47.00763358778626,-9.923664122137405,-9.37808790283203,-0.3232172241210937,-1.9680337646484374,9.099236641221374,-9.83206106870229,1.8625954198473282,0.0
14.650000810623169,-8.908824377441405,0.8667010009765624,0.6081272216796875,30.916030534351144,49.55725190839695,-13.404580152671755,-9.497797985839844,0.32082302246093747,-1.0869675537109373,9.770992366412214,-11.404580152671755,1.099236641221374,0.0
14.660000562667847,-9.196128576660156,1.446097802734375,0.7900865478515624,32.396946564885496,51.282442748091604,-15.236641221374045,-9.248801013183593,0.7158662963867187,-0.8403647827148437,8.961832061068701,-14.076335877862595,0.9465648854961832,0.0
14.670000553131104,-9.042899670410156,2.4109610717773435,1.0079588989257813,34.44274809160305,52.30534351145038,-14.931297709923664,-9.07163009033203,0.7278373046875,-0.09337386474609374,5.465648854961832,-16.885496183206108,1.6030534351145038,0.0
14.68000054359436,-9.686939916992188,2.6384102294921874,1.0845733520507812,27.52671755725191,49.49618320610687,-14.122137404580153,-9.823409411621093,-1.1516109985351561,0.6775590698242188,6.427480916030534,-18.732824427480917,2.50381679389313,0.0
14.690000772476196,-9.5001921875,1.9632453613281249,1.1252747802734375,29.435114503816795,47.83206106870229,-12.229007633587786,-9.129090930175781,-0.63206923828125,0.3495534423828125,22.83969465648855,-25.740458015267176,-1.2061068702290076,0.0
14.700000524520874,-9.809044201660155,2.0661960327148434,1.0462661254882812,30.137404580152673,45.25190839694657,-11.419847328244275,-9.244012609863281,-0.47165772705078124,0.1771709228515625,21.49618320610687,-33.81679389312977,-2.8702290076335877,0.0
14.71000075340271,-9.794678991699218,2.549824768066406,1.4987702392578124,29.709923664122137,44.045801526717554,-10.076335877862595,-8.640673791503906,0.565031591796875,-0.21787235107421873,24.3206106870229,-36.47328244274809,-4.33587786259542,0.0
14.720000505447388,-9.758765966796874,2.4779987182617185,1.37906015625,20.564885496183205,39.66412213740458,-9.923664122137405,-8.870517150878905,2.0470424194335934,-1.1133037719726562,18.106870229007633,-39.41984732824427,-4.152671755725191,0.0
14.730000734329224,-8.999804040527343,2.0925322509765625,1.43652099609375,16.702290076335878,37.05343511450382,-8.488549618320612,-8.36294639892578,2.214636535644531,-1.6400281372070311,2.564885496183206,-36.97709923664122,-1.0381679389312977,0.0
14.740000486373901,-9.30147344970703,2.01112939453125,1.7262193969726563,11.557251908396946,35.038167938931295,-9.618320610687023,-9.557653027343749,0.6105214233398437,-1.2210428466796874,2.0763358778625953,-33.89312977099237,1.8778625954198473,0.0
14.750000476837158,-9.8449572265625,1.0989385620117187,1.6112977172851561,14.610687022900763,34.18320610687023,-9.755725190839694,-9.952696301269532,-0.38307226562499996,-1.6256629272460936,10.335877862595419,-34.79389312977099,0.4122137404580153,0.0
14.760000705718994,-8.367734802246094,0.469263525390625,0.8403647827148437,24.702290076335878,31.740458015267176,-8.305343511450381,-8.856151940917968,-0.18914193115234373,-2.1499930908203124,17.908396946564885,-36.0,-2.7786259541984735,0.0
14.770000457763672,-9.433154541015625,2.061407629394531,1.6136919189453125,32.717557251908396,35.969465648854964,-8.854961832061068,-9.483432775878907,-0.0430956298828125,-0.8738836059570312,9.770992366412214,-38.83969465648855,-3.114503816793893,0.0
