timestamp,Thigh_L_Acc_X,Thigh_L_Acc_Y,Thigh_L_Acc_Z,Thigh_L_Gyr_X,Thigh_L_Gyr_Y,Thigh_L_Gyr_Z,Thigh_R_Acc_X,Thigh_R_Acc_Y,Thigh_R_Acc_Z,Thigh_R_Gyr_X,Thigh_R_Gyr_Y,Thigh_R_Gyr_Z,gpio_output
10.000000476837158,-1.5155296508789062,-2.059013427734375,-2.808398547363281,-28.610687022900763,77.43511450381679,-0.24427480916030533,-9.404424121093749,-0.7924807495117187,1.6065093139648436,-3.786259541984733,24.30534351145038,21.206106870229007,0.0
10.010000705718994,-1.8722656982421875,-2.2601263671875,-1.898601916503906,-32.274809160305345,90.80916030534351,-5.374045801526718,-8.080430603027343,0.09337386474609374,1.838746875,-9.450381679389313,20.595419847328245,19.46564885496183,1.0
10.020000696182251,-3.1364041748046874,-3.0119056884765625,-0.076614453125,-30.290076335877863,102.18320610687023,-8.351145038167939,-10.24000050048828,-3.1555577880859373,2.4013842651367185,-11.267175572519085,20.396946564885496,20.85496183206107,1.0
10.030000448226929,-4.053383410644531,-4.024652990722656,2.925714428710937,-18.99236641221374,112.59541984732824,-10.931297709923664,-7.790732202148437,-1.8602946899414061,2.3726538452148436,-10.106870229007633,13.648854961832061,16.0,1.0
10.040000915527344,-5.971138940429687,-4.338293408203125,5.331887097167969,0.7480916030534351,117.8473282442748,-9.908396946564885,-8.066065393066406,-1.8746598999023436,2.906560815429687,-12.51908396946565,9.893129770992367,14.366412213740459,1.0
10.05000114440918,-7.340622290039062,-1.9536685546875,8.88009395751953,31.46564885496183,122.27480916030534,-5.969465648854962,-7.9295958984374995,-1.8411410766601561,1.9225439331054686,-17.251908396946565,7.969465648854962,13.374045801526718,1.0
10.060000658035278,-8.935160595703124,-0.4261678955078125,9.744400756835937,58.0,117.22137404580153,-0.44274809160305345,-7.613561279296874,-2.1547814941406247,2.0159177978515626,-20.061068702290076,6.351145038167939,12.82442748091603,1.0
10.070000886917114,-10.39322940673828,1.7262193969726563,9.868899243164062,59.404580152671755,99.80152671755725,2.8702290076335877,-7.6087728759765625,-2.5450363647460934,1.2521674682617188,-19.6793893129771,6.793893129770993,13.587786259541986,1.0
10.080000638961792,-10.237606298828124,1.197100830078125,10.280701928710936,73.2824427480916,96.97709923664122,4.290076335877862,-8.109161022949218,-3.2609026611328122,0.5530605834960938,-15.603053435114504,8.122137404580153,15.725190839694656,1.0
10.090000629425049,-11.896788049316406,4.838681555175781,12.11705460205078,55.221374045801525,79.77099236641222,-1.5114503816793894,-7.874529260253905,-3.787627026367187,0.28012159423828126,-7.770992366412214,6.8396946564885495,17.740458015267176,1.0
10.100000619888306,-13.318943835449218,5.987898352050781,13.053187451171874,16.748091603053435,50.99236641221374,-2.030534351145038,-8.17859287109375,-4.642357019042969,0.3280056274414062,1.5114503816793894,6.320610687022901,20.091603053435115,1.0
10.110000610351562,-13.881581225585936,6.256048937988281,12.528857287597656,-5.282442748091603,26.061068702290076,4.320610687022901,-7.771578588867187,-3.3016040893554686,-0.30885201416015623,8.961832061068701,6.122137404580153,18.641221374045802,1.0
10.120000839233398,-11.903970654296874,3.258508459472656,9.694122521972655,-11.786259541984732,6.320610687022901,17.83206106870229,-7.445967163085937,-0.5003881469726562,-0.2753331909179687,4.0,10.50381679389313,17.0381679389313,1.0
10.130000591278076,-10.78348427734375,0.86191259765625,8.161833459472655,-6.67175572519084,-4.259541984732825,29.31297709923664,-7.8170684204101555,0.19153613281249998,-0.07422025146484375,-11.16030534351145,16.366412213740457,19.419847328244273,1.0
10.140000581741333,-9.447519750976562,-0.37828386230468747,6.4475850708007805,14.992366412213741,-1.9694656488549618,36.83969465648855,-8.17859287109375,-0.7637503295898437,1.8507178833007811,-26.045801526717558,24.137404580152673,23.81679389312977,1.0
10.15000033378601,-9.85692823486328,2.798821740722656,5.379771130371093,18.38167938931298,-2.015267175572519,43.038167938931295,-8.075642199707032,0.488417138671875,2.5330653564453125,-54.61068702290076,38.50381679389313,30.015267175572518,1.0
10.160000801086426,-10.319009155273436,2.760514514160156,4.271255761718749,13.557251908396946,0.732824427480916,54.61068702290076,-10.548852514648438,-4.958391638183594,4.395754248046875,-48.900763358778626,31.572519083969464,39.06870229007634,1.0
10.170000553131104,-11.643002673339844,0.8882488159179687,4.498704919433593,10.580152671755725,4.732824427480916,61.48091603053435,-9.3852705078125,-3.873818286132812,3.9360675292968748,-29.31297709923664,16.580152671755727,36.900763358778626,1.0
10.18000054359436,-14.322114331054687,0.6823474731445313,8.815450512695312,17.587786259541986,14.198473282442748,68.16793893129771,-8.580818749999999,-0.01915361328125,1.5322890624999999,-34.229007633587784,11.648854961832061,37.64885496183206,1.0
10.190000534057617,-16.87433330078125,2.4492682983398435,12.97178459472656,18.870229007633586,9.694656488549619,73.37404580152672,-10.472238061523436,-1.5059528442382812,0.689530078125,-41.64885496183206,9.770992366412214,42.99236641221374,1.0
10.200000762939453,-17.810466149902343,2.0973206542968748,13.436259716796874,7.526717557251908,-11.450381679389313,76.10687022900764,-14.082694165039062,-3.794809631347656,0.19153613281249998,-33.221374045801525,5.129770992366412,45.541984732824424,1.0
10.210001468658447,-18.78730042724609,-1.0630255371093749,13.503297363281249,13.98473282442748,-26.610687022900763,73.2824427480916,-17.520767749023438,-4.963180041503906,0.8283937744140625,-21.66412213740458,-3.7251908396946565,40.916030534351144,0.0
10.220000505447388,-16.5870291015625,-4.721365673828124,9.787496386718749,24.580152671755727,-39.86259541984733,57.00763358778626,-18.701109167480467,-5.53539423828125,2.4061726684570313,-20.015267175572518,-6.473282442748092,33.25190839694657,0.0
10.230000495910645,-14.41548819580078,-1.350329736328125,1.9512743530273435,21.251908396946565,-51.465648854961835,28.99236641221374,-18.78730042724609,-5.418078356933593,2.133233679199219,-15.83206106870229,-12.335877862595419,21.083969465648856,0.0
10.240000486373901,-10.953472595214842,4.6447512207031245,-7.180210778808593,1.0687022900763359,-53.51145038167939,12.916030534351146,-18.478448413085935,-5.003881469726562,1.5514426757812498,-10.0,-19.6793893129771,13.145038167938932,0.0
10.250000715255737,-7.867346655273437,8.25520732421875,-6.682216833496093,-17.64885496183206,-42.12213740458015,12.778625954198473,-16.615759521484375,-3.0214824951171875,-0.076614453125,0.3511450381679389,-29.740458015267176,5.282442748091603,0.0
10.260000705718994,-4.936843823242187,4.455609289550781,-6.256048937988281,-29.099236641221374,-26.33587786259542,18.80916030534351,-16.345214733886717,-0.5985504150390625,-0.1771709228515625,-2.3969465648854964,-27.099236641221374,2.564885496183206,0.0
10.27000117301941,-2.3223756103515623,0.14604630126953125,-7.297526660156249,-16.80916030534351,-1.2213740458015268,24.80916030534351,-15.634136840820311,-2.3415292236328122,0.7062894897460937,11.465648854961833,-23.770992366412212,0.9770992366412213,0.0
10.280000686645508,-4.570530969238281,2.808398547363281,-6.7803791015625,-13.816793893129772,21.206106870229007,19.64885496183206,-13.61103643798828,1.905784521484375,-2.454056701660156,35.7557251908397,-33.51145038167939,2.595419847328244,0.0
10.290000915527344,-7.864952453613281,4.903325,-4.891353991699218,-37.32824427480916,34.38167938931298,16.259541984732824,-10.24000050048828,5.023035083007812,-3.526659045410156,23.129770992366414,-36.25954198473283,1.1908396946564885,0.0
10.3000009059906,-5.932831713867187,-1.6927005737304686,-5.176263989257812,-30.80916030534351,49.57251908396947,22.732824427480917,-10.812214697265624,4.388571643066406,-3.134009973144531,12.549618320610687,-24.931297709923665,1.984732824427481,0.0
10.310000658035278,-7.812280017089844,-5.463568188476562,-4.036623999023437,4.870229007633588,76.38167938931298,16.85496183206107,-11.14022032470703,2.806004345703125,-2.961627453613281,1.3893129770992367,-15.48091603053435,-0.21374045801526717,0.0
10.320000410079956,-10.924742175292968,-3.8762124877929685,-3.21780703125,32.35114503816794,94.53435114503817,3.9389312977099236,-12.59589493408203,0.45489831542968745,-2.901772412109375,12.335877862595419,-12.274809160305344,-2.0916030534351147,0.0
10.330000638961792,-13.464990136718749,-1.4006079711914061,-1.7836802368164062,48.85496183206107,107.26717557251908,-5.66412213740458,-12.789825268554686,0.6655880615234374,-1.2904746948242187,23.16030534351145,-12.625954198473282,-2.427480916030534,0.0
10.34000039100647,-14.073117358398436,-0.26815058593749996,-1.1109095703125,49.57251908396947,107.96946564885496,-13.725190839694656,-10.984597216796875,2.1883003173828124,-0.20350714111328125,26.931297709923665,-14.122137404580153,-2.7938931297709924,0.0
10.350000619888306,-13.812149377441406,1.8171990600585937,0.03591302490234375,42.3206106870229,104.35114503816794,-21.389312977099237,-9.399635717773437,2.7653029174804686,0.51714755859375,18.16793893129771,-11.954198473282442,-0.07633587786259542,0.0
10.360000610351562,-12.452242834472656,2.195482922363281,0.7805097412109374,21.69465648854962,92.85496183206106,-28.396946564885496,-8.678981018066406,2.887407202148437,1.2904746948242187,4.809160305343512,-9.86259541984733,2.9160305343511452,0.0
10.37000060081482,-12.447454431152343,4.089296435546875,1.0295067138671874,4.656488549618321,84.53435114503817,-30.38167938931298,-8.90643017578125,1.6711527587890624,2.4133552734375,-8.229007633587786,-10.244274809160306,4.396946564885496,0.0
10.380000829696655,-11.875240234375,4.675875842285156,0.612915625,-20.99236641221374,73.40458015267176,-31.740458015267176,-11.03248125,-1.438915197753906,4.2137949218749995,-9.84732824427481,-20.33587786259542,5.893129770992366,0.0
10.390000581741333,-9.698910925292969,3.8953661010742184,-0.09337386474609374,-38.93129770992366,62.534351145038165,-28.35114503816794,-10.797849487304687,-0.679953271484375,1.7788918334960937,19.389312977099237,-33.80152671755725,-1.2213740458015268,0.0
10.40000033378601,-7.821856823730468,2.231395947265625,-0.6919242797851562,-41.099236641221374,59.603053435114504,-22.35114503816794,-11.59990704345703,-1.350329736328125,-0.2825157958984375,34.045801526717554,-36.29007633587786,-3.984732824427481,0.0
10.410000562667847,-7.307103466796875,1.0941501586914062,-0.6440402465820312,-40.62595419847328,57.86259541984733,-18.38167938931298,-9.986215124511718,0.3687070556640625,2.370259643554687,17.114503816793892,-42.717557251908396,-6.183206106870229,0.0
10.420000791549683,-7.108384729003906,1.1827356201171875,0.47644613037109373,-44.44274809160305,58.18320610687023,-17.61832061068702,-9.93354268798828,1.407790576171875,1.6998831787109374,17.419847328244273,-51.05343511450382,-8.870229007633588,0.0
10.43000078201294,-6.49307490234375,-0.6416460449218749,-0.373495458984375,-40.717557251908396,54.93129770992366,-15.053435114503817,-7.953537915039062,1.7214309936523438,1.2689268798828124,-9.49618320610687,-46.045801526717554,-10.687022900763358,0.0
10.440000772476196,-9.483432775878907,-0.9241618408203125,1.2018892333984375,-30.717557251908396,58.6412213740458,-15.938931297709924,-13.290213415527344,-7.81467421875,3.399766357421875,7.0534351145038165,-44.01526717557252,-2.885496183206107,0.0
10.450000524520874,-8.839392529296875,-2.0302830078125,0.8930372192382812,-8.534351145038167,57.74045801526717,-16.82442748091603,-7.656656909179687,-3.81156904296875,0.8403647827148437,35.06870229007634,-73.08396946564885,-18.885496183206108,0.0
10.46000075340271,-11.283872424316405,1.8219874633789062,2.482787121582031,-2.519083969465649,53.969465648854964,-21.068702290076335,-12.943054174804686,-7.295132458496093,2.1835119140624997,69.02290076335878,-64.74809160305344,-17.557251908396946,0.0
10.470000505447388,-10.376469995117187,1.848323681640625,3.1387983764648437,-11.923664122137405,46.045801526717554,-22.27480916030534,-8.674192614746094,-3.7397429931640622,1.0678139404296874,72.76335877862596,-92.41221374045801,-23.419847328244273,0.0
10.480000495910645,-9.897629663085937,2.5857377929687497,2.5067291381835934,-19.31297709923664,34.42748091603053,-21.114503816793892,-1.0295067138671874,8.497021691894531,-2.1715409057617188,70.68702290076335,-75.40458015267176,-49.37404580152672,0.0
10.490000486373901,-9.871293444824218,3.881000891113281,2.4588451049804685,-21.221374045801525,33.29770992366412,-19.755725190839694,-1.189918225097656,7.613561279296874,-2.5857377929687497,-47.847328244274806,-30.793893129770993,-23.435114503816795,0.0
10.500000476837158,-11.319785449218749,5.293579870605469,4.285620971679688,-43.847328244274806,23.099236641221374,-20.549618320610687,-5.604826086425781,2.7724855224609373,-4.477157104492187,-80.3969465648855,-10.931297709923664,-13.312977099236642,0.0
10.510000705718994,-10.709264025878905,3.5697546752929687,2.6575638427734374,-42.79389312977099,15.98473282442748,-12.748091603053435,-5.734112976074218,1.8938135131835936,-1.7238251953125,-72.21374045801527,4.259541984732825,-9.633587786259541,0.0
10.520000696182251,-10.730811840820312,2.887407202148437,2.73896669921875,-40.87022900763359,10.16793893129771,-6.106870229007634,-8.91840118408203,-2.5761609863281247,0.023942016601562498,-43.31297709923664,4.061068702290076,-6.625954198473282,0.0
10.530000925064087,-10.005368737792969,1.2282254516601563,2.2673089721679687,-26.900763358778626,9.17557251908397,-2.0916030534351147,-10.034099157714843,-7.034164477539062,1.1875240234375,-4.0,5.022900763358779,-7.557251908396947,0.0
10.540000677108765,-9.97903251953125,0.6847416748046875,2.5665841796874997,-14.67175572519084,7.0534351145038165,-0.4122137404580153,-7.4603323730468745,-3.3159692993164063,0.9002198242187499,14.335877862595419,-7.0534351145038165,-14.717557251908397,0.0
10.5500009059906,-8.164227661132813,-2.214636535644531,2.051830822753906,7.358778625954199,8.854961832061068,1.5419847328244274,-7.903259680175781,-1.6232687255859375,2.602497204589844,23.557251908396946,-6.229007633587786,-15.98473282442748,0.0
10.5600004196167,-9.557653027343749,-0.21787235107421873,3.821145849609375,17.419847328244273,8.381679389312977,-3.877862595419847,-7.326257080078125,0.37828386230468747,-0.45968671875,39.38931297709924,-6.778625954198473,-15.923664122137405,0.0
10.570000886917114,-10.955866796875,1.005564697265625,4.608838195800781,12.412213740458014,-2.763358778625954,-8.290076335877863,-8.846575134277343,0.033518823242187495,0.26815058593749996,44.99236641221374,0.8702290076335878,-9.877862595419847,0.0
10.580000638961792,-11.324573852539062,2.319981408691406,4.091690637207031,17.603053435114504,-5.175572519083969,-7.66412213740458,-7.208941198730468,2.8275521606445313,-0.3232172241210937,46.18320610687023,2.7022900763358777,-10.351145038167939,0.0
10.590000629425049,-10.242394702148436,1.8339584716796873,2.5330653564453125,14.351145038167939,-9.740458015267176,-7.526717557251908,-9.481038574218749,0.6272808349609375,0.6560112548828124,50.213740458015266,8.580152671755725,-4.412213740458015,0.0
10.600000858306885,-8.585607153320312,0.3112462158203125,0.86191259765625,22.885496183206108,-10.183206106870228,-7.145038167938932,-8.504204296874999,1.139639990234375,0.86191259765625,49.12977099236641,9.32824427480916,-4.244274809160306,0.0
10.610000610351562,-9.387664709472656,1.5083470458984374,1.7094599853515624,29.46564885496183,-6.961832061068702,-11.816793893129772,-8.738836059570312,0.8547299926757812,1.4245499877929686,44.99236641221374,10.961832061068701,-1.8625954198473282,0.0
10.62000060081482,-8.157045056152343,1.2641384765625,1.0917559570312498,30.03053435114504,-8.549618320610687,-15.16030534351145,-8.219294299316406,1.2952630981445312,1.3934253662109375,38.229007633587784,11.740458015267176,-1.9083969465648856,0.0
10.630000591278076,-12.732364428710937,5.616797094726562,3.2561142578125,17.541984732824428,-7.679389312977099,-20.900763358778626,-9.107543115234375,-0.0718260498046875,1.3646949462890625,33.969465648854964,11.511450381679388,-1.1908396946564885,0.0
10.640000581741333,-14.247894079589843,10.225635290527343,3.921702319335937,-12.67175572519084,-17.6793893129771,-19.862595419847327,-8.580818749999999,0.3950432739257812,0.8978256225585937,26.85496183206107,13.648854961832061,-3.2519083969465647,0.0
10.65000057220459,-12.299013928222655,9.459490759277344,2.4157494750976563,-58.47328244274809,-38.0763358778626,-11.648854961832061,-8.573636145019531,1.6065093139648436,0.14125789794921875,15.541984732824428,17.404580152671755,-5.404580152671755,0.0
10.660000801086426,-12.416329809570312,8.432378247070313,2.7078420776367187,-82.93129770992367,-44.412213740458014,-2.717557251908397,-9.612719665527344,0.4572925170898437,0.6703764648437499,7.984732824427481,25.66412213740458,-4.732824427480916,0.0
10.670000553131104,-9.765948571777344,4.015076184082031,1.6136919189453125,-97.54198473282443,-50.94656488549618,5.32824427480916,-8.468291271972657,0.6464344482421874,1.7669208251953124,-11.755725190839694,27.72519083969466,-6.122137404580153,0.0
10.68000078201294,-9.452308154296874,1.4987702392578124,1.20667763671875,-91.1145038167939,-47.19083969465649,7.603053435114504,-8.145074047851562,1.5346832641601562,2.0733786376953125,4.0,20.595419847328245,-7.175572519083969,0.0
10.690000772476196,-7.4603323730468745,-0.25139117431640623,2.142810485839844,-79.66412213740458,-46.83969465648855,5.1603053435114505,-8.647856396484375,-0.2705447875976562,1.7860744384765623,0.16793893129770993,25.022900763358777,-7.312977099236641,0.0
10.700000762939453,-5.3390697021484375,-3.9336733276367184,4.797980126953124,-46.06106870229008,-38.50381679389313,3.2519083969465647,-8.542511523437499,-0.8475473876953125,2.365471240234375,-2.015267175572519,21.374045801526716,-7.7251908396946565,0.0
10.71000051498413,-5.051765502929687,-3.5410242553710933,2.693476867675781,-12.641221374045802,-27.251908396946565,-2.595419847328244,-8.394071020507813,-0.9911994873046874,2.1930887207031247,1.2213740458015268,18.33587786259542,-8.213740458015268,0.0
10.720000505447388,-6.124367846679687,-2.2002713256835937,3.2800562744140622,3.3740458015267176,-22.366412213740457,-8.412213740458014,-7.682993127441406,0.30406361083984373,0.8667010009765624,3.2213740458015265,14.50381679389313,-10.580152671755725,0.0
10.730000495910645,-6.2392895263671875,-0.948103857421875,2.612074011230469,19.053435114503817,-21.328244274809162,-8.67175572519084,-7.220912207031249,1.407790576171875,0.8283937744140625,-8.183206106870228,23.46564885496183,-11.34351145038168,0.0
10.740000486373901,-5.279214660644531,-1.0654197387695312,2.93050283203125,31.84732824427481,-21.129770992366414,-8.244274809160306,-5.4779333984375,2.4396914916992185,-0.507570751953125,-20.82442748091603,22.99236641221374,-11.404580152671755,0.0
10.750000715255737,-7.8170684204101555,1.889025109863281,4.153939880371094,39.587786259541986,-15.969465648854962,-11.17557251908397,-5.303156677246093,2.7724855224609373,0.7876923461914062,-47.00763358778626,37.9236641221374,-9.068702290076336,0.0
10.760000705718994,-9.375693701171874,3.1483751831054687,5.274426257324219,27.206106870229007,-20.702290076335878,-10.244274809160306,-8.322244970703125,-2.0781670410156248,1.7477672119140624,-48.900763358778626,40.62595419847328,-3.053435114503817,0.0
10.77000117301941,-9.720458740234374,1.68551796875,5.7843912109375,18.610687022900763,-26.442748091603054,-9.389312977099237,-8.097190014648437,-2.8945898071289062,2.3822306518554686,-21.16030534351145,26.27480916030534,-3.954198473282443,0.0
10.780000686645508,-7.9655089233398435,-0.8379705810546875,6.081272216796875,24.671755725190838,-29.786259541984734,-9.236641221374045,-5.066130712890625,0.5506663818359374,1.7094599853515624,-20.045801526717558,21.66412213740458,-9.511450381679388,0.0
10.790000915527344,-9.926360083007811,1.1468225952148436,7.302315063476562,23.328244274809162,-35.786259541984734,-13.206106870229007,-7.908048083496094,-2.73896669921875,2.3343466186523436,-20.442748091603054,24.366412213740457,-4.9465648854961835,0.0
10.800000667572021,-9.311050256347656,-0.29448680419921874,8.034940771484374,29.46564885496183,-43.954198473282446,-12.244274809160306,-9.30147344970703,-4.180276098632812,3.7708676147460936,-2.7786259541984735,12.67175572519084,-6.396946564885496,0.0
10.810000896453857,-8.59278975830078,-2.1260510742187497,8.662221606445312,54.42748091603053,-48.25954198473283,-13.770992366412214,-9.715670336914062,-2.96881005859375,3.229778039550781,11.404580152671755,4.99236641221374,-11.587786259541986,0.0
10.820000410079956,-7.951143713378905,-2.8730419921875,10.374075793457031,72.19847328244275,-58.534351145038165,-16.793893129770993,-9.617508068847656,-2.6288334228515624,3.928884924316406,11.587786259541986,1.9236641221374047,-18.564885496183205,0.0
10.830000638961792,-10.35492218017578,-0.19871873779296872,13.101071484375,90.09160305343511,-66.83969465648855,-24.48854961832061,-11.437101330566406,-0.488417138671875,3.7110125732421873,-0.7480916030534351,1.1450381679389312,-28.458015267175572,0.0
10.840000629425049,-11.279084020996093,-0.35673604736328124,13.096283081054686,93.29770992366412,-94.53435114503817,-24.091603053435115,-15.952565661621092,-1.22583125,5.827486840820312,-23.0381679389313,8.595419847328245,-43.587786259541986,0.0
10.850000858306885,-12.808978881835937,-1.3192051147460937,11.664550488281249,112.1526717557252,-114.29007633587786,-21.984732824427482,-20.808006628417967,-5.3007624755859375,8.954314208984375,-31.46564885496183,-5.450381679389313,-55.86259541984733,0.0
10.860000610351562,-14.14733760986328,-1.419761584472656,10.115502014160155,135.9083969465649,-127.19083969465649,-22.47328244274809,-20.532673437499998,-4.73094248046875,7.247248425292969,-16.763358778625953,-30.885496183206108,-63.66412213740458,0.0
10.87000060081482,-18.313248498535156,3.6152445068359373,10.599130749511717,129.06870229007635,-148.5648854961832,-28.396946564885496,-17.573440185546875,-3.134009973144531,3.7134067749023436,-19.328244274809162,-48.51908396946565,-61.43511450381679,0.0
10.880000352859497,-17.65244884033203,1.0821791503906248,7.826645227050781,112.25954198473282,-167.3740458015267,-28.137404580152673,-12.088324182128906,0.6296750366210937,2.0350714111328125,-32.35114503816794,-53.14503816793893,-57.17557251908397,0.0
10.890000581741333,-19.194314709472653,7.4028715332031245,3.414131567382812,63.969465648854964,-198.90076335877862,-28.580152671755727,-8.712499841308594,4.108450048828125,-0.9409212524414062,-35.52671755725191,-49.86259541984733,-51.20610687022901,0.0
10.90000057220459,-18.116923962402343,8.51617530517578,-0.3902548706054687,10.076335877862595,-212.19847328244273,-19.053435114503817,-4.673481640625,4.096479040527344,-2.070984436035156,-54.0763358778626,-35.48091603053435,-39.89312977099237,0.0
10.910000562667847,-15.193603735351562,5.453991381835937,-5.252878442382812,-14.198473282442748,-207.206106870229,-0.9923664122137404,-1.5011644409179687,0.7110778930664062,-2.825157958984375,-66.79389312977099,-25.52671755725191,-30.18320610687023,0.0
10.920001029968262,-12.133814013671874,5.5449710449218745,-5.415684155273437,-43.725190839694655,-203.6030534351145,11.206106870229007,-5.645527514648437,-6.789955908203124,-3.0262708984374997,-41.69465648854962,-15.801526717557252,-17.572519083969464,0.0
10.93000078201294,-9.832986218261718,-2.4444798950195312,-4.285620971679688,-26.458015267175572,-168.87022900763358,30.16793893129771,-7.4699091796875,-8.678981018066406,-2.6623522460937497,12.51908396946565,-20.80916030534351,-8.870229007633588,0.0
10.940001010894775,-7.074865905761718,-5.475539196777343,-3.928884924316406,-4.2748091603053435,-134.65648854961833,28.3206106870229,-8.853757739257812,-4.627991809082031,-2.0446482177734375,48.274809160305345,-17.72519083969466,-7.129770992366412,0.0
10.950000524520874,-6.289567761230469,-5.367800122070312,-1.7334020019531249,21.16030534351145,-98.65648854961832,20.290076335877863,-11.142614526367186,-1.695094775390625,-3.383006945800781,48.916030534351144,-1.6030534351145038,-2.2748091603053435,0.0
10.960000991821289,-5.72693037109375,-3.0334535034179684,-1.886630908203125,47.725190839694655,-66.97709923664122,19.19083969465649,-14.604630126953124,-5.329492895507812,-3.725377783203125,48.06106870229008,12.564885496183207,6.717557251908397,0.0
10.970000505447388,-5.358223315429687,-0.047884033203124995,-1.7717092285156248,59.770992366412216,-36.35114503816794,13.709923664122137,-14.166491223144531,-6.545747338867187,-1.024718310546875,72.16793893129771,10.259541984732824,9.236641221374045,0.0
10.980000495910645,-6.725312463378906,4.094084838867187,-0.6416460449218749,43.69465648854962,-22.015267175572518,4.702290076335878,-12.904746948242186,-4.201823913574218,-1.9823989746093749,85.40458015267176,11.86259541984733,7.114503816793893,0.0
10.99000072479248,-6.586448767089843,4.7931917236328125,0.0143652099609375,12.51908396946565,-16.793893129770993,4.809160305343512,-10.359710583496094,-1.2497732666015624,-2.408566870117187,81.31297709923665,15.587786259541986,6.519083969465649,0.0
11.000000715255737,-5.614402893066406,2.6096798095703124,-0.43574470214843747,-9.587786259541986,-10.290076335877863,7.801526717557252,-8.892064965820312,0.8547299926757812,-1.4413093994140624,70.91603053435115,23.389312977099237,7.847328244274809,0.0
11.010000705718994,-5.537788439941406,1.2473790649414063,-0.4261678955078125,-27.00763358778626,-1.099236641221374,6.106870229007634,-8.33182177734375,1.1444283935546875,-3.143586779785156,55.51145038167939,29.267175572519083,8.65648854961832,0.0
11.020000696182251,-5.121197351074218,0.08140285644531249,-0.4429273071289062,-45.32824427480916,7.801526717557252,1.6488549618320612,-6.928819604492187,2.935291235351562,-0.44053310546874996,26.85496183206107,40.67175572519084,10.641221374045802,0.0
11.030000925064087,-4.371812231445312,-1.7812860351562498,-1.149216796875,-50.732824427480914,19.450381679389313,-2.6564885496183206,-9.617508068847656,0.2825157958984375,-0.33758243408203126,5.847328244274809,47.93893129770992,16.33587786259542,0.0
11.040000438690186,-6.794744311523437,1.7573440185546874,-0.5722141967773438,-56.82442748091603,31.770992366412212,-10.748091603053435,-9.9981861328125,-2.118868469238281,1.9033903198242186,3.572519083969466,50.274809160305345,19.96946564885496,0.0
11.0500009059906,-5.762843395996094,0.9457096557617187,-0.7278373046875,-67.31297709923665,40.36641221374046,-11.221374045801527,-10.244788903808594,-2.138022082519531,3.9264907226562498,9.709923664122137,47.343511450381676,21.633587786259543,0.0
11.0600004196167,-4.019864587402344,-1.2401964599609374,-0.7206546997070312,-43.70992366412214,61.87786259541985,-5.3893129770992365,-9.981426721191406,-2.032677209472656,2.664746447753906,12.244274809160306,44.56488549618321,20.65648854961832,0.0
11.070000886917114,-2.3822306518554686,-1.8004396484374998,-1.350329736328125,-26.778625954198475,79.0381679389313,-4.473282442748092,-8.427589843749999,-1.22583125,2.9855694702148434,14.030534351145038,38.229007633587784,20.076335877862597,0.0
11.080000638961792,-1.9895815795898437,-2.013523596191406,-1.3910311645507811,-21.114503816793892,94.07633587786259,-7.3893129770992365,-9.093177905273437,-2.3630770385742186,2.3726538452148436,13.297709923664122,35.770992366412216,22.3206106870229,0.0
11.090000629425049,-1.905784521484375,-3.375824340820312,0.10773907470703124,-22.442748091603054,108.33587786259542,-14.13740458015267,-8.504204296874999,-1.426944189453125,3.9360675292968748,17.87786259541985,28.50381679389313,20.99236641221374,0.0
11.100000619888306,-2.5474305664062498,-4.529829541015625,1.8938135131835936,-18.748091603053435,120.65648854961832,-22.50381679389313,-8.437166650390624,-1.3383587280273437,3.0214824951171875,15.145038167938932,25.19083969465649,19.61832061068702,0.0
11.110000610351562,-3.9887399658203124,-4.276044165039062,4.817133740234374,-7.099236641221374,129.78625954198472,-29.17557251908397,-8.295908752441406,-1.5227122558593749,2.185906115722656,11.389312977099237,20.244274809160306,18.99236641221374,0.0
11.12000060081482,-5.307945080566406,-3.622427111816406,6.83783994140625,9.34351145038168,130.793893129771,-31.114503816793892,-7.903259680175781,-1.637633935546875,2.3367408203125,6.366412213740458,17.862595419847327,18.0,0.0
11.130000591278076,-6.507440112304687,-2.3056161987304686,9.361328491210937,36.6412213740458,129.70992366412213,-28.48854961832061,-7.419630944824219,-1.9393033447265624,2.0973206542968748,1.2366412213740459,14.030534351145038,16.610687022900763,0.0
11.140000581741333,-7.8553756469726554,0.086191259765625,11.935095275878906,71.8473282442748,124.7175572519084,-21.053435114503817,-7.963114721679687,-2.6384102294921874,2.9185318237304685,-3.6793893129770994,11.297709923664122,15.511450381679388,0.0
11.15000057220459,-10.931924780273437,3.5242648437499997,13.697227697753906,74.3206106870229,104.54961832061069,-15.557251908396946,-8.116343627929687,-2.6695348510742187,2.461239306640625,-7.404580152671755,7.679389312977099,12.80916030534351,0.0
11.160000801086426,-10.160991845703125,4.766855505371093,11.166556542968749,90.91603053435115,99.20610687022901,-5.374045801526718,-7.750030773925781,-2.4444798950195312,1.7956512451171873,-9.374045801526718,6.870229007633588,11.038167938931299,0.0
11.170000791549683,-13.081917871093749,7.8338278320312495,12.559981909179687,49.541984732824424,72.65648854961832,-9.312977099236642,-8.240842114257813,-0.6368576416015624,1.2569558715820313,-17.83206106870229,13.86259541984733,11.19083969465649,0.0
11.18000054359436,-14.176068029785155,7.381323718261719,13.180080139160156,19.770992366412212,46.87022900763359,-3.3893129770992365,-6.928819604492187,0.3495534423828125,0.4381389038085937,-30.061068702290076,14.183206106870228,14.091603053435115,0.0
11.190000534057617,-13.989320300292968,5.851428857421874,11.801019982910155,2.6564885496183206,23.221374045801525,6.091603053435114,-8.221688500976562,-1.0654197387695312,0.32082302246093747,-42.88549618320611,26.427480916030536,21.450381679389313,0.0
11.200000524520874,-14.468160632324217,4.7381250854492185,10.299855541992187,-4.458015267175573,7.206106870229007,16.82442748091603,-8.310273962402343,-4.407725256347656,0.35194764404296874,-30.427480916030536,23.221374045801525,27.52671755725191,0.0
11.21000051498413,-11.458649145507811,1.1252747802734375,7.079654309082031,9.877862595419847,-1.5267175572519085,31.129770992366414,-8.738836059570312,-5.044582897949218,1.6065093139648436,-11.129770992366412,21.938931297709924,31.572519083969464,0.0
11.220000505447388,-9.241618408203124,-2.080561242675781,4.764461303710937,23.69465648854962,-5.267175572519084,38.67175572519084,-7.331045483398437,-2.43250888671875,0.718260498046875,-2.687022900763359,15.740458015267176,31.603053435114504,0.0
11.230000495910645,-10.656591589355468,-0.928950244140625,5.844246252441406,48.74809160305343,3.572519083969466,43.89312977099237,-8.228871105957031,-0.852335791015625,-0.02633621826171875,-4.2748091603053435,20.549618320610687,35.19083969465649,0.0
11.240000247955322,-12.837709301757812,0.7709329345703124,9.358934289550781,58.152671755725194,2.0916030534351147,48.58015267175573,-10.75714805908203,-2.7150246826171873,0.2657563842773437,-1.0229007633587786,23.64885496183206,40.62595419847328,0.0
11.250000715255737,-14.56871710205078,2.3965958618164063,12.361263171386717,67.92366412213741,-4.778625954198473,55.20610687022901,-9.478644372558593,-0.3112462158203125,-0.07900865478515624,-7.267175572519084,23.206106870229007,40.16793893129771,0.0
11.260001182556152,-17.05868682861328,4.936843823242187,14.391546179199217,62.85496183206107,-19.17557251908397,63.00763358778626,-9.325415466308593,-0.9959878906249999,0.1197100830078125,-22.99236641221374,32.44274809160305,42.25954198473283,0.0
11.270000696182251,-17.453730102539062,4.42448466796875,12.629413757324219,64.10687022900764,-34.0,70.83969465648855,-11.880028637695311,-3.6367923217773437,-0.5865794067382812,-17.587786259541986,32.656488549618324,41.81679389312977,0.0
11.280000686645508,-17.314866406249998,4.225765930175781,8.93755479736328,55.465648854961835,-49.16030534351145,70.07633587786259,-13.297396020507811,-3.4907460205078125,-0.9097966308593749,-12.305343511450381,28.900763358778626,35.343511450381676,0.0
11.290000915527344,-15.952565661621092,4.395754248046875,2.91134921875,16.702290076335878,-70.25954198473282,56.61068702290076,-14.889540124511718,-2.540247961425781,1.1851298217773436,-9.893129770992367,23.435114503816795,27.221374045801525,0.0
11.300000667572021,-12.11705460205078,4.759672900390624,-3.047818713378906,-13.511450381679388,-76.09160305343511,43.86259541984733,-18.270152868652342,-4.134786267089844,1.2138602416992186,-13.17557251908397,17.72519083969466,22.3206106870229,0.0
11.310000896453857,-6.770802294921874,5.442020373535156,-7.740453967285156,-38.44274809160305,-70.29007633587786,37.908396946564885,-17.956512451171875,-5.724536169433593,3.268085266113281,-5.358778625954199,7.6183206106870225,17.862595419847327,0.0
11.320000648498535,-5.384559533691406,4.106055847167968,-7.44357296142578,-49.954198473282446,-51.221374045801525,36.47328244274809,-19.37627403564453,-4.821922143554687,2.094926452636719,10.80916030534351,2.0916030534351147,13.34351145038168,0.0
11.330000400543213,-2.712630480957031,-0.6943184814453125,-7.3549875,-54.045801526717554,-25.328244274809162,37.38931297709924,-17.18079111328125,-1.5442600708007812,1.714248388671875,22.091603053435115,-11.633587786259541,6.641221374045801,0.0
11.340000629425049,-2.916137622070312,-1.848323681640625,-7.575254052734374,-38.534351145038165,9.908396946564885,34.10687022900763,-15.265429785156249,1.2473790649414063,0.7254431030273437,24.18320610687023,-20.82442748091603,1.83206106870229,0.0
11.350000619888306,-5.853823059082031,-0.3758896606445312,-6.045359191894531,-38.091603053435115,32.2442748091603,28.702290076335878,-15.811307763671874,4.321533996582031,-0.1867477294921875,18.27480916030534,-24.610687022900763,0.2595419847328244,0.0
11.360000610351562,-8.470685473632813,0.21308394775390624,-3.9624037475585934,-24.793893129770993,59.20610687022901,25.51145038167939,-12.58392392578125,5.506663818359375,-0.7924807495117187,-7.419847328244275,-26.38167938931298,2.8396946564885495,0.0
11.37000060081482,-9.694122521972655,-2.906560815429687,-3.4572271972656248,-13.17557251908397,74.8854961832061,20.50381679389313,-12.55758770751953,2.9376854370117185,-0.33758243408203126,-17.64885496183206,-23.17557251908397,7.893129770992366,0.0
11.380000591278076,-11.918335864257811,-3.73495458984375,-1.7956512451171873,11.389312977099237,93.92366412213741,9.725190839694656,-11.93270107421875,3.478775012207031,-0.7565677246093749,-18.641221374045802,-28.106870229007633,8.916030534351146,0.0
11.390000820159912,-13.201627954101562,-2.4301146850585935,0.26815058593749996,27.251908396946565,103.16030534351145,-2.8396946564885495,-10.522516296386717,4.477157104492187,-1.5945383056640625,-31.419847328244273,-23.557251908396946,11.969465648854962,0.0
11.40000057220459,-14.42267080078125,-0.5434837768554687,1.5298948608398437,29.66412213740458,104.09160305343511,-11.465648854961833,-9.87608184814453,3.3638533325195312,-1.5825672973632812,-42.85496183206107,-16.412213740458014,15.694656488549619,0.0
11.410000562667847,-11.92551846923828,-0.10295067138671875,1.0271125122070313,22.99236641221374,94.65648854961832,-17.755725190839694,-9.916783276367187,3.1100679565429687,-2.7198130859375,-46.2442748091603,-12.427480916030534,15.954198473282442,0.0
11.420000791549683,-11.405976708984374,0.718260498046875,0.7781155395507812,17.282442748091604,86.99236641221374,-24.748091603053435,-11.724405529785155,0.26815058593749996,-2.636016027832031,-45.89312977099237,-1.5725190839694656,16.48854961832061,0.0
11.43000054359436,-10.450690246582031,1.3192051147460937,0.3711012573242187,3.786259541984733,75.90839694656489,-29.557251908396946,-12.045228552246092,-0.5530605834960938,-2.0973206542968748,-33.099236641221374,-0.42748091603053434,14.381679389312977,0.0
11.440000772476196,-10.070012182617187,2.6623522460937497,0.06464344482421874,-2.885496183206107,71.1145038167939,-31.221374045801525,-11.470620153808593,-0.74699091796875,-1.5346832641601562,-23.206106870229007,-0.15267175572519084,12.50381679389313,0.0
11.450000524520874,-9.926360083007811,3.430890979003906,-0.42377369384765623,-14.717557251908397,66.3969465648855,-32.06106870229008,-12.241553088378906,-3.361459130859375,0.0718260498046875,-5.923664122137405,1.0229007633587786,13.389312977099237,0.0
11.460000991821289,-8.542511523437499,3.1124621582031247,-1.180341418457031,-21.328244274809162,61.37404580152672,-29.068702290076335,-10.419565624999999,-2.5258827514648434,0.63206923828125,12.595419847328245,-10.83969465648855,7.938931297709924,0.0
11.470000743865967,-8.02536396484375,3.1100679565429687,-1.4006079711914061,-24.0,62.656488549618324,-25.72519083969466,-8.106766821289062,-3.23696064453125,1.9823989746093749,17.31297709923664,-11.465648854961833,3.8473282442748094,0.0
11.480000734329224,-8.106766821289062,1.5729904907226562,-1.4125789794921875,-24.442748091603054,62.961832061068705,-22.717557251908396,-8.437166650390624,-1.2330138549804688,2.0470424194335934,42.19847328244275,-35.954198473282446,-4.870229007633588,0.0
11.490000486373901,-7.6997525390625,2.2649147705078123,-0.4333505004882812,-16.106870229007633,68.0,-21.72519083969466,-7.673416320800781,1.7884686401367187,0.229843359375,26.748091603053435,-27.236641221374047,-11.435114503816793,0.0
11.500000476837158,-7.886500268554687,1.1156979736328125,0.3902548706054687,-14.320610687022901,70.62595419847328,-19.954198473282442,-9.981426721191406,-1.6424223388671875,0.5339069702148437,24.290076335877863,-26.9618320610687,-8.900763358778626,0.0
11.510000467300415,-9.909600671386718,2.2170307373046874,1.7764976318359373,-11.801526717557252,70.47328244274809,-22.03053435114504,-11.152191333007812,-3.6104561035156246,0.9145850341796874,40.70229007633588,-31.282442748091604,-9.465648854961833,0.0
11.520000696182251,-8.386888415527343,1.2761094848632812,1.5897499023437498,-9.206106870229007,64.27480916030534,-19.893129770992367,-7.419630944824219,0.06943184814453125,0.6847416748046875,48.54961832061068,-38.13740458015267,-18.702290076335878,0.0
11.530000925064087,-10.884040747070312,3.5003228271484375,3.21780703125,-15.435114503816793,61.93893129770992,-23.52671755725191,-15.002067602539062,-10.687716210937499,6.789955908203124,39.038167938931295,-46.29007633587786,-13.19083969465649,0.0
11.540000438690186,-11.355698474121093,2.9185318237304685,3.7421371948242186,-30.83969465648855,48.595419847328245,-24.671755725190838,-11.908759057617187,-8.291120349121094,-0.8116343627929687,77.6030534351145,-86.70229007633588,-12.854961832061068,0.0
11.55000114440918,-10.263942517089843,1.9704279663085937,3.2225954345703123,-28.15267175572519,39.69465648854962,-19.603053435114504,-8.796296899414061,1.9416975463867185,-0.05985504150390625,128.3206106870229,-80.67175572519083,-41.23664122137404,0.0
11.560000658035278,-9.37808790283203,1.2378022583007813,3.299209887695312,-14.732824427480915,39.89312977099237,-15.694656488549619,-8.978256225585938,0.584185205078125,-0.6536170532226562,92.30534351145039,-76.16793893129771,-41.11450381679389,0.0
11.570000648498535,-10.314220751953124,3.2345664428710936,3.821145849609375,-18.946564885496183,33.70992366412214,-15.98473282442748,-2.01112939453125,9.72285294189453,0.5147533569335937,52.16793893129771,-63.14503816793893,-50.19847328244275,0.0
11.580000638961792,-9.923965881347655,4.2305543334960936,3.883395092773437,-25.053435114503817,28.045801526717558,-12.106870229007633,-4.903325,7.613561279296874,-1.2114660400390624,-20.366412213740457,-32.778625954198475,-33.83206106870229,0.0
11.590000629425049,-11.652579479980469,5.070919116210937,3.9911341674804683,-40.06106870229008,16.717557251908396,-11.587786259541986,-6.138733056640625,4.967968444824218,1.7932570434570312,-30.931297709923665,-14.244274809160306,-22.213740458015266,0.0
11.600000381469727,-9.938331091308592,3.071760729980469,2.5761609863281247,-35.343511450381676,13.48091603053435,-4.961832061068702,-7.1035963256835934,1.8938135131835936,0.5291185668945312,-45.404580152671755,-3.3282442748091605,-13.938931297709924,0.0
11.610000371932983,-9.95987890625,2.81558115234375,2.4109610717773435,-35.80152671755725,7.32824427480916,-0.8854961832061069,-7.42441934814453,0.47644613037109373,0.6153098266601562,-44.74809160305343,-2.0,-11.312977099236642,0.0
11.62000060081482,-9.545682019042967,2.068590234375,1.7932570434570312,-26.748091603053435,6.9465648854961835,2.2442748091603053,-11.240776794433593,-2.4061726684570313,1.7645266235351562,-32.01526717557252,7.038167938931298,-6.091603053435114,0.0
11.630000591278076,-9.718064538574218,2.023100402832031,2.2481553588867187,-23.923664122137403,5.221374045801527,3.236641221374046,-8.686163623046875,-2.1595698974609374,3.754108203125,-26.549618320610687,-3.1603053435114505,-6.854961832061068,0.0
11.640000343322754,-8.94473740234375,1.0510545288085937,2.0278888061523435,-18.916030534351144,3.9236641221374047,5.022900763358779,-10.967837805175781,-3.878606689453125,2.0254946044921875,25.72519083969466,-15.572519083969466,-4.916030534351145,0.0
11.65000057220459,-9.437942944335937,1.2641384765625,2.1715409057617188,-17.053435114503817,1.099236641221374,3.984732824427481,-7.601590270996093,1.678335363769531,0.6536170532226562,46.47328244274809,-21.206106870229007,-7.557251908396947,0.0
11.660000324249268,-8.499415893554687,0.5003881469726562,1.8818425048828125,-16.458015267175572,0.48854961832061067,4.687022900763359,-9.133879333496093,1.3551181396484375,0.10295067138671875,37.29770992366412,-14.549618320610687,-0.7938931297709924,0.0
11.670000553131104,-6.993463049316406,-0.6296750366210937,1.1659762084960936,-10.625954198473282,3.312977099236641,3.312977099236641,-6.79953271484375,4.3071687866210935,-0.6919242797851562,24.137404580152673,-8.702290076335878,-0.5190839694656488,0.0
11.680001020431519,-7.682993127441406,-0.5123591552734374,0.6943184814453125,-7.786259541984733,4.473282442748092,-1.6793893129770991,-9.991003527832031,0.4836287353515625,0.2920926025390625,21.923664122137403,-1.3740458015267176,8.625954198473282,0.0
11.690000534057617,-9.732429748535155,1.8267758666992187,2.04943662109375,-2.2900763358778624,11.572519083969466,-8.992366412213741,-7.972691528320312,1.3120225097656248,0.9169792358398436,19.740458015267176,-0.13740458015267176,8.717557251908397,0.0
11.700000762939453,-9.469067565917967,4.043806604003906,2.221819140625,1.0381679389312977,13.98473282442748,-12.13740458015267,-8.836998327636719,0.5698199951171875,0.814028564453125,19.129770992366414,-0.5038167938931297,10.549618320610687,0.0
11.710000276565552,-13.680468286132811,7.807491613769531,4.766855505371093,-37.00763358778626,5.022900763358779,-14.977099236641221,-8.56166513671875,0.59376201171875,0.6727706665039062,9.34351145038168,0.8549618320610687,8.625954198473282,0.0
11.720000743865967,-10.955866796875,5.980715747070312,3.2800562744140622,-54.54961832061068,-6.458015267175573,-5.893129770992366,-9.356540087890625,-1.2617442749023438,0.8475473876953125,0.32061068702290074,2.122137404580153,6.748091603053435,0.0
11.730000495910645,-11.571176623535155,6.629544396972656,3.5314474487304683,-62.51908396946565,-7.221374045801527,-2.8244274809160306,-8.520963708496094,-0.5530605834960938,1.407790576171875,-9.34351145038168,2.519083969465649,1.8625954198473282,0.0
11.74000072479248,-9.557653027343749,4.3454760131835934,2.3367408203125,-82.18320610687023,-18.427480916030536,2.366412213740458,-9.093177905273437,-1.2306196533203124,1.3814543579101561,-9.49618320610687,2.7938931297709924,0.9007633587786259,0.0
11.750000238418579,-10.512939489746094,4.7931917236328125,3.593696691894531,-86.73282442748092,-18.47328244274809,3.1755725190839694,-8.595183959960938,0.39743747558593745,1.7286135986328124,-9.16030534351145,1.633587786259542,-1.816793893129771,0.0
11.760000705718994,-8.999804040527343,2.042254016113281,2.636016027832031,-91.32824427480917,-24.519083969465647,7.66412213740458,-7.884106066894531,0.9337386474609375,2.408566870117187,-28.229007633587788,7.969465648854962,-3.633587786259542,0.0
11.770000696182251,-8.865728747558594,1.5298948608398437,4.218583325195312,-79.55725190839695,-22.229007633587788,7.893129770992366,-8.667010009765624,1.2641384765625,1.85790048828125,-14.458015267175572,1.6946564885496183,-3.6793893129770994,0.0
11.780000686645508,-7.7787611938476555,-0.6607996582031249,3.6918589599609373,-67.90839694656489,-25.374045801526716,8.549618320610687,-8.183381274414062,0.9935936889648437,1.5897499023437498,-26.595419847328245,12.01526717557252,-5.877862595419847,0.0
11.790000438690186,-7.163451367187499,-0.9433154541015625,3.392583752441406,-49.14503816793893,-22.213740458015266,7.129770992366412,-8.839392529296875,-0.4477157104492187,2.8012159423828122,-21.389312977099237,8.442748091603054,-5.648854961832061,0.0
11.800000667572021,-6.3709706176757805,-1.6615759521484375,3.402160559082031,-33.00763358778626,-23.69465648854962,3.969465648854962,-9.56962403564453,-2.511517541503906,2.578555187988281,-12.351145038167939,1.8015267175572518,-5.145038167938932,0.0
11.810001134872437,-6.335057592773437,-1.426944189453125,3.268085266113281,-15.206106870229007,-24.717557251908396,0.04580152671755725,-7.199364392089843,-0.430956298828125,2.8036101440429686,-21.389312977099237,-4.076335877862595,-10.793893129770993,0.0
11.820000648498535,-7.577648254394531,-0.8212111694335937,3.5482068603515624,-5.816793893129771,-21.709923664122137,-4.488549618320611,-6.7277066650390625,-0.8283937744140625,2.123656872558594,-29.34351145038168,-5.6183206106870225,-12.030534351145038,0.0
11.830000400543213,-7.943961108398437,-0.44053310546874996,3.864241479492187,2.7022900763358777,-21.786259541984734,-5.404580152671755,-6.208164904785156,-0.11252747802734374,2.4492682983398435,-29.83206106870229,-5.709923664122138,-12.732824427480915,0.0
11.840000629425049,-7.920019091796875,-0.7206546997070312,4.311957189941406,4.442748091603053,-23.954198473282442,-7.480916030534351,-6.382941625976562,-0.5506663818359374,1.7764976318359373,-33.11450381679389,-6.9465648854961835,-12.900763358778626,0.0
11.850000619888306,-7.807491613769531,0.1484405029296875,5.161898779296875,16.412213740458014,-21.740458015267176,-9.969465648854962,-6.174646081542968,0.2059013427734375,0.239420166015625,-33.16030534351145,-7.038167938931298,-14.045801526717558,0.0
11.860000371932983,-7.9104422851562495,1.1707646118164061,4.582501977539062,16.83969465648855,-22.778625954198475,-10.870229007633588,-5.6215854980468745,0.36152445068359373,2.262520568847656,-46.19847328244275,1.7404580152671756,-14.320610687022901,0.0
11.87000060081482,-6.806715319824218,-0.17238251953125,3.162740393066406,17.87786259541985,-24.0,-12.595419847328245,-7.110778930664062,0.7613561279296874,0.3112462158203125,-40.79389312977099,5.908396946564886,-13.465648854961833,0.0
11.880000591278076,-8.054094384765625,1.4437036010742186,3.3973721557617185,10.625954198473282,-23.49618320610687,-20.53435114503817,-5.935225915527344,1.0510545288085937,-0.3184288208007812,-55.80152671755725,13.251908396946565,-13.86259541984733,0.0
11.890000581741333,-7.170633972167968,-0.01915361328125,4.144363073730468,4.076335877862595,-29.099236641221374,-22.778625954198475,-7.8721350585937495,-0.9409212524414062,1.6903063720703124,-60.62595419847328,21.69465648854962,-8.885496183206106,0.0
11.90000057220459,-9.306261853027344,0.10773907470703124,6.665457421875,8.030534351145038,-36.412213740458014,-26.9618320610687,-10.900800158691405,-3.124433166503906,4.211400720214844,-41.14503816793893,17.786259541984734,-6.122137404580153,0.0
11.910000801086426,-10.000580334472655,-0.5722141967773438,9.821015209960937,30.763358778625953,-42.61068702290076,-29.16030534351145,-10.026916552734374,-2.482787121582031,5.149927770996094,-30.580152671755727,6.427480916030534,-8.198473282442748,0.0
11.920000791549683,-12.251129895019531,2.645592834472656,13.3692220703125,50.2442748091603,-55.00763358778626,-31.450381679389313,-8.44674345703125,-1.0366893188476562,2.2290017456054687,-32.732824427480914,1.2061068702290076,-9.511450381679388,0.0
11.93000054359436,-12.028469140624999,3.057395520019531,15.045163232421874,69.96946564885496,-79.90839694656489,-20.35114503816794,-9.629479077148437,0.05027823486328125,0.8283937744140625,-47.343511450381676,8.183206106870228,-12.702290076335878,0.0
11.940000772476196,-14.018050720214843,3.660734338378906,15.253458776855467,96.25954198473282,-99.25190839694656,-7.908396946564886,-14.844050292968749,-2.770091320800781,3.83072265625,-49.74045801526717,12.717557251908397,-22.47328244274809,0.0
11.950000762939453,-15.136142895507811,1.3670891479492187,15.440206506347655,109.09923664122137,-125.63358778625954,-1.2061068702290076,-18.732233789062498,-4.774038110351563,7.261613635253906,-39.7557251908397,2.717557251908397,-39.20610687022901,0.0
11.96000075340271,-13.242329382324218,-1.1228805786132812,9.208099584960937,89.45038167938931,-157.8320610687023,-11.114503816793894,-21.430499060058594,-7.1395093505859375,7.999027746582031,-28.442748091603054,-17.14503816793893,-53.43511450381679,0.0
11.970000743865967,-14.712369201660156,2.4564509033203126,5.279214660644531,33.587786259541986,-191.63358778625954,-37.099236641221374,-21.677101831054685,-7.266402038574219,3.921702319335937,-14.229007633587786,-39.00763358778626,-62.961832061068705,0.0
11.980000495910645,-16.00523809814453,3.0166940917968748,2.849099975585937,19.099236641221374,-207.31297709923663,-43.3587786259542,-17.60217060546875,-2.925714428710937,2.9951462768554684,-11.038167938931299,-52.213740458015266,-57.12977099236641,0.0
11.990000486373901,-13.721169714355469,3.1172505615234374,-2.094926452636719,27.557251908396946,-205.6946564885496,-31.96946564885496,-12.746729638671875,1.0079588989257813,0.7445967163085937,-15.816793893129772,-52.79389312977099,-48.93129770992366,0.0
12.000000476837158,-15.48809053955078,6.1650692749023435,-4.290409374999999,-5.206106870229007,-198.90076335877862,-24.091603053435115,-8.312668164062499,2.1978771240234374,-0.7206546997070312,-19.6793893129771,-45.51145038167939,-36.961832061068705,0.0
12.010000705718994,-14.063540551757812,1.5011644409179687,-4.46279189453125,-9.19083969465649,-180.12213740458014,-3.5114503816793894,-5.066130712890625,0.0909796630859375,-3.6559459350585937,-20.16793893129771,-36.412213740458014,-27.83206106870229,0.0
12.020000696182251,-12.16254443359375,-2.43250888671875,-2.5378537597656248,7.862595419847328,-151.58778625954199,8.778625954198473,-3.373430139160156,-1.4245499877929686,-3.785232824707031,-11.526717557251908,-27.541984732824428,-20.3206106870229,0.0
12.030000448226929,-11.200075366210937,-4.050989208984375,-0.51714755859375,15.17557251908397,-125.17557251908397,6.778625954198473,-4.6255976074218745,-1.218648645019531,-3.5290532470703124,-7.465648854961832,-18.442748091603054,-11.541984732824428,0.0
12.040000677108765,-11.240776794433593,-5.228936425781249,0.8906430175781249,33.57251908396947,-100.16793893129771,6.702290076335878,-6.785167504882812,-2.195482922363281,-4.0222587890625,-0.4580152671755725,-4.2748091603053435,-4.122137404580153,0.0
12.05000114440918,-9.892841259765625,-4.144363073730468,-0.44532150878906246,57.45038167938932,-77.63358778625954,6.030534351145038,-10.824185705566405,-6.054935998535156,-4.771643908691406,27.419847328244273,0.24427480916030533,2.7938931297709924,0.0
12.060000658035278,-9.579200842285156,-1.618480322265625,-0.4836287353515625,72.61068702290076,-50.42748091603053,-0.7938931297709924,-11.978190905761718,-6.459556079101562,-3.0909143432617188,52.458015267175576,4.885496183206107,3.5877862595419847,0.0
12.070001363754272,-7.687781530761718,-0.30406361083984373,-1.6041151123046875,68.35114503816794,-41.45038167938932,-4.412213740458015,-12.43069501953125,-4.733336682128906,-2.731784094238281,66.25954198473282,9.877862595419847,3.068702290076336,0.0
12.08000111579895,-8.40125362548828,4.005499377441406,-0.11731588134765625,50.85496183206107,-33.404580152671755,-6.412213740458015,-11.621454858398437,-1.697488977050781,-2.2673089721679687,67.17557251908397,15.221374045801527,1.4961832061068703,0.0
12.090000867843628,-6.981492041015625,3.289633081054687,-0.5243301635742187,32.62595419847328,-26.50381679389313,-0.5343511450381679,-10.472238061523436,0.7493851196289062,-2.408566870117187,46.87022900763359,28.53435114503817,2.854961832061069,0.0
12.100000619888306,-5.7317187744140625,1.8698714965820311,-0.6177040283203125,20.50381679389313,-14.977099236641221,2.381679389312977,-10.295067138671874,-0.11252747802734374,-0.011971008300781249,31.46564885496183,36.94656488549618,8.045801526717558,0.0
12.110000848770142,-5.422866760253906,2.061407629394531,-0.7852981445312499,-0.5343511450381679,-6.763358778625954,-2.122137404580153,-8.743624462890624,-1.2761094848632812,2.090138049316406,21.251908396946565,37.98473282442748,11.114503816793894,0.0
12.12000060081482,-5.68862314453125,2.4779987182617185,-0.30406361083984373,-25.61832061068702,1.1450381679389312,-4.534351145038168,-9.394847314453125,-0.2753331909179687,1.149216796875,18.519083969465647,36.10687022900763,12.65648854961832,0.0
12.130000591278076,-5.415684155273437,2.636016027832031,-0.40462008056640625,-43.89312977099237,9.725190839694656,-4.961832061068702,-7.8553756469726554,2.1116858642578125,1.0103531005859374,-0.6412213740458015,36.36641221374046,13.48091603053435,0.0
12.140000581741333,-4.802768530273437,2.849099975585937,-0.46208092041015625,-62.229007633587784,19.587786259541986,-3.633587786259542,-7.223306408691406,1.89620771484375,0.7781155395507812,-22.9618320610687,39.41984732824427,15.709923664122137,0.0
12.15000057220459,-4.218583325195312,0.584185205078125,-0.9696516723632812,-62.2442748091603,35.19083969465649,1.5267175572519085,-9.658209497070311,-2.422932080078125,1.9297265380859374,-26.931297709923665,42.74809160305343,21.267175572519083,0.0
12.160000801086426,-4.225765930175781,3.239354846191406,0.29927520751953124,-92.76335877862596,33.51145038167939,-1.83206106870229,-8.231265307617187,-4.491522314453125,3.124433166503906,-3.053435114503817,30.47328244274809,20.3206106870229,0.0
12.170000553131104,-2.269703173828125,-2.2457611572265623,-1.0917559570312498,-86.51908396946565,40.48854961832061,6.870229007633588,-9.289502441406249,-4.572925170898437,2.31758720703125,12.427480916030534,21.923664122137403,17.51145038167939,0.0
12.18000078201294,-1.9967641845703124,-2.35589443359375,-1.8052280517578123,-58.778625954198475,64.87022900763358,8.091603053435115,-7.970297326660156,-2.3870190551757813,2.1452046874999997,11.557251908396946,20.458015267175572,12.534351145038167,0.0
12.190000772476196,-2.461239306640625,-1.369483349609375,-2.3582886352539063,-56.458015267175576,78.53435114503817,5.541984732824427,-8.147468249511718,-2.5761609863281247,2.808398547363281,10.045801526717558,18.3206106870229,11.740458015267176,0.0
12.200000762939453,-3.0933085449218747,-2.4660277099609376,-0.8283937744140625,-63.3587786259542,91.83206106870229,1.3282442748091603,-8.317456567382813,-2.8850130004882812,2.0446482177734375,9.068702290076336,16.0,10.13740458015267,0.0
12.21000075340271,-3.399766357421875,-4.915296008300781,1.0893617553710937,-66.1526717557252,103.93893129770993,-6.091603053435114,-7.841010437011718,-2.952050646972656,2.8323405639648436,8.106870229007633,12.213740458015268,8.15267175572519,0.0
12.220000505447388,-4.723759875488281,-5.614402893066406,3.1651345947265623,-56.732824427480914,112.7175572519084,-12.793893129770993,-7.137115148925781,-2.39420166015625,2.999934680175781,4.702290076335878,9.648854961832061,5.877862595419847,0.0
12.230000734329224,-5.6215854980468745,-5.1882349975585935,5.896918688964844,-28.793893129770993,120.61068702290076,-13.297709923664122,-7.747636572265624,-2.1547814941406247,2.6408044311523438,1.5267175572519085,7.190839694656488,5.4961832061068705,0.0
12.240000486373901,-7.0652890991210935,-4.00310517578125,9.718064538574218,15.099236641221374,124.2442748091603,-9.145038167938932,-7.4028715332031245,-1.0893617553710937,2.4779987182617185,-5.7251908396946565,4.732824427480916,4.458015267175573,0.0
12.250000476837158,-8.882488159179687,-0.9552864624023437,12.842497705078124,71.6793893129771,121.89312977099236,1.8473282442748091,-8.173804467773436,-1.3120225097656248,2.3630770385742186,-11.877862595419847,3.2061068702290076,5.893129770992366,0.0
12.260000705718994,-11.247959399414063,4.134786267089844,12.234370483398436,87.49618320610686,111.54198473282443,6.809160305343512,-8.461108666992187,-1.8100164550781248,1.637633935546875,-16.916030534351144,2.198473282442748,6.824427480916031,0.0
12.270000696182251,-6.277596752929687,1.8602946899414061,8.63109698486328,69.1145038167939,79.38931297709924,12.351145038167939,-8.341398583984375,-1.5897499023437498,0.9648632690429687,-16.671755725190838,1.7557251908396947,7.603053435114504,0.0
12.280000686645508,-11.961431494140625,4.553771557617187,11.425130322265625,48.961832061068705,69.45038167938931,4.351145038167939,-9.124302526855468,-2.2194249389648437,0.5003881469726562,-13.236641221374045,3.618320610687023,9.251908396946565,0.0
12.290000915527344,-13.919888452148436,2.978386865234375,13.735534924316406,15.709923664122137,38.54961832061068,2.1374045801526718,-9.708487731933593,-2.262520568847656,0.7565677246093749,-9.419847328244275,3.969465648854962,10.992366412213741,0.0
12.300000667572021,-16.038756921386717,5.2433016357421875,13.57272921142578,-1.5877862595419847,11.618320610687023,4.641221374045801,-8.870517150878905,-1.8411410766601561,0.5626373901367188,-8.793893129770993,5.251908396946565,12.900763358778626,0.0
12.310000896453857,-10.927136376953124,-0.5003881469726562,8.195352282714843,4.091603053435114,-11.206106870229007,18.061068702290076,-8.415618835449218,-1.5418658691406248,0.2920926025390625,-4.763358778625954,7.4961832061068705,16.47328244274809,0.0
12.320000648498535,-11.422736120605467,-1.1420341918945311,8.437166650390624,28.702290076335878,-12.625954198473282,22.366412213740457,-7.879317663574218,-1.7717092285156248,0.9337386474609375,-4.259541984732825,12.977099236641221,21.83206106870229,0.0
12.330000638961792,-7.888894470214844,-4.062960217285156,5.276820458984375,49.70992366412214,-19.69465648854962,28.595419847328245,-8.037334973144532,-2.8850130004882812,1.2401964599609374,-0.32061068702290074,16.259541984732824,28.3206106870229,0.0
12.340000629425049,-7.465120776367187,-3.1196447631835937,3.2417490478515623,71.49618320610686,-9.557251908396946,26.427480916030536,-8.37012900390625,-1.7741034301757812,0.12449848632812499,4.473282442748092,17.908396946564885,32.25954198473283,0.0
12.350000858306885,-8.339004382324218,-1.7836802368164062,2.2673089721679687,73.37404580152672,-4.3816793893129775,28.580152671755727,-8.465897070312499,-0.9648632690429687,0.0383072265625,3.267175572519084,21.603053435114504,36.51908396946565,0.0
12.360000610351562,-13.33091484375,4.127603662109375,6.524199523925781,70.76335877862596,4.0,32.76335877862596,-9.923965881347655,-2.221819140625,0.46686932373046874,11.221374045801527,20.717557251908396,40.229007633587784,0.0
12.37000060081482,-15.088258862304686,6.600813977050781,8.916006982421875,64.10687022900764,3.236641221374046,50.030534351145036,-10.369287390136718,-0.05027823486328125,-0.5722141967773438,-1.5572519083969465,26.65648854961832,42.61068702290076,0.0
12.380000591278076,-17.049110021972655,7.812280017089844,11.077971081542968,48.06106870229008,-4.198473282442748,63.69465648854962,-10.189722265624999,-0.3687070556640625,-2.346317626953125,-14.946564885496183,28.885496183206108,45.37404580152672,0.0
12.390000581741333,-17.21191573486328,5.772420202636718,11.374852087402344,42.48854961832061,-15.083969465648854,70.9618320610687,-12.459425439453124,-2.0925322509765625,-1.9871873779296874,-28.35114503816794,37.221374045801525,47.267175572519086,0.0
12.40000033378601,-17.341202624511716,3.8283284545898435,9.406818322753905,34.6412213740458,-31.72519083969466,69.63358778625954,-15.521609362792967,-6.41646044921875,-1.350329736328125,-21.129770992366414,39.29770992366412,45.02290076335878,0.0
12.410000562667847,-14.896722729492186,2.578555187988281,3.842693664550781,29.022900763358777,-44.87022900763359,61.57251908396947,-16.73307540283203,-6.955155822753905,0.36391865234375,-8.15267175572519,38.99236641221374,36.19847328244275,0.0
12.420000791549683,-12.370839978027343,4.144363073730468,-1.7094599853515624,18.717557251908396,-47.57251908396947,50.396946564885496,-15.155296508789062,-5.204994409179688,-0.19871873779296872,2.50381679389313,31.114503816793892,22.47328244274809,0.0
12.43000054359436,-8.884882360839843,5.7700260009765625,-5.755660791015624,-3.0839694656488548,-42.0,44.152671755725194,-18.464083203125,-7.184999182128906,0.8547299926757812,20.717557251908396,33.954198473282446,17.099236641221374,0.0
12.440000772476196,-5.628768103027343,3.4955344238281247,-4.92247861328125,-34.29007633587786,-34.82442748091603,37.587786259541986,-18.18875001220703,-5.046977099609375,2.0733786376953125,51.31297709923664,18.229007633587788,11.251908396946565,0.0
12.450000524520874,-3.801992236328125,-0.06943184814453125,-3.7205893798828122,-46.25954198473283,-20.580152671755727,33.38931297709924,-17.137695483398435,0.105344873046875,-1.0079588989257813,61.00763358778626,10.335877862595419,3.3282442748091605,0.0
12.46000051498413,-2.3678654418945313,-2.9448680419921875,-4.8314989501953125,-41.221374045801525,3.4656488549618323,26.65648854961832,-13.735534924316406,3.3016040893554686,0.3950432739257812,49.6793893129771,11.511450381679388,1.633587786259542,0.0
12.470000267028809,-2.0973206542968748,-3.318363500976562,-6.6702458251953125,-35.20610687022901,25.221374045801525,20.198473282442748,-12.196063256835936,5.406107348632812,-0.7781155395507812,40.44274809160305,4.687022900763359,2.931297709923664,0.0
12.480000257492065,-7.819462622070312,0.36631285400390623,-2.8514941772460936,-30.244274809160306,48.900763358778626,10.732824427480915,-11.202469567871093,6.3901242309570305,-0.8571241943359375,21.84732824427481,5.236641221374046,8.366412213740459,0.0
12.490000247955322,-9.624690673828125,-2.2553379638671873,-2.308010400390625,-23.267175572519083,61.23664122137404,9.17557251908397,-10.412383020019531,6.682216833496093,-1.4125789794921875,3.5572519083969465,5.099236641221374,12.396946564885496,0.0
12.500000476837158,-10.575188732910156,-4.649539624023437,-1.9488801513671874,9.740458015267176,80.77862595419847,1.9389312977099236,-10.194510668945313,5.516240625,-1.3766659545898436,-13.969465648854962,7.190839694656488,17.51145038167939,0.0
12.510000705718994,-12.038045947265624,-4.053383410644531,-0.699106884765625,34.61068702290076,91.89312977099236,-10.534351145038167,-9.926360083007811,3.4332851806640625,-1.1851298217773436,-24.580152671755727,7.679389312977099,21.6793893129771,0.0
12.520000457763672,-13.077129467773437,-1.4772224243164063,0.06464344482421874,52.50381679389313,99.48091603053435,-20.870229007633586,-10.735600244140624,0.7206546997070312,-1.7573440185546874,-21.72519083969466,10.091603053435115,23.66412213740458,0.0
12.530000925064087,-14.132972399902343,1.7118541870117185,1.189918225097656,52.732824427480914,96.3969465648855,-29.46564885496183,-11.980585107421874,-0.8020575561523438,-1.3311761230468748,-13.206106870229007,10.641221374045802,21.908396946564885,0.0
12.540000677108765,-13.376404675292967,4.036623999023437,2.0470424194335934,43.541984732824424,88.27480916030534,-32.045801526717554,-12.088324182128906,-0.6009446166992187,-0.97683427734375,-1.3435114503816794,9.557251908396946,19.31297709923664,0.0
12.5500009059906,-10.711658227539061,3.957615344238281,0.33758243408203126,29.61832061068702,74.67175572519083,-30.091603053435115,-11.846509814453125,-0.3064578125,-0.1005564697265625,3.6793893129770994,7.511450381679389,18.015267175572518,0.0
12.560000658035278,-9.14824454345703,5.702988354492187,-0.1149216796875,13.938931297709924,66.99236641221374,-27.328244274809162,-10.984597216796875,-0.0909796630859375,0.7733271362304687,3.969465648854962,4.702290076335878,16.18320610687023,0.0
12.570001125335693,-8.511386901855468,5.276820458984375,-0.3280056274414062,-7.450381679389313,58.12213740458015,-24.0,-10.690110412597656,-0.40222587890625,1.3168109130859373,3.053435114503817,2.351145038167939,14.778625954198473,0.0
12.580000638961792,-8.128314636230469,3.5625720703124997,-0.40222587890625,-21.72519083969466,53.11450381679389,-20.290076335877863,-10.989385620117186,-0.8044517578125,2.0159177978515626,5.083969465648855,-3.8625954198473282,9.587786259541986,0.0
12.590000629425049,-9.100360510253905,2.7198130859375,0.5386953735351562,-24.946564885496183,55.41984732824427,-18.458015267175572,-9.931148486328125,-1.0582371337890624,3.153163586425781,-19.022900763358777,-7.816793893129771,4.595419847328245,0.0
12.600000858306885,-8.252813122558594,1.6735469604492186,0.01915361328125,-19.49618320610687,53.725190839694655,-16.137404580152673,-10.893617553710937,-2.93050283203125,3.399766357421875,-10.65648854961832,-16.045801526717558,0.12213740458015267,0.0
12.610000371932983,-9.440337145996093,0.6105214233398437,0.49320554199218747,-11.374045801526718,57.05343511450382,-17.19083969465649,-9.617508068847656,-1.3096283081054687,1.3623007446289062,1.0381679389312977,-22.80916030534351,-8.854961832061068,0.0
12.62000060081482,-9.437942944335937,-0.41419688720703124,0.4955997436523437,-0.9618320610687023,58.33587786259542,-18.65648854961832,-9.2320416015625,-0.00239420166015625,1.2521674682617188,-12.946564885496183,-22.290076335877863,-13.679389312977099,0.0
12.630000591278076,-9.562441430664062,0.14125789794921875,1.158793603515625,6.229007633587786,58.29007633587786,-21.374045801526716,-8.429984045410155,-0.32561142578124996,0.1580173095703125,-12.13740458015267,-21.64885496183206,-15.282442748091603,0.0
12.640000581741333,-10.144232434082031,-0.718260498046875,1.2761094848632812,18.198473282442748,58.97709923664122,-23.66412213740458,-9.320627062988281,-2.829946362304687,1.3048399047851562,-0.2900763358778626,-24.33587786259542,-15.19083969465649,0.0
12.65000057220459,-10.472238061523436,0.2705447875976562,2.1739351074218747,29.81679389312977,60.06106870229008,-25.709923664122137,-9.1554271484375,-3.687070556640625,1.35990654296875,19.297709923664122,-32.12213740458015,-17.740458015267176,0.0
12.660000801086426,-9.402029919433593,-0.11252747802734374,1.6017209106445311,40.12213740458015,59.083969465648856,-26.564885496183205,-7.491456994628906,-1.5873557006835937,1.3718775512695311,19.61832061068702,-35.64885496183206,-21.984732824427482,0.0
12.670000553131104,-10.01015714111328,0.8714894042968749,2.147598889160156,39.86259541984733,57.282442748091604,-28.198473282442748,-8.049305981445311,-0.27293898925781246,0.9337386474609375,19.52671755725191,-34.12213740458015,-22.977099236641223,0.0
12.68000054359436,-10.326191760253906,2.4875755249023435,3.0310593017578125,33.19083969465649,55.74045801526717,-29.84732824427481,-7.742848168945312,1.2330138549804688,3.845087866210937,3.5267175572519083,-33.48091603053435,-22.3206106870229,0.0
12.690000295639038,-10.70686982421875,4.029441394042968,3.277662072753906,15.068702290076336,46.396946564885496,-30.076335877862597,-9.200916979980468,-1.5179238525390624,0.5722141967773438,29.404580152671755,-36.213740458015266,-20.244274809160306,0.0
12.700000524520874,-10.35492218017578,4.673481640625,2.2649147705078123,10.305343511450381,41.31297709923664,-25.34351145038168,-12.267889306640624,-4.527435339355469,-2.212242333984375,47.05343511450382,-39.63358778625954,-17.099236641221374,0.0
12.71000051498413,-10.77630167236328,7.362170104980469,2.7269956909179687,-0.04580152671755725,39.14503816793893,-22.778625954198475,-16.737863806152344,-12.095506787109374,2.693476867675781,57.908396946564885,-49.57251908396947,-13.068702290076336,0.0
12.720000505447388,-9.964667309570311,2.6527754394531247,1.4891934326171874,-29.587786259541986,22.80916030534351,-16.702290076335878,-13.113042492675781,-5.523423229980469,8.0062103515625,188.04580152671755,-96.91603053435115,-14.702290076335878,0.0
12.730000495910645,-8.518569506835936,1.6424223388671875,0.39983167724609375,-1.0076335877862594,26.65648854961832,-10.80916030534351,-1.8076222534179687,10.682927807617187,-2.578555187988281,194.82442748091603,-99.93893129770993,-53.49618320610687,0.0
12.740000486373901,-8.872911352539061,5.408501550292969,2.9568390502929685,-12.274809160305344,29.541984732824428,-11.114503816793894,-0.70868369140625,14.839261889648437,-4.510675927734375,17.16030534351145,-48.67175572519084,-28.99236641221374,0.0
12.750000476837158,-9.928754284667969,6.131550451660156,4.680664245605469,-39.66412213740458,20.717557251908396,-13.770992366412214,-6.883329772949218,9.246406811523437,-2.5737667846679684,-50.74809160305343,-12.091603053435115,-9.16030534351145,0.0
12.760000705718994,-9.976638317871092,3.8187516479492185,3.564966271972656,-46.76335877862596,11.389312977099237,-10.687022900763358,-8.702923034667968,3.3710359375,-0.737414111328125,-55.80152671755725,4.198473282442748,0.2748091603053435,0.0
12.770000457763672,-11.37006368408203,4.7572786987304685,4.000710974121094,-51.770992366412216,4.213740458015267,-7.694656488549619,-9.018957653808593,-2.269703173828125,-1.3527239379882812,-38.62595419847328,16.702290076335878,0.8702290076335878,0.0
12.780000686645508,-9.167398156738281,1.8219874633789062,1.5394716674804687,-51.587786259541986,-6.809160305343512,-1.9541984732824427,-8.78432589111328,-1.7453730102539062,1.0127473022460938,-34.35114503816794,8.305343511450381,-1.3893129770992367,0.0
12.790001392364502,-9.945513696289062,4.479551306152343,2.4205378784179685,-44.70229007633588,-5.251908396946565,0.2748091603053435,-5.590460876464843,3.6248213134765623,-2.6695348510742187,-17.099236641221374,1.816793893129771,-10.961832061068701,0.0
12.80000114440918,-10.54645831298828,3.9264907226562498,2.4157494750976563,-61.43511450381679,-14.50381679389313,2.16793893129771,-11.425130322265625,-4.273649963378906,1.678335363769531,-31.31297709923664,1.9694656488549618,-6.656488549618321,0.0
12.810001373291016,-11.3006318359375,3.593696691894531,3.038241906738281,-64.4885496183206,-15.740458015267176,3.969465648854962,-9.234435803222656,-1.3862427612304686,1.915361328125,-4.6106870229007635,-11.206106870229007,-12.427480916030534,0.0
12.820001125335693,-9.950302099609374,2.6001030029296874,2.499546533203125,-73.2824427480916,-22.045801526717558,5.419847328244275,-8.257601525878906,0.4860229370117187,0.6560112548828124,-16.900763358778626,-10.076335877862595,-12.183206106870228,0.0
12.830000877380371,-7.917624890136718,-1.4820108276367188,1.2330138549804688,-62.396946564885496,-21.450381679389313,8.030534351145038,-9.126696728515624,-0.16280571289062498,0.507570751953125,-20.671755725190838,-8.198473282442748,-9.297709923664122,0.0
12.840000629425049,-15.636531042480469,8.188169677734374,6.797138513183594,-53.099236641221374,-4.931297709923665,-6.33587786259542,-8.219294299316406,1.4413093994140624,0.51714755859375,-16.244274809160306,-6.702290076335878,-11.511450381679388,0.0
12.850000619888306,-17.101782458496093,11.192892761230468,6.552929943847656,-129.46564885496184,-41.74045801526717,-8.702290076335878,-8.693346228027343,1.0558429321289062,-0.17238251953125,-20.732824427480917,-3.7404580152671754,-9.114503816793894,0.0
12.860000610351562,-11.681309899902343,5.298368273925781,4.034229797363281,-146.6259541984733,-58.01526717557252,10.549618320610687,-8.429984045410155,1.407790576171875,-0.016759411621093748,-26.9618320610687,0.2900763358778626,-7.145038167938932,0.0
12.87000060081482,-11.106701501464842,2.365471240234375,3.421314172363281,-133.86259541984734,-53.49618320610687,15.450381679389313,-7.50821640625,1.3263877197265623,0.39743747558593745,-30.47328244274809,4.091603053435114,-6.351145038167939,0.0
12.880000591278076,-9.447519750976562,-0.51714755859375,1.2425906616210938,-133.0229007633588,-62.12213740458015,16.091603053435115,-7.972691528320312,0.33518823242187495,0.4955997436523437,-28.9618320610687,5.770992366412214,-4.0458015267175576,0.0
12.890000581741333,-5.518634826660156,-5.128379956054687,0.5913678100585937,-93.32824427480917,-52.3206106870229,19.893129770992367,-6.610390783691406,0.9600748657226562,0.5722141967773438,-38.56488549618321,11.17557251908397,-2.900763358778626,0.0
12.900001049041748,-3.1196447631835937,-6.665457421875,-0.3495534423828125,-51.98473282442748,-31.633587786259543,11.068702290076336,-6.624755993652343,-0.4740519287109375,0.8834604125976562,-41.14503816793893,11.282442748091603,-1.3435114503816794,0.0
12.910000324249268,-2.808398547363281,-6.579266162109374,-0.36152445068359373,-14.259541984732824,-13.038167938931299,-1.1908396946564885,-6.801926916503906,-1.350329736328125,1.180341418457031,-32.74809160305343,10.610687022900763,-0.12213740458015267,0.0
12.920000314712524,-5.810727429199218,-2.157175695800781,2.0159177978515626,14.030534351145038,7.969465648854962,-13.557251908396946,-8.413224633789062,-2.7557261108398436,1.2952630981445312,-22.076335877862597,9.801526717557252,0.2595419847328244,0.0
12.93000054359436,-8.698134631347656,3.210624426269531,2.7653029174804686,1.3282442748091603,6.213740458015267,-18.50381679389313,-7.924807495117187,-2.3511060302734372,1.1180921752929687,-13.389312977099237,6.244274809160306,-2.854961832061069,0.0
12.940000772476196,-7.029376074218749,1.7405846069335937,2.683900061035156,1.0534351145038168,4.534351145038168,-10.534351145038167,-7.939172705078125,-1.2210428466796874,0.16280571289062498,-12.091603053435115,6.396946564885496,-4.809160305343512,0.0
12.950000524520874,-7.934384301757812,2.0350714111328125,3.948038537597656,-8.50381679389313,3.312977099236641,-10.961832061068701,-8.51617530517578,-1.484405029296875,0.16759411621093748,-10.274809160305344,7.893129770992366,-5.312977099236641,0.0
12.96000075340271,-9.550470422363281,2.5474305664062498,5.607220288085937,-10.748091603053435,-0.5190839694656488,-12.610687022900763,-7.40526573486328,-1.697488977050781,0.5746083984375,-11.98473282442748,10.564885496183207,-5.603053435114504,0.0
12.970000743865967,-10.951078393554686,2.849099975585937,6.342240197753906,-15.541984732824428,-8.931297709923664,-13.648854961832061,-7.510610607910156,-1.89620771484375,1.9584569580078124,-4.8396946564885495,10.885496183206106,-6.030534351145038,0.0
12.980000495910645,-10.019733947753906,0.44053310546874996,6.943184814453125,-11.236641221374045,-19.633587786259543,-13.19083969465649,-7.419630944824219,-1.149216796875,3.5218706420898434,-2.3206106870229006,9.038167938931299,-8.702290076335878,0.0
12.990000486373901,-10.472238061523436,-0.1484405029296875,8.470685473632813,-2.7938931297709924,-27.96946564885496,-16.27480916030534,-7.165845568847656,0.9026140258789062,1.3718775512695311,-4.412213740458015,3.312977099236641,-14.290076335877863,0.0
13.000000476837158,-10.153809240722655,-1.5107412475585937,9.375693701171874,12.0,-39.6793893129771,-20.045801526717558,-7.654262707519531,1.180341418457031,1.2856862915039062,-27.740458015267176,15.755725190839694,-15.816793893129772,0.0
13.010000705718994,-9.952696301269532,-2.2768857788085937,10.500968481445312,22.549618320610687,-50.97709923664122,-25.206106870229007,-8.537723120117187,2.094926452636719,2.6240450195312497,-55.786259541984734,21.557251908396946,-13.664122137404581,0.0
13.020000696182251,-13.345280053710937,0.38307226562499996,12.332532751464843,17.755725190839694,-68.36641221374046,-35.69465648854962,-9.382876306152344,-0.6775590698242188,3.794809631347656,-53.80152671755725,17.740458015267176,-5.404580152671755,0.0
13.030001163482666,-14.068328955078124,2.408566870117187,13.4458365234375,7.694656488549619,-96.09160305343511,-39.31297709923664,-9.016563452148437,-0.03591302490234375,2.492363928222656,-40.35114503816794,8.900763358778626,-2.9618320610687023,0.0
13.040000677108765,-14.867992309570312,3.1794998046874996,15.028403820800781,6.0,-128.19847328244273,-35.49618320610687,-7.733271362304687,2.578555187988281,1.2018892333984375,-44.13740458015267,7.511450381679389,-7.083969465648855,0.0
13.0500009059906,-14.870386511230468,3.2034418212890623,15.782577343749999,8.992366412213741,-159.6946564885496,-29.541984732824428,-10.520122094726561,3.555389465332031,3.0789433349609374,-68.1526717557252,15.374045801526718,-14.83969465648855,0.0
13.060000658035278,-15.234305163574218,3.5601778686523438,11.911153259277343,3.5267175572519083,-192.19847328244273,-27.236641221374047,-16.601394311523435,-3.19865341796875,6.251260534667968,-87.2824427480916,20.0,-24.442748091603054,0.0
13.070001125335693,-14.987702392578123,2.8227637573242186,6.854599353027344,-18.30534351145038,-223.75572519083968,-33.11450381679389,-21.078551416015625,-11.037269653320312,8.027758166503906,-71.06870229007633,4.931297709923665,-42.82442748091603,0.0
13.080000638961792,-14.846444494628905,0.086191259765625,2.6144682128906247,-21.66412213740458,-242.91603053435114,-36.68702290076336,-19.982007055664063,-11.037269653320312,4.580107775878906,-30.80916030534351,-23.251908396946565,-53.969465648854964,0.0
13.09000039100647,-14.520833068847656,0.3447650390625,-3.687070556640625,-18.412213740458014,-246.9770992366412,-36.778625954198475,-18.748993200683593,-6.885723974609375,2.288856787109375,2.9923664122137406,-38.29007633587786,-43.80152671755725,0.0
13.100000619888306,-13.663708874511718,-1.6543933471679686,-2.0781670410156248,-12.01526717557252,-241.6030534351145,-35.86259541984733,-13.306972827148437,-2.0638018310546875,0.3112462158203125,21.87786259541985,-53.6793893129771,-35.89312977099237,0.0
13.110000610351562,-12.416329809570312,-4.2305543334960936,-4.153939880371094,27.633587786259543,-220.4885496183206,-24.30534351145038,-8.832209924316405,-1.4508862060546874,-1.1827356201171875,29.770992366412212,-50.85496183206107,-27.358778625954198,0.0
13.12000060081482,-9.382876306152344,-3.852270471191406,-4.283226770019531,58.68702290076336,-181.5114503816794,-15.465648854961833,-5.595249279785156,-3.878606689453125,-2.3511060302734372,53.70992366412214,-54.35114503816794,-18.47328244274809,0.0
13.130000591278076,-7.170633972167968,-3.5913024902343746,-4.805162731933594,63.69465648854962,-142.18320610687022,-17.801526717557252,-2.5617957763671875,-0.2537853759765625,-3.0047230834960934,59.587786259541986,-51.86259541984733,-18.50381679389313,0.0
13.140000581741333,-7.996633544921875,-1.7525556152343749,-2.398990063476562,80.06106870229007,-101.86259541984732,-16.27480916030534,-3.825934252929687,-1.4508862060546874,-3.438073583984375,48.091603053435115,-36.0,-12.458015267175572,0.0
13.15000057220459,-4.283226770019531,-3.919308117675781,-5.231330627441406,103.26717557251908,-68.06106870229007,-8.442748091603054,-7.352593298339843,-3.0789433349609374,-5.185840795898438,54.44274809160305,-24.870229007633586,-8.030534351145038,0.0
13.160000801086426,-7.733271362304687,2.4349030883789062,-1.8459294799804686,103.32824427480917,-26.015267175572518,-16.748091603053435,-6.093243225097656,0.6967126831054687,-6.1842228881835934,45.41984732824427,-10.259541984732824,-11.099236641221374,0.0
13.170000553131104,-9.524134204101562,6.244077929687499,-0.6823474731445313,65.54198473282443,-23.61832061068702,-18.748091603053435,-9.605537060546874,-0.9050082275390624,-6.038176586914062,24.68702290076336,17.587786259541986,-5.648854961832061,0.0
13.180001020431519,-4.513070129394531,1.956062756347656,-3.191470812988281,46.091603053435115,-19.206106870229007,-4.625954198473282,-11.9135474609375,-3.7110125732421873,-4.594472985839843,23.81679389312977,30.259541984732824,2.2748091603053435,0.0
13.190000534057617,-1.9393033447265624,-1.4796166259765624,-4.376600634765625,57.87786259541985,12.122137404580153,1.7251908396946565,-11.587936035156249,-4.13718046875,-1.9297265380859374,36.80916030534351,37.81679389312977,6.6106870229007635,0.0
13.200001001358032,-3.727771984863281,0.9337386474609375,-2.9951462768554684,47.282442748091604,28.99236641221374,-8.290076335877863,-10.175357055664062,-1.8507178833007811,0.19153613281249998,41.66412213740458,39.221374045801525,8.961832061068701,0.0
13.210000276565552,-2.5258827514648434,-0.5003881469726562,-3.3111808959960936,34.091603053435115,38.030534351145036,-10.564885496183207,-10.172962854003906,-0.9864110839843749,-0.430956298828125,37.05343511450382,43.12977099236641,11.86259541984733,0.0
13.220000505447388,-1.936909143066406,-0.7948749511718749,-2.4947581298828125,41.31297709923664,63.19083969465649,-10.427480916030534,-8.125920434570313,2.473210314941406,0.6631938598632812,23.282442748091604,45.70992366412214,13.725190839694656,0.0
13.230000495910645,-2.882618798828125,1.5203180541992187,-2.1068974609374997,29.633587786259543,75.92366412213741,-15.16030534351145,-10.55364091796875,0.3280056274414062,3.2417490478515623,9.022900763358779,52.274809160305345,21.740458015267176,0.0
13.240000486373901,-2.710236279296875,0.9720458740234375,-2.0829554443359375,12.610687022900763,87.49618320610686,-17.251908396946565,-10.512939489746094,-0.6655880615234374,2.50912333984375,15.694656488549619,41.9236641221374,25.297709923664122,0.0
13.250000715255737,-3.2441432495117186,1.0319009155273438,-1.4437036010742186,6.625954198473282,100.58015267175573,-20.27480916030534,-10.9941740234375,-2.205059729003906,4.517858532714843,19.541984732824428,39.87786259541985,24.290076335877863,0.0
13.260000944137573,-3.706224169921875,2.152387292480469,-0.7230489013671875,-8.335877862595419,111.37404580152672,-21.297709923664122,-9.191340173339842,-0.00718260498046875,2.5426421630859375,23.61832061068702,24.625954198473284,20.946564885496183,0.0
13.27000117301941,-4.259284753417968,2.6695348510742187,1.0414777221679687,-25.984732824427482,117.93893129770993,-21.51145038167939,-8.86812294921875,0.7781155395507812,1.8315642700195311,12.244274809160306,24.38167938931298,21.96946564885496,0.0
13.280000925064087,-4.6351744140625,1.3479355346679687,3.574543078613281,-42.091603053435115,122.06106870229007,-20.213740458015266,-8.386888415527343,0.48123453369140623,1.8052280517578123,1.9694656488549618,22.717557251908396,24.16793893129771,0.0
13.290000438690186,-5.473144995117187,-0.12449848632812499,5.722141967773437,-52.0763358778626,123.02290076335878,-20.763358778625953,-8.022969763183593,-0.40462008056640625,1.2282254516601563,-3.49618320610687,21.6793893129771,25.96946564885496,0.0
13.300000667572021,-6.241683728027343,-1.0989385620117187,7.8529814453124995,-46.29007633587786,123.1145038167939,-19.954198473282442,-7.426813549804687,0.8212111694335937,0.9600748657226562,-16.290076335877863,24.9618320610687,26.061068702290076,0.0
13.310000896453857,-6.746860278320312,-0.8259995727539062,10.034099157714843,-27.633587786259543,119.34351145038168,-15.038167938931299,-5.312733483886719,1.8770541015625,-0.689530078125,-40.16793893129771,29.236641221374047,24.763358778625953,0.0
13.320000648498535,-6.325480786132812,-2.693476867675781,9.775525378417969,10.763358778625955,115.64885496183206,-2.0916030534351147,-6.792350109863281,-1.0319009155273438,1.3024457031249999,-61.3587786259542,40.61068702290076,27.206106870229007,0.0
13.330000877380371,-3.366247534179687,-6.964732629394531,8.614337573242187,40.595419847328245,102.73282442748092,6.091603053435114,-8.911218579101561,-5.461173986816406,2.3678654418945313,-52.74809160305343,36.045801526717554,28.549618320610687,0.0
13.340000629425049,-7.838616235351562,-3.430890979003906,12.126631408691406,113.43511450381679,118.59541984732824,7.938931297709924,-7.989450939941406,-4.357447021484375,1.8602946899414061,-43.954198473282446,28.30534351145038,21.083969465648856,0.0
13.350000619888306,-10.89122335205078,0.9097966308593749,14.812925671386719,137.05343511450383,99.05343511450381,12.320610687022901,-8.0062103515625,-3.6559459350585937,2.2936451904296873,-45.9236641221374,29.96946564885496,17.923664122137403,0.0
13.360000371932983,-14.061146350097655,2.70065947265625,14.233528869628906,176.85496183206106,88.93129770992367,29.938931297709924,-9.689334118652344,-6.543353137207031,1.3527239379882812,-28.48854961832061,18.748091603053435,18.82442748091603,0.0
13.37000036239624,-14.93263575439453,4.050989208984375,12.332532751464843,149.5267175572519,59.57251908396947,29.83206106870229,-10.484209069824217,-7.323862878417969,2.5426421630859375,-5.4961832061068705,14.916030534351146,18.091603053435115,0.0
13.380000591278076,-14.367604162597656,5.724536169433593,10.065223779296874,67.63358778625954,16.35114503816794,10.396946564885496,-6.7037646484375,-1.6639701538085936,-0.21787235107421873,6.030534351145038,1.1450381679389312,13.923664122137405,0.0
13.390000820159912,-12.50730947265625,7.359775903320312,6.907271789550781,-15.221374045801527,-27.61832061068702,-6.519083969465649,-6.818686328125,-1.1061211669921875,-0.30885201416015623,-2.7480916030534353,11.770992366412214,20.900763358778626,0.0
13.40000033378601,-8.779537487792968,3.871424084472656,4.235342736816406,-30.732824427480917,-33.770992366412216,-0.2748091603053435,-5.635950708007812,-1.9512743530273435,0.373495458984375,3.954198473282443,11.16030534351145,29.389312977099237,0.0
13.410000324249268,-7.491456994628906,2.013523596191406,1.2401964599609374,-33.969465648854964,-31.053435114503817,8.793893129770993,-5.987898352050781,-0.09337386474609374,0.15562310791015624,6.3816793893129775,18.366412213740457,32.213740458015266,0.0
13.420000314712524,-4.774038110351563,0.9121908325195311,-2.8467057739257813,-15.32824427480916,-5.847328244274809,28.259541984732824,-5.092466931152344,1.1635820068359375,-0.9121908325195311,-5.312977099236641,27.450381679389313,36.274809160305345,0.0
13.430000305175781,-4.309562988281249,2.427720483398437,-3.9432501342773434,8.381679389312977,30.82442748091603,45.19083969465649,-6.7037646484375,2.9544448486328125,-1.89620771484375,-20.702290076335878,35.282442748091604,39.80152671755725,0.0
13.440000772476196,-9.160215551757812,3.0119056884765625,2.252943762207031,-25.801526717557252,40.80916030534351,43.00763358778626,-9.402029919433593,0.7876923461914062,-1.0223241088867188,-42.58015267175573,45.51145038167939,45.32824427480916,0.0
13.450000524520874,-13.627795849609374,-0.9600748657226562,7.498639599609374,-19.053435114503817,45.63358778625954,53.66412213740458,-11.959037292480469,-3.9935283691406247,0.143652099609375,-40.10687022900763,45.89312977099237,48.916030534351144,0.0
13.46000075340271,-20.824766040039062,0.6536170532226562,12.610260144042968,39.81679389312977,58.274809160305345,79.45038167938931,-12.035651745605469,-2.578555187988281,-0.9002198242187499,-34.900763358778626,37.17557251908397,43.770992366412216,0.0
13.470000267028809,-22.907721484375,-0.5698199951171875,16.881515905761717,49.49618320610687,36.79389312977099,83.6793893129771,-14.58787071533203,-4.034229797363281,0.10773907470703124,-38.01526717557252,33.9236641221374,41.14503816793893,0.0
13.480000495910645,-23.39135021972656,-0.4285620971679687,16.850391284179686,18.47328244274809,-17.31297709923664,60.091603053435115,-16.18480322265625,-6.349422802734375,1.5682020874023437,-38.10687022900763,22.702290076335878,34.717557251908396,0.0
13.490000486373901,-21.21980931396484,-0.1867477294921875,10.364498986816406,31.19083969465649,-47.55725190839695,44.274809160305345,-17.54231556396484,-7.771578588867187,2.5617957763671875,-33.908396946564885,11.98473282442748,23.297709923664122,0.0
13.500000476837158,-22.890962072753904,10.524910498046875,6.330269189453125,-4.763358778625954,-86.59541984732824,24.99236641221374,-18.2725470703125,-6.4834980957031245,3.057395520019531,-9.099236641221374,-4.290076335877862,14.854961832061068,0.0
13.510000705718994,-17.975666064453122,18.89264530029297,-2.4564509033203126,-64.3206106870229,-110.61068702290076,31.709923664122137,-17.305289599609374,-3.0071172851562498,0.04548983154296875,-1.6030534351145038,-17.84732824427481,10.091603053435115,0.0
13.520000696182251,-9.773131176757811,15.078682055664062,-9.785102185058593,-121.55725190839695,-113.37404580152672,50.38167938931298,-17.987637072753905,-2.4564509033203126,0.062249243164062495,-2.4427480916030535,-15.740458015267176,8.091603053435115,0.0
13.530000925064087,-3.0310593017578125,5.233724829101562,-11.609483850097655,-142.91603053435114,-92.07633587786259,64.22900763358778,-18.310854296875,-3.8666356811523435,1.7214309936523438,14.045801526717558,-21.14503816793893,5.893129770992366,0.0
13.540000677108765,3.1196447631835937,-4.726154077148437,-12.911929553222656,-117.96946564885496,-58.274809160305345,69.34351145038168,-14.81053146972656,0.488417138671875,-0.7781155395507812,29.740458015267176,-32.274809160305345,-5.00763358778626,0.0
13.55000114440918,6.054935998535156,-9.65342109375,-12.287042919921875,-68.35114503816794,-13.587786259541986,61.20610687022901,-14.410699792480468,1.3670891479492187,-4.015076184082031,47.725190839694655,-33.81679389312977,-12.183206106870228,0.0
13.560000658035278,2.607285607910156,-8.051700183105469,-7.302315063476562,-17.251908396946565,36.778625954198475,42.18320610687023,-9.847351428222655,5.801150622558594,-2.243366955566406,24.442748091603054,-28.702290076335878,-15.572519083969466,0.0
13.570000886917114,-6.375759020996093,-2.059013427734375,-1.8315642700195311,-14.702290076335878,58.13740458015267,21.068702290076335,-9.476250170898437,6.773196496582031,-3.284844677734375,9.007633587786259,-22.3206106870229,-14.564885496183207,0.0
13.580000877380371,-9.375693701171874,-2.6001030029296874,-2.1787235107421874,1.450381679389313,70.61068702290076,18.045801526717558,-10.488997473144531,5.011064074707031,-3.7708676147460936,5.847328244274809,-19.923664122137403,-9.145038167938932,0.0
13.590000629425049,-14.923058947753905,-0.5243301635742187,-0.6272808349609375,7.4961832061068705,84.68702290076335,4.213740458015267,-11.726799731445311,3.3159692993164063,-3.816357446289062,5.206106870229007,-16.106870229007633,-7.465648854961832,0.0
13.600000619888306,-17.64526623535156,-0.5913678100585937,0.8116343627929687,-0.8702290076335878,78.76335877862596,-8.106870229007633,-12.952630981445312,2.1739351074218747,-1.4149731811523436,6.763358778625954,-14.274809160305344,-6.931297709923665,0.0
13.610000610351562,-18.70589757080078,0.18914193115234373,3.1100679565429687,9.603053435114504,77.52671755725191,-13.374045801526718,-12.260706701660155,0.9097966308593749,-0.4525041137695312,8.412213740458014,-17.236641221374047,-3.66412213740458,0.0
13.620000839233398,-18.729839587402342,2.2744915771484373,3.873818286132812,1.6793893129770991,64.4885496183206,-19.740458015267176,-22.215797204589844,-15.133748693847656,7.819462622070312,-5.8320610687022905,-38.29007633587786,9.129770992366412,0.0
13.630000591278076,-15.722722302246092,4.046200805664062,2.1691467041015624,-12.473282442748092,45.86259541984733,-23.0381679389313,-12.722787622070312,-2.9041666137695312,8.204929089355469,131.12977099236642,-73.8473282442748,9.068702290076336,0.0
13.640000581741333,-11.403582507324218,4.534617944335937,-0.8379705810546875,-31.984732824427482,34.44274809160305,-20.12213740458015,-8.32463917236328,3.948038537597656,0.74699091796875,129.58778625954199,-80.93129770992367,-15.34351145038168,0.0
13.650000810623169,-9.414000927734374,7.228094812011718,-0.20829554443359374,-53.17557251908397,41.49618320610687,-18.671755725190838,-7.184999182128906,10.414777221679687,-0.3758896606445312,75.14503816793894,-74.25954198473282,-15.98473282442748,0.0
13.660001039505005,-7.144297753906249,6.380547424316406,-1.2952630981445312,-89.54198473282443,33.74045801526717,-15.267175572519085,-9.074024291992187,8.75320126953125,-0.3399766357421875,36.030534351145036,-63.786259541984734,-8.091603053435115,0.0
13.670000553131104,-7.7596075805664055,6.114791040039062,-0.25139117431640623,-112.7175572519084,37.17557251908397,-9.404580152671755,-9.533711010742186,4.975151049804687,0.28969840087890625,-38.70229007633588,-57.05343511450382,2.1068702290076335,0.0
13.68000078201294,-6.217741711425781,1.4173673828125,-0.8116343627929687,-122.47328244274809,34.778625954198475,-2.5801526717557253,-11.123460913085937,1.5179238525390624,1.2282254516601563,-40.3206106870229,-49.37404580152672,5.435114503816794,0.0
13.690000534057617,-5.267243652343749,-2.4253262817382812,-1.1611878051757811,-98.21374045801527,40.38167938931298,0.732824427480916,-9.311050256347656,0.7829039428710937,-0.1149216796875,-31.450381679389313,-46.06106870229008,-2.3053435114503817,0.0
13.700000762939453,-6.8976949829101555,-2.6791116577148437,0.1197100830078125,-68.4885496183206,47.282442748091604,-1.6793893129770991,-8.793902697753905,-0.39264907226562495,-0.040701428222656245,-57.80152671755725,-39.89312977099237,-6.900763358778626,0.0
13.710000276565552,-8.494627490234375,-1.7788918334960937,1.47482822265625,-41.725190839694655,53.083969465648856,-5.465648854961832,-9.10993731689453,-1.4532804077148436,-1.218648645019531,-55.725190839694655,-42.38167938931298,-9.282442748091603,0.0
13.720000505447388,-7.7596075805664055,-2.8658593872070313,1.37906015625,-6.625954198473282,59.89312977099237,-7.66412213740458,-10.606313354492187,-3.902548706054687,0.6775590698242188,-25.389312977099237,-37.66412213740458,-11.526717557251908,0.0
13.730000257492065,-10.670956799316405,-1.936909143066406,2.8945898071289062,1.7251908396946565,53.465648854961835,-13.083969465648854,-10.742782849121093,-4.299986181640625,1.7621324218749999,9.236641221374045,-53.725190839694655,-15.664122137404581,0.0
13.740000486373901,-9.809044201660155,-3.0023288818359375,2.85388837890625,37.725190839694655,58.29007633587786,-13.48091603053435,-7.431601953125,-2.932897033691406,0.7733271362304687,19.557251908396946,-61.12977099236641,-22.748091603053435,0.0
13.750000476837158,-10.05564697265625,-1.16837041015625,3.2609026611328122,53.9236641221374,58.50381679389313,-19.66412213740458,-7.417236743164062,-2.114080065917969,0.8858546142578124,34.82442748091603,-53.87786259541985,-24.83969465648855,0.0
13.760000705718994,-10.903194360351561,1.1540052001953125,3.7612908081054686,58.030534351145036,54.18320610687023,-24.412213740458014,-9.018957653808593,-3.0142998901367184,0.8690952026367187,50.19847328244275,-58.25954198473283,-24.290076335877863,0.0
13.770000696182251,-10.060435375976562,2.051830822753906,3.651157531738281,55.89312977099237,49.19083969465649,-23.17557251908397,-5.884947680664062,2.607285607910156,0.033518823242187495,53.908396946564885,-52.94656488549618,-29.328244274809162,0.0
13.780000686645508,-10.158597644042969,4.101267443847656,4.285620971679688,48.458015267175576,44.50381679389313,-23.0381679389313,-8.303091357421874,-1.3263877197265623,0.5626373901367188,39.16030534351145,-41.23664122137404,-23.16030534351145,0.0
13.790000915527344,-9.79946739501953,4.352658618164062,4.043806604003906,34.51908396946565,33.57251908396947,-20.870229007633586,-6.406883642578125,1.6448165405273436,-0.689530078125,58.213740458015266,-40.961832061068705,-27.49618320610687,0.0
13.800000667572021,-9.792284790039062,5.178658190917968,3.833116857910156,25.64885496183206,27.00763358778626,-16.48854961832061,-5.372588525390625,2.501940734863281,-0.6560112548828124,36.778625954198475,-29.6793893129771,-27.17557251908397,0.0
13.810000896453857,-8.731653454589843,5.145139367675781,2.770091320800781,14.305343511450381,16.900763358778626,-10.0,-6.169857678222656,2.6910826660156246,-0.5578489868164063,24.671755725190838,-19.954198473282442,-21.786259541984734,0.0
13.820000410079956,-8.602366564941406,4.4005426513671875,2.0254946044921875,6.580152671755725,11.465648854961833,-3.801526717557252,-8.461108666992187,-0.5985504150390625,0.7254431030273437,25.6793893129771,-11.786259541984732,-16.16793893129771,0.0
13.830000638961792,-9.411606726074218,4.218583325195312,2.195482922363281,-4.091603053435114,6.229007633587786,-0.6106870229007634,-6.643909606933593,-0.033518823242187495,1.0223241088867188,29.938931297709924,-11.389312977099237,-16.3206106870229,0.0
13.840000867843628,-8.092401611328125,0.82360537109375,1.6448165405273436,5.251908396946565,8.50381679389313,4.656488549618321,-8.47786807861328,-1.608903515625,1.419761584472656,43.038167938931295,-9.801526717557252,-12.748091603053435,0.0
13.850000858306885,-8.257601525878906,0.9361328491210937,1.8219874633789062,12.183206106870228,10.931297709923664,4.320610687022901,-7.46272657470703,-0.18435352783203124,1.139639990234375,48.70229007633588,-11.893129770992367,-13.251908396946565,0.0
13.860000610351562,-8.700528833007812,0.8571241943359375,1.1061211669921875,3.5267175572519083,7.938931297709924,1.1297709923664123,-8.91840118408203,-0.11013327636718749,1.1563994018554686,53.725190839694655,-12.244274809160306,-11.053435114503817,0.0
13.87000060081482,-9.014169250488282,1.2378022583007813,1.2808978881835937,2.7786259541984735,9.48091603053435,-1.2213740458015268,-8.420407238769531,1.180341418457031,0.9696516723632812,45.80152671755725,-12.076335877862595,-11.038167938931299,0.0
13.880000591278076,-9.706093530273437,1.7094599853515624,2.166752502441406,0.5038167938931297,12.259541984732824,-5.6183206106870225,-9.191340173339842,1.6065093139648436,0.8092401611328125,40.44274809160305,-10.442748091603054,-10.702290076335878,0.0
13.890000581741333,-10.378864196777343,2.501940734863281,3.1794998046874996,3.8931297709923665,14.381679389312977,-7.648854961832061,-8.74601866455078,2.023100402832031,1.1372457885742187,25.053435114503817,-9.206106870229007,-10.80916030534351,0.0
13.90000057220459,-9.361328491210937,1.5227122558593749,2.8275521606445313,1.4351145038167938,8.488549618320612,-5.648854961832061,-9.251195214843749,1.5897499023437498,0.7158662963867187,17.129770992366414,-8.061068702290076,-10.351145038167939,0.0
13.910000562667847,-9.303867651367186,2.233790148925781,2.887407202148437,12.51908396946565,11.709923664122137,-6.351145038167939,-8.499415893554687,1.458068811035156,0.38307226562499996,3.5419847328244276,-6.259541984732825,-10.16793893129771,0.0
13.920000791549683,-8.33182177734375,1.3048399047851562,1.867477294921875,9.83206106870229,6.198473282442748,-6.3816793893129775,-9.153032946777342,0.5793968017578125,0.4572925170898437,-0.12213740458015267,-3.282442748091603,-9.251908396946565,0.0
13.93000054359436,-8.444349255371094,1.369483349609375,1.149216796875,12.580152671755725,6.412213740458015,-7.7251908396946565,-8.626308581542968,0.5386953735351562,0.718260498046875,-4.564885496183206,-1.1755725190839694,-8.992366412213741,0.0
13.940000534057617,-8.712499841308594,1.5586252807617187,1.3718775512695311,15.511450381679388,7.343511450381679,-8.396946564885496,-8.690952026367187,-0.011971008300781249,1.0510545288085937,-3.8473282442748094,1.4198473282442747,-8.885496183206106,0.0
13.950000524520874,-9.160215551757812,1.7836802368164062,2.0087351928710935,17.328244274809162,6.961832061068702,-7.908396946564886,-8.434772448730468,-0.49799394531249996,1.0726023437499999,-2.3053435114503817,2.732824427480916,-8.473282442748092,0.0
13.96000075340271,-9.323021264648437,2.3415292236328122,2.578555187988281,19.221374045801525,7.541984732824427,-6.5038167938931295,-8.377311608886718,-0.7924807495117187,1.0821791503906248,1.465648854961832,4.152671755725191,-7.938931297709924,0.0
13.970000743865967,-9.586383447265625,3.0023288818359375,2.9544448486328125,18.48854961832061,6.6106870229007635,-4.961832061068702,-8.176198669433592,-0.5458779785156249,0.7852981445312499,5.236641221374046,4.977099236641221,-7.297709923664122,0.0
13.980000495910645,-8.74601866455078,2.4971523315429685,3.0526071166992184,14.351145038167939,4.0,-4.732824427480916,-8.295908752441406,-0.5003881469726562,0.8116343627929687,9.557251908396946,6.0,-6.3816793893129775,0.0
13.990000486373901,-8.25520732421875,1.714248388671875,3.5697546752929687,9.221374045801527,0.9465648854961832,-7.709923664122138,-8.341398583984375,-0.201112939453125,0.8810662109374999,12.412213740458014,7.114503816793893,-6.0,0.0
14.000000715255737,-7.556100439453124,1.0462661254882812,4.13718046875,9.877862595419847,-2.0763358778625953,-11.068702290076336,-8.257601525878906,-0.3184288208007812,1.1444283935546875,14.396946564885496,8.076335877862595,-5.786259541984733,0.0
14.010000705718994,-7.685387329101562,0.9528922607421875,4.874594580078124,12.442748091603054,-6.717557251908397,-14.290076335877863,-8.269572534179687,-0.21308394775390624,1.5705962890624998,16.38167938931298,8.213740458015268,-5.541984732824427,0.0
14.020000696182251,-7.407659936523437,0.469263525390625,5.72693037109375,18.778625954198475,-11.145038167938932,-15.16030534351145,-7.785943798828124,-0.0430956298828125,1.6998831787109374,15.98473282442748,7.557251908396947,-5.221374045801527,0.0
14.030001163482666,-8.571241943359375,1.7932570434570312,6.940790612792968,19.16030534351145,-18.748091603053435,-16.83969465648855,-6.093243225097656,0.7110778930664062,2.1906945190429687,3.2213740458015265,11.893129770992367,-6.519083969465649,0.0
14.040000677108765,-9.641450085449218,4.99909306640625,7.807491613769531,8.870229007633588,-31.740458015267176,-16.106870229007633,-8.307879760742187,-1.7429788085937499,2.942473840332031,2.045801526717557,11.34351145038168,-3.5114503816793894,0.0
14.05000114440918,-10.71884083251953,6.306327172851562,7.841010437011718,-5.404580152671755,-47.55725190839695,-10.381679389312977,-7.125144140624999,-1.3072341064453123,3.1747114013671873,2.931297709923664,7.8320610687022905,-5.740458015267175,0.0
14.060000658035278,-10.13226142578125,4.165910888671875,7.031770275878906,-21.297709923664122,-64.07633587786259,-4.244274809160306,-8.020575561523437,-2.6048914062499997,3.806780639648437,7.343511450381679,6.259541984732825,-4.748091603053435,0.0
14.070000886917114,-10.402806213378906,3.6559459350585937,7.105990527343749,-37.66412213740458,-75.69465648854961,-6.67175572519084,-6.414066247558593,0.0718260498046875,3.708618371582031,10.412213740458014,-0.1984732824427481,-9.435114503816793,0.0
14.080000638961792,-10.180145458984374,1.2425906616210938,5.961562133789062,-56.656488549618324,-92.13740458015268,-10.641221374045802,-7.230489013671875,0.45010991210937495,5.3199160888671875,-4.106870229007634,-4.427480916030534,-10.564885496183207,0.0
14.090000867843628,-11.03248125,0.814028564453125,7.659051110839843,-62.16793893129771,-101.26717557251908,-16.259541984732824,-7.132326745605468,3.3973721557617185,5.3007624755859375,-4.152671755725191,-10.427480916030534,-11.267175572519085,0.0
14.100000619888306,-10.491391674804687,-0.086191259765625,9.804255798339844,-58.99236641221374,-114.07633587786259,-20.671755725190838,-9.476250170898437,2.2074539306640624,6.1650692749023435,-34.091603053435115,-8.366412213740459,-7.236641221374046,0.0
14.110000610351562,-10.886434948730468,0.17238251953125,10.79545528564453,-47.23664122137404,-128.3969465648855,-26.564885496183205,-5.4013189453125,6.069301208496094,1.8267758666992187,-66.85496183206106,12.50381679389313,-13.511450381679388,0.0
14.12000060081482,-11.568782421875,0.3112462158203125,12.006921325683592,-32.36641221374046,-146.8091603053435,-28.12213740458015,-12.464213842773436,-0.2059013427734375,2.920926025390625,-94.79389312977099,16.244274809160306,-12.076335877862595,0.0
14.130000591278076,-12.993332409667968,0.009576806640625,11.944672082519531,-1.5419847328244274,-166.3053435114504,-25.0381679389313,-14.427459204101561,-1.6639701538085936,4.553771557617187,-106.7175572519084,11.267175572519085,-30.38167938931298,0.0
14.140001058578491,-12.457031237792968,-0.8858546142578124,7.639897497558593,16.9618320610687,-180.04580152671755,-20.68702290076336,-18.109741357421875,-7.716511950683593,8.99501563720703,-137.14503816793894,13.587786259541986,-44.38167938931298,0.0
14.15000057220459,-13.302184423828125,-0.4836287353515625,3.7110125732421873,0.6717557251908397,-191.96946564885496,-30.946564885496183,-19.742586889648436,-10.47702646484375,7.771578588867187,-108.82442748091603,8.458015267175572,-57.00763358778626,0.0
14.160000801086426,-14.999673400878905,-0.016759411621093748,4.074931225585937,-0.9770992366412213,-200.53435114503816,-38.19847328244275,-16.218322045898436,-9.409212524414063,2.437297290039062,-105.37404580152672,-38.900763358778626,-39.603053435114504,0.0
14.170000553131104,-15.31570802001953,2.003946789550781,2.310404602050781,6.091603053435114,-199.06870229007635,-33.51145038167939,-10.658985791015624,0.5506663818359374,-2.3487118286132813,-39.38931297709924,-34.97709923664122,-45.770992366412216,0.0
14.18000078201294,-15.375563061523437,2.6408044311523438,-0.13407529296874998,-6.396946564885496,-194.3969465648855,-27.740458015267176,-6.387730029296875,-0.06703764648437499,-3.1962592163085937,-42.030534351145036,-24.99236641221374,-38.030534351145036,0.0
14.190000534057617,-14.733917016601561,0.6655880615234374,-0.37828386230468747,-8.885496183206106,-182.06106870229007,-20.3206106870229,-2.0566192260742184,0.6464344482421874,-6.4739212890625,-42.13740458015267,-22.061068702290076,-29.908396946564885,0.0
14.200000762939453,-13.92467685546875,0.46686932373046874,-0.49320554199218747,-2.7786259541984735,-161.6946564885496,-12.473282442748092,-4.094084838867187,-1.2737152832031249,-4.723759875488281,-38.961832061068705,-8.946564885496183,-20.732824427480917,0.0
14.21000051498413,-11.666944689941406,-0.4740519287109375,-0.1292868896484375,-3.801526717557252,-144.68702290076337,-7.206106870229007,-7.184999182128906,-2.5570073730468748,-2.89219560546875,-29.236641221374047,4.320610687022901,-11.633587786259541,0.0
14.220000505447388,-11.113884106445312,-2.1116858642578125,-0.584185205078125,-1.465648854961832,-125.34351145038168,-6.870229007633588,-10.996568225097656,-4.352658618164062,-2.5354595581054684,-5.297709923664122,16.85496183206107,-0.42748091603053434,0.0
14.230000495910645,-9.835380419921874,-4.390965844726562,1.4891934326171874,19.419847328244273,-107.12977099236642,-3.6030534351145036,-11.75313594970703,-4.091690637207031,-2.5665841796874997,21.435114503816795,21.31297709923664,4.1679389312977095,0.0
14.240000486373901,-9.145850341796875,-2.7724855224609373,2.138022082519531,55.343511450381676,-80.99236641221374,0.16793893129770993,-14.633360546874998,-4.948814831542968,-0.565031591796875,39.908396946564885,31.633587786259543,8.992366412213741,0.0
14.250000476837158,-7.721300354003906,-0.8188169677734375,1.388636962890625,63.221374045801525,-66.42748091603053,0.9618320610687023,-12.876016528320312,-4.237736938476562,-1.8818425048828125,45.48091603053435,32.0,9.694656488549619,0.0
14.260000705718994,-7.297526660156249,1.4939818359375,1.5346832641601562,58.88549618320611,-52.2442748091603,1.633587786259542,-11.118672509765624,-1.4341267944335936,-2.1811177124023438,47.69465648854962,35.69465648854962,10.51908396946565,0.0
14.270000696182251,-4.704606262207031,0.7924807495117187,0.5530605834960938,44.01526717557252,-41.63358778625954,2.564885496183206,-9.945513696289062,0.16280571289062498,-1.3072341064453123,32.396946564885496,47.29770992366412,14.717557251908397,0.0
14.280000448226929,-5.286397265624999,1.7022773803710936,1.3000515014648437,25.374045801526716,-28.106870229007633,1.8473282442748091,-11.336544860839844,-3.019088293457031,-1.0390835205078124,31.938931297709924,48.778625954198475,20.977099236641223,0.0
14.290000915527344,-3.31357509765625,-0.9935936889648437,-0.36631285400390623,7.038167938931298,-22.580152671755727,3.3893129770992365,-11.133037719726563,-4.278438366699218,1.39821376953125,46.19847328244275,44.30534351145038,22.53435114503817,0.0
14.300000667572021,-5.121197351074218,0.9648632690429687,0.20350714111328125,-3.145038167938931,-2.5343511450381677,-2.564885496183206,-9.361328491210937,-2.9855694702148434,0.20829554443359374,52.458015267175576,39.38931297709924,17.66412213740458,0.0
14.310001134872437,-4.620809204101562,1.177947216796875,-0.28730419921875,-17.49618320610687,5.816793893129771,-5.801526717557252,-9.605537060546874,-2.099714855957031,-0.70868369140625,53.32824427480916,35.587786259541986,16.458015267175572,0.0
14.320000648498535,-4.103661645507812,2.0159177978515626,-0.8882488159179687,-30.091603053435115,17.297709923664122,-6.1679389312977095,-8.767566479492187,0.26336218261718747,-0.033518823242187495,43.06870229007634,39.3587786259542,14.580152671755725,0.0
14.330000638961792,-2.319981408691406,0.8044517578125,-1.6998831787109374,-34.732824427480914,29.69465648854962,-2.900763358778626,-9.526528405761718,0.055066638183593745,-0.258573779296875,37.06870229007634,41.48091603053435,16.763358778625953,0.0
14.340000629425049,-1.177947216796875,0.32561142578124996,-2.3056161987304686,-30.366412213740457,43.603053435114504,0.7633587786259542,-8.91840118408203,-0.6943184814453125,0.062249243164062495,29.51145038167939,44.3206106870229,18.50381679389313,0.0
14.350000619888306,0.622492431640625,-2.8036101440429686,-3.536235852050781,-16.061068702290076,60.900763358778626,5.358778625954199,-9.907206469726562,-2.501940734863281,1.5658078857421873,27.52671755725191,45.725190839694655,22.50381679389313,0.0
14.360000371932983,0.6655880615234374,-3.189076611328125,-4.204218115234375,10.67175572519084,93.02290076335878,0.6412213740458015,-8.63109698486328,-1.7214309936523438,2.4013842651367185,29.16030534351145,45.69465648854962,21.984732824427482,0.0
14.37000060081482,0.8738836059570312,-4.584896179199219,-4.656722229003906,9.221374045801527,109.52671755725191,-8.473282442748092,-8.106766821289062,-0.8020575561523438,2.731784094238281,24.595419847328245,43.81679389312977,21.72519083969466,0.0
14.380000591278076,-0.8475473876953125,-5.1331683593749995,-2.166752502441406,11.618320610687023,131.84732824427482,-20.625954198473284,-7.438784558105469,0.6536170532226562,2.674323254394531,16.412213740458014,42.58015267175573,20.198473282442748,0.0
14.390000581741333,-2.4061726684570313,-4.939238024902344,0.5961562133789062,6.305343511450381,145.2824427480916,-33.3587786259542,-7.941566906738281,-0.02633621826171875,3.6152445068359373,-7.343511450381679,45.969465648854964,21.221374045801525,0.0
14.40000057220459,-3.8953661010742184,-3.4931402221679684,2.882618798828125,13.282442748091603,154.93129770992365,-39.81679389312977,-7.448361364746093,1.2401964599609374,3.9145197143554684,-24.83969465648855,45.52671755725191,23.221374045801525,0.0
14.410000562667847,-5.312733483886719,-2.023100402832031,4.764461303710937,35.49618320610687,160.8854961832061,-37.20610687022901,-9.0021982421875,-2.446874096679687,3.9528269409179684,-35.17557251908397,39.98473282442748,29.480916030534353,0.0
14.420000791549683,-7.091625317382812,-0.4836287353515625,8.56166513671875,91.74045801526718,172.53435114503816,-23.0381679389313,-8.769960681152343,-3.306392492675781,3.6343981201171873,-23.206106870229007,28.53435114503817,26.30534351145038,0.0
14.43000054359436,-9.222464794921875,3.373430139160156,11.61906065673828,141.34351145038167,171.16030534351145,-4.427480916030534,-8.480262280273436,-3.3446997192382812,2.403778466796875,-24.702290076335878,20.0,21.587786259541986,0.0
14.440000534057617,-11.978190905761718,10.108319409179687,12.569558715820312,129.25190839694656,158.41221374045801,4.015267175572519,-8.044517578125,-1.4173673828125,1.6543933471679686,-21.389312977099237,14.13740458015267,18.015267175572518,0.0
14.450000524520874,-12.119448803710936,7.417236743164062,11.698069311523437,87.66412213740458,139.17557251908397,8.01526717557252,-8.030152368164062,-1.8076222534179687,0.7972691528320313,-18.83969465648855,15.740458015267176,16.580152671755727,0.0
14.46000075340271,-14.324508532714843,10.108319409179687,14.573505505371093,18.47328244274809,95.92366412213741,-4.534351145038168,-7.809885815429687,-1.0869675537109373,-0.08858546142578125,-20.977099236641223,18.38167938931298,16.18320610687023,0.0
14.470000505447388,-14.860809704589842,8.0828248046875,15.71793389892578,-51.74045801526717,50.30534351145038,-4.564885496183206,-8.796296899414061,-1.177947216796875,-0.32082302246093747,-24.366412213740457,23.450381679389313,20.198473282442748,0.0
14.480000495910645,-14.899116931152342,5.269637854003906,13.558364001464843,-89.45038167938931,10.549618320610687,1.2213740458015268,-9.342174877929686,-1.9512743530273435,-0.15322890625,-18.045801526717558,26.18320610687023,23.236641221374047,0.0
14.490000486373901,-9.813832604980469,-2.5641899780273434,7.067683300781249,-68.30534351145039,-8.259541984732824,16.366412213740457,-9.485826977539062,-3.277662072753906,1.66636435546875,-20.564885496183205,27.69465648854962,25.984732824427482,0.0
14.500000715255737,-9.176974963378905,-3.6846763549804686,7.146691955566406,-14.83969465648855,-0.6106870229007634,23.129770992366414,-8.688557824707031,-2.114080065917969,0.7493851196289062,-10.961832061068701,29.633587786259543,26.35114503816794,0.0
14.510000705718994,-6.222530114746093,-5.887341882324218,4.103661645507812,36.030534351145036,7.190839694656488,28.061068702290076,-7.249642626953125,-1.2234370483398436,1.6304513305664061,-22.076335877862597,33.25190839694657,31.52671755725191,0.0
14.520000696182251,-9.011775048828124,0.8978256225585937,4.8889597900390624,41.404580152671755,8.396946564885496,23.64885496183206,-7.053318090820312,-0.17238251953125,0.63206923828125,-22.03053435114504,38.6412213740458,37.038167938931295,0.0
14.530001163482666,-7.587225061035156,0.4572925170898437,1.4508862060546874,52.56488549618321,15.083969465648854,39.80152671755725,-7.9272016967773435,-1.7741034301757812,0.7493851196289062,-28.778625954198475,45.64885496183206,45.221374045801525,0.0
14.540000677108765,-8.671798413085938,-0.17238251953125,2.923320227050781,66.65648854961832,29.801526717557252,53.70992366412214,-8.798691101074219,-3.3159692993164063,-0.967257470703125,-8.732824427480915,39.23664122137404,48.67175572519084,0.0
14.5500009059906,-10.022128149414062,-3.4931402221679684,5.719747766113281,88.25954198473282,40.70229007633588,67.80152671755725,-11.501744775390625,-5.626373901367187,-0.5458779785156249,1.7404580152671756,34.10687022900763,49.05343511450382,0.0
14.560000658035278,-17.55189237060547,1.8195932617187498,11.314997045898437,123.57251908396947,50.091603053435115,80.73282442748092,-10.441113439941406,-2.042254016113281,-2.5330653564453125,19.358778625954198,24.748091603053435,39.81679389312977,0.0
14.570000886917114,-21.116858642578123,2.2768857788085937,15.291766003417967,132.3053435114504,30.290076335877863,87.09923664122137,-12.662932580566405,-3.871424084472656,-0.009576806640625,6.015267175572519,21.66412213740458,34.12213740458015,0.0
14.580000638961792,-23.30276475830078,1.2761094848632812,18.595764294433593,118.76335877862596,-5.236641221374046,69.22137404580153,-15.535974572753906,-5.444414575195312,-0.737414111328125,-1.3740458015267176,20.549618320610687,26.53435114503817,0.0
14.590000629425049,-18.29648908691406,-1.3168109130859373,9.706093530273437,74.06106870229007,-54.2442748091603,37.541984732824424,-16.05791053466797,-5.039794494628906,1.5035586425781249,-3.0076335877862594,15.465648854961833,14.610687022900763,0.0
14.600000619888306,-15.380351464843748,0.07422025146484375,-0.7302315063476562,48.51908396946565,-75.57251908396947,6.595419847328245,-15.413870288085937,-4.173093493652344,1.388636962890625,2.33587786259542,2.7786259541984735,8.061068702290076,0.0
14.610000848770142,-14.290989709472655,13.836091394042969,-7.072471704101562,-2.1068702290076335,-79.69465648854961,-7.450381679389313,-15.5144267578125,-2.8467057739257813,1.0271125122070313,6.198473282442748,-3.969465648854962,3.6030534351145036,0.0
14.62000036239624,-10.467449658203124,15.792154150390624,-8.736441857910156,-55.19083969465649,-74.6412213740458,11.908396946564885,-16.575058093261717,-2.6288334228515624,0.6296750366210937,18.137404580152673,-19.66412213740458,0.6717557251908397,0.0
14.630000829696655,-6.842628344726562,8.990227233886719,-7.110778930664062,-90.62595419847328,-54.6412213740458,29.022900763358777,-19.09615244140625,-3.19865341796875,0.26815058593749996,37.847328244274806,-29.862595419847327,0.15267175572519084,0.0
14.640000581741333,-2.1619640991210938,0.4429273071289062,-9.842563024902343,-103.61832061068702,-30.977099236641223,35.80152671755725,-15.842432385253906,4.529829541015625,-1.9297265380859374,53.43511450381679,-47.45038167938932,-7.221374045801527,0.0
14.65000057220459,-1.7693150268554687,2.123656872558594,-11.927912670898436,-100.74809160305344,2.2900763358778624,32.25954198473283,-14.252682482910155,6.998251452636718,-2.703053674316406,20.396946564885496,-39.770992366412216,-3.3587786259541983,0.0
14.660000801086426,-3.440467785644531,1.7836802368164062,-9.639055883789062,-104.03053435114504,32.94656488549618,31.328244274809162,-14.068328955078124,5.006275671386718,-3.782838623046875,0.0,-40.35114503816794,3.1755725190839694,0.0
14.670000553131104,-11.365275280761718,5.334281298828125,-3.6248213134765623,-107.1145038167939,57.9236641221374,26.137404580152673,-14.348450549316405,4.278438366699218,-2.882618798828125,-14.961832061068701,-38.412213740458014,1.251908396946565,0.0
14.680001020431519,-12.497732666015624,1.9129671264648436,-2.0278888061523435,-117.32824427480917,64.87022900763358,27.480916030534353,-14.678850378417968,2.987963671875,-2.001552587890625,-34.0,-37.11450381679389,-2.0916030534351147,0.0
14.690000534057617,-13.836091394042969,-1.7717092285156248,0.35673604736328124,-106.29007633587786,74.61068702290076,24.366412213740457,-12.677297790527343,2.7461493041992187,-0.258573779296875,-38.94656488549618,-30.519083969465647,-4.366412213740458,0.0
14.700000762939453,-13.76426534423828,-4.460397692871093,1.0462661254882812,-86.47328244274809,74.27480916030534,13.908396946564885,-12.38520518798828,0.8882488159179687,0.51714755859375,-37.770992366412216,-28.015267175572518,-0.8854961832061069,0.0
14.71000051498413,-14.674061975097656,-2.3965958618164063,2.2002713256835937,-67.37404580152672,71.54198473282443,1.465648854961832,-10.532093103027343,-0.5770026000976562,1.5658078857421873,-22.16793893129771,-36.19847328244275,-1.7251908396946565,0.0
14.720000505447388,-13.127407702636718,-2.099714855957031,1.6519991455078125,-63.51145038167939,57.66412213740458,-5.648854961832061,-11.40837091064453,-1.5322890624999999,3.404554760742187,-2.8244274809160306,-43.725190839694655,-3.816793893129771,0.0
14.730000734329224,-11.391611499023437,-1.5083470458984374,2.212242333984375,-55.37404580152672,54.595419847328245,-9.969465648854962,-7.790732202148437,2.7581203125,1.6065093139648436,-6.152671755725191,-55.969465648854964,-12.83969465648855,0.0
14.740000486373901,-9.452308154296874,-1.3838485595703125,1.2378022583007813,-57.80152671755725,45.89312977099237,-12.80916030534351,-10.28549033203125,1.197100830078125,1.9632453613281249,-17.49618320610687,-47.083969465648856,-8.122137404580153,0.0
14.750000715255737,-8.578424548339843,0.4477157104492187,0.5578489868164063,-52.58015267175573,48.94656488549618,-15.312977099236642,-7.8553756469726554,4.043806604003906,0.4525041137695312,-29.022900763358777,-57.12977099236641,-11.49618320610687,0.0
14.760000705718994,-8.013392956542969,1.68551796875,-0.4836287353515625,-51.786259541984734,51.969465648854964,-16.702290076335878,-9.648632690429688,1.3910311645507811,1.0558429321289062,-44.44274809160305,-45.541984732824424,-6.122137404580153,0.0
14.77000117301941,-8.588001354980468,2.2601263671875,0.21308394775390624,-63.969465648854964,50.152671755725194,-17.236641221374047,-10.9941740234375,0.0047884033203125,1.5155296508789062,-36.10687022900763,-55.038167938931295,-6.549618320610687,0.0
14.780000448226929,-7.934384301757812,0.7805097412109374,0.7637503295898437,-57.954198473282446,51.63358778625954,-13.694656488549619,-8.647856396484375,-0.033518823242187495,1.5179238525390624,-52.58015267175573,-55.48091603053435,-11.648854961832061,0.0
14.790000915527344,-6.890512377929687,-1.2761094848632812,1.1252747802734375,-46.93129770992366,52.51908396946565,-10.396946564885496,-8.865728747558594,-1.879448303222656,1.388636962890625,-44.61068702290076,-52.2442748091603,-13.16030534351145,0.0
