timestamp,Thigh_L_Acc_X,Thigh_L_Acc_Y,Thigh_L_Acc_Z,Thigh_L_Gyr_X,Thigh_L_Gyr_Y,Thigh_L_Gyr_Z,Thigh_R_Acc_X,Thigh_R_Acc_Y,Thigh_R_Acc_Z,Thigh_R_Gyr_X,Thigh_R_Gyr_Y,Thigh_R_Gyr_Z,gpio_output
10.000000476837158,-9.552864624023437,3.227383837890625,0.14604630126953125,52.229007633587784,-8.900763358778626,2.8244274809160306,-11.650185278320311,0.9361328491210937,-0.679953271484375,35.49618320610687,47.404580152671755,4.641221374045801,0.0
10.010000944137573,-9.397241516113281,4.613626599121093,-1.3934253662109375,37.64885496183206,-5.175572519083969,6.961832061068702,-12.246341491699217,0.47884033203125,-0.1005564697265625,26.732824427480917,55.25190839694657,7.877862595419847,1.0
10.020000696182251,-9.004592443847656,4.082113830566406,-1.8435352783203125,18.458015267175572,-1.7251908396946565,9.206106870229007,-13.050793249511718,-0.603338818359375,0.8978256225585937,34.778625954198475,56.80916030534351,10.549618320610687,1.0
10.030000925064087,-8.252813122558594,2.461239306640625,-2.133233679199219,3.282442748091603,3.786259541984733,8.106870229007633,-12.46181964111328,0.9265560424804687,1.0223241088867188,40.091603053435115,52.274809160305345,8.061068702290076,1.0
10.040000438690186,-7.584830859375,1.3407529296874998,-1.70467158203125,-10.091603053435115,11.511450381679388,5.877862595419847,-10.9175595703125,3.21780703125,0.6344634399414062,25.374045801526716,49.83206106870229,4.290076335877862,1.0
10.050000667572021,-7.788338000488281,1.3575123413085937,-0.93852705078125,-22.16793893129771,15.679389312977099,4.305343511450381,-10.27830772705078,3.6104561035156246,1.2904746948242187,9.755725190839694,53.7557251908397,8.076335877862595,1.0
10.060000658035278,-7.769184387207031,0.29927520751953124,-0.48123453369140623,-25.31297709923664,19.358778625954198,5.038167938931298,-10.673351000976561,2.01112939453125,1.4915876342773438,11.267175572519085,49.41984732824427,15.435114503816793,1.0
10.070000648498535,-8.2743609375,1.0606313354492187,0.00718260498046875,-25.52671755725191,22.9618320610687,4.2748091603053435,-10.828974108886719,1.6831237670898436,2.9568390502929685,17.923664122137403,43.7557251908397,19.389312977099237,1.0
10.080000400543213,-7.773972790527344,0.4908113403320312,-0.0047884033203125,-22.27480916030534,27.52671755725191,6.213740458015267,-9.03332286376953,3.347093920898437,1.917755529785156,8.870229007633588,34.76335877862596,17.61832061068702,1.0
10.090000629425049,-8.66940421142578,0.8403647827148437,0.5291185668945312,-20.82442748091603,31.541984732824428,7.206106870229007,-9.682151513671874,3.086125939941406,1.9991583862304687,2.4427480916030535,30.641221374045802,21.267175572519083,1.0
10.100000619888306,-8.109161022949218,-1.2928688964843749,0.5003881469726562,-5.038167938931298,42.19847328244275,7.66412213740458,-9.95987890625,2.2457611572265623,2.9448680419921875,-6.412213740458015,31.16030534351145,26.83969465648855,1.0
10.110000371932983,-8.683769421386717,-0.469263525390625,0.30885201416015623,0.6259541984732825,42.534351145038165,5.083969465648855,-9.732429748535155,2.080561242675781,2.3535002319335936,-5.603053435114504,23.69465648854962,27.84732824427481,1.0
10.12000036239624,-9.677363110351562,0.6009446166992187,0.3136404174804687,-4.198473282442748,42.06106870229008,2.2442748091603053,-10.09395419921875,1.7429788085937499,2.480392919921875,-12.381679389312977,20.442748091603054,29.81679389312977,1.0
10.130000591278076,-9.694122521972655,1.3958195678710936,0.9816226806640624,-14.244274809160306,41.404580152671755,1.5877862595419847,-9.804255798339844,1.668758557128906,2.4875755249023435,-18.137404580152673,15.86259541984733,29.587786259541986,1.0
10.140000820159912,-9.536105212402344,1.2880804931640624,0.7445967163085937,-22.793893129770993,38.18320610687023,2.213740458015267,-10.034099157714843,1.3192051147460937,2.5354595581054684,-23.52671755725191,11.49618320610687,29.893129770992367,1.0
10.15000057220459,-10.903194360351561,1.7262193969726563,0.8020575561523438,-32.01526717557252,35.11450381679389,1.6030534351145038,-10.137049829101562,0.8403647827148437,2.6408044311523438,-28.519083969465647,8.320610687022901,29.34351145038168,1.0
10.160000562667847,-9.629479077148437,1.446097802734375,0.8643067993164062,-35.603053435114504,31.709923664122137,2.900763358778626,-10.27830772705078,0.16759411621093748,2.8467057739257813,-31.0381679389313,5.465648854961832,29.587786259541986,1.0
10.170000553131104,-9.351751684570312,0.4572925170898437,0.3902548706054687,-42.30534351145038,25.96946564885496,4.396946564885496,-9.909600671386718,0.7038952880859375,2.142810485839844,-34.2442748091603,1.099236641221374,27.236641221374047,1.0
10.18000054359436,-10.587159741210938,1.7238251953125,1.0438719238281249,-40.595419847328245,25.6793893129771,4.305343511450381,-10.096348400878906,-0.2753331909179687,2.205059729003906,-35.16030534351145,0.5038167938931297,27.068702290076335,1.0
10.190000295639038,-9.988609326171874,0.603338818359375,0.8044517578125,-41.37404580152672,20.641221374045802,6.396946564885496,-9.797073193359374,0.12210428466796874,1.7357962036132812,-34.70229007633588,-2.3053435114503817,25.282442748091604,1.0
10.200000286102295,-9.777919580078125,0.4165910888671875,0.45010991210937495,-32.900763358778626,19.801526717557252,8.381679389312977,-10.062829577636718,-0.622492431640625,1.6424223388671875,-33.45038167938932,-2.900763358778626,24.641221374045802,1.0
10.21000051498413,-9.969455712890625,0.5506663818359374,0.39264907226562495,-27.770992366412212,18.671755725190838,8.641221374045802,-10.062829577636718,-0.8858546142578124,1.7334020019531249,-29.984732824427482,-3.7251908396946565,22.27480916030534,0.0
10.220000505447388,-9.883264453125,0.5315127685546874,0.7230489013671875,-23.358778625954198,16.366412213740457,9.145038167938932,-10.244788903808594,-1.1420341918945311,1.5897499023437498,-24.671755725190838,-5.648854961832061,19.801526717557252,0.0
10.230000495910645,-9.617508068847656,-0.7996633544921875,0.258573779296875,-14.748091603053435,16.076335877862597,9.801526717557252,-10.493785876464843,-2.051830822753906,2.1068974609374997,-16.732824427480917,-6.6106870229007635,17.206106870229007,0.0
10.240000486373901,-9.883264453125,-0.6919242797851562,0.8092401611328125,2.5801526717557253,21.84732824427481,7.114503816793893,-9.605537060546874,-1.908178723144531,2.128445275878906,-6.488549618320611,-11.251908396946565,12.610687022900763,0.0
10.250000715255737,-10.69968721923828,-0.3064578125,1.2114660400390624,15.511450381679388,24.198473282442748,5.022900763358779,-10.742782849121093,-1.0079588989257813,1.9129671264648436,6.351145038167939,-15.465648854961833,8.244274809160306,0.0
10.260000705718994,-10.419565624999999,0.35194764404296874,0.6392518432617187,19.099236641221374,20.519083969465647,4.778625954198473,-9.358934289550781,-0.9097966308593749,1.39821376953125,6.549618320610687,-20.106870229007633,3.2519083969465647,0.0
10.270000696182251,-9.476250170898437,0.737414111328125,0.36391865234375,19.068702290076335,18.99236641221374,5.572519083969466,-9.873687646484374,0.031124621582031248,1.9608511596679685,3.053435114503817,-17.00763358778626,0.22900763358778625,0.0
10.280000686645508,-10.091559997558592,2.583343591308594,0.8116343627929687,7.709923664122138,14.290076335877863,4.793893129770993,-9.581595043945311,0.8283937744140625,1.37906015625,-2.33587786259542,-16.015267175572518,-1.6488549618320612,0.0
10.290000677108765,-9.964667309570311,1.7693150268554687,1.0127473022460938,8.854961832061068,16.763358778625953,5.0534351145038165,-10.314220751953124,-0.33039982910156246,1.924938134765625,3.3740458015267176,-13.389312977099237,-1.1145038167938932,0.0
10.300000667572021,-10.139444030761718,2.4133552734375,0.4165910888671875,-1.984732824427481,10.335877862595419,3.5114503816793894,-9.813832604980469,1.2306196533203124,1.5346832641601562,-0.5648854961832062,-14.641221374045802,-5.206106870229007,0.0
10.3100004196167,-9.967061511230469,0.9648632690429687,-0.033518823242187495,-2.8702290076335877,8.427480916030534,5.038167938931298,-10.165780249023436,0.3950432739257812,1.8363526733398436,-2.3969465648854964,-12.473282442748092,-5.648854961832061,0.0
10.320000648498535,-10.390835205078124,0.7541735229492187,-0.21308394775390624,-4.015267175572519,8.244274809160306,3.49618320610687,-11.298237634277344,-1.2665326782226562,3.0430303100585934,9.32824427480916,-11.129770992366412,-4.366412213740458,0.0
10.330000638961792,-10.309432348632813,0.16041151123046873,-0.062249243164062495,-1.083969465648855,7.4961832061068705,2.045801526717557,-10.673351000976561,-0.9265560424804687,2.001552587890625,18.458015267175572,-21.236641221374047,-8.931297709923664,0.0
10.340000629425049,-10.378864196777343,-0.11252747802734374,0.0430956298828125,2.030534351145038,7.419847328244275,1.3587786259541985,-11.540052001953125,-1.7190367919921874,3.0262708984374997,27.52671755725191,-24.80916030534351,-11.038167938931299,0.0
10.350000619888306,-10.105925207519531,-0.009576806640625,0.2609679809570312,6.99236641221374,8.82442748091603,0.5190839694656488,-11.231199987792968,0.37828386230468747,1.5083470458984374,34.82442748091603,-32.62595419847328,-15.923664122137405,0.0
10.360000610351562,-9.852139831542969,0.9097966308593749,0.06943184814453125,10.366412213740459,10.351145038167939,-0.24427480916030533,-10.386046801757812,2.1930887207031247,1.3527239379882812,23.083969465648856,-34.091603053435115,-20.610687022900763,0.0
10.37000060081482,-9.464279162597656,1.5155296508789062,0.09337386474609374,8.580152671755725,11.038167938931299,0.32061068702290074,-9.78031378173828,2.9568390502929685,1.3168109130859373,7.801526717557252,-28.916030534351144,-19.19083969465649,0.0
10.380000829696655,-9.660603698730467,1.7310078002929687,0.033518823242187495,4.656488549618321,9.84732824427481,-0.07633587786259542,-10.053252770996092,1.936909143066406,1.6160861206054686,7.816793893129771,-24.50381679389313,-13.17557251908397,0.0
10.390000343322754,-9.327809667968749,1.158793603515625,-0.4572925170898437,4.809160305343512,8.702290076335878,-0.5648854961832062,-9.8449572265625,1.5921441040039062,1.4173673828125,17.221374045801525,-27.557251908396946,-12.290076335877863,0.0
10.400000810623169,-9.6151138671875,1.2018892333984375,-0.6631938598632812,6.8396946564885495,10.473282442748092,-1.4198473282442747,-10.601524951171875,1.9201497314453124,1.656787548828125,19.297709923664122,-29.541984732824428,-13.679389312977099,0.0
10.410000324249268,-9.074024291992187,1.0366893188476562,-1.0821791503906248,7.908396946564886,12.442748091603054,-0.7022900763358778,-8.870517150878905,3.0502129150390624,-0.05027823486328125,0.4580152671755725,-29.17557251908397,-15.129770992366412,0.0
10.420000553131104,-9.414000927734374,2.023100402832031,-0.7613561279296874,2.8091603053435112,15.16030534351145,-1.0381679389312977,-9.050082275390624,2.906560815429687,1.13006318359375,-15.221374045801527,-18.68702290076336,-10.82442748091603,0.0
10.430000305175781,-9.787496386718749,2.2074539306640624,-0.5770026000976562,-4.625954198473282,14.931297709923664,-1.099236641221374,-9.045293872070312,2.408566870117187,0.8188169677734375,-17.984732824427482,-16.290076335877863,-8.748091603053435,0.0
10.440000534057617,-10.35492218017578,2.4061726684570313,0.016759411621093748,-9.450381679389313,15.282442748091603,-1.633587786259542,-9.5001921875,2.3870190551757813,0.10773907470703124,-16.290076335877863,-17.206106870229007,-7.755725190839694,0.0
10.450000524520874,-9.993397729492187,1.180341418457031,0.19153613281249998,-11.251908396946565,14.381679389312977,-0.7633587786259542,-11.123460913085937,0.6105214233398437,1.4221557861328125,-13.98473282442748,-11.145038167938932,-5.145038167938932,0.0
10.460000276565552,-9.65342109375,-0.076614453125,0.06703764648437499,-6.030534351145038,15.282442748091603,0.015267175572519083,-9.720458740234374,0.7445967163085937,0.5674257934570313,-12.030534351145038,-17.6793893129771,-8.427480916030534,0.0
10.470000743865967,-10.256759912109374,1.608903515625,0.5410895751953124,0.8854961832061069,19.954198473282442,-3.267175572519084,-10.54645831298828,0.7158662963867187,1.608903515625,-6.67175572519084,-15.282442748091603,-8.595419847328245,0.0
10.4800386428833,-10.357316381835936,2.0566192260742184,0.4525041137695312,-9.511450381679388,15.816793893129772,-3.4198473282442747,-9.102754711914063,1.43652099609375,1.3192051147460937,-6.427480916030534,-21.068702290076335,-10.916030534351146,0.0
10.490000247955322,-9.5001921875,1.197100830078125,0.3399766357421875,-11.358778625954198,15.053435114503817,-2.122137404580153,-8.43956085205078,2.0063409912109376,0.8403647827148437,-16.198473282442748,-20.458015267175572,-12.473282442748092,0.0
10.500000476837158,-9.215282189941405,0.4381389038085937,0.43574470214843747,-9.236641221374045,16.610687022900763,-2.5343511450381677,-9.026140258789061,1.2114660400390624,1.0749965454101562,-26.9618320610687,-12.82442748091603,-10.763358778625955,0.0
10.510000705718994,-9.916783276367187,0.8403647827148437,0.5267243652343749,-3.969465648854962,19.81679389312977,-3.8625954198473282,-9.260772021484375,1.1252747802734375,0.15322890625,-23.389312977099237,-14.83969465648855,-10.351145038167939,0.0
10.520000696182251,-9.545682019042967,1.659181750488281,0.8475473876953125,4.732824427480916,23.908396946564885,-4.427480916030534,-9.141061938476563,0.4477157104492187,1.1516109985351561,-26.885496183206108,-8.458015267175572,-10.458015267175572,0.0
10.530000925064087,-8.89924757080078,1.2593500732421874,0.4429273071289062,-0.9007633587786259,19.572519083969464,-2.2595419847328246,-9.725247143554688,-0.35194764404296874,1.2880804931640624,-20.47328244274809,-8.65648854961832,-10.473282442748092,0.0
10.540000438690186,-8.765172277832031,1.0486603271484374,0.38786066894531246,-1.633587786259542,16.82442748091603,-1.4961832061068703,-10.000580334472655,-1.0965443603515623,1.9847931762695312,-12.641221374045802,-9.083969465648854,-10.961832061068701,0.0
10.550000429153442,-9.87608184814453,2.061407629394531,0.5865794067382812,-11.770992366412214,12.488549618320612,-2.0,-8.475473876953124,0.16998831787109375,1.4221557861328125,-8.442748091603054,-15.083969465648854,-15.526717557251908,0.0
10.560000658035278,-10.484209069824217,2.152387292480469,1.197100830078125,-11.206106870229007,14.946564885496183,-1.8778625954198473,-8.8489693359375,-0.14125789794921875,0.9600748657226562,-5.236641221374046,-16.48854961832061,-16.259541984732824,0.0
10.570000648498535,-10.043675964355469,1.6304513305664061,1.426944189453125,-12.335877862595419,11.664122137404581,-1.5572519083969465,-8.238447912597655,-0.6871358764648438,1.675941162109375,-1.9083969465648856,-16.946564885496183,-17.206106870229007,0.0
10.580000638961792,-9.72285294189453,0.373495458984375,0.948103857421875,-12.977099236641221,7.343511450381679,-0.2748091603053435,-9.382876306152344,-0.7062894897460937,1.2761094848632812,10.229007633587786,-22.15267175572519,-17.053435114503817,0.0
10.590000629425049,-9.8449572265625,0.6296750366210937,1.0582371337890624,-6.656488549618321,7.801526717557252,-0.3511450381679389,-9.320627062988281,-0.6703764648437499,1.8267758666992187,14.274809160305344,-23.66412213740458,-17.572519083969464,0.0
10.600000619888306,-9.540893615722656,0.5219359619140624,0.7493851196289062,-3.8931297709923665,7.175572519083969,-0.1984732824427481,-9.4618849609375,0.6057330200195312,2.422932080078125,16.671755725190838,-22.916030534351144,-19.633587786259543,0.0
10.610000371932983,-9.76116016845703,1.1348515869140625,0.8714894042968749,-5.847328244274809,6.641221374045801,-1.083969465648855,-9.179369165039063,1.3623007446289062,2.1930887207031247,8.580152671755725,-20.625954198473284,-20.16793893129771,0.0
10.620000839233398,-9.782707983398437,1.2856862915039062,0.9696516723632812,-7.679389312977099,5.206106870229007,-2.1374045801526718,-8.56166513671875,1.9297265380859374,1.3718775512695311,-5.877862595419847,-16.717557251908396,-19.96946564885496,0.0
10.630000591278076,-9.804255798339844,1.4173673828125,0.8882488159179687,-8.870229007633588,3.83206106870229,-2.4427480916030535,-8.904035974121093,0.7757213378906249,2.1452046874999997,-15.404580152671755,-7.984732824427481,-16.702290076335878,0.0
10.640000820159912,-9.947907897949218,1.3551181396484375,0.612915625,-9.954198473282442,1.0687022900763359,-1.5114503816793894,-8.497021691894531,0.2657563842773437,2.142810485839844,-10.67175572519084,-10.931297709923664,-15.32824427480916,0.0
10.65000057220459,-9.832986218261718,1.0534487304687499,0.373495458984375,-8.13740458015267,0.7633587786259542,-0.6717557251908397,-8.406042028808594,-0.13646949462890623,2.013523596191406,-6.061068702290076,-12.396946564885496,-14.748091603053435,0.0
10.660000801086426,-9.643844287109374,0.8499415893554687,0.3711012573242187,-7.404580152671755,1.6030534351145038,0.030534351145038167,-8.190563879394531,0.47644613037109373,2.5641899780273434,-8.076335877862595,-9.954198473282442,-14.80916030534351,0.0
10.670000553131104,-9.433154541015625,0.8092401611328125,0.4955997436523437,-7.816793893129771,2.381679389312977,-0.13740458015267176,-7.364564306640625,0.5315127685546874,2.319981408691406,-2.0,-13.099236641221374,-16.16793893129771,0.0
10.68000078201294,-9.639055883789062,1.22583125,0.7685387329101562,-9.618320610687023,1.9694656488549618,-1.465648854961832,-8.12113203125,0.19153613281249998,2.2936451904296873,-7.099236641221374,-9.099236641221374,-15.419847328244275,0.0
10.690000534057617,-9.694122521972655,1.2785036865234374,1.0726023437499999,-12.229007633587786,1.7099236641221374,-1.5419847328244274,-8.640673791503906,-0.016759411621093748,2.2361843505859373,-4.793893129770993,-7.7251908396946565,-14.396946564885496,0.0
10.700000524520874,-9.93354268798828,1.3359645263671873,1.3646949462890625,-13.725190839694656,0.1984732824427481,-2.0610687022900764,-8.963891015625,-0.36631285400390623,2.4253262817382812,-2.50381679389313,-6.33587786259542,-12.748091603053435,0.0
10.71000051498413,-9.751583361816406,0.9433154541015625,1.2785036865234374,-13.32824427480916,-1.5267175572519085,-1.4809160305343512,-8.762778076171875,-0.3591302490234375,2.4875755249023435,0.015267175572519083,-6.2748091603053435,-12.412213740458014,0.0
10.720000505447388,-8.568847741699217,-1.407790576171875,0.5626373901367188,-2.6717557251908395,-0.9770992366412213,-0.12213740458015267,-8.741230261230468,-0.8834604125976562,2.233790148925781,2.351145038167939,-5.083969465648855,-12.83969465648855,0.0
10.730000495910645,-7.9104422851562495,-0.5530605834960938,0.8044517578125,8.564885496183207,1.8625954198473282,-3.3587786259541983,-8.760383874511719,-1.1348515869140625,2.094926452636719,6.656488549618321,-3.7404580152671754,-13.404580152671755,0.0
10.740000486373901,-8.319850769042969,0.36631285400390623,1.3479355346679687,8.15267175572519,1.6030534351145038,-5.908396946564886,-8.664615808105468,-1.1276689819335937,2.1547814941406247,9.969465648854962,-3.450381679389313,-15.129770992366412,0.0
10.750000715255737,-9.473855969238281,1.6304513305664061,2.138022082519531,8.076335877862595,2.183206106870229,-7.893129770992366,-8.88009395751953,-1.0390835205078124,2.3726538452148436,10.961832061068701,-2.015267175572519,-15.32824427480916,0.0
10.760000705718994,-10.070012182617187,2.0733786376953125,2.5953145996093747,7.190839694656488,0.0916030534351145,-8.702290076335878,-8.240842114257813,-0.6248866333007812,2.1787235107421874,14.198473282442748,-2.732824427480916,-16.061068702290076,0.0
10.77000093460083,-9.397241516113281,2.224213342285156,2.73896669921875,5.221374045801527,-4.229007633587786,-9.664122137404581,-8.504204296874999,-0.6584054565429687,2.6312276245117188,16.106870229007633,-2.198473282442748,-16.625954198473284,0.0
10.780000686645508,-10.09395419921875,2.817975354003906,2.91134921875,-7.175572519083969,-14.717557251908397,-8.549618320610687,-8.44674345703125,-0.4525041137695312,2.6384102294921874,16.27480916030534,-2.8702290076335877,-16.442748091603054,0.0
10.790000677108765,-8.89924757080078,-0.1149216796875,2.789244934082031,2.3206106870229006,-17.908396946564885,-4.854961832061068,-8.125920434570313,-0.6416460449218749,2.961627453613281,15.022900763358779,-2.6412213740458017,-16.549618320610687,0.0
10.800000667572021,-8.927977990722656,-0.1005564697265625,2.5354595581054684,11.816793893129772,-21.14503816793893,-5.480916030534351,-8.039729174804688,-0.7230489013671875,3.0430303100585934,16.977099236641223,-3.1908396946564888,-17.52671755725191,0.0
10.810000658035278,-9.016563452148437,-0.2609679809570312,2.5665841796874997,15.282442748091603,-24.38167938931298,-6.809160305343512,-7.848193041992187,-0.9433154541015625,3.1507693847656246,18.9618320610687,-4.229007633587786,-18.30534351145038,0.0
10.820000648498535,-8.851363537597656,-0.584185205078125,2.849099975585937,19.358778625954198,-28.412213740458014,-8.80916030534351,-7.639897497558593,-0.5147533569335937,3.1555577880859373,19.6793893129771,-4.1679389312977095,-18.99236641221374,0.0
10.830000638961792,-8.968679418945312,-0.05985504150390625,2.7461493041992187,19.984732824427482,-32.67175572519084,-11.770992366412214,-7.651868505859374,-0.7781155395507812,3.5003228271484375,25.16030534351145,-6.290076335877862,-18.03053435114504,0.0
10.84000039100647,-9.37808790283203,-0.51714755859375,2.5665841796874997,20.198473282442748,-37.57251908396947,-15.465648854961833,-8.920795385742187,-0.4740519287109375,3.1962592163085937,25.6793893129771,-3.267175572519084,-17.435114503816795,0.0
10.850000619888306,-8.74601866455078,-1.0414777221679687,2.3630770385742186,30.12213740458015,-39.55725190839695,-17.6793893129771,-7.211335400390625,1.2569558715820313,2.906560815429687,23.572519083969464,-6.33587786259542,-18.99236641221374,0.0
10.860000371932983,-8.961496813964843,-0.19632453613281248,2.233790148925781,29.099236641221374,-45.02290076335878,-19.51145038167939,-8.21690009765625,-0.3327940307617187,2.7581203125,21.435114503816795,-5.1603053435114505,-17.17557251908397,0.0
10.87000036239624,-10.002974536132811,1.6400281372070311,2.1164742675781247,26.671755725190838,-47.12977099236641,-21.16030534351145,-8.087613208007811,0.00239420166015625,3.459621398925781,18.3206106870229,-3.1755725190839694,-17.34351145038168,0.0
10.880000829696655,-9.392453112792968,0.5506663818359374,1.4820108276367188,21.984732824427482,-51.43511450381679,-20.671755725190838,-7.0269818725585935,0.8475473876953125,3.9887399658203124,12.793893129770993,-5.374045801526718,-18.946564885496183,0.0
10.890000581741333,-7.996633544921875,0.41898529052734373,2.2026655273437497,24.3206106870229,-54.35114503816794,-21.61832061068702,-7.841010437011718,0.6655880615234374,3.890577697753906,11.007633587786259,-10.244274809160306,-21.083969465648856,0.0
10.900000810623169,-10.029310754394531,2.674323254394531,3.9049429077148434,12.946564885496183,-62.961832061068705,-26.15267175572519,-9.591171850585937,0.3064578125,4.9823336547851556,5.526717557251908,-9.969465648854962,-23.221374045801525,0.0
10.910000562667847,-8.748412866210938,0.143652099609375,4.534617944335937,14.259541984732824,-71.23664122137404,-25.068702290076335,-9.583989245605467,2.6312276245117188,6.725312463378906,-7.099236641221374,-15.679389312977099,-28.549618320610687,0.0
10.920000553131104,-10.266336718749999,0.19153613281249998,5.683834741210937,23.297709923664122,-77.05343511450381,-28.18320610687023,-12.854468713378905,1.24498486328125,9.179369165039063,-21.6793893129771,-22.50381679389313,-31.19083969465649,0.0
10.930000305175781,-10.919953771972656,0.7110778930664062,5.767631799316406,24.106870229007633,-89.63358778625954,-30.732824427480917,-13.326126440429686,1.68551796875,9.572018237304688,-39.86259541984733,-32.10687022900763,-36.82442748091603,0.0
10.940000534057617,-11.822567797851562,1.5442600708007812,6.186617089843749,26.793893129770993,-102.9618320610687,-31.022900763358777,-14.298172314453124,-0.5530605834960938,7.261613635253906,-52.76335877862596,-40.961832061068705,-36.68702290076336,0.0
10.950000524520874,-12.471396447753905,1.1372457885742187,7.0652890991210935,22.198473282442748,-120.50381679389314,-30.595419847328245,-12.294225524902343,-0.6679822631835937,5.53539423828125,-47.038167938931295,-48.79389312977099,-29.19083969465649,0.0
10.96000051498413,-15.042769030761718,2.6312276245117188,8.207323291015625,13.526717557251908,-138.24427480916032,-30.015267175572518,-10.769119067382812,0.8834604125976562,2.250549560546875,-46.01526717557252,-52.88549618320611,-22.106870229007633,0.0
10.970000505447388,-15.16247911376953,1.6807295654296874,8.049305981445311,1.4351145038167938,-159.93893129770993,-24.900763358778626,-9.452308154296874,-0.5482721801757812,0.4908113403320312,-43.70992366412214,-50.33587786259542,-15.786259541984732,0.0
10.980000495910645,-14.477737438964843,-0.32561142578124996,6.086060620117187,3.3893129770992365,-174.9770992366412,-19.572519083969464,-8.487444885253906,-3.2417490478515623,-0.55545478515625,-25.267175572519083,-53.3587786259542,-11.98473282442748,0.0
10.990000247955322,-14.003685510253906,-0.36631285400390623,3.957615344238281,6.916030534351145,-183.6946564885496,-20.9618320610687,-7.228094812011718,-2.437297290039062,-1.8052280517578123,-9.114503816793894,-48.47328244274809,-13.236641221374045,0.0
11.000000476837158,-14.911087939453123,0.1197100830078125,2.6767174560546874,2.9160305343511452,-191.7709923664122,-18.885496183206108,-7.498639599609374,-1.8315642700195311,-1.9680337646484374,-2.900763358778626,-33.404580152671755,-13.908396946564885,0.0
11.010000705718994,-13.680468286132811,-1.0366893188476562,-0.3016694091796875,12.67175572519084,-190.65648854961833,-12.763358778625955,-7.934384301757812,-2.1835119140624997,-1.0773907470703123,-3.404580152671756,-16.27480916030534,-12.412213740458014,0.0
11.020000457763672,-11.918335864257811,-3.6008792968749996,-3.028665100097656,35.93893129770992,-180.03053435114504,-2.946564885496183,-9.665392102050781,-4.036623999023437,-0.21308394775390624,18.549618320610687,-11.358778625954198,-7.374045801526718,0.0
11.030000925064087,-11.511321582031249,-3.4931402221679684,-3.873818286132812,63.45038167938932,-159.80152671755727,0.7786259541984732,-9.938331091308592,-3.3446997192382812,0.5817910034179687,34.10687022900763,-5.740458015267175,-7.480916030534351,0.0
11.040000677108765,-10.702081420898438,-3.507505432128906,-4.6064439941406246,78.8854961832061,-141.78625954198472,2.3969465648854964,-10.881646545410156,-3.19865341796875,0.5793968017578125,44.6412213740458,0.015267175572519083,-4.9465648854961835,0.0
11.050000667572021,-9.337386474609374,-3.6535517333984373,-5.082890124511718,94.83969465648855,-117.90839694656489,3.1755725190839694,-11.346121667480467,-1.9488801513671874,0.8475473876953125,49.29770992366412,1.984732824427481,-1.0687022900763359,0.0
11.060000658035278,-6.742071875,-4.8123453369140625,-4.728548278808593,112.56488549618321,-94.76335877862596,2.8702290076335877,-11.008539233398437,-0.0718260498046875,0.5482721801757812,43.404580152671755,1.251908396946565,1.1297709923664123,0.0
11.070000648498535,-7.127538342285156,-2.6910826660156246,-3.0358477050781247,126.54961832061069,-60.62595419847328,2.122137404580153,-10.369287390136718,0.016759411621093748,1.2378022583007813,22.091603053435115,10.244274809160306,5.358778625954199,0.0
11.080000638961792,-8.372523205566406,1.70467158203125,-1.47482822265625,110.35114503816794,-41.57251908396947,-2.2900763358778624,-11.319785449218749,-2.7269956909179687,0.9313444458007812,24.702290076335878,5.8320610687022905,11.404580152671755,0.0
11.09000039100647,-8.966285217285156,3.299209887695312,0.00239420166015625,93.12977099236642,-25.72519083969466,1.5419847328244274,-10.194510668945313,-1.7357962036132812,0.4860229370117187,18.396946564885496,2.183206106870229,8.748091603053435,0.0
11.100000619888306,-8.513781103515624,3.957615344238281,0.2657563842773437,73.08396946564885,-13.022900763358779,8.961832061068701,-10.558429321289061,-2.6384102294921874,0.22505495605468748,12.076335877862595,6.595419847328245,7.893129770992366,0.0
11.110000371932983,-9.852139831542969,6.131550451660156,1.467645617675781,32.717557251908396,-5.923664122137405,13.099236641221374,-10.177751257324218,-1.9536685546875,-0.05746083984375,6.1679389312977095,7.908396946564886,6.2748091603053435,0.0
11.120000839233398,-9.962273107910155,5.410895751953125,1.4173673828125,4.061068702290076,-1.083969465648855,20.748091603053435,-10.826579907226561,-2.741360900878906,-0.011971008300781249,4.961832061068702,10.259541984732824,6.99236641221374,0.0
11.130000591278076,-8.451531860351562,3.1747114013671873,1.0390835205078124,-18.35114503816794,2.5801526717557253,23.770992366412212,-11.121066711425781,-2.789244934082031,0.5674257934570313,5.679389312977099,14.351145038167939,6.320610687022901,0.0
11.140000820159912,-8.310273962402343,2.2002713256835937,0.8403647827148437,-38.595419847328245,6.5038167938931295,23.083969465648856,-10.029310754394531,-1.350329736328125,0.9169792358398436,4.8396946564885495,17.64885496183206,4.183206106870229,0.0
11.15000057220459,-8.24802471923828,1.7094599853515624,0.6823474731445313,-57.267175572519086,13.022900763358779,23.6793893129771,-9.49300958251953,-0.8020575561523438,1.7477672119140624,1.6946564885496183,21.61832061068702,5.480916030534351,0.0
11.160000801086426,-7.42441934814453,0.7709329345703124,0.11252747802734374,-69.46564885496183,19.068702290076335,24.091603053435115,-10.618284362792968,-0.9864110839843749,2.825157958984375,0.6564885496183206,25.221374045801525,9.770992366412214,0.0
11.170000553131104,-6.8593877563476555,0.19632453613281248,-0.32082302246093747,-77.93893129770993,26.946564885496183,25.31297709923664,-10.127473022460936,0.2059013427734375,3.1076737548828124,-3.3282442748091605,25.221374045801525,12.045801526717558,0.0
11.180000305175781,-5.336675500488281,-1.235408056640625,-0.7278373046875,-73.69465648854961,41.847328244274806,27.52671755725191,-10.321403356933594,0.6967126831054687,3.2800562744140622,-12.778625954198473,26.946564885496183,15.877862595419847,0.0
11.190000534057617,-6.256048937988281,-1.5179238525390624,-0.6967126831054687,-75.77099236641222,53.20610687022901,23.404580152671755,-8.657433203124999,0.5961562133789062,2.980781066894531,-23.404580152671755,24.18320610687023,19.374045801526716,0.0
11.200000524520874,-5.499481213378906,-3.143586779785156,-0.35194764404296874,-72.3206106870229,64.58015267175573,23.480916030534353,-10.43871923828125,-1.3814543579101561,4.094084838867187,-23.84732824427481,24.091603053435115,25.099236641221374,0.0
11.210000276565552,-5.307945080566406,-4.122815258789062,0.4381389038085937,-64.50381679389314,77.96946564885496,18.30534351145038,-10.338162768554687,-1.6065093139648436,4.402936853027343,-24.68702290076336,19.786259541984734,26.427480916030536,0.0
11.220000505447388,-5.894524487304687,-3.902548706054687,1.6136919189453125,-56.213740458015266,87.09923664122137,14.16793893129771,-10.012551342773437,-2.3582886352539063,4.168305090332031,-17.69465648854962,10.229007633587786,26.9618320610687,0.0
11.230000257492065,-5.758054992675781,-3.84987626953125,3.1292215698242187,-45.786259541984734,96.01526717557252,10.259541984732824,-8.585607153320312,-0.5913678100585937,3.172317199707031,-20.12213740458015,2.8702290076335877,24.53435114503817,0.0
11.240000486373901,-6.227318518066406,-3.3111808959960936,4.728548278808593,-31.053435114503817,102.82442748091603,7.3893129770992365,-8.693346228027343,-1.1180921752929687,2.8754361938476563,-24.229007633587788,1.1145038167938932,25.96946564885496,0.0
11.250000715255737,-6.050147595214844,-3.191470812988281,6.083666418457031,-15.709923664122137,105.74045801526718,5.1603053435114505,-8.645462194824217,-1.24498486328125,3.191470812988281,-27.435114503816795,0.015267175572519083,27.419847328244273,0.0
11.260000705718994,-6.2584431396484375,-2.128445275878906,6.636727001953124,4.1679389312977095,106.76335877862596,4.748091603053435,-8.597578161621094,-1.6831237670898436,3.296815686035156,-28.213740458015266,-2.3969465648854964,27.603053435114504,0.0
11.27000093460083,-6.900089184570312,-0.3950432739257812,6.904877587890625,26.50381679389313,108.13740458015268,7.694656488549619,-8.56166513671875,-1.93451494140625,3.2417490478515623,-27.34351145038168,-4.870229007633588,25.954198473282442,0.0
11.280000686645508,-8.365340600585936,1.7525556152343749,6.861781958007812,37.70992366412214,105.83206106870229,10.351145038167939,-9.227253198242186,-2.3439234252929686,2.980781066894531,-24.290076335877863,-6.534351145038168,24.244274809160306,0.0
11.290000677108765,-10.82179150390625,4.469974499511719,8.415618835449218,35.19083969465649,99.16030534351145,14.946564885496183,-9.18655177001953,-1.8028338500976562,2.7844565307617186,-21.46564885496183,-9.465648854961833,21.709923664122137,0.0
11.300000667572021,-11.944672082519531,2.3391350219726563,9.540893615722656,19.083969465648856,79.87786259541984,22.198473282442748,-9.387664709472656,-1.7693150268554687,2.7150246826171873,-19.770992366412212,-11.740458015267176,20.900763358778626,0.0
11.310000658035278,-13.32373223876953,2.0638018310546875,9.260772021484375,24.30534351145038,71.61832061068702,30.16793893129771,-9.473855969238281,-2.195482922363281,2.6695348510742187,-19.923664122137403,-12.259541984732824,20.83969465648855,0.0
11.320000648498535,-16.39549296875,5.930437512207031,7.81467421875,-10.381679389312977,49.14503816793893,28.47328244274809,-10.218452685546874,-2.233790148925781,2.250549560546875,-15.465648854961833,-14.183206106870228,20.259541984732824,0.0
11.330000638961792,-18.11213555908203,5.61200869140625,7.192181787109375,-42.44274809160305,32.06106870229008,32.29007633587786,-10.230423693847655,-2.1164742675781247,1.9895815795898437,-15.786259541984732,-13.84732824427481,20.198473282442748,0.0
11.340000629425049,-17.152060693359374,1.1037269653320312,5.858611462402344,-61.11450381679389,12.80916030534351,36.595419847328245,-10.036493359375,-1.9967641845703124,1.5131354492187499,-15.19083969465649,-11.755725190839694,19.358778625954198,0.0
11.350000381469727,-14.556746093749998,-3.047818713378906,3.6727053466796873,-44.74809160305343,8.290076335877863,35.404580152671755,-9.622296472167967,-2.6767174560546874,1.3096283081054687,-13.954198473282442,-5.6183206106870225,18.106870229007633,0.0
11.360000610351562,-12.885593334960937,-3.356670727539062,1.5155296508789062,-38.10687022900763,5.297709923664122,24.732824427480917,-9.557653027343749,-3.385401147460937,1.2401964599609374,-4.793893129770993,1.5572519083969465,14.305343511450381,0.0
11.37000060081482,-11.022904443359375,-3.873818286132812,1.2114660400390624,-34.62595419847328,5.206106870229007,14.83969465648855,-9.655815295410155,-3.5889082885742187,1.2880804931640624,7.267175572519084,7.572519083969466,10.717557251908397,0.0
11.380000352859497,-9.18655177001953,-3.7134067749023436,1.599326708984375,-22.900763358778626,7.00763358778626,7.893129770992366,-10.134655627441406,-3.3877953491210935,1.3479355346679687,19.297709923664122,12.076335877862595,7.099236641221374,0.0
11.390000343322754,-9.016563452148437,-1.1037269653320312,1.24498486328125,-13.679389312977099,9.740458015267176,0.6106870229007634,-10.912771166992187,-2.70065947265625,1.2928688964843749,27.374045801526716,16.870229007633586,3.404580152671756,0.0
11.400000810623169,-6.433219860839843,-2.1643583007812497,-0.928950244140625,1.9541984732824427,12.061068702290076,1.5267175572519085,-10.864887133789061,-1.2641384765625,0.93852705078125,33.221374045801525,18.65648854961832,0.7175572519083969,0.0
11.410000562667847,-6.332663391113281,-1.4963760375976562,-1.7381904052734374,24.15267175572519,27.17557251908397,0.8854961832061069,-11.59990704345703,-0.9935936889648437,1.0127473022460938,34.458015267175576,23.64885496183206,0.07633587786259542,0.0
11.420000553131104,-7.086836914062499,0.6560112548828124,-1.618480322265625,31.14503816793893,38.213740458015266,-2.366412213740458,-10.771513269042968,0.16041151123046873,1.4245499877929686,40.97709923664122,22.900763358778626,-0.7480916030534351,0.0
11.430000305175781,-7.64229169921875,3.1603461914062496,-1.2904746948242187,22.091603053435115,43.969465648854964,-3.404580152671756,-10.805032092285156,1.2976572998046874,0.9026140258789062,31.49618320610687,26.47328244274809,-0.15267175572519084,0.0
11.440000534057617,-8.075642199707032,3.0597897216796874,-0.5793968017578125,10.534351145038167,48.94656488549618,-0.21374045801526717,-9.579200842285156,0.44053310546874996,2.39420166015625,26.900763358778626,28.702290076335878,2.6106870229007635,0.0
11.450000286102295,-9.533711010742186,3.1651345947265623,-0.1005564697265625,-1.8473282442748091,52.76335877862596,0.2595419847328244,-9.473855969238281,0.852335791015625,2.528276953125,29.236641221374047,24.259541984732824,4.748091603053435,0.0
11.460000276565552,-8.772354882812499,1.7094599853515624,-0.19632453613281248,-8.610687022900763,54.06106870229008,3.435114503816794,-8.444349255371094,1.9201497314453124,2.4157494750976563,20.85496183206107,22.47328244274809,3.3587786259541983,0.0
11.470000505447388,-9.34696328125,1.0079588989257813,0.5219359619140624,-9.389312977099237,57.48091603053435,4.427480916030534,-8.930372192382812,1.8914193115234375,2.080561242675781,19.69465648854962,20.33587786259542,5.374045801526718,0.0
11.480000495910645,-9.70369932861328,0.7781155395507812,1.216254443359375,-12.15267175572519,57.51145038167939,4.015267175572519,-9.445125549316407,1.8291700683593748,2.1404162841796874,12.900763358778626,21.022900763358777,7.511450381679389,0.0
11.490000486373901,-10.606313354492187,0.9576806640625,2.123656872558594,-13.603053435114504,56.656488549618324,3.2061068702290076,-9.706093530273437,1.9656395629882812,2.360682836914062,5.557251908396947,22.625954198473284,9.740458015267176,0.0
11.500000476837158,-9.811438403320311,0.19393033447265623,2.0925322509765625,-11.755725190839694,52.54961832061068,3.877862595419847,-8.93755479736328,2.4205378784179685,1.93451494140625,-3.5572519083969465,21.908396946564885,11.007633587786259,0.0
11.510000944137573,-10.541669909667968,0.9840168823242187,2.5857377929687497,-7.969465648854962,51.603053435114504,3.5877862595419847,-9.344569079589844,2.157175695800781,3.303998291015625,-11.694656488549619,26.0,13.587786259541986,0.0
11.520000696182251,-9.964667309570311,1.3862427612304686,2.2385785522460937,-9.450381679389313,43.06870229007634,4.793893129770993,-8.520963708496094,1.678335363769531,2.521094348144531,-18.931297709923665,22.977099236641223,14.549618320610687,0.0
11.530000925064087,-9.342174877929686,0.9648632690429687,1.867477294921875,-8.076335877862595,38.10687022900763,5.740458015267175,-10.778695874023438,0.32561142578124996,3.404554760742187,-14.106870229007633,23.557251908396946,18.83969465648855,0.0
11.540000438690186,-9.030928662109375,1.1875240234375,1.4221557861328125,-7.526717557251908,33.41984732824427,5.4961832061068705,-10.97502041015625,-0.7733271362304687,3.7612908081054686,-9.206106870229007,19.328244274809162,18.9618320610687,0.0
11.550000667572021,-10.888829150390624,2.0781670410156248,1.2210428466796874,-14.80916030534351,30.30534351145038,4.122137404580153,-10.378864196777343,0.3950432739257812,3.303998291015625,-2.2748091603053435,8.80916030534351,16.0,0.0
11.5600004196167,-10.237606298828124,1.7908628417968748,1.177947216796875,-16.18320610687023,26.396946564885496,3.786259541984733,-10.558429321289061,0.13646949462890623,3.373430139160156,-8.67175572519084,7.816793893129771,14.748091603053435,0.0
11.570000648498535,-10.271125122070313,2.308010400390625,1.3718775512695311,-20.900763358778626,24.16793893129771,3.8473282442748094,-10.43871923828125,0.36152445068359373,3.430890979003906,-9.786259541984732,4.0458015267175576,14.061068702290076,0.0
11.580000400543213,-10.211270080566406,1.7764976318359373,1.4149731811523436,-15.954198473282442,25.72519083969466,3.7251908396946565,-10.390835205078124,0.2753331909179687,3.39018955078125,-10.213740458015268,1.5572519083969465,13.725190839694656,0.0
11.59000039100647,-10.12507882080078,2.8107927490234372,2.01112939453125,-14.534351145038167,24.595419847328245,2.6259541984732824,-10.338162768554687,0.11252747802734374,3.4835634155273434,-10.67175572519084,-0.8549618320610687,12.198473282442748,0.0
11.600000619888306,-10.103531005859374,1.5059528442382812,1.1156979736328125,-21.51145038167939,15.83206106870229,4.824427480916031,-10.728417639160156,-0.29448680419921874,3.574543078613281,-8.717557251908397,-2.885496183206107,11.633587786259541,0.0
11.610000610351562,-10.654197387695312,1.8435352783203125,1.5059528442382812,-15.557251908396946,17.46564885496183,4.229007633587786,-9.93354268798828,0.22744915771484372,3.337517114257812,-11.32824427480916,-6.580152671755725,9.541984732824428,0.0
11.620000839233398,-10.27830772705078,1.2210428466796874,1.37906015625,-20.38167938931298,11.114503816793894,5.175572519083969,-10.421959826660157,-0.22744915771484372,3.4332851806640625,-12.931297709923664,-7.66412213740458,7.129770992366412,0.0
11.630000591278076,-10.287884533691406,1.369483349609375,1.7118541870117185,-10.106870229007633,12.748091603053435,4.458015267175573,-10.467449658203124,-0.46208092041015625,3.6583401367187496,-15.618320610687023,-9.633587786259541,4.137404580152672,0.0
11.640000820159912,-10.453084448242187,1.1540052001953125,1.3838485595703125,-14.717557251908397,6.412213740458015,4.870229007633588,-11.698069311523437,-2.3415292236328122,4.838681555175781,-8.67175572519084,-11.511450381679388,3.0229007633587788,0.0
11.65000057220459,-9.897629663085937,0.4333505004882812,0.9361328491210937,-6.1679389312977095,5.022900763358779,6.5038167938931295,-10.812214697265624,-0.023942016601562498,3.3590649291992185,0.3053435114503817,-24.83969465648855,-0.1984732824427481,0.0
11.660000562667847,-9.93354268798828,1.0678139404296874,0.7493851196289062,-0.9618320610687023,5.6183206106870225,5.4961832061068705,-11.049240661621093,0.5913678100585937,3.859453076171875,-1.8625954198473282,-23.81679389312977,-1.2061068702290076,0.0
11.670000553131104,-9.583989245605467,1.3383587280273437,0.18914193115234373,-0.13740458015267176,5.923664122137405,5.66412213740458,-10.556035119628906,-0.2825157958984375,3.7397429931640622,1.297709923664122,-27.450381679389313,-2.717557251908397,0.0
11.680000305175781,-9.53131680908203,1.35990654296875,-0.06464344482421874,0.549618320610687,6.305343511450381,5.022900763358779,-10.436325036621094,-0.8164227661132812,3.5122938354492184,8.351145038167939,-32.56488549618321,-3.8931297709923665,0.0
11.690000295639038,-9.325415466308593,1.2976572998046874,-0.239420166015625,0.5190839694656488,7.358778625954199,3.7251908396946565,-10.32379755859375,1.1348515869140625,2.5857377929687497,10.748091603053435,-38.18320610687023,-6.977099236641221,0.0
11.700000524520874,-9.433154541015625,1.407790576171875,-0.24181436767578124,-1.0381679389312977,8.80916030534351,3.5267175572519083,-8.511386901855468,3.1651345947265623,1.6160861206054686,-6.564885496183206,-36.458015267175576,-8.977099236641221,0.0
11.71000051498413,-9.574412438964844,1.7884686401367187,-0.06464344482421874,-6.137404580152672,8.793893129770993,3.053435114503817,-10.127473022460936,2.1452046874999997,2.712630480957031,-13.022900763358779,-27.083969465648856,-2.7022900763358777,0.0
11.720000505447388,-10.019733947753906,1.5705962890624998,0.09576806640624999,-10.427480916030534,7.7251908396946565,1.5877862595419847,-9.974244116210937,0.40940848388671874,2.3295582153320313,-10.458015267175572,-28.366412213740457,1.4045801526717556,0.0
11.730000257492065,-10.165780249023436,0.5793968017578125,-0.21068974609375,-9.969465648854962,7.099236641221374,0.4122137404580153,-10.414777221679687,-0.18914193115234373,3.284844677734375,-0.5190839694656488,-29.17557251908397,2.1374045801526718,0.0
11.740000486373901,-9.777919580078125,0.4644751220703125,0.08858546142578125,-6.198473282442748,7.984732824427481,-1.465648854961832,-9.660603698730467,0.7350199096679687,3.430890979003906,3.7099236641221376,-31.862595419847327,0.7786259541984732,0.0
11.750000715255737,-9.701305126953125,0.842758984375,0.16998831787109375,-2.366412213740458,9.053435114503817,-2.33587786259542,-8.942343200683593,2.2864625854492187,2.3415292236328122,-1.3282442748091603,-31.572519083969464,0.8854961832061069,0.0
11.760000705718994,-9.873687646484374,1.6424223388671875,0.4070142822265625,-2.0763358778625953,9.84732824427481,-2.4885496183206106,-8.573636145019531,2.806004345703125,2.221819140625,-18.290076335877863,-20.946564885496183,3.5267175572519083,0.0
11.770000696182251,-9.89523546142578,1.9321207397460936,0.6272808349609375,-2.8244274809160306,10.549618320610687,-1.8625954198473282,-8.856151940917968,1.7118541870117185,1.618480322265625,-28.80916030534351,-12.793893129770993,7.541984732824427,0.0
11.780000686645508,-9.674968908691406,1.6208745239257811,0.4836287353515625,-2.4732824427480917,8.412213740458014,-1.1145038167938932,-8.769960681152343,1.93451494140625,1.0606313354492187,-32.62595419847328,-8.396946564885496,7.984732824427481,0.0
11.790000438690186,-9.536105212402344,1.3479355346679687,0.27293898925781246,0.030534351145038167,9.114503816793894,-0.4732824427480916,-9.488221179199218,-0.28490999755859375,1.1659762084960936,-32.47328244274809,-1.633587786259542,8.412213740458014,0.0
11.800000667572021,-9.648632690429688,1.3000515014648437,0.40940848388671874,1.1908396946564885,9.083969465648854,-0.5954198473282443,-9.852139831542969,-0.9217676391601562,1.4604630126953124,-25.099236641221374,0.0916030534351145,6.366412213740458,0.0
11.810000658035278,-9.349357482910156,1.0223241088867188,0.5482721801757812,6.473282442748092,11.053435114503817,-0.5038167938931297,-9.466673364257812,-1.2306196533203124,1.5729904907226562,-21.17557251908397,1.2061068702290076,2.9618320610687023,0.0
11.820000648498535,-9.5001921875,1.4437036010742186,0.6464344482421874,7.435114503816794,11.419847328244275,-1.0381679389312977,-9.629479077148437,-1.7357962036132812,1.838746875,-13.98473282442748,1.83206106870229,0.6259541984732825,0.0
11.830000638961792,-9.79946739501953,1.5179238525390624,0.9145850341796874,7.877862595419847,11.770992366412214,-1.4198473282442747,-11.113884106445312,-3.1675287963867187,2.1835119140624997,7.557251908396947,-1.786259541984733,0.21374045801526717,0.0
11.840000629425049,-9.852139831542969,1.5514426757812498,1.0175357055664063,8.381679389312977,11.725190839694656,-2.122137404580153,-11.145008728027342,-3.124433166503906,3.6008792968749996,26.610687022900763,-7.3893129770992365,-3.0229007633587788,0.0
11.850000619888306,-9.315838659667968,1.1947066284179686,0.9145850341796874,10.65648854961832,13.145038167938932,-1.4961832061068703,-9.509768994140625,-1.39821376953125,2.1906945190429687,35.23664122137404,-17.87786259541985,-8.977099236641221,0.0
11.860000610351562,-9.425971936035156,2.166752502441406,0.967257470703125,8.885496183206106,14.610687022900763,-2.1374045801526718,-8.137891442871092,0.9313444458007812,1.218648645019531,23.404580152671755,-16.53435114503817,-14.320610687022901,0.0
11.87000060081482,-9.196128576660156,2.3439234252929686,1.0630255371093749,3.1908396946564888,14.977099236641221,-2.198473282442748,-8.930372192382812,0.4070142822265625,2.1308394775390624,7.7251908396946565,-4.229007633587786,-12.870229007633588,0.0
11.880000829696655,-9.516951599121093,2.896984008789062,1.197100830078125,-5.038167938931298,12.961832061068701,-1.9236641221374047,-7.955932116699218,1.2210428466796874,1.8076222534179687,-4.564885496183206,1.0229007633587786,-12.183206106870228,0.0
11.890000343322754,-9.497797985839844,2.0877438476562498,1.22583125,-8.045801526717558,10.763358778625955,-0.6870229007633588,-8.817844714355468,-0.26815058593749996,1.944091748046875,-0.7175572519083969,2.885496183206107,-9.511450381679388,0.0
11.900000810623169,-9.598354455566406,1.7286135986328124,1.1707646118164061,-7.694656488549619,8.687022900763358,0.3816793893129771,-8.628702783203124,-0.12689268798828124,2.5953145996093747,1.8625954198473282,3.0381679389312977,-10.045801526717558,0.0
11.910000562667847,-9.945513696289062,1.5490484741210937,1.3144167114257812,-6.900763358778626,7.3893129770992365,1.6793893129770991,-8.616731774902343,-0.48123453369140623,2.7748797241210936,3.648854961832061,3.2519083969465647,-11.358778625954198,0.0
11.920000314712524,-10.103531005859374,2.104503259277344,1.465251416015625,-7.358778625954199,7.022900763358779,3.5267175572519083,-8.564059338378906,-0.63206923828125,3.038241906738281,4.473282442748092,3.312977099236641,-11.404580152671755,0.0
11.93000054359436,-9.873687646484374,2.0829554443359375,1.4413093994140624,-11.98473282442748,5.251908396946565,4.351145038167939,-8.576030346679687,-0.277727392578125,3.0262708984374997,5.755725190839694,3.2977099236641223,-11.587786259541986,0.0
11.940000295639038,-11.168950744628905,3.536235852050781,2.1811177124023438,-23.801526717557252,2.5343511450381677,3.450381679389313,-8.475473876953124,-0.031124621582031248,3.1387983764648437,3.1908396946564888,2.7938931297709924,-11.908396946564885,0.0
11.950000286102295,-9.909600671386718,0.8116343627929687,1.9105729248046874,-26.15267175572519,1.1755725190839694,4.320610687022901,-8.51617530517578,0.09576806640624999,2.987963671875,4.351145038167939,3.114503816793893,-11.603053435114504,0.0
11.960000276565552,-8.98304462890625,-1.3096283081054687,1.3000515014648437,-23.46564885496183,-2.183206106870229,3.969465648854962,-8.568847741699217,0.2920926025390625,2.887407202148437,3.053435114503817,4.015267175572519,-11.129770992366412,0.0
11.970000505447388,-9.828197814941406,0.16041151123046873,1.5394716674804687,-14.778625954198473,0.6259541984732825,-0.44274809160305345,-8.808267907714843,0.15083470458984374,2.8993782104492185,3.480916030534351,4.854961832061068,-10.305343511450381,0.0
11.980000257492065,-9.076418493652342,-1.1156979736328125,0.7733271362304687,-9.526717557251908,-0.5038167938931297,-1.1603053435114503,-8.226476904296874,0.5889736083984375,2.89219560546875,0.7633587786259542,4.702290076335878,-10.916030534351146,0.0
11.990000486373901,-10.024522351074218,0.8044517578125,1.0678139404296874,-2.2748091603053435,2.931297709923664,-4.427480916030534,-9.267954626464844,-0.12449848632812499,3.284844677734375,1.9083969465648856,5.572519083969466,-9.267175572519085,0.0
12.000000238418579,-9.679757312011718,0.9888052856445312,0.9026140258789062,-2.732824427480916,2.549618320610687,-5.465648854961832,-8.674192614746094,0.55545478515625,3.347093920898437,2.1374045801526718,5.297709923664122,-9.709923664122137,0.0
12.010000944137573,-9.667786303710937,1.0630255371093749,0.6871358764648438,-3.648854961832061,2.366412213740458,-6.0458015267175576,-9.414000927734374,-0.296881005859375,3.689464758300781,0.9770992366412213,5.572519083969466,-8.0,0.0
12.020000457763672,-9.528922607421874,1.13006318359375,0.8403647827148437,-3.6793893129770994,2.50381679389313,-6.778625954198473,-8.813056311035156,0.105344873046875,3.5482068603515624,-1.3893129770992367,4.5038167938931295,-8.366412213740459,0.0
12.030000925064087,-9.617508068847656,0.9792284790039062,0.9265560424804687,-2.9618320610687023,2.5343511450381677,-7.66412213740458,-9.244012609863281,-0.5363011718749999,3.6583401367187496,-2.717557251908397,5.465648854961832,-6.99236641221374,0.0
12.040000438690186,-9.282319836425781,0.46686932373046874,0.6009446166992187,-1.083969465648855,2.564885496183206,-7.770992366412214,-8.942343200683593,-0.3112462158203125,3.6918589599609373,-1.3587786259541985,3.2061068702290076,-6.931297709923665,0.0
12.050000667572021,-9.358934289550781,0.5913678100585937,0.6655880615234374,1.5419847328244274,4.412213740458015,-9.16030534351145,-8.415618835449218,0.9840168823242187,2.9831752685546875,-6.793893129770993,4.427480916030534,-7.984732824427481,0.0
12.060000658035278,-11.413159313964844,2.454056701660156,1.39821376953125,-1.297709923664122,4.0458015267175576,-12.01526717557252,-7.912836486816405,0.4333505004882812,2.3535002319335936,-16.03053435114504,7.450381679389313,-7.32824427480916,0.0
12.070000886917114,-9.832986218261718,0.28490999755859375,1.2306196533203124,-1.2061068702290076,0.33587786259541985,-9.84732824427481,-9.928754284667969,-1.6136919189453125,4.369418029785156,-10.732824427480915,12.625954198473282,-3.6946564885496183,0.0
12.080000638961792,-9.873687646484374,1.4532804077148436,1.68551796875,3.068702290076336,-1.8778625954198473,-11.267175572519085,-10.64222637939453,-2.5665841796874997,4.802768530273437,0.6412213740458015,8.992366412213741,-3.145038167938931,0.0
12.090000629425049,-9.988609326171874,0.8906430175781249,2.013523596191406,6.122137404580153,-5.893129770992366,-10.259541984732824,-9.593566052246093,-1.5394716674804687,4.278438366699218,14.885496183206106,-0.7175572519083969,-5.938931297709924,0.0
12.100000619888306,-9.572018237304688,0.6847416748046875,2.319981408691406,13.679389312977099,-7.374045801526718,-9.32824427480916,-8.757989672851561,-0.3687070556640625,3.8666356811523435,12.0,-0.7022900763358778,-7.740458015267175,0.0
12.110000371932983,-9.275137231445312,0.5051765502929687,2.7844565307617186,17.938931297709924,-10.213740458015268,-8.82442748091603,-8.717288244628906,-0.5865794067382812,3.5003228271484375,12.931297709923664,-1.8778625954198473,-7.694656488549619,0.0
12.120000839233398,-9.758765966796874,1.5394716674804687,3.265691064453125,16.900763358778626,-15.98473282442748,-10.65648854961832,-8.695740429687499,-0.5626373901367188,3.284844677734375,14.763358778625955,-2.854961832061069,-7.862595419847328,0.0
12.130000352859497,-6.768408093261718,-0.4908113403320312,3.086125939941406,23.770992366412212,-22.702290076335878,-9.038167938931299,-8.48505068359375,-0.7541735229492187,3.229778039550781,16.30534351145038,-2.9770992366412212,-8.67175572519084,0.0
12.140000820159912,-9.1554271484375,-0.23223756103515625,2.2601263671875,38.06106870229008,-21.61832061068702,-9.954198473282442,-8.588001354980468,-0.86191259765625,3.478775012207031,19.633587786259543,-2.427480916030534,-9.465648854961833,0.0
12.15000033378601,-9.057264880371093,1.5011644409179687,1.5705962890624998,41.16030534351145,-22.793893129770993,-11.694656488549619,-8.410830432128906,-1.216254443359375,3.296815686035156,24.549618320610687,-3.2213740458015265,-10.778625954198473,0.0
12.160000801086426,-8.961496813964843,3.076549133300781,1.2832920898437499,22.595419847328245,-31.328244274809162,-12.290076335877863,-8.327033374023436,-1.0845733520507812,3.0238766967773434,28.580152671755727,-4.366412213740458,-12.50381679389313,0.0
12.170000553131104,-9.892841259765625,2.1930887207031247,0.6655880615234374,10.198473282442748,-36.13740458015267,-10.50381679389313,-8.010998754882811,-0.7015010864257812,2.9089550170898435,31.068702290076335,-4.854961832061068,-13.389312977099237,0.0
12.180000305175781,-8.137891442871092,0.5578489868164063,0.3758896606445312,15.099236641221374,-33.38931297709924,-9.923664122137405,-7.934384301757812,-0.5315127685546874,2.935291235351562,32.213740458015266,-4.152671755725191,-14.274809160305344,0.0
12.190000295639038,-8.736441857910156,1.2521674682617188,0.3902548706054687,4.183206106870229,-36.10687022900763,-12.213740458015268,-8.269572534179687,-0.16041151123046873,3.0142998901367184,33.41984732824427,-4.396946564885496,-14.244274809160306,0.0
12.200000524520874,-9.303867651367186,-1.3383587280273437,0.3687070556640625,11.374045801526718,-31.770992366412212,-11.419847328244275,-8.269572534179687,0.08858546142578125,3.162740393066406,30.15267175572519,-3.0229007633587788,-13.969465648854962,0.0
12.21000051498413,-9.991003527832031,-0.22505495605468748,1.0845733520507812,20.03053435114504,-24.732824427480917,-16.198473282442748,-8.441955053710936,0.34715924072265625,3.1172505615234374,28.229007633587788,-3.1603053435114505,-14.15267175572519,0.0
12.220000505447388,-9.488221179199218,-0.37828386230468747,0.7781155395507812,30.259541984732824,-21.00763358778626,-18.47328244274809,-8.55448253173828,0.5889736083984375,3.0837317382812497,24.9618320610687,-2.8396946564885495,-13.755725190839694,0.0
12.230000495910645,-9.737218151855469,0.948103857421875,1.1923124267578125,29.297709923664122,-20.732824427480917,-20.091603053435115,-8.698134631347656,1.3766659545898436,2.568978381347656,18.229007633587788,-2.6564885496183206,-14.534351145038167,0.0
12.240000486373901,-9.449913952636718,1.714248388671875,0.9888052856445312,26.885496183206108,-20.27480916030534,-20.595419847328245,-9.085995300292968,1.2904746948242187,2.8012159423828122,5.145038167938932,5.480916030534351,-12.595419847328245,0.0
12.250000715255737,-8.722076647949219,1.6472107421875,0.8020575561523438,25.31297709923664,-20.244274809160306,-19.755725190839694,-9.423577734375,1.13006318359375,2.2074539306640624,-0.9618320610687023,7.297709923664122,-11.007633587786259,0.0
12.260000705718994,-9.191340173339842,2.262520568847656,0.7996633544921875,23.6793893129771,-20.244274809160306,-20.50381679389313,-8.09479581298828,0.8571241943359375,2.3127988037109373,-3.9083969465648853,5.709923664122138,-11.038167938931299,0.0
12.270000696182251,-9.258377819824219,2.3032219970703123,0.8475473876953125,19.770992366412212,-19.236641221374047,-19.938931297709924,-8.90643017578125,1.7477672119140624,2.3056161987304686,-11.84732824427481,12.183206106870228,-10.122137404580153,0.0
12.280000686645508,-10.905588562011719,4.853046765136718,1.649604943847656,4.030534351145038,-19.709923664122137,-20.748091603053435,-8.635885388183594,1.4604630126953124,2.825157958984375,-24.16793893129771,19.557251908396946,-7.7251908396946565,0.0
12.290000677108765,-10.575188732910156,3.1771056030273437,1.675941162109375,-4.793893129770993,-21.81679389312977,-18.03053435114504,-8.975862023925782,1.3215993164062498,0.93852705078125,-30.641221374045802,20.9618320610687,-6.778625954198473,0.0
12.300000429153442,-9.239224206542968,-0.27293898925781246,1.3718775512695311,2.7022900763358777,-22.12213740458015,-14.900763358778626,-8.894459167480468,-1.2425906616210938,2.2601263671875,-27.81679389312977,23.00763358778626,-3.954198473282443,0.0
12.310000658035278,-9.370905297851563,-0.44053310546874996,1.7645266235351562,11.419847328244275,-18.458015267175572,-16.33587786259542,-8.315062365722655,-0.8762778076171874,2.6288334228515624,-18.0,20.366412213740457,-5.755725190839694,0.0
12.320000648498535,-9.708487731933593,1.3144167114257812,1.9704279663085937,9.954198473282442,-18.549618320610687,-18.27480916030534,-7.905653881835937,1.2473790649414063,2.0638018310546875,-19.984732824427482,20.18320610687023,-8.198473282442748,0.0
12.330000400543213,-10.869675537109375,3.744531396484375,2.4444798950195312,-2.6717557251908395,-21.557251908396946,-17.908396946564885,-9.418789331054686,-0.03591302490234375,2.463633508300781,-25.633587786259543,28.519083969465647,-4.9465648854961835,0.0
12.34000039100647,-11.463437548828125,2.7269956909179687,3.210624426269531,-10.01526717557252,-24.30534351145038,-17.251908396946565,-10.108319409179687,-1.8411410766601561,2.9927520751953125,-13.083969465648854,24.3206106870229,-2.9923664122137406,0.0
12.350000619888306,-9.97184991455078,0.9624690673828125,2.6336218261718747,-8.351145038167939,-34.82442748091603,-15.541984732824428,-10.570400329589843,-2.0877438476562498,3.2154128295898436,-1.1450381679389312,19.099236641221374,-5.1603053435114505,0.0
12.36000108718872,-11.501744775390625,1.4628572143554686,3.725377783203125,-7.816793893129771,-34.29007633587786,-16.12213740458015,-11.133037719726563,-0.9648632690429687,3.1938650146484373,2.564885496183206,14.946564885496183,-10.122137404580153,0.0
12.37000036239624,-11.822567797851562,0.09337386474609374,4.446032482910156,-6.244274809160306,-41.05343511450382,-15.84732824427481,-11.899182250976562,-0.143652099609375,4.280832568359375,-5.374045801526718,15.893129770992367,-13.099236641221374,0.0
12.380000352859497,-12.636596362304687,0.33758243408203126,6.45476767578125,0.21374045801526717,-46.13740458015267,-17.236641221374047,-12.689268798828124,-0.5506663818359374,5.947196923828125,-15.19083969465649,16.229007633587788,-13.32824427480916,0.0
12.390000581741333,-13.869610217285155,-0.33518823242187495,7.520187414550781,4.0458015267175576,-58.25954198473283,-19.114503816793892,-15.035586425781249,-2.5258827514648434,8.310273962402343,-11.572519083969466,8.50381679389313,-11.755725190839694,0.0
12.400000810623169,-14.372392565917968,-1.7884686401367187,9.09796630859375,18.290076335877863,-74.01526717557252,-19.770992366412212,-13.227964172363281,-3.5529952636718747,6.344634399414062,-0.9618320610687023,-9.419847328244275,-11.786259541984732,0.0
12.410000562667847,-14.915876342773437,-1.426944189453125,9.97184991455078,33.20610687022901,-89.7557251908397,-20.244274809160306,-10.534487304687499,-2.0350714111328125,2.6862942626953124,9.938931297709924,-19.267175572519083,-12.610687022900763,0.0
12.420000553131104,-14.85602130126953,-1.0630255371093749,9.533711010742186,36.229007633587784,-109.93893129770993,-20.015267175572518,-7.9295958984374995,-0.14125789794921875,-0.48123453369140623,9.618320610687023,-19.114503816793892,-12.748091603053435,0.0
12.43000054359436,-14.872780712890624,-1.8411410766601561,9.41639512939453,39.69465648854962,-128.15267175572518,-17.51145038167939,-8.042123376464843,-0.14604630126953125,-1.7717092285156248,11.022900763358779,-13.511450381679388,-10.442748091603054,0.0
12.440000534057617,-13.613430639648437,-3.7924154296875,7.908048083496094,50.62595419847328,-149.2824427480916,-16.061068702290076,-7.7979148071289055,-0.06464344482421874,-1.707065783691406,10.946564885496183,-5.847328244274809,-8.961832061068701,0.0
12.450000524520874,-13.761871142578125,-4.0222587890625,6.3709706176757805,69.05343511450381,-160.94656488549617,-17.114503816793892,-7.781155395507812,-0.7541735229492187,-1.465251416015625,11.801526717557252,3.49618320610687,-8.763358778625955,0.0
12.460000276565552,-12.136208215332031,-3.3494881225585935,2.0374656127929685,81.70992366412214,-172.70229007633588,-17.96946564885496,-8.109161022949218,-1.8698714965820311,-0.5051765502929687,13.450381679389313,9.511450381679388,-9.404580152671755,0.0
12.470000743865967,-11.145008728027342,-1.6807295654296874,-0.6631938598632812,94.45801526717557,-170.15267175572518,-15.755725190839694,-8.774749084472656,-2.8898014038085935,0.5458779785156249,17.450381679389313,14.977099236641221,-12.076335877862595,0.0
12.480000257492065,-9.593566052246093,-0.047884033203124995,-4.024652990722656,94.09160305343511,-166.36641221374046,-11.648854961832061,-8.355763793945313,-1.8267758666992187,0.7230489013671875,20.47328244274809,16.213740458015266,-15.083969465648854,0.0
12.490000486373901,-8.846575134277343,1.7022773803710936,-5.178658190917968,91.64885496183206,-152.4885496183206,-3.099236641221374,-10.034099157714843,-4.039018200683594,2.35589443359375,29.51145038167939,17.17557251908397,-13.221374045801527,0.0
12.500000476837158,-7.223306408691406,1.1061211669921875,-5.916072302246094,85.40458015267176,-133.78625954198472,5.236641221374046,-10.548852514648438,-2.9281086303710935,3.1364041748046874,40.80916030534351,12.687022900763358,-12.732824427480915,0.0
12.510000705718994,-5.951985327148437,0.63206923828125,-4.537012145996093,86.09160305343511,-109.25190839694656,10.748091603053435,-10.670956799316405,-2.1212626708984375,2.91134921875,42.33587786259542,9.618320610687023,-11.297709923664122,0.0
12.520000696182251,-6.342240197753906,1.235408056640625,-3.1555577880859373,80.1526717557252,-86.1526717557252,12.335877862595419,-10.817003100585938,-0.852335791015625,2.6527754394531247,36.97709923664122,3.8931297709923665,-6.2748091603053435,0.0
12.530000925064087,-6.868964562988281,1.946485949707031,-2.0638018310546875,68.04580152671755,-62.82442748091603,13.511450381679388,-10.704475622558594,0.1388636962890625,2.858676782226562,24.99236641221374,-0.183206106870229,-1.984732824427481,0.0
12.540000438690186,-7.022193469238281,2.5761609863281247,-1.649604943847656,50.62595419847328,-46.47328244274809,14.274809160305344,-10.500968481445312,0.258573779296875,2.5426421630859375,16.03053435114504,-7.175572519083969,2.3053435114503817,0.0
12.550000667572021,-8.20971749267578,3.5601778686523438,-0.5219359619140624,31.83206106870229,-26.458015267175572,17.099236641221374,-9.821015209960937,-0.06943184814453125,2.3247698120117186,3.3587786259541983,-9.969465648854962,5.541984732824427,0.0
12.560000658035278,-7.218518005371093,3.8690298828125,-0.8834604125976562,11.648854961832061,-11.923664122137405,21.34351145038168,-9.648632690429688,-0.8044517578125,2.080561242675781,-4.305343511450381,-11.32824427480916,7.648854961832061,0.0
12.570000648498535,-7.656656909179687,4.601655590820312,-0.8786720092773437,-22.732824427480917,-3.0839694656488548,21.603053435114504,-9.253589416503905,-1.3575123413085937,1.5729904907226562,-8.335877862595419,-13.770992366412214,8.351145038167939,0.0
12.580000638961792,-7.086836914062499,2.942473840332031,-1.2856862915039062,-45.48091603053435,4.442748091603053,25.114503816793892,-9.579200842285156,-2.0278888061523435,0.4836287353515625,-2.885496183206107,-19.61832061068702,9.099236641221374,0.0
12.590000629425049,-7.252036828613281,2.8945898071289062,-1.1109095703125,-60.94656488549618,14.977099236641221,25.69465648854962,-8.259995727539062,-0.74699091796875,0.3950432739257812,-6.732824427480916,-20.106870229007633,7.3893129770992365,0.0
12.600000619888306,-6.873752966308594,2.142810485839844,-1.350329736328125,-76.50381679389314,22.82442748091603,27.221374045801525,-8.870517150878905,-0.7757213378906249,0.9696516723632812,-10.748091603053435,-13.786259541984732,8.213740458015268,0.0
12.610000371932983,-5.872976672363281,0.4572925170898437,-1.8698714965820311,-82.06106870229007,31.236641221374047,29.0381679389313,-9.773131176757811,-0.6512228515624999,1.649604943847656,-18.015267175572518,-6.656488549618321,10.778625954198473,0.0
12.620000839233398,-5.691017346191406,-0.5434837768554687,-2.2194249389648437,-80.18320610687023,44.76335877862596,30.137404580152673,-9.241618408203124,-0.5243301635742187,2.4157494750976563,-22.595419847328245,-3.282442748091603,11.786259541984732,0.0
12.630000591278076,-4.879382983398437,-0.9457096557617187,-2.2601263671875,-77.08396946564885,59.74045801526717,28.85496183206107,-8.240842114257813,0.6296750366210937,1.9393033447265624,-24.0,-5.358778625954199,11.435114503816793,0.0
12.640000581741333,-4.716577270507813,-1.4053963745117186,-1.927332336425781,-78.09160305343511,71.80152671755725,27.282442748091604,-9.576806640625,-0.9864110839843749,2.4253262817382812,-28.595419847328245,0.2748091603053435,14.702290076335878,0.0
12.65000057220459,-4.903325,-2.5067291381835934,-1.1276689819335937,-75.14503816793894,86.33587786259542,26.885496183206108,-9.557653027343749,-1.2210428466796874,3.1316157714843746,-26.610687022900763,-1.5877862595419847,16.885496183206108,0.0
12.660000562667847,-5.528211633300781,-2.932897033691406,-0.4070142822265625,-72.35114503816794,97.7557251908397,24.732824427480917,-9.595960253906249,-1.1635820068359375,3.181894006347656,-24.82442748091603,-4.198473282442748,17.87786259541985,0.0
12.670000314712524,-6.457161877441406,-2.5043349365234375,1.484405029296875,-68.44274809160305,107.96946564885496,23.801526717557252,-9.172186560058593,-1.0893617553710937,3.153163586425781,-24.65648854961832,-6.931297709923665,18.793893129770993,0.0
12.68000054359436,-7.639897497558593,-2.1715409057617188,4.082113830566406,-61.51145038167939,116.25954198473282,25.31297709923664,-9.34696328125,-1.5777788940429687,3.1292215698242187,-24.549618320610687,-9.450381679389313,19.328244274809162,0.0
12.690000534057617,-8.987833032226561,-2.114080065917969,7.2903440551757805,-43.69465648854962,121.6793893129771,26.793893129770993,-9.349357482910156,-1.7980454467773437,2.9759926635742184,-25.267175572519083,-12.67175572519084,19.435114503816795,0.0
12.700000524520874,-8.856151940917968,-2.3535002319335936,9.658209497070311,-19.068702290076335,120.97709923664122,30.03053435114504,-9.478644372558593,-2.020706201171875,2.7724855224609373,-22.885496183206108,-14.80916030534351,20.412213740458014,0.0
12.71000051498413,-10.067617980957031,-2.8371289672851563,10.481814868164061,14.427480916030534,119.32824427480917,32.50381679389313,-9.694122521972655,-3.3327287109375,3.0693665283203124,-16.931297709923665,-16.763358778625953,20.946564885496183,0.0
12.720000505447388,-10.529698901367187,-1.2473790649414063,10.16338604736328,40.61068702290076,112.99236641221374,34.152671755725194,-10.031704956054687,-3.6918589599609373,3.2154128295898436,-3.236641221374046,-21.908396946564885,19.31297709923664,0.0
12.730000495910645,-12.71081661376953,0.8954314208984374,9.473855969238281,42.35114503816794,102.73282442748092,29.083969465648856,-10.01733974609375,-1.8938135131835936,2.0661960327148434,1.0687022900763359,-26.03053435114504,15.709923664122137,0.0
12.740000486373901,-10.752359655761719,-2.8993782104492185,7.903259680175781,42.19847328244275,82.8854961832061,25.984732824427482,-10.342951171874999,-1.455674609375,2.310404602050781,4.213740458015267,-24.366412213740457,15.526717557251908,0.0
12.750000238418579,-13.460201733398437,-2.645592834472656,9.811438403320311,42.74809160305343,72.59541984732824,14.641221374045802,-9.260772021484375,-1.8052280517578123,1.465251416015625,6.259541984732825,-27.419847328244273,14.900763358778626,0.0
12.760000705718994,-15.612589025878906,0.0143652099609375,8.779537487792968,22.412213740458014,49.02290076335878,5.0534351145038165,-9.344569079589844,-0.7948749511718749,0.5051765502929687,3.8625954198473282,-24.68702290076336,14.488549618320612,0.0
12.77000093460083,-17.468095312499997,2.308010400390625,7.0102224609374995,4.549618320610687,34.61068702290076,4.625954198473282,-9.145850341796875,0.9217676391601562,0.7038952880859375,-10.687022900763358,-12.51908396946565,15.450381679389313,0.0
12.780000686645508,-16.335637927246093,1.4006079711914061,5.6024318847656245,-12.061068702290076,16.366412213740457,9.48091603053435,-10.759542260742187,-2.3726538452148436,1.879448303222656,-14.458015267175572,1.5572519083969465,21.053435114503817,0.0
12.790000677108765,-15.617377429199218,-1.0989385620117187,5.374982727050781,-5.709923664122138,6.885496183206107,14.15267175572519,-10.364498986816406,-2.5737667846679684,1.5969325073242187,-2.3206106870229006,1.297709923664122,19.96946564885496,0.0
12.800000667572021,-14.310143322753905,-0.8499415893554687,4.575319372558593,10.564885496183207,5.236641221374046,13.358778625954198,-9.749189160156249,-3.2345664428710936,2.023100402832031,3.312977099236641,9.893129770992367,16.412213740458014,0.0
12.8100004196167,-12.20085166015625,-0.08858546142578125,2.722207287597656,2.198473282442748,-2.717557251908397,9.053435114503817,-11.786654772949218,-3.6200329101562496,1.9656395629882812,15.86259541984733,15.450381679389313,15.587786259541986,0.0
12.820000648498535,-9.6917283203125,-0.4381389038085937,1.8028338500976562,8.244274809160306,-0.0916030534351145,3.969465648854962,-10.467449658203124,-2.463633508300781,1.5466542724609373,23.69465648854962,14.458015267175572,11.603053435114504,0.0
12.830000638961792,-8.705317236328124,1.5083470458984374,1.0534487304687499,3.0229007633587788,0.22900763358778625,-2.9770992366412212,-9.955090502929687,-0.32561142578124996,0.4429273071289062,24.519083969465647,16.427480916030536,6.702290076335878,0.0
12.840000629425049,-7.867346655273437,2.3319524169921872,-0.22266075439453123,-1.633587786259542,3.099236641221374,-4.213740458015267,-11.415553515625,-1.3575123413085937,0.46208092041015625,29.709923664122137,21.419847328244273,7.633587786259542,0.0
12.850000619888306,-4.319139794921875,-0.316034619140625,-2.3511060302734372,7.1603053435114505,12.488549618320612,-0.030534351145038167,-11.654973681640625,-0.3758896606445312,0.9528922607421875,29.572519083969464,25.404580152671755,6.564885496183206,0.0
12.860000610351562,-4.809951135253906,0.055066638183593745,-2.839523168945312,16.33587786259542,27.251908396946565,-1.6946564885496183,-11.870451831054687,-0.29448680419921874,0.718260498046875,28.396946564885496,29.52671755725191,6.2748091603053435,0.0
12.87000036239624,-5.5090580200195305,2.003946789550781,-1.915361328125,14.931297709923664,38.56488549618321,-5.374045801526718,-9.6917283203125,0.7972691528320313,0.8403647827148437,22.427480916030536,27.236641221374047,4.198473282442748,0.0
12.880000829696655,-6.890512377929687,3.220201232910156,-1.0845733520507812,5.00763358778626,45.86259541984733,-5.236641221374046,-9.911994873046874,2.032677209472656,0.5386953735351562,9.755725190839694,30.38167938931298,3.801526717557252,0.0
12.890000581741333,-7.711723547363281,3.4548329956054684,-0.27293898925781246,-1.9541984732824427,52.74809160305343,-3.8625954198473282,-9.581595043945311,1.8842367065429686,1.0390835205078124,-5.297709923664122,36.82442748091603,5.66412213740458,0.0
12.900000810623169,-8.087613208007811,2.9759926635742184,0.07900865478515624,-10.961832061068701,54.229007633587784,-2.7786259541984735,-10.524910498046875,0.9433154541015625,1.687912170410156,-4.061068702290076,38.961832061068705,8.885496183206106,0.0
12.910000562667847,-9.631873278808593,2.4205378784179685,0.8283937744140625,-15.465648854961833,55.64885496183206,-2.6564885496183206,-11.231199987792968,-1.1516109985351561,2.770091320800781,6.641221374045801,34.33587786259542,10.473282442748092,0.0
12.920000553131104,-9.674968908691406,1.2306196533203124,1.2210428466796874,-15.34351145038168,54.01526717557252,-0.7938931297709924,-11.200075366210937,-0.6200982299804687,2.987963671875,12.732824427480915,27.17557251908397,7.694656488549619,0.0
12.930000305175781,-10.867281335449219,1.5107412475585937,2.1835119140624997,-13.17557251908397,53.6793893129771,-0.7633587786259542,-9.674968908691406,1.7166425903320313,2.389413256835937,7.114503816793893,20.061068702290076,2.6717557251908395,0.0
12.940000534057617,-12.11705460205078,2.3822306518554686,3.239354846191406,-19.52671755725191,48.534351145038165,-0.6106870229007634,-10.77630167236328,0.10295067138671875,2.896984008789062,6.106870229007634,21.587786259541986,6.0,0.0
12.950000762939453,-11.975796704101562,1.0582371337890624,3.4356793823242184,-21.81679389312977,43.25190839694657,0.9770992366412213,-9.861716638183593,1.9608511596679685,2.710236279296875,5.587786259541985,14.778625954198473,5.358778625954199,0.0
12.96000051498413,-9.718064538574218,0.15083470458984374,2.4133552734375,-16.778625954198475,35.038167938931295,2.9923664122137406,-10.213664282226562,1.4006079711914061,2.8371289672851563,0.12213740458015267,16.9618320610687,6.809160305343512,0.0
12.970000505447388,-11.762712756347655,1.7764976318359373,2.051830822753906,-17.34351145038168,33.969465648854964,0.7022900763358778,-10.189722265624999,1.3766659545898436,3.258508459472656,-1.3893129770992367,15.740458015267176,7.511450381679389,0.0
12.980000495910645,-11.84890401611328,1.5897499023437498,1.879448303222656,-19.64885496183206,27.16030534351145,-1.8778625954198473,-10.50815108642578,1.388636962890625,3.2417490478515623,-1.9236641221374047,13.32824427480916,8.580152671755725,0.0
12.990000247955322,-10.654197387695312,1.678335363769531,2.1906945190429687,-18.015267175572518,22.625954198473284,-2.4427480916030535,-10.271125122070313,1.5418658691406248,3.399766357421875,-6.519083969465649,11.282442748091603,8.992366412213741,0.0
13.000000715255737,-9.897629663085937,1.2138602416992186,1.0079588989257813,-24.0,13.068702290076336,-1.816793893129771,-10.35492218017578,1.4724340209960938,3.265691064453125,-9.511450381679388,9.099236641221374,9.48091603053435,0.0
13.010000705718994,-9.373299499511718,1.1348515869140625,0.43574470214843747,-18.931297709923665,12.106870229007633,-1.099236641221374,-9.811438403320311,1.4006079711914061,3.2058360229492187,-13.98473282442748,6.412213740458015,9.648854961832061,0.0
13.020000457763672,-8.913612780761719,1.5346832641601562,0.13407529296874998,-16.15267175572519,11.740458015267176,-0.3511450381679389,-9.739612353515625,0.9145850341796874,3.134009973144531,-15.16030534351145,4.259541984732825,10.580152671755725,0.0
13.030000925064087,-8.769960681152343,1.714248388671875,-0.34715924072265625,-15.725190839694656,11.816793893129772,1.5572519083969465,-9.478644372558593,0.8714894042968749,3.071760729980469,-17.587786259541986,1.251908396946565,11.389312977099237,0.0
13.040000677108765,-8.913612780761719,1.6041151123046875,-0.3591302490234375,-17.129770992366414,12.885496183206106,3.7709923664122136,-9.866505041503906,0.21787235107421873,3.227383837890625,-17.801526717557252,-0.5954198473282443,11.755725190839694,0.0
13.050000429153442,-8.98304462890625,1.3814543579101561,-0.4429273071289062,-16.82442748091603,13.86259541984733,5.786259541984733,-9.512163195800781,0.1197100830078125,3.1411925781249996,-18.18320610687023,-4.030534351145038,11.603053435114504,0.0
13.060000658035278,-9.251195214843749,1.5203180541992187,-0.30406361083984373,-15.877862595419847,15.007633587786259,6.99236641221374,-10.500968481445312,-1.7669208251953124,3.9169139160156248,-12.885496183206106,-5.038167938931298,12.549618320610687,0.0
13.070000410079956,-9.394847314453125,1.0630255371093749,-0.3854664672851562,-16.977099236641223,15.557251908396946,7.1603053435114505,-11.212046374511718,-1.0414777221679687,3.6463691284179687,-1.9389312977099236,-12.442748091603054,10.488549618320612,0.0
13.080000638961792,-9.440337145996093,0.8786720092773437,0.047884033203124995,-15.786259541984732,16.458015267175572,6.396946564885496,-9.3852705078125,-0.32082302246093747,3.6583401367187496,-6.183206106870229,-17.31297709923664,7.282442748091603,0.0
13.090000629425049,-9.883264453125,0.9433154541015625,0.2561795776367187,-18.732824427480917,15.526717557251908,5.419847328244275,-8.74601866455078,1.707065783691406,1.5418658691406248,-16.427480916030536,-22.412213740458014,4.198473282442748,0.0
13.100000619888306,-10.357316381835936,0.74699091796875,0.4213794921875,-19.786259541984734,15.603053435114504,3.2213740458015265,-10.287884533691406,0.55545478515625,2.0829554443359375,-21.099236641221374,-16.458015267175572,6.99236641221374,0.0
13.110000371932983,-8.259995727539062,-2.8467057739257813,-0.29927520751953124,-6.183206106870229,17.328244274809162,3.3282442748091605,-9.813832604980469,1.0845733520507812,1.8243816650390623,-23.541984732824428,-16.763358778625953,5.969465648854962,0.0
13.120000839233398,-10.9175595703125,-0.5195417602539062,0.5865794067382812,5.358778625954199,23.786259541984734,-3.3740458015267176,-9.1554271484375,1.39821376953125,2.003946789550781,-34.93129770992366,-11.938931297709924,4.595419847328245,0.0
13.130000352859497,-11.259930407714844,1.2856862915039062,1.20667763671875,5.480916030534351,23.450381679389313,-5.419847328244275,-9.605537060546874,-0.0526724365234375,1.7812860351562498,-32.50381679389313,-10.045801526717558,5.435114503816794,0.0
13.140000820159912,-10.606313354492187,2.4205378784179685,0.679953271484375,0.8549618320610687,17.17557251908397,-5.145038167938932,-9.713276135253906,0.016759411621093748,1.70467158203125,-30.259541984732824,-9.587786259541986,4.931297709923665,0.0
13.15000057220459,-10.979808813476561,3.507505432128906,0.6751648681640625,-15.877862595419847,10.213740458015268,-3.480916030534351,-9.907206469726562,-0.8403647827148437,1.8148048583984373,-24.671755725190838,-7.893129770992366,4.687022900763359,0.0
13.160000562667847,-9.832986218261718,0.430956298828125,0.13407529296874998,-14.67175572519084,7.862595419847328,-0.3511450381679389,-9.746794958496093,-1.927332336425781,1.8842367065429686,-11.17557251908397,-11.007633587786259,4.0458015267175576,0.0
13.170000553131104,-9.524134204101562,0.105344873046875,0.28969840087890625,-5.9541984732824424,9.755725190839694,-2.0916030534351147,-10.340556970214843,-1.5322890624999999,1.7334020019531249,1.4045801526717556,-13.32824427480916,1.6488549618320612,0.0
13.18000054359436,-9.730035546875,0.3184288208007812,-0.086191259765625,-0.3816793893129771,11.19083969465649,-2.564885496183206,-10.13226142578125,-1.1468225952148436,1.8363526733398436,11.358778625954198,-14.13740458015267,-0.7633587786259542,0.0
13.190000534057617,-9.248801013183593,0.47884033203125,-0.20829554443359374,3.053435114503817,12.717557251908397,-2.6717557251908395,-10.01015714111328,0.5913678100585937,0.97683427734375,14.290076335877863,-15.648854961832061,-4.1679389312977095,0.0
13.200000524520874,-9.677363110351562,1.608903515625,0.10295067138671875,2.9618320610687023,14.946564885496183,-3.8473282442748094,-9.964667309570311,1.944091748046875,0.565031591796875,-0.9007633587786259,-9.267175572519085,-5.908396946564886,0.0
13.21000051498413,-9.86411083984375,2.3870190551757813,0.19153613281249998,-3.0229007633587788,15.755725190839694,-3.8931297709923665,-9.557653027343749,0.8882488159179687,1.1611878051757811,-14.702290076335878,-0.8396946564885496,-4.137404580152672,0.0
13.220000505447388,-10.24000050048828,2.1356278808593747,0.24181436767578124,-9.526717557251908,14.0,-2.9923664122137406,-10.319009155273436,-0.09337386474609374,1.6160861206054686,-10.106870229007633,1.465648854961832,-1.251908396946565,0.0
13.230000495910645,-10.08677159423828,1.3335703247070312,0.06703764648437499,-8.183206106870228,13.221374045801527,-2.6259541984732824,-9.830592016601562,-0.3806780639648437,2.1643583007812497,-6.244274809160306,1.3893129770992367,-2.885496183206107,0.0
13.240000486373901,-10.101136804199218,1.1540052001953125,-0.11013327636718749,-6.580152671755725,12.885496183206106,-2.7938931297709924,-10.20887587890625,-1.180341418457031,2.4205378784179685,-0.21374045801526717,1.633587786259542,-4.183206106870229,0.0
13.250000238418579,-9.593566052246093,1.1061211669921875,0.031124621582031248,-5.557251908396947,13.572519083969466,-2.9923664122137406,-8.813056311035156,0.488417138671875,2.1595698974609374,-3.114503816793893,-1.0534351145038168,-7.099236641221374,0.0
13.260000705718994,-9.919177478027343,1.4604630126953124,0.4213794921875,-6.717557251908397,13.419847328244275,-3.0381679389312977,-9.418789331054686,-0.28490999755859375,2.1212626708984375,-2.2748091603053435,0.9770992366412213,-6.122137404580153,0.0
13.27000093460083,-9.868899243164062,1.3144167114257812,0.9074024291992187,-7.038167938931298,13.083969465648854,-2.6259541984732824,-9.6917283203125,-1.1947066284179686,2.849099975585937,5.282442748091603,0.6564885496183206,-5.0534351145038165,0.0
13.280000686645508,-10.053252770996092,0.9816226806640624,1.209071838378906,-6.748091603053435,11.435114503816793,-2.900763358778626,-10.24718310546875,-1.8100164550781248,3.5506010620117183,23.52671755725191,-5.648854961832061,-5.816793893129771,0.0
13.290000438690186,-9.931148486328125,0.430956298828125,1.6256629272460936,-0.8396946564885496,10.366412213740459,-3.3740458015267176,-10.309432348632813,-1.43652099609375,3.2561142578125,36.045801526717554,-12.244274809160306,-7.404580152671755,0.0
13.300000429153442,-10.08677159423828,0.5219359619140624,2.080561242675781,4.152671755725191,9.007633587786259,-4.290076335877862,-9.76116016845703,-1.0079588989257813,3.1483751831054687,47.11450381679389,-19.17557251908397,-10.045801526717558,0.0
13.3100004196167,-9.437942944335937,0.055066638183593745,1.848323681640625,9.893129770992367,7.267175572519084,-3.8625954198473282,-7.754819177246094,1.7908628417968748,2.1835119140624997,41.14503816793893,-23.374045801526716,-13.801526717557252,0.0
13.320000648498535,-9.94072529296875,1.5466542724609373,1.9752163696289062,11.022900763358779,5.679389312977099,-5.541984732824427,-7.098807922363281,2.626439221191406,2.233790148925781,17.267175572519083,-14.748091603053435,-14.687022900763358,0.0
13.330000638961792,-9.200916979980468,0.4908113403320312,1.8028338500976562,13.007633587786259,3.3282442748091605,-4.2748091603053435,-7.79552060546875,2.710236279296875,2.070984436035156,-2.6412213740458017,-4.427480916030534,-11.709923664122137,0.0
13.340000629425049,-9.852139831542969,1.467645617675781,1.5107412475585937,16.03053435114504,1.7557251908396947,-5.312977099236641,-8.779537487792968,0.4429273071289062,2.530671154785156,-6.900763358778626,-0.0916030534351145,-8.106870229007633,0.0
13.350000619888306,-10.043675964355469,2.109291662597656,1.0654197387695312,12.290076335877863,-0.6717557251908397,-6.0458015267175576,-8.760383874511719,0.21787235107421873,2.9831752685546875,-3.282442748091603,-1.450381679389313,-8.213740458015268,0.0
13.360000610351562,-10.510545288085936,2.980781066894531,0.737414111328125,-2.015267175572519,-8.335877862595419,-5.236641221374046,-8.652644799804687,-0.02633621826171875,2.9759926635742184,-4.488549618320611,-1.465648854961832,-9.038167938931299,0.0
13.37000060081482,-8.832209924316405,1.3383587280273437,0.17238251953125,-7.404580152671755,-11.969465648854962,-1.5877862595419847,-8.712499841308594,-0.5530605834960938,2.935291235351562,-5.465648854961832,-1.5725190839694656,-9.17557251908397,0.0
13.380000829696655,-8.147468249511718,0.2561795776367187,0.06943184814453125,-1.7557251908396947,-6.656488549618321,-0.4122137404580153,-8.724470849609375,-0.3758896606445312,2.923320227050781,-6.519083969465649,-1.4045801526717556,-9.282442748091603,0.0
13.390000343322754,-8.307879760742187,0.2561795776367187,-0.37828386230468747,-3.954198473282443,-5.557251908396947,-1.4045801526717556,-9.133879333496093,-0.6727706665039062,2.990357873535156,-5.343511450381679,-1.3435114503816794,-9.389312977099237,0.0
13.400001049041748,-8.801085302734375,0.18914193115234373,-0.03591302490234375,4.305343511450381,2.6259541984732824,-2.7786259541984735,-8.724470849609375,-0.55545478515625,2.6695348510742187,-3.312977099236641,-2.0610687022900764,-10.290076335877863,0.0
13.410000562667847,-9.5384994140625,1.9033903198242186,0.3280056274414062,0.6564885496183206,5.694656488549619,-5.099236641221374,-9.564835632324218,-1.350329736328125,2.806004345703125,-0.7022900763358778,-1.2671755725190839,-10.061068702290076,0.0
13.420000314712524,-9.852139831542969,2.2673089721679687,0.5722141967773438,-7.129770992366412,5.312977099236641,-5.709923664122138,-9.629479077148437,-0.3495534423828125,2.4756045166015626,5.6183206106870225,-4.641221374045801,-10.625954198473282,0.0
13.43000054359436,-9.447519750976562,1.8124106567382812,0.7829039428710937,-9.389312977099237,6.015267175572519,-5.00763358778626,-8.966285217285156,0.411802685546875,2.4157494750976563,-3.1297709923664123,-0.42748091603053434,-11.633587786259541,0.0
13.440000534057617,-9.437942944335937,1.4891934326171874,0.7589619262695312,-10.748091603053435,6.183206106870229,-4.2748091603053435,-8.578424548339843,0.028730419921875,2.1452046874999997,-3.9236641221374047,-0.3969465648854962,-11.206106870229007,0.0
13.450000286102295,-9.253589416503905,0.8643067993164062,0.6655880615234374,-6.061068702290076,7.847328244274809,-4.564885496183206,-9.196128576660156,-0.17477672119140625,2.592920397949219,-1.6030534351145038,0.9618320610687023,-10.580152671755725,0.0
13.460000276565552,-10.639832177734375,2.461239306640625,1.0366893188476562,-10.610687022900763,6.33587786259542,-6.6106870229007635,-8.839392529296875,0.201112939453125,2.5570073730468748,-3.404580152671756,1.3129770992366412,-11.114503816793894,0.0
13.470000505447388,-9.279925634765624,0.3399766357421875,0.9888052856445312,-8.458015267175572,6.763358778625954,-5.145038167938932,-9.162609753417968,-0.6727706665039062,2.808398547363281,-3.5572519083969465,1.6641221374045803,-10.366412213740459,0.0
13.480000257492065,-9.557653027343749,1.5442600708007812,1.149216796875,-10.244274809160306,6.99236641221374,-6.3816793893129775,-8.978256225585938,-0.28490999755859375,2.7054478759765623,-4.519083969465649,1.7404580152671756,-10.931297709923664,0.0
13.490000247955322,-9.629479077148437,1.5227122558593749,1.1276689819335937,-13.725190839694656,6.183206106870229,-6.259541984732825,-8.88009395751953,-0.5195417602539062,2.7916391357421872,-3.801526717557252,1.099236641221374,-11.17557251908397,0.0
13.500000476837158,-9.351751684570312,1.1156979736328125,1.199495031738281,-14.183206106870228,5.633587786259542,-6.061068702290076,-8.74601866455078,-0.44053310546874996,2.844311572265625,-4.656488549618321,2.0916030534351147,-11.618320610687023,0.0
13.510000944137573,-9.229647399902344,1.0749965454101562,1.1372457885742187,-13.541984732824428,5.786259541984733,-6.3816793893129775,-8.772354882812499,-0.7134720947265625,3.0166940917968748,-4.0,2.2442748091603053,-11.755725190839694,0.0
13.520000696182251,-9.528922607421874,1.465251416015625,1.2042834350585936,-13.969465648854962,5.435114503816794,-6.458015267175573,-8.530540515136718,-0.2346317626953125,2.961627453613281,-3.3282442748091605,1.6030534351145038,-11.877862595419847,0.0
13.530000686645508,-9.358934289550781,1.1324573852539062,1.2401964599609374,-14.381679389312977,4.396946564885496,-6.412213740458015,-8.858546142578124,-0.6919242797851562,3.0454245117187497,-2.4732824427480917,2.3206106870229006,-11.221374045801527,0.0
13.540000677108765,-9.418789331054686,0.8164227661132812,1.5083470458984374,-13.618320610687023,4.091603053435114,-6.900763358778626,-8.633491186523438,-0.29927520751953124,2.952050646972656,-1.083969465648855,1.450381679389313,-11.068702290076336,0.0
13.550000667572021,-9.05965908203125,-0.24181436767578124,1.465251416015625,-8.396946564885496,3.1755725190839694,-6.67175572519084,-8.508992700195313,-0.24181436767578124,2.9448680419921875,-0.13740458015267176,0.6564885496183206,-11.221374045801527,0.0
13.5600004196167,-9.282319836425781,-0.42377369384765623,1.9488801513671874,8.366412213740459,10.16793893129771,-8.83969465648855,-8.384494213867187,-0.7110778930664062,3.0142998901367184,0.3969465648854962,1.251908396946565,-11.32824427480916,0.0
13.570000648498535,-10.785878479003905,1.8818425048828125,2.4516625,7.938931297709924,9.221374045801527,-12.290076335877863,-8.724470849609375,-0.9840168823242187,3.019088293457031,4.33587786259542,0.9312977099236641,-12.01526717557252,0.0
13.580000877380371,-11.109095703125,3.0119056884765625,3.2034418212890623,2.5801526717557253,3.7099236641221376,-12.274809160305344,-8.583212951660157,-0.9433154541015625,2.9544448486328125,7.358778625954199,0.10687022900763359,-12.259541984732824,0.0
13.59000039100647,-9.356540087890625,1.0917559570312498,2.8275521606445313,0.6259541984732825,-2.9618320610687023,-9.725190839694656,-8.336610180664062,-0.6368576416015624,2.722207287597656,9.435114503816793,-0.366412213740458,-12.80916030534351,0.0
13.600000619888306,-10.077194787597655,2.5474305664062498,3.375824340820312,-4.106870229007634,-9.32824427480916,-10.763358778625955,-8.197746484375,-0.28730419921875,2.2026655273437497,8.82442748091603,0.1984732824427481,-13.099236641221374,0.0
13.610000610351562,-9.188945971679686,0.33758243408203126,3.4811692138671875,1.816793893129771,-12.305343511450381,-8.51908396946565,-8.844180932617187,-1.5610194824218748,2.8467057739257813,7.786259541984733,4.885496183206107,-11.648854961832061,0.0
13.620000839233398,-8.865728747558594,0.13168109130859373,3.1794998046874996,8.732824427480915,-16.30534351145038,-8.061068702290076,-7.41244833984375,-0.7134720947265625,2.7150246826171873,4.137404580152672,5.312977099236641,-13.526717557251908,0.0
13.630000352859497,-8.908824377441405,0.22266075439453123,2.5737667846679684,14.961832061068701,-18.366412213740457,-8.183206106870228,-7.395688928222656,-1.1420341918945311,2.6048914062499997,8.763358778625955,4.152671755725191,-14.549618320610687,0.0
13.640000581741333,-8.954314208984375,0.6607996582031249,2.3965958618164063,15.572519083969466,-21.14503816793893,-9.725190839694656,-7.127538342285156,-1.7405846069335937,2.6982652709960937,13.48091603053435,2.7022900763358777,-14.396946564885496,0.0
13.65000033378601,-9.023746057128905,0.6105214233398437,2.5737667846679684,16.290076335877863,-23.49618320610687,-11.49618320610687,-7.510610607910156,-1.1037269653320312,3.284844677734375,21.572519083969464,1.297709923664122,-14.778625954198473,0.0
13.660000801086426,-9.567229833984374,1.2665326782226562,3.028665100097656,13.419847328244275,-28.076335877862597,-12.778625954198473,-7.220912207031249,-0.7326257080078125,2.834734765625,22.061068702290076,-1.0381679389312977,-14.229007633587786,0.0
13.670000553131104,-8.049305981445311,-0.7637503295898437,2.2457611572265623,12.091603053435115,-37.770992366412216,-10.702290076335878,-7.003039855957031,-0.15562310791015624,2.971204260253906,19.236641221374047,-1.251908396946565,-13.84732824427481,0.0
13.68000054359436,-9.775525378417969,1.7357962036132812,3.2728736694335936,2.6106870229007635,-43.49618320610687,-12.427480916030534,-7.0269818725585935,0.1005564697265625,3.1459809814453124,12.564885496183207,-2.50381679389313,-13.511450381679388,0.0
13.690000295639038,-10.072406384277343,1.199495031738281,4.247313745117188,-1.5267175572519085,-50.396946564885496,-10.992366412213741,-6.8593877563476555,0.9313444458007812,2.8730419921875,5.083969465648855,-2.2595419847328246,-14.198473282442748,0.0
13.700000286102295,-9.677363110351562,1.3000515014648437,4.4196962646484375,-3.3893129770992365,-61.29770992366412,-8.793893129770993,-6.892906579589844,3.294421484375,2.2601263671875,-6.488549618320611,-0.8854961832061069,-16.12213740458015,0.0
13.71000051498413,-9.548076220703125,0.7805097412109374,4.893748193359374,-5.709923664122138,-71.92366412213741,-10.13740458015267,-9.131485131835937,2.5043349365234375,3.414131567382812,-19.297709923664122,6.259541984732825,-17.022900763358777,0.0
13.720000267028809,-13.488932153320311,4.07971962890625,6.086060620117187,-17.129770992366414,-86.61068702290076,-14.549618320610687,-14.238317272949217,0.1484405029296875,7.551312036132812,-27.022900763358777,6.702290076335878,-19.557251908396946,0.0
13.730000257492065,-12.258312499999999,-0.38786066894531246,6.356605407714843,-18.946564885496183,-107.70992366412214,-12.427480916030534,-16.91264052734375,-0.8499415893554687,11.168950744628905,-38.213740458015266,-4.458015267175573,-21.709923664122137,0.0
13.740000486373901,-13.278242407226562,-1.1276689819335937,7.266402038574219,-1.099236641221374,-117.63358778625954,-12.335877862595419,-16.63251893310547,-2.2481553588867187,10.096348400878906,-37.603053435114504,-23.267175572519083,-20.16793893129771,0.0
13.750000715255737,-14.53040987548828,-1.3575123413085937,7.821856823730468,9.709923664122137,-131.87786259541986,-14.183206106870228,-16.38352196044922,-5.990292553710937,6.909665991210937,-32.35114503816794,-36.152671755725194,-18.763358778625953,0.0
13.760000705718994,-16.299724902343748,-1.0223241088867188,8.418013037109375,23.099236641221374,-145.12977099236642,-12.396946564885496,-11.640608471679688,-4.587290380859375,0.4525041137695312,-14.641221374045802,-50.656488549618324,-19.480916030534353,0.0
13.770000696182251,-16.199168432617185,-0.7829039428710937,6.787561706542968,21.572519083969464,-157.63358778625954,-10.274809160305344,-10.299855541992187,-0.718260498046875,-1.8411410766601561,-1.6793893129770991,-49.74045801526717,-16.53435114503817,0.0
13.780000686645508,-17.14248388671875,0.48123453369140623,5.949591125488281,16.38167938931298,-164.7175572519084,-10.244274809160306,-8.590395556640624,1.6065093139648436,-2.7461493041992187,6.870229007633588,-43.221374045801525,-12.030534351145038,0.0
13.790000677108765,-15.58385860595703,-0.2753331909179687,2.8514941772460936,10.488549618320612,-178.19847328244273,-8.366412213740459,-6.4092778442382805,3.782838623046875,-2.868253588867187,10.198473282442748,-34.44274809160305,-6.595419847328245,0.0
13.800000667572021,-14.53040987548828,-1.4173673828125,0.689530078125,14.580152671755725,-178.93129770992365,-5.541984732824427,-5.137956762695312,4.474762902832031,-3.191470812988281,0.33587786259541985,-22.793893129770993,-0.32061068702290074,0.0
13.8100004196167,-12.564770312499999,-1.2593500732421874,-2.099714855957031,18.793893129770993,-173.40458015267177,-5.419847328244275,-6.868964562988281,2.729389892578125,-3.6942531616210936,-14.83969465648855,-6.33587786259542,6.320610687022901,0.0
13.820000648498535,-9.114725720214842,-3.0645781249999997,-4.299986181640625,34.717557251908396,-160.93129770992365,-1.8015267175572518,-9.14824454345703,-0.8379705810546875,-2.50912333984375,-20.793893129770993,8.458015267175572,11.038167938931299,0.0
13.830000638961792,-6.68461103515625,-5.2648494506835934,-5.193023400878906,60.35114503816794,-135.31297709923663,-0.9618320610687023,-11.434707128906249,-3.399766357421875,-0.7589619262695312,-5.297709923664122,13.282442748091603,14.030534351145038,0.0
13.84000039100647,-4.695029455566406,-5.57370146484375,-6.7277066650390625,77.93893129770993,-111.63358778625954,-7.877862595419847,-11.496956372070311,-2.2457611572265623,-0.22505495605468748,0.5343511450381679,14.748091603053435,8.274809160305344,0.0
13.850000381469727,-4.99909306640625,-3.414131567382812,-5.559336254882812,93.55725190839695,-75.6793893129771,-15.022900763358779,-11.085153686523437,-1.85790048828125,0.07422025146484375,-10.198473282442748,22.610687022900763,5.603053435114504,0.0
13.860000371932983,-5.6311623046875,-1.8626888916015625,-4.338293408203125,92.99236641221374,-50.961832061068705,-19.34351145038168,-11.391611499023437,-2.4396914916992185,0.8786720092773437,-9.893129770992367,22.80916030534351,9.938931297709924,0.0
13.87000036239624,-5.626373901367187,-0.04548983154296875,-3.1004911499023438,93.05343511450381,-27.0381679389313,-21.221374045801525,-9.923965881347655,-0.8906430175781249,0.2561795776367187,-14.885496183206106,21.633587786259543,10.122137404580153,0.0
13.880000829696655,-8.480262280273436,5.623979699707031,-0.5267243652343749,72.25954198473282,-11.129770992366412,-21.954198473282442,-10.196904870605469,-2.3415292236328122,1.4125789794921875,-24.106870229007633,28.18320610687023,11.969465648854962,0.0
13.890000581741333,-9.890447058105469,6.5960255737304685,0.13646949462890623,31.49618320610687,-10.045801526717558,-14.65648854961832,-11.307814440917968,-5.039794494628906,1.9321207397460936,-10.351145038167939,19.96946564885496,15.206106870229007,0.0
13.900000810623169,-10.359710583496094,6.6893994384765625,0.9050082275390624,11.32824427480916,-0.6412213740458015,-5.374045801526718,-10.656591589355468,-5.097255334472656,2.384624853515625,7.312977099236641,8.549618320610687,11.526717557251908,0.0
13.910000562667847,-9.062053283691405,5.5641246582031245,-0.34715924072265625,-17.099236641221374,-3.877862595419847,3.267175572519084,-9.45470235595703,-2.5857377929687497,1.637633935546875,10.977099236641221,5.083969465648855,5.66412213740458,0.0
13.920000553131104,-8.37012900390625,4.153939880371094,-0.5051765502929687,-33.05343511450382,7.297709923664122,12.229007633587786,-9.217676391601563,-1.7884686401367187,1.388636962890625,6.137404580152672,6.99236641221374,6.732824427480916,0.0
13.93000054359436,-8.418013037109375,3.821145849609375,-0.8355763793945312,-52.213740458015266,12.610687022900763,15.312977099236642,-9.519345800781249,-1.5921441040039062,1.47482822265625,5.251908396946565,8.793893129770993,9.17557251908397,0.0
13.940000534057617,-7.970297326660156,2.375048046875,-1.0342951171875,-65.5114503816794,18.38167938931298,20.076335877862597,-10.192116467285155,-1.7621324218749999,1.9416975463867185,5.877862595419847,11.16030534351145,11.48091603053435,0.0
13.950000524520874,-7.173028173828125,1.0869675537109373,-1.1635820068359375,-74.44274809160305,26.0,23.114503816793892,-9.404424121093749,-0.7900865478515624,2.061407629394531,4.656488549618321,11.374045801526718,10.870229007633588,0.0
13.96000051498413,-3.938461730957031,-2.39420166015625,-2.767697119140625,-60.229007633587784,37.32824427480916,27.267175572519083,-9.320627062988281,-0.7565677246093749,2.384624853515625,2.6259541984732824,13.221374045801527,11.969465648854962,0.0
13.970000267028809,-4.259284753417968,-2.1164742675781247,-2.6815058593749996,-44.93129770992366,56.916030534351144,26.091603053435115,-9.33978067626953,-1.3455413330078123,2.93050283203125,3.786259541984733,12.320610687022901,13.34351145038168,0.0
13.980000495910645,-4.2305543334960936,-1.2952630981445312,-2.7557261108398436,-45.89312977099237,70.30534351145039,20.580152671755727,-9.631873278808593,-1.0414777221679687,2.877830395507812,9.679389312977099,5.633587786259542,12.549618320610687,0.0
13.990000247955322,-4.065354418945312,-1.5107412475585937,-2.360682836914062,-46.30534351145038,83.34351145038168,17.099236641221374,-8.894459167480468,0.41898529052734373,3.284844677734375,0.7633587786259542,6.900763358778626,11.526717557251908,0.0
14.000000476837158,-4.067748620605468,-1.7549498168945312,-1.6304513305664061,-51.725190839694655,94.19847328244275,14.061068702290076,-9.459490759277344,-0.19632453613281248,3.892971899414062,-1.2061068702290076,5.908396946564886,14.442748091603054,0.0
14.010000705718994,-4.797980126953124,-1.9321207397460936,0.34237083740234375,-54.2442748091603,104.2442748091603,9.312977099236642,-8.74601866455078,0.8044517578125,4.122815258789062,-10.183206106870228,4.732824427480916,14.916030534351146,0.0
14.020000457763672,-5.595249279785156,-2.4756045166015626,2.1930887207031247,-50.42748091603053,111.95419847328245,8.82442748091603,-8.757989672851561,-0.062249243164062495,4.465186096191406,-13.801526717557252,0.8854961832061069,17.51145038167939,0.0
14.030000925064087,-6.68461103515625,-2.5713725830078125,4.161122485351562,-41.603053435114504,118.0,7.770992366412214,-8.877699755859375,-0.41898529052734373,4.496310717773437,-16.671755725190838,-3.5114503816793894,18.35114503816794,0.0
14.040000677108765,-7.790732202148437,-3.105279553222656,6.490680700683593,-25.572519083969464,121.78625954198473,9.251908396946565,-8.923189587402343,-0.7541735229492187,4.386177441406249,-18.793893129770993,-7.633587786259542,19.404580152671755,0.0
14.050000667572021,-8.889670764160156,-3.1028853515624997,8.394071020507813,-2.6259541984732824,120.77862595419847,10.396946564885496,-8.889670764160156,-0.9552864624023437,3.967192150878906,-20.53435114503817,-12.610687022900763,20.0,0.0
14.060000658035278,-9.842563024902343,-2.4779987182617185,9.246406811523437,19.358778625954198,116.3969465648855,11.465648854961833,-9.210493786621093,-1.467645617675781,3.4572271972656248,-20.076335877862597,-16.3206106870229,21.099236641221374,0.0
14.070000648498535,-11.839327209472655,1.0726023437499999,9.612719665527344,31.099236641221374,108.6412213740458,10.244274809160306,-9.045293872070312,-1.5466542724609373,3.1603461914062496,-20.244274809160306,-19.31297709923664,21.14503816793893,0.0
14.080000638961792,-11.930306872558592,0.7613561279296874,7.4962453979492185,19.46564885496183,87.08396946564885,9.068702290076336,-8.719682446289061,-1.5083470458984374,2.863465185546875,-21.053435114503817,-20.793893129770993,20.931297709923665,0.0
14.090000629425049,-11.705251916503906,-1.139639990234375,7.989450939941406,24.427480916030536,75.58778625954199,9.358778625954198,-8.590395556640624,-2.003946789550781,2.6384102294921874,-22.33587786259542,-20.16793893129771,21.51145038167939,0.0
14.100000619888306,-13.797784167480469,0.32082302246093747,8.281543542480469,15.98473282442748,58.01526717557252,4.213740458015267,-8.750807067871094,-2.6503812377929687,2.85388837890625,-19.251908396946565,-20.15267175572519,22.519083969465647,0.0
14.110000610351562,-15.382745666503906,0.8451531860351562,7.326257080078125,2.9618320610687023,39.70992366412214,5.709923664122138,-9.095572106933593,-3.555389465332031,2.9376854370117185,-15.954198473282442,-20.442748091603054,23.450381679389313,0.0
14.12000036239624,-16.42661759033203,0.1771709228515625,5.521029028320312,0.183206106870229,25.34351145038168,13.221374045801527,-9.572018237304688,-3.976768957519531,2.3630770385742186,-8.595419847328245,-20.458015267175572,22.82442748091603,0.0
14.130000591278076,-18.26536446533203,-0.6607996582031249,6.4643444824218745,12.610687022900763,20.977099236641223,19.49618320610687,-10.046070166015625,-3.9935283691406247,2.1499930908203124,-1.4198473282442747,-18.442748091603054,19.801526717557252,0.0
14.140000820159912,-16.354791540527344,-4.2880151733398435,5.872976672363281,31.206106870229007,3.4656488549618323,26.641221374045802,-10.237606298828124,-3.794809631347656,2.1404162841796874,6.198473282442748,-16.53435114503817,17.52671755725191,0.0
14.15000057220459,-15.174450122070311,-3.3255461059570313,5.858611462402344,63.64885496183206,1.9083969465648856,27.83206106870229,-9.79946739501953,-3.737348791503906,2.0063409912109376,12.412213740458014,-12.244274809160306,13.969465648854962,0.0
14.160000801086426,-14.97094298095703,0.4644751220703125,5.061342309570312,73.14503816793894,-4.748091603053435,24.53435114503817,-9.636661682128906,-3.5003228271484375,1.5011644409179687,21.450381679389313,-8.82442748091603,9.267175572519085,0.0
14.170033931732178,-13.55357559814453,2.0183119995117185,3.181894006347656,53.038167938931295,-17.893129770992367,21.755725190839694,-10.058041174316406,-3.488351818847656,0.584185205078125,27.83206106870229,-4.824427480916031,7.114503816793893,0.0
14.18000054359436,-10.893617553710937,1.1540052001953125,2.013523596191406,43.32824427480916,-21.52671755725191,17.893129770992367,-12.157756030273436,-3.5601778686523438,2.233790148925781,37.61832061068702,1.9389312977099236,7.145038167938932,0.0
14.190000295639038,-8.70771143798828,1.4891934326171874,0.6440402465820312,41.49618320610687,-21.541984732824428,11.419847328244275,-12.337321154785155,-1.5155296508789062,1.5035586425781249,44.732824427480914,-0.10687022900763359,1.9541984732824427,0.0
14.200000524520874,-7.505822204589843,2.6982652709960937,-1.2761094848632812,36.778625954198475,-18.259541984732824,6.442748091603053,-12.478579052734375,0.10773907470703124,1.3766659545898436,41.23664122137404,1.450381679389313,-2.9618320610687023,0.0
14.21000051498413,-6.813897924804687,3.4093431640625,-3.0909143432617188,25.49618320610687,-13.450381679389313,5.679389312977099,-13.51526837158203,-1.0989385620117187,1.8267758666992187,38.6412213740458,6.6106870229007635,-2.6106870229007635,0.0
14.220000267028809,-6.119579443359375,3.289633081054687,-3.564966271972656,8.931297709923664,-6.061068702290076,4.412213740458015,-12.34689796142578,0.011971008300781249,2.4588451049804685,35.770992366412216,5.847328244274809,-4.641221374045801,0.0
14.230000495910645,-5.578489868164062,1.6519991455078125,-3.7995980346679685,-4.320610687022901,3.1603053435114505,3.4656488549618323,-11.360486877441405,0.2657563842773437,2.9544448486328125,30.244274809160306,8.534351145038167,-4.8396946564885495,0.0
14.240000486373901,-5.082890124511718,0.15083470458984374,-4.036623999023437,-0.8244274809160306,15.786259541984732,2.351145038167939,-10.972626208496093,0.3495534423828125,3.181894006347656,27.206106870229007,6.183206106870229,-6.152671755725191,0.0
14.250000715255737,-6.868964562988281,1.22583125,-3.0813375366210938,0.9770992366412213,30.290076335877863,-1.816793893129771,-9.919177478027343,1.936909143066406,2.224213342285156,26.03053435114504,-1.8473282442748091,-9.32824427480916,0.0
14.260000705718994,-8.566453540039062,2.0829554443359375,-2.1260510742187497,-1.297709923664122,41.16030534351145,-0.6106870229007634,-10.503362683105468,0.8882488159179687,2.971204260253906,21.64885496183206,-1.3893129770992367,-7.267175572519084,0.0
14.27000093460083,-9.619902270507811,2.2481553588867187,-1.2569558715820313,-6.870229007633588,49.69465648854962,1.83206106870229,-10.256759912109374,1.0223241088867188,3.303998291015625,22.900763358778626,-6.916030534351145,-7.404580152671755,0.0
14.280000448226929,-10.54645831298828,2.4133552734375,0.0383072265625,-15.49618320610687,51.587786259541986,1.3740458015267176,-9.181763366699219,2.839523168945312,2.9831752685546875,13.954198473282442,-11.022900763358779,-8.610687022900763,0.0
14.290000438690186,-10.424354028320312,1.7549498168945312,0.8188169677734375,-21.480916030534353,51.083969465648856,3.4656488549618323,-9.373299499511718,2.4947581298828125,3.0119056884765625,3.801526717557252,-9.312977099236642,-6.076335877862595,0.0
14.300000667572021,-10.31661495361328,1.0582371337890624,1.2713210815429687,-25.72519083969466,46.916030534351144,3.435114503816794,-9.478644372558593,2.540247961425781,2.9831752685546875,-1.6946564885496183,-10.82442748091603,-4.442748091603053,0.0
14.3100004196167,-9.828197814941406,-1.0845733520507812,1.149216796875,-19.862595419847327,44.80916030534351,4.152671755725191,-9.68454571533203,2.375048046875,3.1866824096679687,-6.061068702290076,-9.725190839694656,-2.366412213740458,0.0
14.320000648498535,-10.357316381835936,-0.42377369384765623,1.618480322265625,-10.213740458015268,42.80916030534351,1.9389312977099236,-10.266336718749999,0.4572925170898437,3.564966271972656,-2.6717557251908395,-10.335877862595419,1.6641221374045803,0.0
14.330000638961792,-11.781866369628906,-0.7661445312499999,1.8052280517578123,-4.580152671755725,38.900763358778626,-1.0381679389312977,-9.868899243164062,0.1388636962890625,2.829946362304687,11.389312977099237,-18.396946564885496,1.5572519083969465,0.0
14.34000039100647,-11.631031665039062,0.16759411621093748,2.039859814453125,3.145038167938931,35.89312977099237,-4.244274809160306,-9.100360510253905,2.319981408691406,2.398990063476562,10.900763358778626,-20.458015267175572,-0.5190839694656488,0.0
14.350000619888306,-10.697293017578124,1.2114660400390624,1.5825672973632812,0.21374045801526717,26.458015267175572,-5.770992366412214,-8.09479581298828,3.2417490478515623,1.4772224243164063,0.7480916030534351,-17.0381679389313,-0.7938931297709924,0.0
14.360000371932983,-10.390835205078124,2.123656872558594,1.1420341918945311,-10.549618320610687,17.480916030534353,-6.076335877862595,-8.24802471923828,3.5314474487304683,1.1851298217773436,-14.50381679389313,-6.931297709923665,3.7099236641221376,0.0
14.370000839233398,-9.7683427734375,1.1540052001953125,0.9720458740234375,-1.9083969465648856,17.862595419847327,-5.251908396946565,-9.828197814941406,1.13006318359375,1.2880804931640624,-7.1603053435114505,-1.0381679389312977,10.870229007633588,0.0
14.380000829696655,-9.698910925292969,1.3623007446289062,0.34237083740234375,-1.633587786259542,11.572519083969466,-5.740458015267175,-9.435548742675781,1.7477672119140624,1.4173673828125,-5.022900763358779,0.9465648854961832,11.587786259541986,0.0
14.390000343322754,-9.373299499511718,1.3934253662109375,0.4165910888671875,9.297709923664122,13.358778625954198,-3.2977099236641223,-8.8489693359375,2.1811177124023438,0.9528922607421875,-10.763358778625955,4.9465648854961835,10.641221374045802,0.0
14.400000810623169,-9.2320416015625,2.0183119995117185,-0.00718260498046875,6.351145038167939,9.816793893129772,-0.32061068702290074,-10.089165795898436,0.55545478515625,0.55545478515625,-13.114503816793894,10.885496183206106,12.259541984732824,0.0
14.410000562667847,-8.827421520996094,1.6639701538085936,0.047884033203124995,8.198473282442748,9.969465648854962,1.9389312977099236,-10.177751257324218,0.19153613281249998,0.7637503295898437,-10.595419847328245,11.572519083969466,11.648854961832061,0.0
14.420000314712524,-9.471461767578125,2.094926452636719,0.38786066894531246,9.19083969465649,11.32824427480916,1.9236641221374047,-10.797849487304687,-0.2442085693359375,0.9624690673828125,-6.076335877862595,13.419847328244275,10.091603053435115,0.0
14.43000054359436,-9.619902270507811,2.3056161987304686,0.5027823486328125,8.610687022900763,11.770992366412214,2.564885496183206,-10.39322940673828,-0.15322890625,1.0510545288085937,-3.8473282442748094,12.16793893129771,7.938931297709924,0.0
14.440000534057617,-9.816226806640625,2.5617957763671875,0.3112462158203125,5.633587786259542,12.549618320610687,3.0839694656488548,-10.172962854003906,-0.2705447875976562,1.2689268798828124,-3.1603053435114505,10.961832061068701,5.908396946564886,0.0
14.450000524520874,-9.847351428222655,2.3343466186523436,0.16519991455078123,-1.0534351145038168,12.549618320610687,2.5343511450381677,-10.249577307128906,-0.5458779785156249,1.5275006591796874,-1.8015267175572518,9.740458015267176,3.816793893129771,0.0
14.460000276565552,-9.734823950195311,2.032677209472656,0.16280571289062498,-7.603053435114504,13.022900763358779,1.6030534351145038,-10.01733974609375,-0.5243301635742187,1.6328455322265625,-0.8854961832061069,8.412213740458014,1.1450381679389312,0.0
14.470000505447388,-9.727641345214844,1.8459294799804686,0.201112939453125,-11.83206106870229,13.34351145038168,0.7480916030534351,-9.909600671386718,-0.5195417602539062,1.9823989746093749,0.42748091603053434,7.312977099236641,-0.9923664122137404,0.0
14.480000495910645,-10.139444030761718,1.9800047729492187,0.1149216796875,-17.0381679389313,12.946564885496183,0.15267175572519084,-9.828197814941406,-0.51714755859375,2.2026655273437497,2.732824427480916,6.2748091603053435,-2.9923664122137406,0.0
14.490000486373901,-9.873687646484374,1.9033903198242186,0.06703764648437499,-18.442748091603054,12.076335877862595,0.9770992366412213,-9.275137231445312,-0.21068974609375,2.592920397949219,2.5343511450381677,5.374045801526718,-4.656488549618321,0.0
14.500000476837158,-9.90241806640625,1.8698714965820311,-0.0718260498046875,-21.083969465648856,12.01526717557252,0.9007633587786259,-9.349357482910156,0.0383072265625,2.6096798095703124,2.717557251908397,4.244274809160306,-4.824427480916031,0.0
14.510000705718994,-9.622296472167967,1.6304513305664061,-0.143652099609375,-24.015267175572518,11.34351145038168,1.099236641221374,-8.863334545898438,0.13646949462890623,2.748543505859375,1.4961832061068703,3.2213740458015265,-4.824427480916031,0.0
14.520000457763672,-9.634267480468749,1.1947066284179686,0.05027823486328125,-26.198473282442748,11.465648854961833,1.5572519083969465,-9.066841687011719,0.373495458984375,2.683900061035156,0.9465648854961832,2.8091603053435112,-4.580152671755725,0.0
14.530000686645508,-9.945513696289062,0.9552864624023437,0.35194764404296874,-28.671755725190838,10.778625954198473,1.0534351145038168,-9.229647399902344,0.4213794921875,2.8898014038085935,0.6259541984732825,2.2748091603053435,-4.137404580152672,0.0
14.540000677108765,-9.832986218261718,0.4381389038085937,0.6200982299804687,-25.893129770992367,10.748091603053435,0.9618320610687023,-9.191340173339842,-0.009576806640625,3.0526071166992184,0.5343511450381679,2.0610687022900764,-3.145038167938931,0.0
14.550000667572021,-10.070012182617187,0.047884033203124995,0.7302315063476562,-21.419847328244273,9.389312977099237,0.7633587786259542,-10.486603271484375,-2.1691467041015624,3.1699229980468746,13.679389312977099,-4.152671755725191,-2.16793893129771,0.0
14.5600004196167,-9.842563024902343,-0.51714755859375,0.6943184814453125,-13.83206106870229,9.145038167938932,0.15267175572519084,-9.95987890625,-1.5346832641601562,3.5506010620117183,25.46564885496183,-12.15267175572519,-3.7557251908396947,0.0
14.570000410079956,-10.474632263183594,0.6967126831054687,0.9097966308593749,-9.32824427480916,9.541984732824428,-0.6870229007633588,-9.327809667968749,0.15322890625,3.3327287109375,25.72519083969466,-15.664122137404581,-6.427480916030534,0.0
14.580000400543213,-9.655815295410155,-0.24899697265624998,0.8810662109374999,-3.954198473282443,8.82442748091603,-0.061068702290076333,-8.010998754882811,1.209071838378906,2.559401574707031,14.793893129770993,-15.801526717557252,-7.450381679389313,0.0
14.59000039100647,-9.679757312011718,0.6057330200195312,1.0726023437499999,-0.15267175572519084,8.625954198473282,-1.297709923664122,-8.614337573242187,2.5163059448242184,1.7094599853515624,-2.4122137404580153,-8.992366412213741,-6.198473282442748,0.0
14.600000619888306,-10.149020837402343,1.8339584716796873,1.3958195678710936,-3.618320610687023,7.206106870229007,-2.4732824427480917,-8.303091357421874,1.8315642700195311,2.1787235107421874,-19.72519083969466,1.3587786259541985,-1.9236641221374047,0.0
14.610000610351562,-9.94072529296875,1.0175357055664063,0.9624690673828125,-5.847328244274809,2.763358778625954,-1.9541984732824427,-9.234435803222656,0.2825157958984375,2.3582886352539063,-12.931297709923664,-0.22900763358778625,0.6717557251908397,0.0
14.620000839233398,-10.675745202636719,2.5522189697265625,1.1252747802734375,-6.534351145038168,1.0229007633587786,-3.053435114503817,-9.133879333496093,-0.00239420166015625,2.616862414550781,-10.80916030534351,0.21374045801526717,0.8702290076335878,0.0
14.630000829696655,-9.279925634765624,0.01915361328125,0.28730419921875,-3.2061068702290076,-0.2900763358778626,0.8854961832061069,-8.971073620605468,-0.316034619140625,2.5522189697265625,-10.687022900763358,0.916030534351145,0.3511450381679389,0.0
14.640000820159912,-10.611101757812499,3.1699229980468746,0.8978256225585937,-1.8778625954198473,2.6564885496183206,-1.7099236641221374,-9.303867651367186,-0.6823474731445313,2.8323405639648436,-8.763358778625955,1.83206106870229,-0.4732824427480916,0.0
14.65000033378601,-9.744400756835937,1.898601916503906,0.5602431884765625,-6.732824427480916,1.0687022900763359,0.32061068702290074,-9.162609753417968,-0.4740519287109375,2.6408044311523438,-5.175572519083969,1.5419847328244274,-1.1450381679389312,0.0
14.660000801086426,-8.621520178222656,0.16041151123046873,-0.09816226806640624,-6.67175572519084,-0.8091603053435115,2.3969465648854964,-9.277531433105468,-0.5099649536132812,2.636016027832031,-3.9389312977099236,1.4045801526717556,-2.1526717557251906,0.0
14.670000553131104,-9.176974963378905,0.5051765502929687,0.411802685546875,3.145038167938931,5.755725190839694,0.6564885496183206,-9.282319836425781,-0.6631938598632812,2.583343591308594,0.7480916030534351,1.984732824427481,-2.0916030534351147,0.0
14.680000305175781,-9.897629663085937,1.7525556152343749,0.6392518432617187,-1.83206106870229,4.977099236641221,-0.6870229007633588,-9.612719665527344,-0.488417138671875,2.6503812377929687,4.931297709923665,1.5267175572519085,-2.351145038167939,0.0
14.690000534057617,-9.900023864746093,1.455674609375,0.5746083984375,-3.114503816793893,4.870229007633588,-0.12213740458015267,-9.076418493652342,0.09337386474609374,2.549824768066406,5.450381679389313,0.9007633587786259,-3.0229007633587788,0.0
14.700000762939453,-9.828197814941406,1.1707646118164061,0.6607996582031249,-3.450381679389313,5.480916030534351,-0.8396946564885496,-9.897629663085937,-0.9050082275390624,2.798821740722656,6.9465648854961835,3.2519083969465647,-2.8244274809160306,0.0
14.71000051498413,-9.854534033203125,1.2234370483398436,0.6919242797851562,-3.969465648854962,5.587786259541985,-2.7480916030534353,-9.7683427734375,-0.7302315063476562,2.89219560546875,9.068702290076336,2.4580152671755724,-4.015267175572519,0.0
14.720000505447388,-9.890447058105469,0.8786720092773437,0.5961562133789062,-2.7480916030534353,4.9465648854961835,-2.4580152671755724,-9.165003955078124,-0.1005564697265625,2.8227637573242186,8.870229007633588,1.7709923664122138,-5.847328244274809,0.0
14.730000495910645,-9.631873278808593,0.9504980590820312,0.6009446166992187,0.9312977099236641,6.916030534351145,-3.1297709923664123,-9.287108239746093,-0.19632453613281248,2.8562825805664063,6.3816793893129775,2.9770992366412212,-6.030534351145038,0.0
14.740000486373901,-9.414000927734374,1.1276689819335937,0.3591302490234375,0.8549618320610687,6.854961832061068,-3.8931297709923665,-8.40843623046875,0.5746083984375,2.96881005859375,-1.7251908396946565,5.633587786259542,-6.625954198473282,0.0
14.750000715255737,-9.358934289550781,2.1308394775390624,0.4644751220703125,-6.824427480916031,4.9465648854961835,-4.473282442748092,-9.926360083007811,-1.9823989746093749,3.411737365722656,7.816793893129771,3.2213740458015265,-4.916030534351145,0.0
14.760000467300415,-11.563994018554688,2.592920397949219,0.6081272216796875,-14.320610687022901,3.9389312977099236,-5.0534351145038165,-9.07163009033203,0.05985504150390625,3.3710359375,11.709923664122137,-1.6488549618320612,-7.419847328244275,0.0
14.77000093460083,-10.548852514648438,3.852270471191406,0.5626373901367188,-31.740458015267176,-4.458015267175573,-3.236641221374046,-9.18655177001953,-0.3327940307617187,3.1794998046874996,7.450381679389313,-0.6870229007633588,-8.01526717557252,0.0
