timestamp,Thigh_L_Acc_X,Thigh_L_Acc_Y,Thigh_L_Acc_Z,Thigh_L_Gyr_X,Thigh_L_Gyr_Y,Thigh_L_Gyr_Z,Thigh_R_Acc_X,Thigh_R_Acc_Y,Thigh_R_Acc_Z,Thigh_R_Gyr_X,Thigh_R_Gyr_Y,Thigh_R_Gyr_Z,gpio_output
10.000000476837158,-18.811242443847654,3.210624426269531,-5.135562561035156,12.977099236641221,63.32824427480916,7.603053435114504,-17.41063447265625,-1.5514426757812498,4.745307690429687,-77.87786259541984,4.763358778625954,41.7557251908397,0.0
10.010000944137573,-19.038691601562498,-1.7429788085937499,5.492298608398437,31.83206106870229,76.42748091603053,10.793893129770993,-16.278177087402344,-2.9185318237304685,5.204994409179688,-75.00763358778626,-8.290076335877863,40.3206106870229,1.0
10.020000696182251,-0.9600748657226562,-18.78969462890625,4.639962817382812,131.32824427480915,81.96946564885496,38.3206106870229,-16.2039568359375,-4.357447021484375,5.379771130371093,-55.969465648854964,-22.50381679389313,37.3587786259542,1.0
10.030000686645508,-1.369483349609375,-10.029310754394531,-3.208230224609375,221.63358778625954,158.91603053435114,9.526717557251908,-16.41943498535156,-5.003881469726562,5.942408520507812,-25.083969465648856,-39.083969465648856,31.51145038167939,1.0
10.040000915527344,-4.46279189453125,-8.760383874511719,-3.2537200561523436,222.27480916030535,156.8091603053435,-18.290076335877863,-15.99326708984375,-3.584119885253906,6.0142345703124995,-0.10687022900763359,-53.9236641221374,24.99236641221374,1.0
10.050000667572021,-9.390058911132812,1.426944189453125,-2.2385785522460937,242.59541984732823,188.7175572519084,-23.14503816793893,-15.952565661621092,-1.3670891479492187,4.197035510253906,11.358778625954198,-74.93129770992367,18.519083969465647,1.0
10.0600004196167,-3.1196447631835937,-5.834669445800781,-3.7397429931640622,243.0229007633588,187.9083969465649,-24.198473282442748,-16.072275744628904,-1.5203180541992187,3.7397429931640622,13.358778625954198,-85.95419847328245,11.282442748091603,1.0
10.070000648498535,-10.333374365234375,-4.015076184082031,-2.588131994628906,301.9389312977099,224.18320610687022,-33.02290076335878,-16.15367860107422,-2.6144682128906247,3.0837317382812497,21.19083969465649,-99.09923664122137,5.847328244274809,1.0
10.080000400543213,-12.703634008789061,-3.7301661865234372,-2.473210314941406,283.32824427480915,205.25190839694656,-51.3587786259542,-14.700398193359375,-0.6177040283203125,0.9026140258789062,24.900763358778626,-114.94656488549619,-8.427480916030534,1.0
10.090000629425049,-17.88229219970703,13.187262744140623,1.8914193115234375,264.62595419847327,212.61068702290078,-58.900763358778626,-12.169727038574218,-0.7038952880859375,1.1156979736328125,3.5877862595419847,-112.77862595419847,-17.480916030534353,1.0
10.100000858306885,-13.77144794921875,13.460201733398437,2.9376854370117185,143.0381679389313,166.03053435114504,-71.58778625954199,-12.437877624511717,-3.0119056884765625,0.7589619262695312,4.641221374045801,-117.77099236641222,-26.061068702290076,1.0
10.110000610351562,-13.699621899414062,15.646107849121092,2.4779987182617185,69.48091603053435,141.1145038167939,-81.26717557251908,-10.658985791015624,-1.7669208251953124,0.19871873779296872,-5.190839694656488,-119.5114503816794,-33.12977099236641,1.0
10.120000839233398,-10.587159741210938,9.988609326171874,2.1691467041015624,-19.72519083969466,103.12977099236642,-87.20610687022901,-11.793837377929687,-2.7365724975585937,0.36391865234375,9.679389312977099,-114.93129770992367,-38.44274809160305,1.0
10.130000352859497,-8.786720092773438,5.363011718749999,0.469263525390625,-51.37404580152672,82.41221374045801,-83.95419847328245,-11.7603185546875,-2.4660277099609376,-0.06464344482421874,21.00763358778626,-115.08396946564885,-46.36641221374046,1.0
10.140000820159912,-10.563217724609375,4.917690209960937,1.3623007446289062,-60.42748091603053,82.42748091603053,-79.70992366412214,-12.579135522460938,-1.1563994018554686,0.12689268798828124,47.20610687022901,-110.87022900763358,-50.54961832061068,1.0
10.15000057220459,-7.513004809570312,-0.5339069702148437,-0.507570751953125,-61.64885496183206,73.38931297709924,-71.77099236641222,-12.548010900878905,0.5027823486328125,0.3711012573242187,65.40458015267176,-108.74809160305344,-51.343511450381676,1.0
10.160000562667847,-6.150704064941406,-3.718195178222656,-1.649604943847656,-16.03053435114504,86.19847328244275,-63.32824427480916,-9.612719665527344,4.185064501953125,-0.4070142822265625,59.786259541984734,-104.36641221374046,-54.595419847328245,1.0
10.170000791549683,-9.552864624023437,0.6727706665039062,-1.01514150390625,11.236641221374045,100.8854961832061,-60.76335877862596,-9.026140258789061,2.9855694702148434,0.5793968017578125,54.85496183206107,-90.22900763358778,-47.23664122137404,1.0
10.18000054359436,-10.390835205078124,2.123656872558594,-0.3399766357421875,19.984732824427482,103.64885496183206,-59.083969465648856,-6.993463049316406,4.92247861328125,-0.9816226806640624,48.99236641221374,-87.61832061068702,-44.213740458015266,1.0
10.190000772476196,-8.89924757080078,0.28490999755859375,-1.458068811035156,30.198473282442748,103.6793893129771,-53.89312977099237,-6.1818286865234375,3.859453076171875,0.06943184814453125,32.80916030534351,-73.31297709923665,-38.10687022900763,1.0
10.200000524520874,-12.512097875976561,9.030928662109375,1.2282254516601563,20.33587786259542,108.90076335877863,-58.44274809160305,-7.41244833984375,2.1595698974609374,0.7685387329101562,32.656488549618324,-68.50381679389314,-30.68702290076336,1.0
10.21000051498413,-9.160215551757812,5.123591552734375,1.3766659545898436,-26.47328244274809,87.83206106870229,-54.70229007633588,-5.384559533691406,3.801992236328125,-0.316034619140625,18.68702290076336,-71.8473282442748,-31.419847328244273,0.0
10.220000505447388,-10.457872851562499,7.465120776367187,1.9584569580078124,-40.717557251908396,85.16030534351145,-52.213740458015266,-6.524199523925781,0.0143652099609375,1.3048399047851562,4.870229007633588,-60.48854961832061,-25.72519083969466,0.0
10.230000734329224,-9.105148913574219,1.5203180541992187,0.5458779785156249,-53.57251908396947,75.08396946564885,-45.87786259541985,-7.702146740722656,-0.5602431884765625,0.6919242797851562,18.396946564885496,-68.3206106870229,-25.801526717557252,0.0
10.240000486373901,-6.756437084960937,-3.0238766967773434,-1.3096283081054687,-19.206106870229007,82.27480916030534,-39.00763358778626,-6.157886669921875,1.7118541870117185,0.5386953735351562,6.625954198473282,-70.01526717557252,-29.938931297709924,0.0
10.250000715255737,-11.698069311523437,8.525752111816406,3.3590649291992185,-27.96946564885496,92.27480916030534,-43.66412213740458,-9.586383447265625,-2.5857377929687497,2.7078420776367187,12.13740458015267,-61.05343511450382,-26.9618320610687,0.0
10.260000705718994,-10.1131078125,7.620743884277343,3.347093920898437,-89.55725190839695,67.74045801526718,-41.786259541984734,-8.372523205566406,0.6584054565429687,1.0582371337890624,30.702290076335878,-78.77862595419847,-28.610687022900763,0.0
10.270000457763672,-8.228871105957031,1.9776105712890624,1.649604943847656,-85.31297709923665,60.54961832061068,-30.396946564885496,-8.288726147460936,0.6560112548828124,1.467645617675781,18.564885496183205,-75.31297709923665,-26.9618320610687,0.0
10.280000686645508,-14.226346264648436,15.41147608642578,8.513781103515624,-107.8473282442748,52.93129770992366,-28.091603053435115,-8.772354882812499,1.8339584716796873,0.5698199951171875,21.46564885496183,-80.94656488549619,-27.435114503816795,0.0
10.290000677108765,-12.533645690917968,8.808267907714843,5.176263989257812,-176.13740458015266,17.52671755725191,-19.31297709923664,-9.9981861328125,1.8148048583984373,0.7541735229492187,30.3206106870229,-82.22900763358778,-23.00763358778626,0.0
10.300000667572021,-16.029180114746094,9.428366137695312,4.958391638183594,-183.1145038167939,8.65648854961832,-8.51908396946565,-9.9981861328125,1.24498486328125,2.0063409912109376,16.061068702290076,-81.6793893129771,-17.81679389312977,0.0
10.310000658035278,-12.957419384765624,1.158793603515625,3.6463691284179687,-205.89312977099237,-18.748091603053435,1.8625954198473282,-9.052476477050782,2.1164742675781247,1.0630255371093749,26.595419847328245,-87.12977099236642,-16.625954198473284,0.0
10.320000410079956,-16.63730733642578,2.8371289672851563,4.857835168457031,-197.12977099236642,-24.946564885496183,0.6564885496183206,-10.103531005859374,1.9512743530273435,1.4101847778320311,27.6793893129771,-86.09160305343511,-11.648854961832061,0.0
10.330000638961792,-13.165714929199218,-0.7589619262695312,3.0645781249999997,-195.32824427480915,-35.11450381679389,5.694656488549619,-9.440337145996093,0.8259995727539062,2.817975354003906,29.83206106870229,-81.00763358778626,-9.145038167938932,0.0
10.340000629425049,-11.06360587158203,-3.73495458984375,1.3048399047851562,-156.5801526717557,-29.16030534351145,9.297709923664122,-7.419630944824219,0.699106884765625,3.4859576171874997,20.595419847328245,-78.58015267175573,-9.007633587786259,0.0
10.350000381469727,-7.972691528320312,-5.88015927734375,0.32561142578124996,-114.6412213740458,-17.603053435114504,6.0458015267175576,-6.373364819335937,1.3407529296874998,2.422932080078125,20.229007633587788,-78.82442748091603,-11.83206106870229,0.0
10.360000848770142,-7.125144140624999,-6.074089611816406,0.4213794921875,-55.87786259541985,4.351145038167939,1.083969465648855,-7.936778503417968,-0.5099649536132812,4.209006518554688,12.870229007633588,-65.6030534351145,-12.15267175572519,0.0
10.37000060081482,-7.671022119140624,-2.398990063476562,0.5410895751953124,-42.33587786259542,10.274809160305344,-4.595419847328245,-6.445190869140625,1.0007762939453124,3.7014357666015623,8.580152671755725,-69.89312977099236,-16.50381679389313,0.0
10.380000829696655,-6.299144567871093,-2.5953145996093747,-0.37828386230468747,-1.1145038167938932,24.290076335877863,-0.4122137404580153,-9.17458076171875,-0.8164227661132812,4.46279189453125,7.374045801526718,-60.18320610687023,-12.961832061068701,0.0
10.390000820159912,-6.203376501464843,-0.6105214233398437,-0.49320554199218747,8.793893129770993,28.671755725190838,-3.1908396946564888,-7.659051110839843,1.3551181396484375,3.1699229980468746,5.572519083969466,-65.22137404580153,-17.022900763358777,0.0
10.40000057220459,-7.659051110839843,1.0390835205078124,0.12210428466796874,13.435114503816793,35.55725190839695,-7.038167938931298,-9.370905297851563,-0.35673604736328124,4.6064439941406246,0.3816793893129771,-52.44274809160305,-13.129770992366412,0.0
10.410000562667847,-7.3478048950195305,1.4245499877929686,-0.047884033203124995,11.938931297709924,37.49618320610687,-9.526717557251908,-9.811438403320311,-0.16759411621093748,4.094084838867187,11.312977099236642,-60.0,-12.13740458015267,0.0
10.420000553131104,-8.24802471923828,2.8706477905273435,-0.09576806640624999,8.030534351145038,40.229007633587784,-12.122137404580153,-6.373364819335937,2.7557261108398436,3.6655227416992187,-1.0534351145038168,-55.282442748091604,-15.694656488549619,0.0
10.430000305175781,-9.634267480468749,3.2561142578125,-0.19871873779296872,-5.816793893129771,41.80152671755725,-12.274809160305344,-7.558494641113281,-0.09337386474609374,3.555389465332031,-15.34351145038168,-43.89312977099237,-11.618320610687023,0.0
10.440000295639038,-9.765948571777344,2.272097375488281,-0.7158662963867187,-17.267175572519083,44.19847328244275,-12.51908396946565,-8.635885388183594,-1.16837041015625,3.9695863525390624,-4.778625954198473,-46.2442748091603,-7.786259541984733,0.0
10.450000762939453,-10.66856259765625,1.8507178833007811,-1.1156979736328125,-23.557251908396946,46.33587786259542,-14.030534351145038,-8.504204296874999,-0.07422025146484375,4.611232397460937,7.32824427480916,-48.091603053435115,-6.183206106870229,0.0
10.46000051498413,-11.511321582031249,1.0821791503906248,-0.9217676391601562,-28.625954198473284,50.412213740458014,-14.183206106870228,-5.954379528808594,2.7653029174804686,4.410119458007812,3.0076335877862594,-46.29007633587786,-7.709923664122138,0.0
10.470000505447388,-11.003750830078124,1.1037269653320312,-0.45489831542968745,-34.58015267175573,51.847328244274806,-14.229007633587786,-4.2497079467773435,3.3399113159179685,3.6942531616210936,-23.129770992366414,-33.3587786259542,-7.404580152671755,0.0
10.480000495910645,-11.166556542968749,0.488417138671875,0.39983167724609375,-36.87022900763359,53.16030534351145,-13.022900763358779,-6.102820031738281,0.6368576416015624,3.878606689453125,-34.152671755725194,-22.15267175572519,0.4122137404580153,0.0
10.49000072479248,-11.001356628417968,0.30885201416015623,1.2114660400390624,-33.465648854961835,51.19083969465649,-14.290076335877863,-6.758831286621094,-0.19393033447265623,3.6487633300781246,-26.763358778625953,-21.908396946564885,4.427480916030534,0.0
10.500000476837158,-11.528080993652344,-0.1580173095703125,1.5155296508789062,-26.83969465648855,47.43511450381679,-14.091603053435115,-6.5601125488281244,-0.29448680419921874,3.9169139160156248,-25.267175572519083,-16.412213740458014,5.297709923664122,0.0
10.510000944137573,-12.667720983886719,0.7637503295898437,2.8419173706054686,-24.68702290076336,44.229007633587784,-15.648854961832061,-5.9400143188476555,-0.5267243652343749,3.787627026367187,-24.38167938931298,-11.633587786259541,5.984732824427481,0.0
10.520000457763672,-13.55357559814453,1.675941162109375,3.6535517333984373,-31.64885496183206,34.50381679389313,-16.33587786259542,-6.605602380371093,-1.1659762084960936,3.6487633300781246,-17.938931297709924,-7.633587786259542,7.282442748091603,0.0
10.530000686645508,-13.96298408203125,1.6519991455078125,4.101267443847656,-36.274809160305345,22.47328244274809,-14.961832061068701,-6.598419775390624,-1.5682020874023437,3.284844677734375,-15.114503816793894,-1.4351145038167938,7.297709923664122,0.0
10.540000677108765,-13.558364001464843,2.365471240234375,4.836287353515624,-39.63358778625954,13.923664122137405,-13.068702290076336,-5.623979699707031,-0.7733271362304687,2.5378537597656248,-19.6793893129771,7.969465648854962,5.419847328244275,0.0
10.550000429153442,-13.663708874511718,1.9416975463867185,4.946420629882812,-49.20610687022901,0.44274809160305345,-9.923664122137405,-6.610390783691406,-2.6862942626953124,2.437297290039062,-24.12213740458015,23.61832061068702,7.282442748091603,0.0
10.560000658035278,-12.746729638671875,-0.09576806640624999,5.116408947753906,-30.30534351145038,-3.572519083969466,-6.137404580152672,-7.433996154785156,-4.204218115234375,2.1883003173828124,-7.312977099236641,30.442748091603054,8.305343511450381,0.0
10.570000648498535,-12.706028210449219,0.5698199951171875,5.346252307128906,-20.870229007633586,-10.625954198473282,-7.129770992366412,-3.6655227416992187,-0.10773907470703124,0.5410895751953124,-0.732824427480916,31.87786259541985,-0.030534351145038167,0.0
10.580000638961792,-11.537657800292967,0.19632453613281248,4.797980126953124,-5.6183206106870225,-14.442748091603054,-5.541984732824427,-2.5163059448242184,1.9680337646484374,0.35194764404296874,-30.65648854961832,61.51145038167939,-3.5877862595419847,0.0
10.590000629425049,-10.998962426757812,0.24899697265624998,5.236119030761718,-3.49618320610687,-20.916030534351144,-6.595419847328245,-6.845022546386718,-0.833182177734375,1.7262193969726563,-31.984732824427482,76.67175572519083,4.458015267175573,0.0
10.600000858306885,-12.320561743164061,2.147598889160156,6.6151791870117185,-3.450381679389313,-30.82442748091603,-10.427480916030534,-6.885723974609375,-0.229843359375,3.162740393066406,-26.0,83.77099236641222,7.709923664122138,0.0
10.610000371932983,-11.489773767089844,1.9752163696289062,7.110778930664062,-14.183206106870228,-48.51908396946565,-8.320610687022901,-6.009446166992187,0.11731588134765625,2.1356278808593747,-16.18320610687023,89.38931297709924,12.290076335877863,0.0
10.62000060081482,-13.201627954101562,-0.03591302490234375,8.884882360839843,-6.916030534351145,-61.02290076335878,-6.183206106870229,-8.200140686035155,-0.6679822631835937,0.023942016601562498,-6.229007633587786,97.90839694656489,13.49618320610687,0.0
10.630000591278076,-13.63737265625,-2.7150246826171873,9.87608184814453,8.381679389312977,-78.7175572519084,-6.916030534351145,-11.051634863281249,-1.6304513305664061,1.8626888916015625,-2.183206106870229,108.18320610687023,11.358778625954198,0.0
10.640000581741333,-13.953407275390624,-4.735730883789063,11.468225952148437,36.274809160305345,-97.29770992366412,-9.618320610687023,-12.562376110839843,-0.47644613037109373,5.003881469726562,-7.251908396946565,107.7557251908397,4.732824427480916,0.0
10.65000033378601,-16.42661759033203,-4.302380383300781,12.318167541503906,55.55725190839695,-119.2824427480916,-17.435114503816795,-14.37718096923828,-1.8938135131835936,6.050147595214844,-11.145038167938932,101.70992366412214,-2.8396946564885495,0.0
10.660000562667847,-17.36514464111328,-2.5522189697265625,12.605471740722656,57.11450381679389,-153.96946564885496,-25.938931297709924,-13.283030810546874,-3.1962592163085937,4.6064439941406246,-14.687022900763358,96.22900763358778,-7.572519083969466,0.0
10.670000314712524,-17.298106994628906,-0.9217676391601562,10.352527978515624,57.25190839694657,-183.5114503816794,-25.52671755725191,-9.129090930175781,-0.603338818359375,3.5506010620117183,-26.16793893129771,94.61068702290076,-8.229007633587786,0.0
10.68000054359436,-17.223886743164062,3.6679169433593746,9.095572106933593,50.458015267175576,-208.76335877862596,-18.702290076335878,0.4381389038085937,6.536170532226562,-3.1675287963867187,-50.900763358778626,77.57251908396947,-11.435114503816793,0.0
10.690000534057617,-16.72589279785156,4.446032482910156,7.455543969726562,38.29007633587786,-234.68702290076337,-5.557251908396947,-1.4915876342773438,9.038111267089842,-3.4572271972656248,-116.8854961832061,113.83206106870229,-4.183206106870229,0.0
10.700000286102295,-15.64131944580078,2.8562825805664063,4.620809204101562,36.87022900763359,-250.51908396946564,13.19083969465649,-5.030217687988281,1.467645617675781,0.055066638183593745,-136.01526717557252,130.94656488549617,18.900763358778626,0.0
10.71000051498413,-14.372392565917968,2.2290017456054687,-0.5722141967773438,40.35114503816794,-254.70229007633588,24.68702290076336,-1.0079588989257813,3.0142998901367184,-1.9632453613281249,-111.3587786259542,113.55725190839695,21.954198473282442,0.0
10.720000505447388,-12.210428466796873,1.9416975463867185,-5.7891796142578125,35.00763358778626,-252.76335877862596,35.038167938931295,-4.92247861328125,9.016563452148437,-3.303998291015625,-177.9236641221374,151.57251908396947,12.992366412213741,0.0
10.730000734329224,-11.884817041015625,0.5243301635742187,-7.905653881835937,9.893129770992367,-245.05343511450383,38.93129770992366,-9.04050546875,-0.03591302490234375,0.4644751220703125,-209.29770992366412,172.41221374045801,17.893129770992367,0.0
10.740000486373901,-12.287042919921875,-1.1420341918945311,-5.035006091308594,-9.893129770992367,-231.1908396946565,32.88549618320611,-2.4851813232421875,9.33978067626953,-6.313509777832031,-196.19847328244273,140.4732824427481,16.38167938931298,0.0
10.750000715255737,-13.690045092773437,-0.9097966308593749,-2.6862942626953124,-10.396946564885496,-218.41221374045801,28.3206106870229,-12.923900561523437,8.054094384765625,-6.804321118164062,-343.2671755725191,210.9618320610687,15.404580152671755,0.0
10.760000467300415,-11.537657800292967,-5.961562133789062,0.22744915771484372,4.641221374045801,-206.99236641221373,30.702290076335878,-18.990807568359372,-8.743624462890624,1.5275006591796874,-268.4732824427481,198.59541984732823,53.02290076335878,0.0
10.770000696182251,-11.949460485839843,-9.18655177001953,2.5354595581054684,55.3587786259542,-187.98473282442748,21.64885496183206,-18.059463122558594,-11.79862578125,-1.3048399047851562,-134.77862595419847,133.5267175572519,60.88549618320611,0.0
10.780000448226929,-10.40041201171875,-9.557653027343749,2.3367408203125,116.38167938931298,-170.6412213740458,12.534351145038167,-12.179303845214843,-13.206416357421874,2.518700146484375,-92.21374045801527,129.38931297709922,57.55725190839695,0.0
10.790000677108765,-12.449848632812499,-4.266467358398438,3.1794998046874996,122.7175572519084,-161.58778625954199,0.1984732824427481,-10.273519323730468,-11.386823095703125,2.6862942626953124,-33.587786259541986,113.0381679389313,59.908396946564885,0.0
10.800000667572021,-13.642161059570311,0.1867477294921875,2.990357873535156,119.6030534351145,-158.35114503816794,-2.4427480916030535,-8.820238916015624,-8.635885388183594,0.16280571289062498,29.603053435114504,86.12213740458016,58.93129770992366,0.0
10.810000658035278,-11.276689819335937,2.8419173706054686,1.867477294921875,114.0,-161.5114503816794,5.312977099236641,-8.01818135986328,-6.497863305664062,0.1197100830078125,67.93893129770993,71.57251908396947,55.19083969465649,0.0
10.820000410079956,-11.480196960449218,4.412513659667969,1.4030021728515625,87.06870229007633,-154.8091603053435,9.16030534351145,-10.110713610839843,-4.374206433105469,-0.6272808349609375,88.12213740458016,68.4885496183206,50.19847328244275,0.0
10.830000400543213,-8.180987072753906,2.7150246826171873,0.3136404174804687,59.49618320610687,-153.46564885496184,14.900763358778626,-14.07790576171875,-4.247313745117188,-0.17956512451171874,90.3206106870229,72.19847328244275,46.79389312977099,0.0
10.840001106262207,-5.030217687988281,0.354341845703125,-1.5035586425781249,54.56488549618321,-132.13740458015266,21.435114503816795,-9.074024291992187,-1.7094599853515624,-1.0079588989257813,88.07633587786259,62.29007633587786,39.3587786259542,0.0
10.850000619888306,-4.821922143554687,2.24097275390625,-1.1156979736328125,41.20610687022901,-112.93129770992367,18.015267175572518,-9.126696728515624,-1.0462661254882812,-0.7493851196289062,81.77099236641222,62.87022900763359,33.969465648854964,0.0
10.860000610351562,0.8858546142578124,-3.1842882080078123,-4.110844250488281,49.43511450381679,-98.85496183206106,24.015267175572518,-13.943830468749999,-4.161122485351562,1.3766659545898436,83.70992366412214,66.93129770992367,34.01526717557252,0.0
10.87000060081482,-0.13407529296874998,-1.656787548828125,-2.89219560546875,77.69465648854961,-53.87786259541985,21.786259541984734,-9.95987890625,-2.0638018310546875,0.6392518432617187,73.05343511450381,65.61832061068702,28.50381679389313,0.0
10.880000829696655,-1.3144167114257812,1.3192051147460937,-3.801992236328125,65.58778625954199,-33.404580152671755,9.557251908396946,-14.30056651611328,-8.40125362548828,3.2728736694335936,95.57251908396947,60.06106870229008,33.587786259541986,0.0
10.890000581741333,-4.939238024902344,7.769184387207031,-1.8052280517578123,19.603053435114504,-19.374045801526716,0.9923664122137404,-9.143456140136719,-2.3678654418945313,-0.22026655273437498,129.1145038167939,30.03053435114504,31.893129770992367,0.0
10.90000033378601,-5.276820458984375,9.220070593261719,-1.0414777221679687,-22.702290076335878,-14.870229007633588,5.236641221374046,-11.5304751953125,-3.5098996337890624,1.4820108276367188,99.86259541984732,45.541984732824424,28.38167938931298,0.0
10.910000562667847,-4.685452648925781,4.8314989501953125,-0.7948749511718749,-36.42748091603053,9.17557251908397,18.68702290076336,-9.090783703613281,-2.5474305664062498,0.4165910888671875,109.09923664122137,25.022900763358777,22.763358778625953,0.0
10.920000314712524,-6.093243225097656,8.183381274414062,0.814028564453125,-71.34351145038168,12.427480916030534,14.106870229007633,-14.293383911132812,-8.279149340820313,4.766855505371093,131.3740458015267,23.81679389312977,25.49618320610687,0.0
10.93000054359436,-4.3454760131835934,5.396530541992187,1.7022773803710936,-102.61068702290076,10.564885496183207,22.045801526717558,-10.47702646484375,-4.84586416015625,2.4013842651367185,148.10687022900763,3.816793893129771,21.34351145038168,0.0
10.940000534057617,-3.890577697753906,2.748543505859375,3.3159692993164063,-113.90839694656489,15.435114503816793,28.229007633587788,-11.501744775390625,-4.2688615600585935,2.2960393920898436,132.61068702290078,0.9465648854961832,15.022900763358779,0.0
10.950000524520874,-4.189852905273438,0.9792284790039062,5.288791467285156,-118.97709923664122,19.603053435114504,29.984732824427482,-10.556035119628906,-0.4860229370117187,-0.16519991455078123,135.08396946564886,-18.625954198473284,8.549618320610687,0.0
10.960000276565552,-3.3542765258789062,-0.8667010009765624,7.376535314941406,-108.77862595419847,24.85496183206107,31.31297709923664,-9.588777648925781,3.2249896362304686,-2.3918074584960936,93.48091603053435,-17.69465648854962,2.7786259541984735,0.0
10.970000505447388,-2.712630480957031,-0.74699091796875,9.576806640625,-92.70229007633588,28.076335877862597,35.3587786259542,-12.224793676757812,3.0047230834960934,1.8004396484374998,61.70992366412214,14.82442748091603,8.977099236641221,0.0
10.980000495910645,-3.3494881225585935,-1.47482822265625,12.504915270996094,-71.57251908396947,29.801526717557252,38.2442748091603,-10.117896215820313,3.366247534179687,1.429338391113281,59.908396946564885,7.541984732824427,14.900763358778626,0.0
10.99000072479248,-4.5968671875,-1.6352397338867186,16.82166086425781,-40.88549618320611,24.30534351145038,39.41984732824427,-8.214505895996094,7.649474304199218,-1.35990654296875,24.99236641221374,5.190839694656488,15.450381679389313,0.0
11.000000476837158,-2.47081611328125,-10.941501586914061,22.534226025390623,36.58015267175573,17.633587786259543,57.45038167938932,-5.935225915527344,6.701370446777343,-1.4700398193359374,-2.1374045801526718,9.83206106870229,21.053435114503817,0.0
11.010000944137573,-3.2225954345703123,-4.110844250488281,17.822437158203122,104.7175572519084,35.038167938931295,55.541984732824424,-8.851363537597656,6.749254479980468,-1.01514150390625,-49.12977099236641,32.274809160305345,25.374045801526716,0.0
11.020000457763672,1.7477672119140624,-4.656722229003906,-0.5147533569335937,90.45801526717557,32.51908396946565,44.99236641221374,-10.828974108886719,2.578555187988281,0.8355763793945312,-76.87022900763358,48.36641221374046,31.206106870229007,0.0
11.030000686645508,-2.2649147705078123,-2.8203695556640622,-13.050793249511718,100.87022900763358,75.00763358778626,27.72519083969466,-11.985373510742187,-0.03591302490234375,0.8595183959960937,-85.1145038167939,45.70992366412214,34.33587786259542,0.0
11.040000438690186,-5.992686755371094,-4.390965844726562,-10.809820495605468,82.44274809160305,88.22900763358778,7.648854961832061,-13.318943835449218,0.40462008056640625,-0.016759411621093748,-96.59541984732824,40.33587786259542,31.755725190839694,0.0
11.050000429153442,-11.595118640136718,-8.808267907714843,-0.8690952026367187,86.13740458015268,120.73282442748092,-5.877862595419847,-14.719551806640624,-1.0366893188476562,0.5889736083984375,-118.0,40.01526717557252,35.267175572519086,0.0
11.0600004196167,-16.385916162109375,-7.56567724609375,11.291055029296874,124.6412213740458,125.86259541984732,-17.6793893129771,-18.064251525878905,-4.975151049804687,1.8602946899414061,-109.57251908396947,30.53435114503817,40.091603053435115,0.0
11.070000648498535,-16.917428930664062,4.690241052246093,7.232883215332031,186.13740458015266,133.84732824427482,-15.755725190839694,-18.914193115234372,-5.410895751953125,3.2800562744140622,-91.66412213740458,15.709923664122137,42.36641221374046,0.0
11.080000400543213,-17.130512878417967,14.85602130126953,0.0909796630859375,103.90839694656489,117.46564885496183,-28.47328244274809,-19.546262353515623,-4.618415002441406,3.23696064453125,-69.17557251908397,0.0916030534351145,40.18320610687023,0.0
11.090000867843628,-4.371812231445312,-4.721365673828124,-1.5011644409179687,64.33587786259542,101.0381679389313,-18.18320610687023,-17.202338928222655,-4.548983154296875,4.319139794921875,-55.9236641221374,-10.412213740458014,36.99236641221374,0.0
11.100000381469727,-4.429273071289062,-13.795389965820311,-2.221819140625,178.27480916030535,154.18320610687022,-6.061068702290076,-15.0547400390625,-6.926425402832031,4.259284753417968,-30.015267175572518,-22.137404580152673,33.81679389312977,0.0
11.110000610351562,-12.208034265136718,-4.125209460449218,1.8028338500976562,199.3587786259542,168.6412213740458,-32.36641221374046,-15.727510705566406,-5.066130712890625,3.3255461059570313,11.511450381679388,-37.74045801526717,26.9618320610687,0.0
11.120000839233398,-9.222464794921875,-5.408501550292969,-0.5985504150390625,190.35114503816794,155.1908396946565,-39.3587786259542,-14.621389538574219,-2.6288334228515624,3.83072265625,21.236641221374047,-50.900763358778626,19.603053435114504,0.0
11.130000591278076,-12.210428466796873,8.635885388183594,-3.009511486816406,192.0916030534351,164.27480916030535,-44.33587786259542,-12.876016528320312,-1.484405029296875,3.706224169921875,19.34351145038168,-56.961832061068705,15.145038167938932,0.0
11.140000820159912,-13.500903161621093,12.959813586425781,-2.138022082519531,116.21374045801527,141.48091603053436,-55.49618320610687,-13.776236352539062,-2.0638018310546875,4.115632653808594,26.48854961832061,-62.18320610687023,10.854961832061068,0.0
11.15000057220459,-11.391611499023437,14.65251416015625,0.9983820922851562,49.20610687022901,121.31297709923665,-56.62595419847328,-13.469778540039062,-4.091690637207031,3.1555577880859373,41.038167938931295,-78.94656488549619,3.633587786259542,0.0
11.160000562667847,-10.146626635742187,7.936778503417968,-0.20350714111328125,-8.106870229007633,99.2824427480916,-51.29770992366412,-11.722011328125,-1.675941162109375,2.272097375488281,43.25190839694657,-89.31297709923665,-7.312977099236641,0.0
11.170000553131104,-8.106766821289062,4.412513659667969,0.8643067993164062,-29.480916030534353,91.98473282442748,-47.19083969465649,-11.015721838378905,-3.2154128295898436,2.50912333984375,44.47328244274809,-91.12977099236642,-15.068702290076336,0.0
11.18000054359436,-6.885723974609375,-0.7493851196289062,-0.2059013427734375,-22.9618320610687,90.6412213740458,-42.778625954198475,-9.770736975097655,-1.8722656982421875,0.4285620971679687,54.091603053435115,-104.21374045801527,-26.702290076335878,0.0
11.190000534057617,-7.024587670898437,-0.9552864624023437,0.9888052856445312,-2.8702290076335877,96.97709923664122,-40.13740458015267,-10.256759912109374,-1.915361328125,2.1547814941406247,54.62595419847328,-99.00763358778626,-32.85496183206107,0.0
11.200000762939453,-7.249642626953125,-1.407790576171875,1.7118541870117185,17.16030534351145,101.38931297709924,-40.152671755725194,-9.708487731933593,-1.0773907470703123,0.05027823486328125,67.31297709923665,-111.46564885496183,-42.67175572519084,0.0
11.21000051498413,-9.794678991699218,0.6584054565429687,1.6424223388671875,25.984732824427482,101.83206106870229,-42.94656488549618,-10.723629235839843,0.44532150878906246,1.0606313354492187,66.6412213740458,-110.74809160305344,-47.083969465648856,0.0
11.220000267028809,-11.049240661621093,0.8044517578125,1.7094599853515624,34.900763358778626,101.5114503816794,-45.267175572519086,-10.0748005859375,2.123656872558594,0.18435352783203124,62.0,-112.97709923664122,-49.25190839694657,0.0
11.230000257492065,-9.83777462158203,0.08379705810546874,1.13006318359375,37.93893129770992,94.76335877862596,-46.213740458015266,-10.886434948730468,1.4508862060546874,0.7230489013671875,60.274809160305345,-110.38167938931298,-49.38931297709924,0.0
11.240000247955322,-9.883264453125,2.8371289672851563,2.281674182128906,32.76335877862596,90.29007633587786,-48.29007633587786,-10.151415039062499,4.1563340820312495,-1.1133037719726562,46.2442748091603,-111.6030534351145,-48.13740458015267,0.0
11.250000715255737,-11.291055029296874,6.835445739746094,0.6775590698242188,21.801526717557252,88.77862595419847,-50.274809160305345,-10.520122094726561,3.7158009765625,0.33758243408203126,30.33587786259542,-96.61068702290076,-44.396946564885496,0.0
11.260000705718994,-9.931148486328125,6.986280444335937,1.3838485595703125,-13.49618320610687,75.96946564885496,-51.66412213740458,-9.809044201660155,4.216189123535156,-2.01112939453125,23.87786259541985,-98.82442748091603,-40.51908396946565,0.0
11.270000457763672,-10.474632263183594,5.781997009277344,0.5626373901367188,-42.50381679389313,66.93129770992367,-48.74809160305343,-9.112331518554686,2.91134921875,-1.407790576171875,10.717557251908397,-89.8473282442748,-37.847328244274806,0.0
11.280000686645508,-9.323021264648437,0.9050082275390624,-1.3742717529296875,-41.9236641221374,67.08396946564885,-44.35114503816794,-9.165003955078124,2.5857377929687497,-1.369483349609375,14.65648854961832,-86.68702290076335,-33.6793893129771,0.0
11.290000677108765,-11.245565197753905,4.292803576660156,1.3479355346679687,-39.66412213740458,74.65648854961832,-45.66412213740458,-9.299079248046874,2.925714428710937,-1.0726023437499999,7.4961832061068705,-80.70229007633588,-32.732824427480914,0.0
11.300000667572021,-7.694964135742187,2.3726538452148436,0.0718260498046875,-65.98473282442748,64.13740458015268,-44.01526717557252,-11.080365283203124,0.34237083740234375,-0.076614453125,22.564885496183205,-81.66412213740458,-28.16793893129771,0.0
11.310000896453857,-7.694964135742187,-2.6791116577148437,-1.1085153686523437,-48.778625954198475,68.38167938931298,-42.717557251908396,-8.686163623046875,3.246537451171875,-0.967257470703125,19.72519083969466,-91.77099236641222,-31.450381679389313,0.0
11.320000410079956,-12.69884560546875,7.314286071777343,2.8323405639648436,-44.916030534351144,79.6793893129771,-49.11450381679389,-10.939107385253905,0.565031591796875,0.8499415893554687,15.053435114503817,-82.58015267175573,-27.740458015267176,0.0
11.330000638961792,-7.694964135742187,0.55545478515625,0.13168109130859373,-80.53435114503817,60.12213740458015,-47.02290076335878,-9.236830004882812,3.383006945800781,-0.35673604736328124,10.778625954198473,-91.43511450381679,-29.16030534351145,0.0
11.34000039100647,-12.804190478515624,2.0661960327148434,-0.9026140258789062,-69.08396946564885,68.3969465648855,-47.45038167938932,-10.970232006835937,0.15083470458984374,1.1540052001953125,-1.984732824427481,-82.12213740458016,-25.404580152671755,0.0
11.350000381469727,-8.051700183105469,-0.4070142822265625,-0.6368576416015624,-71.70992366412214,62.12213740458015,-43.3587786259542,-9.603142858886718,1.848323681640625,0.9002198242187499,-4.564885496183206,-86.9618320610687,-27.083969465648856,0.0
11.360000848770142,-16.249446667480466,9.045293872070312,2.798821740722656,-78.50381679389314,72.82442748091603,-48.595419847328245,-10.338162768554687,-0.0526724365234375,1.235408056640625,-1.0534351145038168,-85.38931297709924,-23.908396946564885,0.0
11.37000036239624,-10.182539660644531,2.5450363647460934,0.9816226806640624,-95.70992366412214,61.51145038167939,-40.54961832061068,-9.047688073730468,1.235408056640625,1.4317325927734375,-4.183206106870229,-86.21374045801527,-23.404580152671755,0.0
11.380000829696655,-11.808202587890625,4.223371728515625,-0.4429273071289062,-104.21374045801527,55.05343511450382,-36.458015267175576,-9.909600671386718,0.19393033447265623,0.8667010009765624,0.3969465648854962,-88.79389312977099,-20.641221374045802,0.0
11.390000581741333,-10.83376251220703,0.8714894042968749,0.296881005859375,-104.54961832061069,48.36641221374046,-31.435114503816795,-10.165780249023436,-0.229843359375,2.319981408691406,6.717557251908397,-84.91603053435115,-18.580152671755727,0.0
11.400000810623169,-10.867281335449219,1.3527239379882812,1.0510545288085937,-86.82442748091603,56.29007633587786,-29.099236641221374,-8.480262280273436,0.5674257934570313,1.7645266235351562,8.183206106870228,-90.30534351145039,-19.0381679389313,0.0
11.410000324249268,-8.482656481933594,-1.4149731811523436,-0.5195417602539062,-92.87022900763358,44.54961832061068,-25.236641221374047,-10.302249743652343,-0.3758896606445312,2.080561242675781,21.801526717557252,-87.19083969465649,-15.374045801526718,0.0
11.420000553131104,-13.136984509277344,7.694964135742187,2.786850732421875,-99.61832061068702,46.79389312977099,-29.389312977099237,-9.112331518554686,0.6751648681640625,2.1739351074218747,16.198473282442748,-83.49618320610686,-14.183206106870228,0.0
11.43000054359436,-12.030863342285155,5.827486840820312,2.3391350219726563,-147.74045801526717,26.641221374045802,-24.427480916030536,-8.556876733398436,2.233790148925781,1.1252747802734375,24.50381679389313,-88.65648854961832,-13.526717557251908,0.0
11.440000534057617,-12.966996191406249,3.995922570800781,2.844311572265625,-144.24427480916032,19.557251908396946,-15.19083969465649,-8.796296899414061,0.4525041137695312,2.597708801269531,9.358778625954198,-76.12213740458016,-8.900763358778626,0.0
11.450000286102295,-10.857704528808593,0.33518823242187495,1.7788918334960937,-134.4732824427481,10.732824427480915,-4.824427480916031,-7.8912886718749995,1.6136919189453125,1.465251416015625,15.19083969465649,-80.6412213740458,-8.290076335877863,0.0
11.46000051498413,-12.514492077636717,0.5027823486328125,2.4013842651367185,-108.04580152671755,11.84732824427481,-0.6412213740458015,-8.228871105957031,0.02633621826171875,2.920926025390625,12.198473282442748,-66.44274809160305,-4.977099236641221,0.0
11.470000505447388,-10.55364091796875,-2.8107927490234372,1.2856862915039062,-91.63358778625954,8.946564885496183,4.0,-6.777984899902344,0.9696516723632812,1.9656395629882812,17.114503816793892,-71.64885496183206,-4.809160305343512,0.0
11.480000495910645,-12.205640063476562,-1.2018892333984375,1.7334020019531249,-54.80916030534351,16.870229007633586,4.870229007633588,-6.813897924804687,0.009576806640625,3.1316157714843746,8.15267175572519,-57.19083969465649,-3.66412213740458,0.0
11.49000072479248,-10.165780249023436,-1.2330138549804688,1.0630255371093749,-43.74045801526717,17.52671755725191,3.5877862595419847,-7.64229169921875,0.03591302490234375,3.0813375366210938,15.32824427480916,-56.54961832061068,-0.5801526717557252,0.0
11.500000238418579,-11.341333264160156,0.21068974609375,1.3742717529296875,-29.328244274809162,19.69465648854962,2.717557251908397,-4.302380383300781,2.9831752685546875,2.3487118286132813,-2.6106870229007635,-49.6793893129771,-4.152671755725191,0.0
11.510000944137573,-9.756371765136718,0.0047884033203125,0.24181436767578124,-34.76335877862596,11.282442748091603,4.5038167938931295,-5.999869360351562,1.4891934326171874,2.4349030883789062,-27.083969465648856,-26.793893129770993,-0.12213740458015267,0.0
11.520000696182251,-10.670956799316405,-0.4955997436523437,0.6464344482421874,-32.87022900763359,9.664122137404581,5.587786259541985,-7.752424975585937,-0.8906430175781249,2.442085693359375,-24.732824427480917,-23.72519083969466,5.541984732824427,0.0
11.530000686645508,-10.249577307128906,-2.1547814941406247,0.4908113403320312,-6.702290076335878,16.671755725190838,5.755725190839694,-8.176198669433592,-1.1037269653320312,2.8993782104492185,-12.580152671755725,-18.30534351145038,6.931297709923665,0.0
11.540000915527344,-13.213598962402344,1.5442600708007812,1.5682020874023437,-8.458015267175572,18.99236641221374,-1.3740458015267176,-7.524975817871093,-0.49799394531249996,2.5043349365234375,-8.259541984732824,-16.80916030534351,5.572519083969466,0.0
11.550000667572021,-12.258312499999999,0.2154781494140625,0.948103857421875,-13.312977099236642,12.396946564885496,-1.3129770992366412,-8.564059338378906,-1.6519991455078125,3.0813375366210938,-6.595419847328245,-7.32824427480916,7.9541984732824424,0.0
11.560000658035278,-11.520898388671874,-0.36391865234375,0.718260498046875,-3.9083969465648853,12.717557251908397,-0.3969465648854962,-7.524975817871093,-0.51714755859375,2.185906115722656,0.7175572519083969,-9.969465648854962,5.7251908396946565,0.0
11.570000648498535,-9.605537060546874,-2.365471240234375,0.08140285644531249,16.458015267175572,17.328244274809162,-2.16793893129771,-7.592013464355468,0.13168109130859373,2.212242333984375,-0.3511450381679389,-1.0229007633587786,4.732824427480916,0.0
11.580000638961792,-11.322179650878905,-0.833182177734375,0.9002198242187499,22.427480916030536,23.282442748091604,-9.969465648854962,-7.453149768066406,-0.4836287353515625,1.6112977172851561,-5.923664122137405,6.076335877862595,3.9083969465648853,0.0
11.590000629425049,-10.328585961914062,-0.33039982910156246,0.7900865478515624,24.885496183206108,20.870229007633586,-13.633587786259541,-7.3478048950195305,-1.599326708984375,2.3343466186523436,-1.5877862595419847,13.053435114503817,4.549618320610687,0.0
11.600000858306885,-11.027692846679686,0.7613561279296874,1.2832920898437499,29.52671755725191,22.717557251908396,-15.83206106870229,-7.989450939941406,-1.1516109985351561,2.655169641113281,8.106870229007633,15.32824427480916,2.854961832061069,0.0
11.610000610351562,-10.615890161132812,2.39420166015625,1.3000515014648437,24.595419847328245,19.068702290076335,-17.450381679389313,-7.663839514160156,-0.699106884765625,2.2170307373046874,-0.33587786259541985,25.49618320610687,0.2595419847328244,0.0
11.620000839233398,-12.571952917480468,3.3255461059570313,2.3487118286132813,13.893129770992367,18.30534351145038,-17.908396946564885,-6.902483386230468,0.7565677246093749,1.2306196533203124,-6.824427480916031,29.96946564885496,-1.3893129770992367,0.0
11.630000591278076,-12.179303845214843,5.149927770996094,2.3774422485351563,-0.9923664122137404,8.717557251908397,-16.15267175572519,-5.425260961914062,2.1260510742187497,0.7302315063476562,-31.297709923664122,49.06870229007634,-2.9160305343511452,0.0
11.640000820159912,-11.40837091064453,3.1938650146484373,2.281674182128906,-11.16030534351145,3.9236641221374047,-12.106870229007633,-8.125920434570313,-1.4413093994140624,1.429338391113281,-33.49618320610687,58.97709923664122,3.49618320610687,0.0
11.65000057220459,-10.714052429199219,2.6048914062499997,2.3391350219726563,-14.091603053435115,-0.0916030534351145,-11.038167938931299,-7.716511950683593,-1.2785036865234374,1.4437036010742186,-19.96946564885496,57.6793893129771,4.152671755725191,0.0
11.660000801086426,-11.21683477783203,2.0925322509765625,2.3726538452148436,-19.17557251908397,-4.870229007633588,-9.664122137404581,-7.055712292480468,-1.656787548828125,2.01112939453125,-15.221374045801527,64.47328244274809,2.0763358778625953,0.0
11.670000553131104,-10.180145458984374,0.6607996582031249,2.5905261962890624,-16.15267175572519,-8.106870229007633,-7.404580152671755,-8.219294299316406,-2.952050646972656,2.3630770385742186,-4.427480916030534,63.57251908396947,2.122137404580153,0.0
11.680000305175781,-11.168950744628905,2.2098481323242187,3.5410242553710933,-28.641221374045802,-18.106870229007633,-8.549618320610687,-6.150704064941406,-1.0127473022460938,2.023100402832031,-4.1679389312977095,65.43511450381679,-2.045801526717557,0.0
11.690000534057617,-11.322179650878905,1.1276689819335937,3.6200329101562496,-37.786259541984734,-25.954198473282442,-6.229007633587786,-6.593631372070312,-2.1811177124023438,2.003946789550781,-2.427480916030534,70.54961832061069,1.2061068702290076,0.0
11.700000286102295,-11.662156286621093,1.2641384765625,4.786009118652344,-37.57251908396947,-35.87786259541985,-4.885496183206107,-6.624755993652343,-1.7022773803710936,1.3239935180664062,9.221374045801527,67.23664122137404,2.931297709923664,0.0
11.71000051498413,-10.86009873046875,-0.33758243408203126,4.302380383300781,-35.48091603053435,-46.25954198473283,-4.595419847328245,-5.317521887207031,-0.4908113403320312,0.9050082275390624,7.557251908396947,76.80916030534351,2.3969465648854964,0.0
11.720000505447388,-11.350910070800781,0.14125789794921875,5.408501550292969,-32.99236641221374,-53.541984732824424,-4.091603053435114,-5.91846650390625,-2.001552587890625,0.7350199096679687,16.946564885496183,78.62595419847328,6.67175572519084,0.0
11.730000257492065,-11.650185278320311,-0.814028564453125,6.481103894042969,-34.01526717557252,-68.83969465648855,-4.916030534351145,-4.017470385742187,0.3902548706054687,-0.6607996582031249,18.641221374045802,79.63358778625954,3.6793893129770994,0.0
11.740000486373901,-11.348515869140625,-2.152387292480469,7.419630944824219,-20.549618320610687,-77.92366412213741,-2.213740458015267,-1.9393033447265624,3.1507693847656246,-1.908178723144531,-3.6946564885496183,94.3969465648855,2.0,0.0
11.750000715255737,-10.919953771972656,-2.3870190551757813,9.2320416015625,-14.412213740458014,-90.03053435114504,-4.854961832061068,-3.268085266113281,4.019864587402344,-1.9033903198242186,-23.801526717557252,108.79389312977099,4.916030534351145,0.0
11.760000705718994,-12.050016955566406,-2.059013427734375,11.312602844238281,-8.198473282442748,-109.40458015267176,-12.396946564885496,-5.762843395996094,2.6001030029296874,0.5099649536132812,-37.770992366412216,116.68702290076335,5.633587786259542,0.0
11.770000457763672,-12.23915888671875,-1.4125789794921875,12.449848632812499,-3.7557251908396947,-134.3053435114504,-19.786259541984734,-10.759542260742187,2.185906115722656,5.516240625,-85.66412213740458,135.3587786259542,-0.1984732824427481,0.0
11.780000686645508,-12.820949890136719,-1.6304513305664061,12.12423720703125,5.862595419847328,-159.72519083969465,-23.984732824427482,-11.077971081542968,3.9647979492187497,3.6750995483398436,-124.12213740458016,136.68702290076337,-8.473282442748092,0.0
11.790000438690186,-13.268665600585937,-1.2976572998046874,10.139444030761718,23.450381679389313,-185.81679389312978,-30.442748091603054,-12.045228552246092,1.1324573852539062,2.461239306640625,-171.49618320610688,153.86259541984734,-15.770992366412214,0.0
11.800000667572021,-14.197615844726561,0.16519991455078123,10.781090075683593,32.412213740458014,-210.91603053435114,-31.862595419847327,-10.524910498046875,5.5449710449218745,-1.7597382202148437,-178.45801526717557,149.81679389312978,-15.511450381679388,0.0
11.810000658035278,-15.030798022460937,0.09576806640624999,9.425971936035156,45.9236641221374,-234.35114503816794,-29.129770992366414,-15.87834541015625,-0.0143652099609375,0.7733271362304687,-201.9236641221374,159.6793893129771,-6.030534351145038,0.0
11.820000648498535,-15.102624072265623,0.7709329345703124,8.997409838867187,69.92366412213741,-246.21374045801528,-11.450381679389313,-11.37006368408203,5.537788439941406,-1.9393033447265624,-169.75572519083968,134.8091603053435,12.244274809160306,0.0
11.830000400543213,-16.318878515625,1.0342951171875,7.560888842773437,102.44274809160305,-258.10687022900765,7.4961832061068705,-11.226411584472656,0.076614453125,-0.5530605834960938,-175.38931297709922,140.53435114503816,27.587786259541986,0.0
11.840001106262207,-15.598223815917969,0.55545478515625,1.6017209106445311,116.2442748091603,-256.3206106870229,28.870229007633586,-2.7724855224609373,4.6998178588867185,-5.463568188476562,-149.0229007633588,102.53435114503817,31.954198473282442,0.0
11.850000619888306,-16.86236229248047,3.2225954345703123,-4.173093493652344,107.72519083969466,-247.1908396946565,37.38931297709924,-10.582371337890624,2.8850130004882812,-3.1962592163085937,-200.4732824427481,143.80152671755727,36.152671755725194,0.0
11.860000848770142,-15.844826586914062,0.1484405029296875,-7.8912886718749995,62.30534351145038,-241.5267175572519,38.88549618320611,-10.13226142578125,-0.6751648681640625,-0.23223756103515625,-163.34351145038167,132.06106870229007,40.06106870229008,0.0
11.87000036239624,-14.532804077148437,-3.0238766967773434,-5.157110375976562,58.13740458015267,-220.65648854961833,30.442748091603054,-10.522516296386717,-7.905653881835937,0.17477672119140625,-125.57251908396947,124.68702290076335,46.50381679389313,0.0
11.880000591278076,-9.143456140136719,-7.580042456054687,-7.115567333984375,73.83206106870229,-201.05343511450383,25.206106870229007,-7.632714892578124,-6.639121203613281,-1.9680337646484374,-62.85496183206107,104.10687022900764,45.19083969465649,0.0
11.890000581741333,-8.805873706054687,-5.322310290527343,-4.350264416503906,95.98473282442748,-161.61832061068702,13.282442748091603,-8.386888415527343,-7.979874133300781,-3.383006945800781,-27.96946564885496,91.89312977099236,48.0,0.0
11.900000810623169,-9.581595043945311,-2.6575638427734374,-1.7166425903320313,104.27480916030534,-135.95419847328245,12.045801526717558,-11.738770739746093,-10.79545528564453,-2.2002713256835937,29.984732824427482,84.6412213740458,53.87786259541985,0.0
11.910000562667847,-10.120290417480469,-0.8499415893554687,2.8945898071289062,104.50381679389314,-120.33587786259542,13.572519083969466,-9.878476049804688,-3.840299462890625,-4.477157104492187,57.45038167938932,69.66412213740458,45.3587786259542,0.0
11.920000553131104,-9.069235888671875,-0.55545478515625,3.778050219726562,121.43511450381679,-109.77099236641222,23.206106870229007,-12.612654345703124,-5.623979699707031,-1.467645617675781,64.0,77.52671755725191,44.51908396946565,0.0
11.93000054359436,-11.511321582031249,2.925714428710937,5.408501550292969,107.8473282442748,-103.09923664122137,23.69465648854962,-9.74200655517578,-1.5705962890624998,-2.310404602050781,92.62595419847328,56.0,38.152671755725194,0.0
11.940000534057617,-8.465897070312499,2.2649147705078123,2.01112939453125,97.81679389312977,-105.81679389312977,32.29007633587786,-11.915941662597655,-1.62805712890625,-0.74699091796875,86.44274809160305,62.76335877862596,36.70229007633588,0.0
11.950000286102295,-9.234435803222656,5.0948611328124995,1.68551796875,74.80916030534351,-91.14503816793894,30.47328244274809,-10.251971508789062,3.308786694335937,-1.9919757812499999,67.5114503816794,57.099236641221374,31.236641221374047,0.0
11.960000276565552,-9.78031378173828,7.536946826171874,0.4644751220703125,20.48854961832061,-99.19083969465649,24.091603053435115,-15.138537097167967,0.3232172241210937,0.02154781494140625,55.69465648854962,64.59541984732824,34.213740458015266,0.0
11.970000267028809,-3.1579519897460937,0.8355763793945312,-3.5122938354492184,-11.450381679389313,-104.82442748091603,34.80916030534351,-11.094730493164063,2.5258827514648434,-0.3758896606445312,35.267175572519086,58.99236641221374,32.229007633587784,0.0
11.980000495910645,-6.852205151367187,5.4515971801757805,-1.8052280517578123,-44.83969465648855,-86.61068702290076,25.87786259541985,-12.801796276855468,0.1484405029296875,-0.07900865478515624,28.33587786259542,57.06870229007634,33.343511450381676,0.0
11.99000072479248,-5.9400143188476555,4.2880151733398435,-2.0446482177734375,-83.69465648854961,-84.44274809160305,25.00763358778626,-9.78031378173828,1.2617442749023438,-0.9193734375,25.587786259541986,44.33587786259542,32.18320610687023,0.0
12.000000476837158,-5.2073886108398435,2.89219560546875,-2.346317626953125,-106.54961832061069,-78.09160305343511,27.31297709923664,-17.865532788085936,-10.421959826660157,7.893682873535155,24.900763358778626,69.2824427480916,44.61068702290076,0.0
12.010001182556152,-3.967192150878906,0.21787235107421873,-3.3446997192382812,-119.61832061068702,-66.21374045801527,26.763358778625953,-10.280701928710936,-5.130774157714844,3.0071172851562498,103.58778625954199,5.969465648854962,41.51145038167939,0.0
12.020000457763672,-3.1507693847656246,-0.30406361083984373,-3.8953661010742184,-113.38931297709924,-49.45038167938932,25.221374045801525,-15.773000537109374,-11.379640490722656,6.789955908203124,111.52671755725191,3.2977099236641223,37.63358778625954,0.0
12.030000448226929,-1.7310078002929687,-2.47081611328125,-3.1124621582031247,-110.09160305343511,-29.022900763358777,21.923664122137403,-13.374010473632811,-6.849810949707031,2.8945898071289062,132.91603053435114,-28.900763358778626,25.61832061068702,0.0
12.040000677108765,-1.9297265380859374,-1.6136919189453125,-1.9033903198242186,-107.77099236641222,-10.0,14.091603053435115,-17.255011364746093,-9.176974963378905,4.8506525634765625,121.32824427480917,-24.68702290076336,16.38167938931298,0.0
12.050000667572021,-0.8810662109374999,-2.530671154785156,-0.2442085693359375,-97.70992366412214,12.045801526717558,13.053435114503817,-12.904746948242186,-2.863465185546875,1.6543933471679686,123.12977099236642,-52.412213740458014,4.458015267175573,0.0
12.060000658035278,-2.032677209472656,-0.22026655273437498,2.099714855957031,-78.54961832061069,35.20610687022901,8.977099236641221,-14.666879370117186,-2.3151930053710936,0.9193734375,104.87022900763358,-52.54961832061068,-1.5114503816793894,0.0
12.070000648498535,-1.7980454467773437,-1.0103531005859374,3.356670727539062,-69.77099236641222,44.19847328244275,11.358778625954198,-9.91438907470703,1.2761094848632812,-1.4508862060546874,101.89312977099236,-69.89312977099236,-6.244274809160306,0.0
12.080000400543213,1.9033903198242186,-4.671087438964843,4.7381250854492185,-24.396946564885496,63.57251908396947,21.129770992366414,-11.877634436035155,2.269703173828125,-0.32561142578124996,77.69465648854961,-61.00763358778626,-3.954198473282443,0.0
12.090000629425049,0.565031591796875,-3.6487633300781246,8.204929089355469,13.633587786259541,79.45038167938931,27.770992366412212,-8.027758166503906,0.55545478515625,-2.243366955566406,64.74809160305344,-68.51908396946565,-0.8396946564885496,0.0
12.100000858306885,5.568913061523437,-10.388441003417968,10.192116467285155,108.03053435114504,106.35114503816794,42.70229007633588,-9.976638317871092,4.4196962646484375,-1.5897499023437498,42.80916030534351,-45.02290076335878,2.6259541984732824,0.0
12.110000610351562,-1.2521674682617188,-4.058171813964844,13.335703247070311,188.8854961832061,136.36641221374046,41.11450381679389,-8.590395556640624,6.076483813476562,-0.6655880615234374,-2.6412213740458017,-13.893129770992367,6.106870229007634,0.0
12.120000839233398,-0.8355763793945312,-6.260837341308593,18.83279025878906,233.29770992366412,123.63358778625954,43.282442748091604,-10.05564697265625,4.082113830566406,0.9026140258789062,-26.015267175572518,13.969465648854962,18.106870229007633,0.0
12.130000591278076,-5.7700260009765625,1.6232687255859375,9.495403784179686,268.0458015267176,139.55725190839695,41.86259541984733,-10.254365710449218,4.139574670410156,1.1659762084960936,-48.70229007633588,26.885496183206108,21.6793893129771,0.0
12.140000820159912,-8.197746484375,4.745307690429687,-8.226476904296874,183.96946564885496,130.67175572519085,13.450381679389313,-12.868833923339842,2.205059729003906,1.0869675537109373,-57.43511450381679,36.01526717557252,22.580152671755727,0.0
12.15000057220459,-14.982913989257812,7.287949853515625,-6.265625744628906,105.83206106870229,122.45801526717557,-6.564885496183206,-14.671667773437498,2.1739351074218747,1.0175357055664063,-74.19847328244275,38.51908396946565,23.374045801526716,0.0
12.160000801086426,-8.875305554199219,-11.042058056640624,-3.066972326660156,93.40458015267176,103.3587786259542,3.8473282442748094,-15.464148522949218,0.5626373901367188,-0.0430956298828125,-88.30534351145039,31.374045801526716,23.587786259541986,0.0
12.170000553131104,-15.974113476562499,-9.100360510253905,5.6311623046875,233.25190839694656,159.16030534351145,16.198473282442748,-14.947000964355468,-3.782838623046875,0.6200982299804687,-84.68702290076335,16.778625954198475,28.900763358778626,0.0
12.18000054359436,-14.678850378417968,-2.47081611328125,6.361393811035156,226.83969465648855,145.12977099236642,-3.969465648854962,-17.640477832031248,-4.012681982421875,1.5825672973632812,-58.48854961832061,5.4961832061068705,30.80916030534351,0.0
12.190000295639038,-14.065934753417968,6.121973645019531,4.1946413085937495,194.06106870229007,144.99236641221373,-18.0,-16.56787548828125,-4.165910888671875,0.7829039428710937,-21.6793893129771,-25.267175572519083,30.625954198473284,0.0
12.200000286102295,-7.996633544921875,2.0733786376953125,-1.917755529785156,112.9618320610687,119.09923664122137,-37.14503816793893,-17.535132958984374,-2.8467057739257813,1.7621324218749999,-3.5877862595419847,-34.717557251908396,29.19083969465649,0.0
12.21000051498413,-9.34696328125,3.787627026367187,-0.22505495605468748,70.09160305343511,113.32824427480917,-55.083969465648856,-16.512808850097656,-3.555389465332031,2.2385785522460937,16.015267175572518,-49.55725190839695,27.46564885496183,0.0
12.220000505447388,-8.039729174804688,2.6336218261718747,-0.8499415893554687,31.770992366412212,100.47328244274809,-64.77862595419847,-15.844826586914062,-1.2306196533203124,2.2170307373046874,32.93129770992366,-66.33587786259542,20.65648854961832,0.0
12.230000734329224,-9.289502441406249,3.9312791259765625,-0.10295067138671875,24.870229007633586,102.04580152671755,-68.62595419847328,-13.634978454589843,0.5123591552734374,2.118868469238281,29.389312977099237,-76.65648854961832,12.274809160305344,0.0
12.240000486373901,-8.267178332519531,1.5921441040039062,-1.3335703247070312,9.587786259541986,96.61068702290076,-70.29007633587786,-14.844050292968749,-1.687912170410156,2.808398547363281,35.74045801526717,-84.51908396946565,5.557251908396947,0.0
12.250000476837158,-9.504980590820312,1.9847931762695312,-2.0757728393554684,8.870229007633588,100.38167938931298,-72.90076335877863,-11.987767712402343,0.7517793212890624,2.0638018310546875,33.57251908396947,-100.80916030534351,-7.343511450381679,0.0
12.260000705718994,-8.374917407226562,2.645592834472656,-1.8219874633789062,3.8931297709923665,102.90076335877863,-72.73282442748092,-11.585541833496093,-0.7661445312499999,2.9041666137695312,33.43511450381679,-106.19847328244275,-14.473282442748092,0.0
12.270000696182251,-10.62307276611328,5.236119030761718,-0.5530605834960938,-3.0229007633587788,109.83206106870229,-73.80152671755725,-10.455478649902343,-0.39743747558593745,2.3439234252929686,28.931297709923665,-114.44274809160305,-20.0,0.0
12.280000686645508,-12.559981909179687,7.079654309082031,-0.9361328491210937,-10.702290076335878,113.09923664122137,-71.38931297709924,-8.724470849609375,1.3000515014648437,0.36152445068359373,20.33587786259542,-121.49618320610686,-25.984732824427482,0.0
12.290000677108765,-10.249577307128906,3.4572271972656248,-1.0414777221679687,-27.053435114503817,107.3587786259542,-65.74045801526718,-9.303867651367186,1.199495031738281,0.5530605834960938,18.65648854961832,-125.12977099236642,-26.412213740458014,0.0
12.300000429153442,-8.98304462890625,5.533000036621093,0.15562310791015624,-32.045801526717554,109.02290076335878,-63.31297709923664,-12.437877624511717,-0.35673604736328124,1.7094599853515624,13.465648854961833,-118.85496183206106,-22.717557251908396,0.0
12.310000658035278,-8.020575561523437,2.1643583007812497,-0.5578489868164063,-38.79389312977099,106.70229007633588,-60.56488549618321,-9.945513696289062,2.93050283203125,-0.36391865234375,13.664122137404581,-126.30534351145039,-24.65648854961832,0.0
12.320000410079956,-9.562441430664062,3.9528269409179684,-0.7326257080078125,-37.908396946564885,108.36641221374046,-58.99236641221374,-12.322955944824217,3.229778039550781,0.20350714111328125,6.9465648854961835,-118.6412213740458,-24.580152671755727,0.0
12.330000638961792,-9.49300958251953,2.7916391357421872,0.8475473876953125,-46.19847328244275,102.3969465648855,-58.06106870229008,-11.762712756347655,3.5984850952148437,-0.22744915771484372,-4.9465648854961835,-114.91603053435115,-22.931297709923665,0.0
12.340000629425049,-10.711658227539061,4.027047192382812,1.3575123413085937,-55.80152671755725,98.27480916030534,-58.35114503816794,-9.2320416015625,4.053383410644531,-1.9129671264648436,-20.396946564885496,-112.38167938931298,-26.65648854961832,0.0
12.350000619888306,-9.698910925292969,2.540247961425781,0.9241618408203125,-59.64885496183206,94.01526717557252,-56.33587786259542,-8.90643017578125,3.0621839233398433,-2.1715409057617188,-29.633587786259543,-100.38167938931298,-24.290076335877863,0.0
12.36000108718872,-12.588712329101561,9.801861596679688,3.5913024902343746,-82.6412213740458,90.91603053435115,-59.05343511450382,-8.257601525878906,3.5673604736328124,-2.233790148925781,-28.18320610687023,-96.35114503816794,-24.412213740458014,0.0
12.37000060081482,-8.066065393066406,2.3247698120117186,0.679953271484375,-123.77099236641222,66.76335877862596,-53.770992366412216,-7.931990100097655,2.408566870117187,-1.8219874633789062,-28.3206106870229,-89.83206106870229,-22.625954198473284,0.0
12.380000591278076,-10.022128149414062,1.1252747802734375,0.5770026000976562,-109.6030534351145,71.00763358778626,-50.656488549618324,-8.17859287109375,2.2840683837890623,-1.8028338500976562,-24.900763358778626,-89.31297709923665,-19.786259541984734,0.0
12.390000581741333,-10.180145458984374,-2.896984008789062,0.033518823242187495,-110.51908396946565,60.10687022900763,-44.79389312977099,-6.8569935546875,2.147598889160156,-0.2657563842773437,-33.16030534351145,-81.48091603053435,-18.82442748091603,0.0
12.40000057220459,-12.830526696777342,-1.2521674682617188,1.62805712890625,-90.99236641221374,68.38167938931298,-44.29007633587786,-8.267178332519531,0.7972691528320313,0.2154781494140625,-25.068702290076335,-83.46564885496183,-13.755725190839694,0.0
12.410000324249268,-10.295067138671874,-2.5043349365234375,0.8307879760742187,-79.06870229007633,64.21374045801527,-42.0763358778626,-7.175422375488281,1.8746598999023436,0.63206923828125,-26.977099236641223,-80.3206106870229,-13.618320610687023,0.0
12.420000553131104,-15.665261462402343,8.05648858642578,2.925714428710937,-89.3587786259542,63.19083969465649,-45.89312977099237,-8.492233288574218,0.3280056274414062,1.3263877197265623,-23.14503816793893,-81.89312977099236,-10.305343511450381,0.0
12.430000305175781,-10.369287390136718,0.612915625,2.5953145996093747,-105.95419847328245,47.41984732824427,-38.94656488549618,-7.331045483398437,2.176329309082031,1.216254443359375,-36.68702290076336,-78.61068702290076,-11.954198473282442,0.0
12.440000534057617,-13.761871142578125,3.775656018066406,3.2609026611328122,-97.08396946564885,46.10687022900763,-31.297709923664122,-10.261548315429687,-1.6448165405273436,1.3144167114257812,-32.16793893129771,-76.83969465648855,-7.679389312977099,0.0
12.450000524520874,-10.66137999267578,-1.2808978881835937,1.6065093139648436,-98.3206106870229,27.083969465648856,-20.65648854961832,-7.40526573486328,1.446097802734375,1.3215993164062498,-30.549618320610687,-79.25190839694656,-11.038167938931299,0.0
12.46000051498413,-13.527239379882811,1.8195932617187498,3.4356793823242184,-67.6793893129771,34.6412213740458,-12.396946564885496,-9.734823950195311,-1.9776105712890624,1.1061211669921875,-18.580152671755727,-76.73282442748092,-5.984732824427481,0.0
12.470000982284546,-8.56166513671875,-2.5426421630859375,-0.08379705810546874,-60.61068702290076,24.519083969465647,-7.145038167938932,-7.0461354858398435,0.584185205078125,1.149216796875,-11.618320610687023,-80.94656488549619,-9.893129770992367,0.0
12.480000257492065,-14.068328955078124,8.104372619628906,2.4660277099609376,-69.3587786259542,28.198473282442748,-12.305343511450381,-9.897629663085937,-1.9991583862304687,1.6543933471679686,-2.4580152671755724,-74.10687022900764,-6.442748091603053,0.0
12.49000072479248,-11.97100830078125,5.061342309570312,1.5418658691406248,-128.27480916030535,-3.2061068702290076,-12.748091603053435,-7.369352709960937,1.695094775390625,1.0342951171875,-3.648854961832061,-77.25190839694656,-10.80916030534351,0.0
12.500000476837158,-12.861651318359375,3.9360675292968748,0.36631285400390623,-135.31297709923663,-8.870229007633588,-5.404580152671755,-10.230423693847655,-2.068590234375,1.5394716674804687,-3.618320610687023,-68.91603053435115,-5.709923664122138,0.0
12.510000944137573,-9.3086560546875,-0.7589619262695312,-1.3096283081054687,-132.8091603053435,-14.13740458015267,-1.5877862595419847,-7.764395983886718,0.842758984375,1.0414777221679687,2.8244274809160306,-73.95419847328245,-10.82442748091603,0.0
12.520000696182251,-12.296619726562499,1.9895815795898437,-0.27293898925781246,-120.18320610687023,-10.13740458015267,-2.564885496183206,-9.80665,-2.2744915771484373,2.2840683837890623,10.198473282442748,-64.76335877862596,-9.038167938931299,0.0
12.530000686645508,-9.576806640625,-0.047884033203124995,-1.0486603271484374,-120.8854961832061,-14.458015267175572,-2.030534351145038,-7.467514978027343,0.5746083984375,1.7764976318359373,13.740458015267176,-69.32824427480917,-13.938931297709924,0.0
12.540000677108765,-9.89523546142578,-1.7549498168945312,-1.3263877197265623,-88.3969465648855,-4.3816793893129775,3.969465648854962,-9.22485899658203,-2.3247698120117186,2.4301146850585935,14.427480916030534,-57.20610687022901,-12.748091603053435,0.0
12.550000667572021,-7.3286512817382805,-5.295974072265625,-2.288856787109375,-52.36641221374046,6.977099236641221,4.3816793893129775,-7.46272657470703,0.430956298828125,2.1930887207031247,23.557251908396946,-61.83206106870229,-17.72519083969466,0.0
12.560000896453857,-8.437166650390624,-2.2936451904296873,-1.4987702392578124,-11.740458015267176,26.458015267175572,-1.786259541984733,-6.598419775390624,0.4740519287109375,2.4301146850585935,13.526717557251908,-49.06870229007634,-21.297709923664122,0.0
12.570000886917114,-9.023746057128905,-0.3758896606445312,-0.7972691528320313,-9.893129770992367,32.13740458015267,-6.442748091603053,-8.947131604003905,-0.97683427734375,2.5474305664062498,20.83969465648855,-46.33587786259542,-19.17557251908397,0.0
12.58000111579895,-7.9272016967773435,0.7278373046875,-0.5339069702148437,6.152671755725191,32.229007633587784,-2.3969465648854964,-8.166621862792969,0.8882488159179687,3.0166940917968748,21.358778625954198,-45.12977099236641,-21.31297709923664,0.0
12.590000629425049,-10.682927807617187,2.3032219970703123,0.8379705810546875,7.633587786259542,35.9236641221374,-0.916030534351145,-7.012616662597656,1.4867992309570313,2.166752502441406,8.687022900763358,-37.11450381679389,-23.419847328244273,0.0
12.600000858306885,-10.62307276611328,1.9967641845703124,1.707065783691406,9.587786259541986,36.274809160305345,1.9694656488549618,-7.0844427124023435,1.0821791503906248,2.8275521606445313,-0.6106870229007634,-26.732824427480917,-21.236641221374047,0.0
12.610000848770142,-11.125855114746093,2.2385785522460937,1.915361328125,12.625954198473282,32.0,4.534351145038168,-10.556035119628906,-2.231395947265625,3.8043864379882812,9.633587786259541,-21.755725190839694,-15.511450381679388,0.0
12.620001077651978,-12.15536182861328,2.518700146484375,1.917755529785156,7.1603053435114505,26.259541984732824,5.419847328244275,-8.494627490234375,0.6416460449218749,3.414131567382812,17.755725190839694,-26.38167938931298,-18.366412213740457,0.0
12.630000591278076,-12.51928048095703,2.7461493041992187,2.147598889160156,-1.3129770992366412,25.236641221374047,7.083969465648855,-8.453926062011718,0.0909796630859375,3.919308117675781,8.320610687022901,-15.022900763358779,-17.587786259541986,0.0
12.640000820159912,-13.074735266113281,1.1109095703125,2.2864625854492187,-5.374045801526718,22.916030534351144,7.969465648854962,-9.03332286376953,-0.5363011718749999,3.907337109375,12.67175572519084,-14.885496183206106,-16.15267175572519,0.0
12.65000057220459,-12.366051574707031,0.3136404174804687,2.0446482177734375,-6.061068702290076,19.61832061068702,4.763358778625954,-7.656656909179687,0.82360537109375,3.6655227416992187,13.129770992366412,-12.83969465648855,-16.702290076335878,0.0
12.660000562667847,-12.55758770751953,0.5674257934570313,1.7669208251953124,-16.412213740458014,11.541984732824428,1.9694656488549618,-8.219294299316406,0.46208092041015625,3.8139632446289062,13.526717557251908,-10.0,-15.603053435114504,0.0
12.670000791549683,-11.305420239257812,-1.9512743530273435,1.3623007446289062,-5.068702290076335,9.969465648854962,2.2595419847328246,-8.288726147460936,0.63206923828125,4.060566015625,13.893129770992367,-6.519083969465649,-14.091603053435115,0.0
12.68000054359436,-11.334150659179686,-1.2114660400390624,1.0534487304687499,-1.1450381679389312,9.16030534351145,-2.763358778625954,-6.981492041015625,1.4030021728515625,3.6727053466796873,7.8320610687022905,-3.5114503816793894,-13.786259541984732,0.0
12.690000534057617,-11.054029064941405,-0.948103857421875,0.8092401611328125,1.099236641221374,9.312977099236642,-6.106870229007634,-8.281543542480469,0.13168109130859373,3.81156904296875,8.793893129770993,0.6412213740458015,-9.251908396946565,0.0
12.700000524520874,-11.087547888183593,0.28730419921875,0.9097966308593749,1.3282442748091603,9.129770992366412,-8.213740458015268,-7.089231115722656,1.7453730102539062,3.5218706420898434,5.419847328244275,2.4427480916030535,-7.129770992366412,0.0
12.71000051498413,-13.551181396484374,3.921702319335937,2.0733786376953125,-9.312977099236642,7.6183206106870225,-9.664122137404581,-5.968744738769531,2.1499930908203124,2.9975404785156248,-7.893129770992366,8.778625954198473,-6.030534351145038,0.0
12.720000505447388,-12.313379138183594,6.339845996093749,2.6408044311523438,-38.10687022900763,-2.931297709923664,-7.66412213740458,-5.511452221679687,2.4013842651367185,1.7717092285156248,-13.099236641221374,9.648854961832061,-2.366412213740458,0.0
12.730000257492065,-11.056423266601563,4.1754876953124995,2.2098481323242187,-55.66412213740458,-12.274809160305344,-1.8931297709923665,-5.2816088623046875,1.9967641845703124,2.205059729003906,-34.58015267175573,26.076335877862597,1.618320610687023,0.0
12.740000486373901,-11.06360587158203,2.7269956909179687,2.492363928222656,-62.61068702290076,-13.679389312977099,1.2366412213740459,-6.083666418457031,0.09576806640624999,2.3582886352539063,-38.67175572519084,33.25190839694657,8.15267175572519,0.0
12.750000476837158,-9.816226806640625,0.5219359619140624,2.051830822753906,-64.35114503816794,-14.396946564885496,0.22900763358778625,-6.675034228515624,-2.770091320800781,2.3511060302734372,-27.17557251908397,36.030534351145036,12.625954198473282,0.0
12.760000467300415,-9.069235888671875,-1.3455413330078123,2.195482922363281,-53.083969465648856,-11.603053435114504,-1.6793893129770991,-6.177040283203125,-3.1268273681640624,1.649604943847656,-10.290076335877863,38.25954198473283,11.465648854961833,0.0
12.770000696182251,-8.82263311767578,-3.0023288818359375,2.549824768066406,-35.725190839694655,-9.404580152671755,-3.7251908396946565,-3.555389465332031,-1.2282254516601563,-0.00239420166015625,-3.83206106870229,44.06106870229008,6.656488549618321,0.0
12.780000686645508,-9.636661682128906,-1.5753846923828123,3.8283284545898435,-25.755725190839694,-5.587786259541985,-10.213740458015268,-2.923320227050781,-0.3495534423828125,-1.467645617675781,-12.16793893129771,61.603053435114504,5.8320610687022905,0.0
12.790000677108765,-9.414000927734374,-1.5083470458984374,5.044582897949218,-24.732824427480917,-11.801526717557252,-12.961832061068701,-4.5968671875,-2.578555187988281,-1.6543933471679686,-4.534351145038168,72.65648854961832,11.572519083969466,0.0
12.800000667572021,-9.1554271484375,-2.8562825805664063,5.894524487304687,-11.267175572519085,-22.793893129770993,-13.969465648854962,-2.971204260253906,0.143652099609375,-2.568978381347656,6.458015267175573,75.57251908396947,10.274809160305344,0.0
12.810000658035278,-9.074024291992187,-3.4332851806640625,7.213729602050781,11.221374045801527,-30.48854961832061,-15.267175572519085,-2.825157958984375,0.19153613281249998,-1.9871873779296874,-2.8702290076335877,97.09923664122137,11.419847328244275,0.0
12.820000648498535,-9.603142858886718,-2.01112939453125,8.413224633789062,12.717557251908397,-48.82442748091603,-17.633587786259543,-1.0438719238281249,1.6328455322265625,-3.294421484375,-11.923664122137405,104.19847328244275,12.427480916030534,0.0
12.830000638961792,-11.291055029296874,-2.042254016113281,9.897629663085937,16.259541984732824,-71.19083969465649,-20.33587786259542,-4.0988732421875,0.7254431030273437,-1.7310078002929687,-16.213740458015266,121.87786259541984,17.46564885496183,0.0
12.84000039100647,-11.207257971191405,-2.2481553588867187,11.961431494140625,28.076335877862597,-96.77862595419847,-20.82442748091603,-5.293579870605469,8.212111694335936,1.22583125,-47.725190839694655,132.04580152671755,12.01526717557252,0.0
12.850000381469727,-12.562376110839843,-0.51714755859375,11.79862578125,26.33587786259542,-127.80152671755725,-27.389312977099237,-12.46900224609375,5.221753820800781,8.113949426269532,-118.94656488549619,157.0381679389313,3.2213740458015265,0.0
12.860000610351562,-14.152126013183594,-1.1276689819335937,11.762712756347655,18.610687022900763,-163.31297709923663,-33.17557251908397,-14.745888024902342,0.3232172241210937,12.04044014892578,-177.48091603053436,143.81679389312978,-8.15267175572519,0.0
12.87000060081482,-15.50724415283203,-2.636016027832031,10.603919152832031,36.16793893129771,-195.25190839694656,-38.19847328244275,-21.339519396972655,-7.544129431152343,10.721235034179687,-168.9770992366412,144.41221374045801,-14.977099236641221,0.0
12.880000829696655,-17.75539951171875,-2.2768857788085937,8.863334545898438,60.916030534351144,-216.44274809160305,-36.274809160305345,-16.180014819335938,-4.963180041503906,3.0741549316406247,-111.90839694656489,104.3969465648855,-13.893129770992367,0.0
12.890000581741333,-18.41859337158203,-0.7134720947265625,7.582436657714843,89.6030534351145,-231.23664122137404,-26.946564885496183,-16.76659422607422,0.2705447875976562,1.5873557006835937,-101.63358778625954,98.12213740458016,3.1297709923664123,0.0
12.90000057220459,-18.98601916503906,-0.031124621582031248,5.547365246582031,109.31297709923665,-238.65648854961833,-1.9694656488549618,-4.855440966796874,5.7317187744140625,-4.637568615722656,-75.38931297709924,62.58015267175573,22.137404580152673,0.0
12.910000562667847,-18.50717883300781,1.4221557861328125,3.402160559082031,124.3206106870229,-240.24427480916032,19.297709923664122,-5.935225915527344,5.985504150390625,-4.187458703613281,-126.47328244274809,89.41984732824427,34.62595419847328,0.0
12.920000791549683,-17.76018791503906,2.6671406494140624,-2.9448680419921875,107.64885496183206,-238.793893129771,41.55725190839695,-1.687912170410156,11.17852755126953,-8.499415893554687,-151.70992366412213,90.30534351145039,35.49618320610687,0.0
12.93000054359436,-16.31169591064453,4.259284753417968,-5.6024318847656245,69.86259541984732,-234.51908396946564,50.595419847328245,-4.958391638183594,3.4835634155273434,-5.0757075195312495,-233.4198473282443,131.93893129770993,32.36641221374046,0.0
12.940000534057617,-13.366827868652344,0.7015010864257812,-7.036558679199218,29.801526717557252,-230.70229007633588,55.29770992366412,-7.036558679199218,-1.01514150390625,-2.5043349365234375,-185.7709923664122,119.02290076335878,38.458015267175576,0.0
12.950000524520874,-12.291831323242187,-2.2026655273437497,-6.394912634277343,21.404580152671755,-218.65648854961833,51.16030534351145,-10.409988818359375,-11.834538806152343,0.7900865478515624,-140.82442748091603,128.54961832061068,44.06106870229008,0.0
12.96000051498413,-10.01015714111328,-7.321468676757812,-5.762843395996094,36.778625954198475,-197.3740458015267,46.12213740458015,-11.123460913085937,-14.413093994140624,-1.8052280517578123,-60.916030534351144,104.18320610687023,40.67175572519084,0.0
12.970000505447388,-10.0748005859375,-6.823474731445312,-1.9584569580078124,66.83969465648855,-169.00763358778627,34.87022900763359,-11.243170996093749,-14.015656518554687,-1.7310078002929687,1.099236641221374,93.32824427480917,43.43511450381679,0.0
12.980000495910645,-9.725247143554688,-7.074865905761718,1.2952630981445312,89.43511450381679,-154.03053435114504,29.022900763358777,-8.80347950439453,-7.850587243652344,-4.182670300292968,54.2442748091603,69.09923664122137,38.229007633587784,0.0
12.99000072479248,-12.167332836914062,-3.593696691894531,5.013458276367187,92.83969465648855,-142.27480916030535,17.801526717557252,-10.89122335205078,-6.624755993652343,-2.5809493896484375,81.46564885496183,63.25190839694657,36.778625954198475,0.0
13.000000476837158,-12.638990563964843,-1.5275006591796874,7.1778165771484375,97.2824427480916,-139.32824427480915,17.786259541984734,-12.08592998046875,-6.926425402832031,0.4213794921875,122.22900763358778,59.70992366412214,36.12213740458015,0.0
13.010000944137573,-13.397952490234374,0.7661445312499999,6.270414147949219,84.62595419847328,-142.82442748091603,16.748091603053435,-10.338162768554687,-0.4333505004882812,-1.2378022583007813,137.66412213740458,50.0763358778626,29.435114503816795,0.0
13.020000696182251,-13.881581225585936,4.955997436523437,4.292803576660156,60.13740458015267,-147.63358778625954,20.82442748091603,-10.50815108642578,4.039018200683594,-2.9448680419921875,120.94656488549619,46.93129770992366,24.793893129770993,0.0
13.030000448226929,-11.489773767089844,3.854664672851562,1.7238251953125,29.221374045801525,-152.7175572519084,25.31297709923664,-11.79862578125,3.0214824951171875,-1.4939818359375,89.41984732824427,63.74045801526717,27.541984732824428,0.0
13.040000438690186,-8.339004382324218,2.27927998046875,-0.05985504150390625,3.0381679389312977,-148.77862595419847,26.625954198473284,-8.71489404296875,3.8666356811523435,-0.6655880615234374,80.70229007633588,66.30534351145039,29.328244274809162,0.0
13.050000667572021,-7.654262707519531,1.0558429321289062,-0.9864110839843749,-24.427480916030536,-146.67175572519085,20.396946564885496,-10.378864196777343,5.971138940429687,-2.492363928222656,60.656488549618324,70.42748091603053,31.00763358778626,0.0
13.060000658035278,-4.405331054687499,-4.005499377441406,-2.990357873535156,-18.015267175572518,-133.4351145038168,23.251908396946565,-16.66843195800781,-5.829881042480468,3.3973721557617185,60.091603053435115,92.22900763358778,42.10687022900763,0.0
13.070000410079956,-2.2744915771484373,-4.690241052246093,-2.3127988037109373,5.099236641221374,-104.97709923664122,18.33587786259542,-9.74200655517578,1.2856862915039062,-0.9552864624023437,79.7557251908397,63.23664122137404,37.343511450381676,0.0
13.080000638961792,-1.8746598999023436,-2.147598889160156,-3.1579519897460937,17.801526717557252,-84.87022900763358,11.038167938931299,-12.725181823730468,-4.170699291992188,0.35194764404296874,78.53435114503817,64.54961832061069,39.23664122137404,0.0
13.090000629425049,-1.3311761230468748,0.229843359375,-2.961627453613281,9.954198473282442,-57.954198473282446,3.9236641221374047,-11.030087048339842,-1.678335363769531,0.19871873779296872,88.65648854961832,52.82442748091603,37.83206106870229,0.0
13.100000858306885,-0.28490999755859375,1.2665326782226562,-3.7995980346679685,-3.5877862595419847,-42.213740458015266,0.10687022900763359,-14.736311218261719,-9.476250170898437,4.948814831542968,94.0,57.587786259541986,40.25954198473283,0.0
13.110000610351562,-0.24181436767578124,1.9871873779296874,-2.8419173706054686,-16.366412213740457,-16.519083969465647,-2.9770992366412212,-11.264718811035156,-5.322310290527343,3.143586779785156,155.8320610687023,11.19083969465649,36.99236641221374,0.0
13.120000839233398,0.023942016601562498,1.6208745239257811,-2.123656872558594,-31.801526717557252,3.5114503816793894,-10.030534351145038,-17.401057666015625,-8.245630517578125,8.353369592285155,144.18320610687022,26.916030534351144,31.770992366412212,0.0
13.130000591278076,-1.438915197753906,1.5682020874023437,0.5243301635742187,-35.43511450381679,25.221374045801525,-10.580152671755725,-10.66856259765625,-4.510675927734375,3.9552211425781247,189.17557251908397,-32.35114503816794,18.30534351145038,0.0
13.140000820159912,-1.35990654296875,1.6400281372070311,2.6479870361328124,-29.46564885496183,38.38167938931298,-9.83206106870229,-13.453019128417967,-3.438073583984375,4.321533996582031,163.61832061068702,-39.93893129770992,4.854961832061068,0.0
13.15000057220459,-4.3239281982421875,5.600037683105469,6.459556079101562,-38.70229007633588,51.282442748091604,-4.778625954198473,-14.401122985839843,-0.229843359375,5.767631799316406,139.48091603053436,-60.717557251908396,-8.213740458015268,0.0
13.160000562667847,-4.046200805664062,6.533776330566406,9.181763366699219,-45.725190839694655,50.091603053435115,3.3893129770992365,-13.32373223876953,5.0948611328124995,0.6943184814453125,100.53435114503817,-56.80916030534351,-11.603053435114504,0.0
13.170000553131104,-2.9735984619140625,7.146691955566406,10.412383020019531,-53.70992366412214,50.33587786259542,15.648854961832061,-13.012486022949219,4.855440966796874,3.299209887695312,55.06870229007634,-36.35114503816794,-0.13740458015267176,0.0
13.18000054359436,-2.454056701660156,5.884947680664062,8.839392529296875,-74.47328244274809,42.152671755725194,22.641221374045802,-10.453084448242187,1.5394716674804687,5.753266589355468,34.79389312977099,-25.6793893129771,17.83206106870229,0.0
13.190000534057617,-1.7238251953125,3.7804444213867185,4.76924970703125,-86.8854961832061,37.23664122137404,27.61832061068702,-10.254365710449218,4.987122058105468,2.6240450195312497,19.14503816793893,-36.2442748091603,22.18320610687023,0.0
13.200000524520874,0.6847416748046875,-2.291250988769531,3.670311145019531,-74.29007633587786,42.74809160305343,39.23664122137404,-9.828197814941406,7.45075556640625,3.3542765258789062,-27.740458015267176,-15.19083969465649,26.15267175572519,0.0
13.21000051498413,-2.882618798828125,-7.908048083496094,11.698069311523437,-40.12213740458015,50.16793893129771,44.0,-9.10993731689453,4.661510632324219,2.77727392578125,-62.93129770992366,2.9618320610687023,35.11450381679389,0.0
13.220000505447388,-5.528211633300781,-9.64623848876953,11.880028637695311,6.442748091603053,50.93129770992366,44.50381679389313,-10.924742175292968,1.8124106567382812,2.602497204589844,-74.83969465648855,9.694656488549619,38.717557251908396,0.0
13.230000734329224,-9.361328491210937,-9.399635717773437,8.020575561523437,45.038167938931295,56.82442748091603,31.49618320610687,-13.01727442626953,0.7709329345703124,2.5474305664062498,-74.93129770992367,6.473282442748092,37.45038167938932,0.0
13.240000247955322,-10.93671318359375,-7.410054138183593,-2.0757728393554684,78.19847328244275,63.69465648854962,13.404580152671755,-12.957419384765624,2.398990063476562,1.0534487304687499,-90.04580152671755,-0.061068702290076333,34.82442748091603,0.0
13.250000715255737,-15.179238525390623,-3.7612908081054686,-3.725377783203125,100.68702290076335,91.45038167938931,-3.8625954198473282,-14.635754748535156,-0.9313444458007812,2.2290017456054687,-100.99236641221374,2.122137404580153,39.11450381679389,0.0
13.260000467300415,-17.424999682617187,-5.176263989257812,2.5450363647460934,118.35114503816794,103.26717557251908,-9.893129770992367,-16.251840869140626,-4.122815258789062,2.868253588867187,-81.87786259541984,-10.442748091603054,39.98473282442748,0.0
13.270000696182251,-7.113173132324218,-11.183315954589844,0.0143652099609375,220.68702290076337,142.7175572519084,-1.3282442748091603,-15.701174487304687,-5.260061047363281,2.2194249389648437,-55.25190839694657,-29.251908396946565,34.900763358778626,0.0
13.280000448226929,-5.76523759765625,-4.450820886230469,-6.344634399414062,232.70229007633588,149.81679389312978,-25.083969465648856,-13.855245007324218,-3.6104561035156246,2.4756045166015626,-29.19083969465649,-36.30534351145038,26.793893129770993,0.0
13.290000677108765,-11.042058056640624,2.288856787109375,-1.20667763671875,230.2290076335878,166.44274809160305,-36.29007633587786,-14.686032983398437,-3.6727053466796873,2.2194249389648437,-7.175572519083969,-45.725190839694655,22.977099236641223,0.0
13.300000667572021,-8.671798413085938,3.3255461059570313,-1.7908628417968748,179.34351145038167,143.32824427480915,-38.68702290076336,-14.393940380859375,-3.0550013183593747,1.3910311645507811,11.17557251908397,-59.099236641221374,16.977099236641223,0.0
13.310000658035278,-10.635043774414061,3.6176387084960937,-2.5330653564453125,178.15267175572518,164.65648854961833,-35.61832061068702,-13.563152404785155,-0.6512228515624999,0.0526724365234375,15.267175572519085,-68.8854961832061,10.351145038167939,0.0
13.320000648498535,-16.68279716796875,11.40837091064453,3.3494881225585935,104.76335877862596,149.06870229007635,-55.16030534351145,-12.638990563964843,1.37906015625,-1.465251416015625,1.1603053435114503,-71.86259541984732,0.24427480916030533,0.0
13.330000877380371,-5.604826086425781,-6.763619689941406,-2.770091320800781,74.01526717557252,118.74809160305344,-39.786259541984734,-14.188039038085936,-1.2665326782226562,-0.3687070556640625,-4.152671755725191,-67.09923664122137,-2.122137404580153,0.0
13.34000039100647,-6.871358764648437,-13.067552661132812,-7.345410693359375,181.32824427480915,162.35114503816794,-31.72519083969466,-13.742717529296874,-5.473144995117187,1.177947216796875,21.206106870229007,-77.87786259541984,-12.763358778625955,0.0
13.350000381469727,-13.850456604003906,2.7437551025390623,-0.7134720947265625,197.98473282442748,174.8854961832061,-52.85496183206107,-11.362881079101562,-2.5665841796874997,0.5458779785156249,38.70229007633588,-93.54198473282443,-27.358778625954198,0.0
13.360000848770142,-9.208099584960937,6.098031628417968,-0.7709329345703124,155.72519083969465,151.17557251908397,-53.17557251908397,-12.208034265136718,-1.8842367065429686,1.5251064575195312,48.29007633587786,-94.13740458015268,-31.51145038167939,0.0
13.37000060081482,-12.145785021972655,11.329362255859374,1.6807295654296874,127.93893129770993,153.4351145038168,-59.282442748091604,-10.828974108886719,-0.0526724365234375,0.63206923828125,48.82442748091603,-99.86259541984732,-36.656488549618324,0.0
13.380000829696655,-12.188880651855468,12.169727038574218,2.1643583007812497,53.83206106870229,128.91603053435114,-68.6412213740458,-11.3389390625,1.458068811035156,-0.5482721801757812,50.18320610687023,-101.16030534351145,-41.38931297709924,0.0
13.390000343322754,-7.266402038574219,6.9719152343749995,-0.7589619262695312,2.045801526717557,105.22137404580153,-68.65648854961832,-11.48498536376953,2.2481553588867187,-0.02154781494140625,33.66412213740458,-92.59541984732824,-46.30534351145038,0.0
13.40000057220459,-7.117961535644531,0.7661445312499999,-1.7214309936523438,-11.19083969465649,96.12213740458016,-61.69465648854962,-12.648567370605468,0.44053310546874996,-0.38307226562499996,42.62595419847328,-87.3587786259542,-46.900763358778626,0.0
13.410000801086426,-7.666233715820312,0.9528922607421875,-2.0446482177734375,0.21374045801526717,100.74809160305344,-59.404580152671755,-11.111489904785156,2.77727392578125,-1.4772224243164063,41.69465648854962,-88.44274809160305,-52.0763358778626,0.0
13.420000553131104,-8.729259252929687,3.0550013183593747,0.05985504150390625,1.1908396946564885,107.8473282442748,-59.32824427480916,-10.721235034179687,2.1619640991210938,-1.2785036865234374,42.51908396946565,-79.08396946564885,-51.48091603053435,0.0
13.43000054359436,-9.624690673828125,1.917755529785156,-0.5219359619140624,-16.35114503816794,101.38931297709924,-61.29770992366412,-8.348581188964843,4.735730883789063,-3.4715924072265625,33.603053435114504,-77.80152671755725,-50.595419847328245,0.0
13.440000534057617,-11.616666455078125,2.877830395507812,0.45489831542968745,-16.946564885496183,105.31297709923665,-63.66412213740458,-8.109161022949218,3.8283284545898435,-2.1499930908203124,22.519083969465647,-60.82442748091603,-46.229007633587784,0.0
13.450000286102295,-10.31661495361328,0.3902548706054687,0.4908113403320312,-31.87786259541985,96.6412213740458,-64.3969465648855,-7.673416320800781,3.076549133300781,-1.4939818359375,25.84732824427481,-55.86259541984733,-42.16793893129771,0.0
13.46000051498413,-12.31577333984375,6.926425402832031,1.5035586425781249,-36.79389312977099,101.6793893129771,-70.29007633587786,-7.400477331542969,2.5617957763671875,0.17477672119140625,23.251908396946565,-53.969465648854964,-38.778625954198475,0.0
13.470000982284546,-9.543287817382812,1.2425906616210938,0.49799394531249996,-71.5114503816794,80.62595419847328,-67.54198473282443,-6.5768719604492185,3.912125512695312,-0.1580173095703125,12.977099236641221,-52.06106870229008,-36.534351145038165,0.0
13.480000495910645,-9.782707983398437,0.28490999755859375,-0.0718260498046875,-51.541984732824424,87.23664122137404,-62.916030534351144,-8.427589843749999,0.1197100830078125,1.924938134765625,15.206106870229007,-45.32824427480916,-28.045801526717558,0.0
13.490000247955322,-8.406042028808594,-1.0079588989257813,-0.3902548706054687,-49.87786259541985,84.50381679389314,-60.42748091603053,-7.869740856933594,1.618480322265625,0.8690952026367187,28.076335877862597,-57.51145038167939,-28.15267175572519,0.0
13.500000476837158,-11.389217297363281,6.888118176269531,2.3535002319335936,-49.52671755725191,90.73282442748092,-61.93893129770992,-7.429207751464843,1.905784521484375,2.195482922363281,14.580152671755725,-54.44274809160305,-25.34351145038168,0.0
13.510000705718994,-6.993463049316406,0.46208092041015625,1.149216796875,-79.55725190839695,70.44274809160305,-53.93893129770992,-8.427589843749999,1.2856862915039062,1.3192051147460937,25.587786259541986,-60.900763358778626,-21.64885496183206,0.0
13.520000696182251,-12.208034265136718,6.169857678222656,0.8882488159179687,-72.01526717557252,78.35114503816794,-53.954198473282446,-7.029376074218749,2.6623522460937497,1.0462661254882812,7.893129770992366,-62.85496183206107,-21.450381679389313,0.0
13.530000448226929,-9.813832604980469,2.920926025390625,2.195482922363281,-98.73282442748092,63.70992366412214,-43.603053435114504,-8.75320126953125,1.2425906616210938,1.6136919189453125,12.01526717557252,-59.786259541984734,-17.251908396946565,0.0
13.540000438690186,-13.560758203125,7.520187414550781,3.9791631591796874,-115.34351145038168,54.35114503816794,-40.33587786259542,-8.870517150878905,2.5258827514648434,1.3000515014648437,4.0,-64.04580152671755,-15.236641221374045,0.0
13.550000667572021,-11.259930407714844,4.541800549316406,3.2704794677734372,-146.83969465648855,33.29770992366412,-29.709923664122137,-10.153809240722655,1.0534487304687499,1.8219874633789062,10.412213740458014,-63.725190839694655,-11.053435114503817,0.0
13.560000658035278,-17.896657409667966,14.611812731933593,7.975085729980468,-170.59541984732823,21.6793893129771,-23.893129770992367,-8.817844714355468,2.8730419921875,0.8882488159179687,6.33587786259542,-72.7175572519084,-9.801526717557252,0.0
13.570000648498535,-14.583082312011717,9.030928662109375,5.793968017578124,-234.99236641221373,-18.763358778625953,-11.664122137404581,-10.54645831298828,1.62805712890625,1.8124106567382812,6.244274809160306,-68.19847328244275,-5.694656488549619,0.0
13.580000638961792,-16.61815372314453,5.604826086425781,5.214571215820312,-230.2290076335878,-31.14503816793893,6.061068702290076,-9.387664709472656,2.176329309082031,0.9983820922851562,-4.122137404580153,-75.17557251908397,-3.0839694656488548,0.0
13.590000629425049,-13.251906188964844,0.354341845703125,3.450044592285156,-214.06106870229007,-50.61068702290076,24.641221374045802,-11.018116040039061,0.36152445068359373,1.5107412475585937,7.66412213740458,-74.45801526717557,-0.8702290076335878,0.0
13.600000381469727,-13.041216442871093,-0.6871358764648438,3.4620156005859375,-171.63358778625954,-51.00763358778626,32.93129770992366,-9.801861596679688,-0.1149216796875,2.6982652709960937,5.465648854961832,-75.89312977099236,-1.099236641221374,0.0
13.610000610351562,-10.096348400878906,-4.647145422363281,0.7829039428710937,-139.16030534351145,-53.98473282442748,37.954198473282446,-8.635885388183594,0.2825157958984375,1.7405846069335937,17.16030534351145,-84.25954198473282,-3.5114503816793894,0.0
13.620000839233398,-13.213598962402344,-3.0789433349609374,2.0638018310546875,-83.02290076335878,-32.42748091603053,31.282442748091604,-10.295067138671874,-1.2665326782226562,2.9496564453125,13.374045801526718,-75.64885496183206,-3.3893129770992365,0.0
13.630000352859497,-8.611943371582031,-5.403713146972656,-0.016759411621093748,-61.74045801526717,-30.229007633587788,27.114503816793892,-8.142679846191406,0.97683427734375,2.7533319091796873,12.412213740458014,-80.4885496183206,-8.122137404580153,0.0
13.640000820159912,-6.785167504882812,-6.028599780273437,-1.4700398193359374,-5.022900763358779,-12.229007633587786,25.46564885496183,-10.828974108886719,-1.0941501586914062,2.5474305664062498,11.114503816793894,-75.8473282442748,-4.9465648854961835,0.0
13.650000810623169,-6.998251452636718,-3.4644098022460934,-1.8698714965820311,22.137404580152673,2.2900763358778624,15.068702290076336,-7.4794859863281244,1.7741034301757812,2.1452046874999997,3.6793893129770994,-77.3587786259542,-11.16030534351145,0.0
13.660000324249268,-8.492233288574218,0.5889736083984375,-1.3120225097656248,23.923664122137403,12.900763358778626,6.061068702290076,-10.536881506347656,-1.438915197753906,2.839523168945312,1.83206106870229,-69.92366412213741,-7.709923664122138,0.0
13.670000791549683,-7.783549597167968,0.70868369140625,-1.6256629272460936,11.206106870229007,12.916030534351146,2.7022900763358777,-8.86094034423828,2.1739351074218747,1.9776105712890624,5.419847328244275,-75.0381679389313,-8.442748091603054,0.0
13.68000054359436,-8.547299926757812,2.4109610717773435,-1.2761094848632812,2.16793893129771,17.84732824427481,-0.8396946564885496,-8.79150849609375,2.4516625,2.446874096679687,-11.251908396946565,-60.16793893129771,-8.595419847328245,0.0
13.690000772476196,-8.836998327636719,1.5634136840820312,-2.094926452636719,-16.15267175572519,16.12213740458015,-2.1374045801526718,-9.437942944335937,0.22026655273437498,2.578555187988281,-10.091603053435115,-56.900763358778626,-2.9160305343511452,0.0
13.700000762939453,-9.457096557617186,1.3814543579101561,-2.817975354003906,-20.53435114503817,19.66412213740458,-2.9923664122137406,-8.360552197265624,1.7645266235351562,2.4756045166015626,-5.297709923664122,-56.961832061068705,-2.1068702290076335,0.0
13.71000051498413,-9.816226806640625,1.2401964599609374,-3.337517114257812,-34.16793893129771,23.14503816793893,-2.9618320610687023,-6.004657763671875,2.8323405639648436,3.028665100097656,-22.03053435114504,-41.38931297709924,-2.1068702290076335,0.0
13.720000267028809,-9.746794958496093,1.199495031738281,-2.7054478759765623,-42.3206106870229,31.297709923664122,-1.1297709923664123,-5.482721801757812,2.6671406494140624,3.1651345947265623,-43.66412213740458,-26.16793893129771,2.2748091603053435,0.0
13.730000257492065,-12.397176196289061,0.3591302490234375,-1.2378022583007813,-50.01526717557252,38.152671755725194,-2.427480916030534,-8.24802471923828,-0.39264907226562495,2.971204260253906,-35.17557251908397,-23.14503816793893,10.67175572519084,0.0
13.740000486373901,-11.81059678955078,-1.4628572143554686,-0.5506663818359374,-43.083969465648856,41.908396946564885,-4.33587786259542,-5.911283898925781,1.22583125,3.852270471191406,-35.038167938931295,-19.435114503816795,10.67175572519084,0.0
13.750000715255737,-12.389993591308594,-0.852335791015625,0.2537853759765625,-41.02290076335878,41.221374045801525,-7.450381679389313,-7.060500695800781,-0.2442085693359375,3.7517140014648436,-30.259541984732824,-14.946564885496183,13.358778625954198,0.0
13.760000467300415,-12.746729638671875,-0.08140285644531249,1.2401964599609374,-37.51145038167939,41.083969465648856,-9.572519083969466,-5.820304235839844,0.3806780639648437,3.6583401367187496,-30.83969465648855,-11.511450381679388,13.618320610687023,0.0
13.77000093460083,-12.140996618652343,1.2306196533203124,1.3048399047851562,-43.16030534351145,33.49618320610687,-9.923664122137405,-7.637503295898437,-0.8116343627929687,3.687070556640625,-26.53435114503817,-6.641221374045801,16.27480916030534,0.0
13.780000686645508,-12.387599389648436,1.7549498168945312,1.6017209106445311,-50.83969465648855,27.893129770992367,-8.992366412213741,-5.913678100585937,0.7589619262695312,2.8012159423828122,-27.87786259541985,-4.9465648854961835,15.099236641221374,0.0
13.790000677108765,-9.995791931152343,0.9337386474609375,1.0630255371093749,-50.88549618320611,23.358778625954198,-5.847328244274809,-7.031770275878906,0.36631285400390623,2.8610709838867185,-40.97709923664122,10.82442748091603,17.068702290076335,0.0
13.800000429153442,-9.80665,1.4604630126953124,1.618480322265625,-53.083969465648856,23.389312977099237,-5.022900763358779,-6.41646044921875,-0.0526724365234375,2.6862942626953124,-40.88549618320611,13.664122137404581,18.580152671755727,0.0
13.8100004196167,-10.235212097167969,1.8746598999023436,1.4006079711914061,-61.66412213740458,17.404580152671755,-2.854961832061069,-6.624755993652343,-0.584185205078125,2.6623522460937497,-40.99236641221374,22.213740458015266,18.27480916030534,0.0
13.820000648498535,-10.000580334472655,1.5035586425781249,2.051830822753906,-54.717557251908396,20.82442748091603,-1.3587786259541985,-5.389347937011719,0.08140285644531249,1.2976572998046874,-41.6793893129771,24.412213740458014,17.31297709923664,0.0
13.830000877380371,-9.006986645507812,1.0558429321289062,1.3455413330078123,-60.229007633587784,14.549618320610687,-0.8854961832061069,-5.269637854003906,0.6057330200195312,1.467645617675781,-57.038167938931295,43.80152671755725,14.15267175572519,0.0
13.840000629425049,-9.009380847167968,0.41898529052734373,1.618480322265625,-59.099236641221374,13.648854961832061,-0.7022900763358778,-7.015010864257812,-1.8363526733398436,1.6543933471679686,-52.06106870229008,48.274809160305345,18.33587786259542,0.0
13.850000619888306,-8.89924757080078,-0.4070142822265625,1.886630908203125,-46.93129770992366,12.458015267175572,-2.8091603053435112,-6.0525417968749995,-0.5410895751953124,1.5442600708007812,-42.534351145038165,52.56488549618321,15.49618320610687,0.0
13.860000848770142,-9.3852705078125,-0.3280056274414062,2.4349030883789062,-38.85496183206107,10.183206106870228,-4.427480916030534,-7.316680273437499,-2.2481553588867187,2.518700146484375,-37.49618320610687,62.6412213740458,16.091603053435115,0.0
13.87000060081482,-9.100360510253905,-0.928950244140625,2.808398547363281,-27.541984732824428,10.076335877862595,-5.694656488549619,-7.484274389648437,-3.526659045410156,2.1835119140624997,-18.213740458015266,56.152671755725194,16.015267175572518,0.0
13.880000829696655,-9.289502441406249,-0.8762778076171874,3.4069489624023435,-14.702290076335878,4.641221374045801,-7.786259541984733,-5.722141967773437,-1.4437036010742186,1.7501614135742187,-9.908396946564885,60.0,9.358778625954198,0.0
13.890000581741333,-9.543287817382812,-0.7158662963867187,3.6104561035156246,-4.0458015267175576,3.145038167938931,-8.961832061068701,-7.144297753906249,-3.0334535034179684,2.1715409057617188,-3.1908396946564888,65.16030534351145,9.893129770992367,0.0
13.90000057220459,-9.519345800781249,-0.9552864624023437,4.158728283691406,0.7786259541984732,-2.198473282442748,-12.213740458015268,-5.090072729492187,-1.455674609375,0.4381389038085937,8.717557251908397,57.38931297709924,5.862595419847328,0.0
13.910000562667847,-9.509768994140625,-0.9002198242187499,4.453215087890625,13.297709923664122,-7.816793893129771,-14.076335877862595,-4.333505004882812,0.39743747558593745,1.13006318359375,-5.862595419847328,76.9618320610687,2.5801526717557253,0.0
13.920000553131104,-9.65342109375,-0.6655880615234374,5.044582897949218,15.068702290076336,-14.198473282442748,-14.687022900763358,-2.626439221191406,2.7246014892578123,-0.8714894042968749,-21.16030534351145,85.20610687022901,2.1068702290076335,0.0
13.93000054359436,-9.916783276367187,-0.5315127685546874,5.315127685546875,18.85496183206107,-22.213740458015266,-16.931297709923665,-4.6639048339843745,1.177947216796875,-0.6871358764648438,-47.57251908396947,112.36641221374046,6.3816793893129775,0.0
13.940000295639038,-9.962273107910155,-0.29927520751953124,6.086060620117187,21.84732824427481,-33.83206106870229,-17.328244274809162,0.6368576416015624,7.161057165527343,-4.924872814941406,-73.81679389312977,118.51908396946565,4.091603053435114,0.0
13.950000524520874,-9.880870251464843,-1.3144167114257812,6.430825659179687,31.114503816793892,-42.717557251908396,-17.740458015267176,-2.6048914062499997,7.491456994628906,-4.556165759277343,-126.38167938931298,162.36641221374046,8.351145038167939,0.0
13.96000051498413,-12.220005273437499,0.3232172241210937,8.520963708496094,19.801526717557252,-58.2442748091603,-19.450381679389313,-5.662286926269531,5.513846423339843,-3.840299462890625,-158.18320610687022,177.06870229007635,17.770992366412212,0.0
13.970000505447388,-12.648567370605468,-1.22583125,10.189722265624999,18.061068702290076,-82.76335877862596,-22.213740458015266,-10.40041201171875,2.104503259277344,2.530671154785156,-186.41221374045801,194.3206106870229,16.85496183206107,0.0
13.980000495910645,-14.255076684570312,-0.7445967163085937,11.535263598632811,19.389312977099237,-112.97709923664122,-26.18320610687023,-19.673155041503904,-3.8953661010742184,9.725247143554688,-192.9770992366412,174.67175572519085,8.229007633587786,0.0
13.99000072479248,-16.359579943847656,-1.5562310791015623,12.361263171386717,23.603053435114504,-146.82442748091603,-33.89312977099237,-22.77125198974609,-9.9215716796875,14.846444494628905,-184.90076335877862,156.41221374045801,-7.343511450381679,0.0
14.000000238418579,-17.566257580566404,-1.005564697265625,12.102689392089843,40.06106870229008,-180.4732824427481,-37.19083969465649,-21.224597717285157,-9.320627062988281,9.394847314453125,-108.29007633587786,107.93893129770993,-0.732824427480916,0.0
14.010000944137573,-17.915811022949217,-0.3280056274414062,10.103531005859374,57.343511450381676,-206.65648854961833,-37.343511450381676,-18.085799340820312,-8.583212951660157,5.437231970214843,-34.3206106870229,69.48091603053435,21.083969465648856,0.0
14.02000093460083,-18.239028247070312,-0.30885201416015623,8.865728747558594,77.72519083969466,-227.1908396946565,-26.53435114503817,-2.133233679199219,11.310208642578125,-7.125144140624999,-14.061068702290076,15.083969465648854,22.641221374045802,0.0
14.030000448226929,-19.60611739501953,4.084508032226562,9.303867651367186,89.81679389312977,-240.793893129771,-11.86259541984733,-7.426813549804687,10.565611926269531,-5.722141967773437,-115.89312977099236,69.22137404580153,26.396946564885496,0.0
14.040000677108765,-20.147206970214842,4.350264416503906,7.232883215332031,83.2824427480916,-250.85496183206106,16.641221374045802,-3.806780639648437,9.253589416503905,-6.3973068359375,-154.6259541984733,81.23664122137404,30.091603053435115,0.0
14.050000429153442,-15.502455749511718,5.295974072265625,-1.1731588134765625,84.29007633587786,-253.80152671755727,39.66412213740458,-5.906495495605468,-0.19153613281249998,-2.31758720703125,-176.04580152671755,107.98473282442748,36.80916030534351,0.0
14.060000658035278,-14.489708447265624,3.0789433349609374,-7.876923461914062,63.80152671755725,-240.3053435114504,57.25190839694657,-5.549759448242187,-3.840299462890625,-2.2649147705078123,-141.05343511450383,106.3969465648855,35.93893129770992,0.0
14.070000648498535,-13.699621899414062,-0.46208092041015625,-8.894459167480468,27.480916030534353,-221.25190839694656,52.61068702290076,-10.297461340332031,-10.800243688964843,-0.8212111694335937,-111.34351145038168,121.25190839694656,37.98473282442748,0.0
14.080000638961792,-13.101071484375,-4.673481640625,-8.135497241210937,12.885496183206106,-204.12213740458014,42.47328244274809,-9.694122521972655,-11.812990991210937,-1.8746598999023436,-50.900763358778626,106.30534351145039,37.19083969465649,0.0
14.09000039100647,-11.250353601074218,-6.2009822998046875,-6.584054565429687,18.900763358778626,-180.87022900763358,27.633587786259543,-9.064447485351561,-9.102754711914063,-3.2034418212890623,3.877862595419847,89.8473282442748,38.35114503816794,0.0
14.100000381469727,-10.769119067382812,-3.2249896362304686,-2.85388837890625,36.70229007633588,-156.793893129771,18.35114503816794,-10.649408984374999,-9.17458076171875,-1.5490484741210937,48.54961832061068,80.58015267175573,43.80152671755725,0.0
14.110000610351562,-10.421959826660157,-2.808398547363281,0.4213794921875,50.33587786259542,-140.65648854961833,20.259541984732824,-11.018116040039061,-4.608838195800781,-3.227383837890625,86.47328244274809,68.03053435114504,44.87022900763359,0.0
14.120000839233398,-11.243170996093749,-1.4030021728515625,4.989516259765625,56.030534351145036,-128.90076335877862,20.778625954198475,-10.371681591796875,1.5490484741210937,-3.8762124877929685,76.70229007633588,67.3587786259542,40.213740458015266,0.0
14.130000352859497,-12.478579052734375,-0.296881005859375,7.6997525390625,62.656488549618324,-124.7175572519084,25.603053435114504,-11.06360587158203,0.18435352783203124,-0.33758243408203126,69.43511450381679,79.86259541984732,41.49618320610687,0.0
14.140000820159912,-12.136208215332031,0.34715924072265625,6.380547424316406,61.954198473282446,-132.68702290076337,31.770992366412212,-10.548852514648438,-2.365471240234375,1.3096283081054687,84.3969465648855,80.35114503816794,45.23664122137404,0.0
14.15000057220459,-12.457031237792968,1.4772224243164063,4.106055847167968,51.19083969465649,-136.4732824427481,33.98473282442748,-9.41639512939453,-0.6536170532226562,0.36631285400390623,102.2442748091603,67.12977099236642,43.98473282442748,0.0
14.160000801086426,-11.554417211914062,2.360682836914062,1.6041151123046875,26.091603053435115,-142.13740458015266,33.14503816793893,-11.81777939453125,0.00239420166015625,-0.7254431030273437,97.7557251908397,64.80916030534351,41.69465648854962,0.0
14.170000553131104,-9.988609326171874,2.6910826660156246,0.6919242797851562,-3.5114503816793894,-142.18320610687022,30.946564885496183,-9.488221179199218,1.675941162109375,-1.4006079711914061,77.72519083969466,61.099236641221374,37.29770992366412,0.0
14.18000054359436,-5.559336254882812,-0.7757213378906249,-0.6943184814453125,-18.213740458015266,-143.17557251908397,32.74809160305343,-10.180145458984374,2.0278888061523435,-1.3455413330078123,64.3969465648855,60.88549618320611,35.89312977099237,0.0
14.190000534057617,-3.7612908081054686,-2.6527754394531247,-0.9457096557617187,-9.129770992366412,-120.6412213740458,29.984732824427482,-9.244012609863281,1.4006079711914061,-0.13168109130859373,51.099236641221374,61.06870229007634,35.11450381679389,0.0
14.200000286102295,-2.2601263671875,-3.299209887695312,-2.243366955566406,-2.213740458015267,-107.40458015267176,25.84732824427481,-12.382810986328124,-1.0127473022460938,0.6009446166992187,52.74809160305343,59.603053435114504,37.32824427480916,0.0
14.210000276565552,-1.5777788940429687,-1.9536685546875,-0.8882488159179687,11.083969465648854,-82.07633587786259,22.793893129770993,-10.398017810058594,-1.0606313354492187,1.0845733520507812,35.93893129770992,59.45038167938932,34.56488549618321,0.0
14.220000505447388,-1.0821791503906248,-1.5921441040039062,-1.8124106567382812,11.923664122137405,-68.54961832061069,18.198473282442748,-12.378022583007812,-7.105990527343749,4.2880151733398435,46.534351145038165,57.66412213740458,36.93129770992366,0.0
14.230000257492065,-1.867477294921875,0.9433154541015625,-1.005564697265625,8.946564885496183,-47.23664122137404,14.213740458015268,-10.867281335449219,-2.5450363647460934,1.4820108276367188,78.25954198473282,29.251908396946565,32.67175572519084,0.0
14.240000486373901,-1.2569558715820313,1.429338391113281,-0.9504980590820312,-4.488549618320611,-37.770992366412216,10.717557251908397,-14.750676428222656,-6.749254479980468,5.200206005859375,71.70992366412214,38.82442748091603,29.267175572519083,0.0
14.250000715255737,-3.1962592163085937,2.85388837890625,1.2665326782226562,-18.30534351145038,-15.526717557251908,6.213740458015267,-10.402806213378906,-4.707000463867187,2.47081611328125,99.74045801526718,7.022900763358779,24.458015267175572,0.0
14.260000705718994,-3.7158009765625,2.042254016113281,2.3343466186523436,-34.19847328244275,-9.786259541984732,1.7709923664122138,-15.47611953125,-10.512939489746094,6.505045910644531,126.2442748091603,-4.030534351145038,24.68702290076336,0.0
14.270000696182251,-2.2649147705078123,-0.37828386230468747,3.380612744140625,-24.213740458015266,2.6717557251908395,4.9465648854961835,-11.257536206054686,-3.9240965209960934,2.568978381347656,142.53435114503816,-31.46564885496183,17.31297709923664,0.0
14.280000686645508,-3.1076737548828124,0.9911994873046874,5.257666845703125,-19.786259541984734,8.83969465648855,2.931297709923664,-9.935936889648437,-0.6607996582031249,-0.40940848388671874,114.76335877862596,-34.18320610687023,5.740458015267175,0.0
14.290000677108765,-4.8314989501953125,3.0526071166992184,7.094019519042968,-25.49618320610687,10.977099236641221,5.6183206106870225,-11.159373937988281,3.7612908081054686,-2.0254946044921875,93.29770992366412,-43.93893129770992,1.1603053435114503,0.0
14.300000667572021,-4.44363828125,4.077325427246094,8.736441857910156,-21.083969465648856,11.587786259541986,13.877862595419847,-14.767435839843749,0.4740519287109375,1.8100164550781248,65.6030534351145,-16.458015267175572,8.076335877862595,0.0
14.310000658035278,-5.437231970214843,4.661510632324219,9.665392102050781,-28.458015267175572,3.984732824427481,21.0381679389313,-11.061211669921875,2.70065947265625,-0.51714755859375,68.27480916030534,-35.969465648854964,5.0534351145038165,0.0
14.320000648498535,-4.881777185058594,3.9719805541992184,8.820238916015624,-29.572519083969464,1.7099236641221374,25.6793893129771,-13.079523669433593,2.142810485839844,1.678335363769531,44.778625954198475,-26.3206106870229,7.129770992366412,0.0
14.330000638961792,-4.017470385742187,1.9584569580078124,6.892906579589844,-26.916030534351144,3.0381679389312977,32.0763358778626,-11.154585534667968,4.254496350097656,0.5913678100585937,22.549618320610687,-24.717557251908396,6.9465648854961835,0.0
14.340000629425049,-3.9624037475585934,2.0302830078125,5.5832782714843745,-33.00763358778626,10.442748091603054,30.671755725190838,-12.131419812011718,3.9647979492187497,1.3144167114257812,-6.5038167938931295,-9.358778625954198,11.83206106870229,0.0
14.350000381469727,-4.201823913574218,0.033518823242187495,3.383006945800781,-51.7557251908397,16.625954198473284,28.549618320610687,-11.789048974609374,1.944091748046875,1.8076222534179687,-23.69465648854962,-4.320610687022901,17.328244274809162,0.0
14.360000610351562,-5.240907434082031,-3.248931652832031,8.142679846191406,-27.862595419847327,32.54961832061068,26.27480916030534,-12.598289135742187,1.438915197753906,2.138022082519531,-34.2442748091603,-3.7709923664122136,20.946564885496183,0.0
14.37000060081482,-6.205770703124999,-6.098031628417968,6.792350109863281,-6.595419847328245,31.206106870229007,27.52671755725191,-13.079523669433593,0.9313444458007812,1.3311761230468748,-37.48091603053435,-9.48091603053435,24.519083969465647,0.0
14.380000829696655,-4.75009609375,-11.592724438476562,-0.28490999755859375,46.29007633587786,62.94656488549618,22.82442748091603,-14.535198278808593,0.6536170532226562,1.695094775390625,-41.267175572519086,-10.305343511450381,29.786259541984734,0.0
14.390000820159912,-4.553771557617187,-19.115306054687498,-2.032677209472656,154.73282442748092,102.12213740458016,6.427480916030534,-14.767435839843749,-0.39743747558593745,1.4700398193359374,-42.717557251908396,-16.99236641221374,32.79389312977099,0.0
14.40000057220459,-7.903259680175781,-15.31570802001953,-3.038241906738281,215.45038167938932,127.05343511450381,-19.984732824427482,-15.404293481445311,-0.7637503295898437,2.04943662109375,-43.48091603053435,-23.786259541984734,34.396946564885496,0.0
14.410000801086426,-12.579135522460938,-4.76924970703125,1.3192051147460937,313.5419847328244,179.14503816793894,-31.419847328244273,-14.884751721191405,-0.43574470214843747,1.917755529785156,-47.81679389312977,-33.6793893129771,35.7557251908397,0.0
14.420000791549683,-14.513650463867187,4.431667272949219,-1.5059528442382812,311.9083969465649,173.49618320610688,-38.99236641221374,-14.669273571777342,1.1875240234375,1.1923124267578125,-51.81679389312977,-40.30534351145038,34.80916030534351,0.0
14.43000078201294,-18.15044278564453,15.191209533691405,0.13646949462890623,249.23664122137404,168.29007633587787,-40.595419847328245,-14.669273571777342,0.4572925170898437,0.258573779296875,-47.81679389312977,-44.0,35.93893129770992,0.0
14.440000534057617,-15.143325500488281,13.350068457031249,1.1420341918945311,144.13740458015266,131.89312977099237,-36.85496183206107,-16.187197424316405,-2.138022082519531,1.1540052001953125,-26.137404580152673,-49.038167938931295,36.274809160305345,0.0
14.450000286102295,-13.582306018066406,12.536039892578124,2.3391350219726563,61.81679389312977,110.61068702290076,-36.412213740458014,-15.215151550292967,-2.3032219970703123,0.12210428466796874,-0.3053435114503817,-66.94656488549619,28.442748091603054,0.0
14.46000051498413,-4.7189714721679685,-1.5873557006835937,0.14604630126953125,23.49618320610687,87.16030534351145,-31.19083969465649,-14.815319873046874,-1.5945383056640625,0.51714755859375,18.290076335877863,-74.09160305343511,20.3206106870229,0.0
14.470000505447388,-8.037334973144532,-4.2521021484374995,-0.6751648681640625,75.19083969465649,117.17557251908397,-31.96946564885496,-12.236764685058594,-1.9823989746093749,-0.9720458740234375,38.916030534351144,-88.68702290076335,9.236641221374045,0.0
14.480000257492065,-4.180276098632812,-10.065223779296874,-4.005499377441406,110.4885496183206,125.69465648854961,-39.55725190839695,-9.70369932861328,-1.3120225097656248,-2.43250888671875,47.49618320610687,-99.95419847328245,-4.229007633587786,0.0
14.49000072479248,-8.650250598144531,-2.748543505859375,-1.8698714965820311,174.36641221374046,159.78625954198472,-43.786259541984734,-10.721235034179687,-1.3742717529296875,-1.5155296508789062,41.43511450381679,-96.25954198473282,-14.381679389312977,0.0
14.500000476837158,-13.91031164550781,10.376469995117187,2.43250888671875,141.74045801526717,153.64885496183206,-61.29770992366412,-9.967061511230469,-0.6105214233398437,-1.0989385620117187,26.671755725190838,-90.90076335877863,-24.47328244274809,0.0
14.510000944137573,-14.183250634765624,14.243105676269531,1.0342951171875,72.7175572519084,132.4885496183206,-63.404580152671755,-10.115502014160155,-2.597708801269531,-1.4437036010742186,28.916030534351144,-95.6030534351145,-30.732824427480917,0.0
14.52000093460083,-7.9295958984374995,5.8226984375,-0.3950432739257812,33.29770992366412,111.77099236641222,-55.70992366412214,-9.878476049804688,-1.7286135986328124,-0.41419688720703124,29.083969465648856,-99.00763358778626,-36.961832061068705,0.0
14.530000686645508,-9.897629663085937,4.687846850585937,0.201112939453125,33.74045801526717,113.92366412213741,-52.62595419847328,-10.711658227539061,-2.0278888061523435,-0.3447650390625,45.083969465648856,-98.35114503816794,-39.267175572519086,0.0
14.540000677108765,-5.5641246582031245,-6.586448767089843,-3.718195178222656,54.12213740458015,110.79389312977099,-43.29770992366412,-10.275913525390624,1.3527239379882812,0.03591302490234375,52.534351145038165,-98.06106870229007,-40.50381679389313,0.0
14.550000667572021,-8.817844714355468,-1.2114660400390624,0.5003881469726562,108.67175572519083,135.9236641221374,-44.274809160305345,-10.503362683105468,1.2665326782226562,0.11731588134765625,59.57251908396947,-99.74045801526718,-40.18320610687023,0.0
14.560000658035278,-10.797849487304687,4.991910461425781,2.281674182128906,91.37404580152672,130.59541984732823,-54.412213740458014,-9.6917283203125,5.439626171875,-0.18914193115234373,48.51908396946565,-94.12213740458016,-41.63358778625954,0.0
14.570000648498535,-12.459425439453124,8.688557824707031,2.530671154785156,48.97709923664122,117.37404580152672,-61.9236641221374,-9.143456140136719,5.286397265624999,-1.1611878051757811,35.23664122137404,-88.50381679389314,-40.213740458015266,0.0
14.580000638961792,-12.169727038574218,11.314997045898437,2.4875755249023435,-4.458015267175573,100.56488549618321,-68.44274809160305,-8.750807067871094,6.287173559570312,-1.8124106567382812,10.763358778625955,-79.86259541984732,-38.30534351145038,0.0
14.590000629425049,-10.601524951171875,7.879317663574218,1.6232687255859375,-62.412213740458014,76.91603053435115,-69.00763358778626,-7.8912886718749995,5.104437939453125,-2.3127988037109373,-0.8396946564885496,-68.51908396946565,-29.633587786259543,0.0
14.600000858306885,-10.314220751953124,7.704540942382812,2.47081611328125,-76.76335877862596,71.19083969465649,-65.74045801526718,-8.86812294921875,2.0470424194335934,-1.9680337646484374,4.229007633587786,-65.14503816793894,-22.580152671755727,0.0
14.610000610351562,-9.299079248046874,2.6384102294921874,0.603338818359375,-96.27480916030534,59.69465648854962,-61.06870229007634,-7.560888842773437,4.65432802734375,-2.5570073730468748,-5.770992366412214,-62.2442748091603,-23.358778625954198,0.0
14.620000839233398,-14.963760375976562,11.367669482421874,2.250549560546875,-108.04580152671755,68.9618320610687,-63.63358778625954,-7.903259680175781,1.5658078857421873,-0.5482721801757812,-19.49618320610687,-45.45038167938932,-20.458015267175572,0.0
14.630000591278076,-10.36210478515625,2.461239306640625,1.8555062866210936,-137.09923664122138,49.404580152671755,-54.0763358778626,-9.169792358398437,-0.6200982299804687,0.5267243652343749,-4.198473282442748,-47.93893129770992,-16.82442748091603,0.0
14.640001058578491,-11.444283935546874,2.93050283203125,2.1883003173828124,-124.22900763358778,47.3587786259542,-46.19847328244275,-10.091559997558592,-1.7094599853515624,1.37906015625,12.045801526717558,-53.343511450381676,-14.305343511450381,0.0
14.650000810623169,-9.911994873046874,0.8547299926757812,0.7876923461914062,-113.49618320610686,49.74045801526717,-39.9236641221374,-7.254431030273437,2.5905261962890624,-0.03591302490234375,14.51908396946565,-62.06106870229008,-18.80916030534351,0.0
14.660000562667847,-9.95987890625,1.649604943847656,0.8547299926757812,-104.29007633587786,54.25954198473283,-34.80916030534351,-7.881711865234375,1.448492004394531,1.467645617675781,-2.6412213740458017,-49.31297709923664,-16.763358778625953,0.0
14.670000553131104,-9.610325463867188,-1.62805712890625,0.3591302490234375,-89.87786259541984,54.58015267175573,-28.12213740458015,-8.422801440429687,-0.5339069702148437,1.7453730102539062,5.862595419847328,-56.54961832061068,-12.900763358778626,0.0
14.68000054359436,-14.985308190917968,6.959944226074218,4.115632653808594,-87.78625954198473,67.09923664122137,-33.587786259541986,-8.044517578125,1.2952630981445312,2.0350714111328125,11.358778625954198,-64.04580152671755,-12.580152671755725,0.0
14.690000534057617,-11.413159313964844,3.1842882080078123,2.3032219970703123,-119.40458015267176,44.229007633587784,-26.717557251908396,-6.660669018554687,3.7900212280273435,0.7972691528320313,-4.3816793893129775,-65.89312977099236,-15.32824427480916,0.0
14.700000286102295,-13.077129467773437,5.633556506347656,3.3016040893554686,-118.12213740458016,39.038167938931295,-17.358778625954198,-8.884882360839843,-0.5793968017578125,2.592920397949219,-10.427480916030534,-58.61068702290076,-9.297709923664122,0.0
14.71000051498413,-8.219294299316406,-2.3630770385742186,0.41419688720703124,-111.98473282442748,27.358778625954198,-8.564885496183207,-8.999804040527343,0.9121908325195311,1.7310078002929687,9.32824427480916,-76.83969465648855,-8.977099236641221,0.0
14.720000505447388,-13.065158459472656,8.94473740234375,3.0430303100585934,-113.41984732824427,31.801526717557252,-12.931297709923664,-8.341398583984375,1.9823989746093749,1.608903515625,-2.0610687022900764,-74.56488549618321,-10.717557251908397,0.0
14.730000257492065,-12.81376728515625,5.872976672363281,2.518700146484375,-170.8091603053435,1.3587786259541985,-6.0,-10.326191760253906,0.18914193115234373,1.7238251953125,0.9312977099236641,-75.69465648854961,-8.183206106870228,0.0
14.740000247955322,-10.82179150390625,0.01915361328125,1.687912170410156,-151.38931297709922,-1.7251908396946565,8.580152671755725,-8.98304462890625,1.3838485595703125,1.2641384765625,3.8625954198473282,-86.09160305343511,-6.320610687022901,0.0
14.750000715255737,-9.37808790283203,-2.6910826660156246,0.5961562133789062,-125.06870229007633,-2.931297709923664,11.099236641221374,-9.713276135253906,-0.13646949462890623,1.7764976318359373,3.6946564885496183,-81.17557251908397,-8.473282442748092,0.0
14.760000467300415,-9.270348828125,-3.8283284545898435,0.45489831542968745,-86.25954198473282,6.717557251908397,10.0,-8.489839086914062,1.7310078002929687,1.1109095703125,6.625954198473282,-88.04580152671755,-11.068702290076336,0.0
14.770000696182251,-8.578424548339843,-4.338293408203125,-0.277727392578125,-63.80152671755725,8.335877862595419,5.4961832061068705,-10.43153663330078,-0.411802685546875,1.7405846069335937,3.312977099236641,-78.07633587786259,-12.106870229007633,0.0
14.780000686645508,-7.781155395507812,-4.544194750976562,-0.02154781494140625,-26.519083969465647,21.022900763358777,1.9541984732824427,-8.985438830566405,0.7158662963867187,1.5969325073242187,5.206106870229007,-82.70229007633588,-13.618320610687023,0.0
