timestamp,Thigh_L_Acc_X,Thigh_L_Acc_Y,Thigh_L_Acc_Z,Thigh_L_Gyr_X,Thigh_L_Gyr_Y,Thigh_L_Gyr_Z,Thigh_R_Acc_X,Thigh_R_Acc_Y,Thigh_R_Acc_Z,Thigh_R_Gyr_X,Thigh_R_Gyr_Y,Thigh_R_Gyr_Z,gpio_output
10.000000715255737,-10.345345373535155,0.5961562133789062,1.5562310791015623,-26.549618320610687,15.17557251908397,-0.48854961832061067,-9.270348828125,-0.6392518432617187,1.0175357055664063,-9.938931297709924,-45.74045801526717,0.732824427480916,0.0
10.010000705718994,-10.740388647460938,1.1563994018554686,1.656787548828125,-24.03053435114504,13.893129770992367,-1.6793893129770991,-9.284714038085937,0.22505495605468748,0.9552864624023437,0.9465648854961832,-47.37404580152672,0.3053435114503817,1.0
10.020000457763672,-10.797849487304687,1.8602946899414061,1.3742717529296875,-30.091603053435115,8.229007633587786,0.12213740458015267,-8.394071020507813,2.990357873535156,-0.11731588134765625,-8.442748091603054,-44.80916030534351,-1.6030534351145038,1.0
10.030001401901245,-9.698910925292969,0.6703764648437499,1.0319009155273438,-21.6793893129771,10.473282442748092,3.7251908396946565,-8.295908752441406,1.1923124267578125,0.5458779785156249,-23.72519083969466,-31.801526717557252,0.8702290076335878,1.0
10.040000677108765,-10.237606298828124,0.9983820922851562,1.3383587280273437,-21.81679389312977,8.091603053435115,3.3893129770992365,-8.987833032226561,-0.26336218261718747,0.36152445068359373,-17.34351145038168,-27.00763358778626,3.282442748091603,1.0
10.050000429153442,-10.084377392578125,0.3184288208007812,0.8355763793945312,-15.206106870229007,7.114503816793893,2.6412213740458017,-10.503362683105468,-0.7158662963867187,1.1468225952148436,1.0076335877862594,-25.14503816793893,3.7099236641221376,1.0
10.0600004196167,-10.740388647460938,1.1635820068359375,1.0390835205078124,-9.34351145038168,8.183206106870228,2.198473282442748,-9.76116016845703,-0.63206923828125,0.4860229370117187,17.022900763358777,-30.85496183206107,0.9312977099236641,1.0
10.070000886917114,-9.708487731933593,0.45010991210937495,0.3112462158203125,-4.580152671755725,7.4961832061068705,2.7022900763358777,-9.222464794921875,1.0390835205078124,-0.3327940307617187,21.328244274809162,-31.114503816793892,-3.068702290076336,1.0
10.080000877380371,-10.050858569335936,1.70467158203125,0.45968671875,-4.1679389312977095,9.770992366412214,2.549618320610687,-8.683769421386717,2.5857377929687497,-1.4245499877929686,10.83969465648855,-26.885496183206108,-5.740458015267175,1.0
10.09000039100647,-9.595960253906249,1.6639701538085936,0.2825157958984375,-9.618320610687023,9.419847328244275,1.8015267175572518,-8.793902697753905,2.4899697265625,-1.2808978881835937,1.4045801526717556,-18.16793893129771,-5.557251908396947,1.0
10.100000619888306,-7.898471276855468,-0.7972691528320313,-0.5291185668945312,-0.5190839694656488,13.923664122137405,2.183206106870229,-9.677363110351562,1.637633935546875,-0.05985504150390625,-4.916030534351145,-6.961832061068702,-3.0839694656488548,1.0
10.110000371932983,-8.827421520996094,0.3136404174804687,0.16280571289062498,4.229007633587786,19.419847328244273,-2.030534351145038,-9.904812268066406,1.254561669921875,0.06943184814453125,2.1068702290076335,-4.854961832061068,-5.175572519083969,1.0
10.12000060081482,-9.667786303710937,0.6392518432617187,-0.0430956298828125,5.221374045801527,19.328244274809162,-4.793893129770993,-10.12507882080078,1.0678139404296874,0.354341845703125,4.5038167938931295,-3.572519083969466,-6.519083969465649,1.0
10.130000829696655,-10.670956799316405,1.4867992309570313,0.41419688720703124,6.33587786259542,22.748091603053435,-5.908396946564886,-10.026916552734374,0.7445967163085937,0.6464344482421874,7.00763358778626,-2.4885496183206106,-7.526717557251908,1.0
10.140000820159912,-9.641450085449218,2.059013427734375,0.3758896606445312,2.732824427480916,21.770992366412212,-5.709923664122138,-9.911994873046874,0.86191259765625,0.7038952880859375,8.595419847328245,-2.6106870229007635,-8.702290076335878,1.0
10.15000057220459,-9.718064538574218,2.042254016113281,-0.19153613281249998,-3.282442748091603,17.740458015267176,-3.8931297709923665,-9.93354268798828,1.0199299072265624,0.9241618408203125,9.251908396946565,-2.0916030534351147,-9.648854961832061,1.0
10.160000562667847,-11.781866369628906,4.120421057128906,1.4939818359375,-11.709923664122137,21.083969465648856,-5.343511450381679,-9.923965881347655,1.0821791503906248,1.16837041015625,10.198473282442748,-2.0610687022900764,-10.030534351145038,1.0
10.170000791549683,-10.893617553710937,2.8419173706054686,1.3910311645507811,-20.931297709923665,16.366412213740457,-2.732824427480916,-9.60793126220703,1.1827356201171875,1.5107412475585937,10.183206106870228,-2.4885496183206106,-10.122137404580153,1.0
10.18000054359436,-10.036493359375,1.2808978881835937,0.5315127685546874,-24.198473282442748,10.549618320610687,0.549618320610687,-9.727641345214844,1.1372457885742187,1.5921441040039062,9.557251908396946,-2.7022900763358777,-10.13740458015267,1.0
10.190000534057617,-8.86812294921875,0.833182177734375,-0.70868369140625,-28.702290076335878,-0.8854961832061069,2.0916030534351147,-9.643844287109374,1.3287819213867187,1.7525556152343749,10.061068702290076,-3.5877862595419847,-10.366412213740459,1.0
10.200000524520874,-9.45470235595703,-0.4740519287109375,0.07422025146484375,-15.389312977099237,8.290076335877863,1.8015267175572518,-9.205705383300781,0.9816226806640624,1.9895815795898437,9.572519083969466,-3.3282442748091605,-10.183206106870228,1.0
10.21000051498413,-9.943119494628906,0.22266075439453123,0.6177040283203125,-16.763358778625953,7.00763358778626,-0.7480916030534351,-9.318232861328125,1.180341418457031,2.2074539306640624,9.435114503816793,-3.66412213740458,-11.007633587786259,0.0
10.220000267028809,-9.732429748535155,-0.11252747802734374,0.34237083740234375,-12.106870229007633,6.412213740458015,-1.7557251908396947,-9.121908325195312,1.0797849487304687,2.2673089721679687,8.091603053435115,-4.442748091603053,-10.732824427480915,0.0
10.230000495910645,-9.746794958496093,-0.05746083984375,0.033518823242187495,-8.305343511450381,5.755725190839694,-2.900763358778626,-10.024522351074218,-0.488417138671875,3.201047619628906,12.412213740458014,-5.083969465648855,-9.740458015267176,0.0
10.240000247955322,-9.581595043945311,-0.07900865478515624,-0.009576806640625,-5.175572519083969,5.450381679389313,-4.809160305343512,-9.004592443847656,0.9624690673828125,3.066972326660156,12.702290076335878,-9.954198473282442,-13.068702290076336,0.0
10.250000238418579,-9.847351428222655,0.047884033203124995,0.07422025146484375,-2.33587786259542,5.450381679389313,-6.33587786259542,-8.652644799804687,0.8978256225585937,2.418143676757812,11.068702290076336,-12.305343511450381,-12.702290076335878,0.0
10.260000705718994,-9.871293444824218,0.09816226806640624,0.28490999755859375,0.44274809160305345,5.3893129770992365,-7.465648854961832,-9.753977563476562,-0.6081272216796875,3.2130186279296873,13.267175572519085,-11.511450381679388,-11.83206106870229,0.0
10.270000696182251,-9.866505041503906,-0.00239420166015625,0.0383072265625,3.1297709923664123,5.129770992366412,-8.290076335877863,-10.311826550292968,-1.2234370483398436,3.4811692138671875,26.106870229007633,-18.03053435114504,-12.01526717557252,0.0
10.280000686645508,-9.816226806640625,-0.016759411621093748,-0.062249243164062495,6.931297709923665,5.557251908396947,-9.633587786259541,-10.618284362792968,-0.488417138671875,2.645592834472656,39.083969465648856,-26.137404580152673,-14.01526717557252,0.0
10.290000915527344,-9.648632690429688,0.4333505004882812,-0.09337386474609374,10.67175572519084,7.297709923664122,-11.007633587786259,-9.153032946777342,2.114080065917969,2.4516625,34.152671755725194,-28.85496183206107,-18.641221374045802,0.0
10.300000667572021,-9.868899243164062,1.7214309936523438,0.21068974609375,6.8396946564885495,8.396946564885496,-11.145038167938932,-8.614337573242187,2.1404162841796874,1.6304513305664061,9.251908396946565,-20.778625954198475,-18.427480916030536,0.0
10.310000658035278,-9.751583361816406,1.7788918334960937,0.24660277099609373,0.6717557251908397,7.816793893129771,-10.305343511450381,-10.28549033203125,0.41898529052734373,3.2225954345703123,5.938931297709924,-12.778625954198473,-14.916030534351146,0.0
10.320000648498535,-9.789890588378906,1.6328455322265625,0.14604630126953125,-1.3740458015267176,6.534351145038168,-9.572519083969466,-9.540893615722656,0.11252747802734374,2.35589443359375,14.473282442748092,-20.091603053435115,-14.534351145038167,0.0
10.330000638961792,-10.211270080566406,1.448492004394531,0.16041151123046873,-1.9541984732824427,6.244274809160306,-8.763358778625955,-10.666168395996094,-0.5793968017578125,3.296815686035156,25.022900763358777,-23.0381679389313,-13.908396946564885,0.0
10.340000629425049,-9.835380419921874,0.8643067993164062,0.0,-1.1450381679389312,7.00763358778626,-8.458015267175572,-10.450690246582031,0.8355763793945312,3.2034418212890623,30.82442748091603,-28.458015267175572,-15.938931297709924,0.0
10.350000619888306,-9.581595043945311,1.1228805786132812,0.239420166015625,-1.0076335877862594,8.427480916030534,-8.885496183206106,-8.602366564941406,2.6575638427734374,2.6144682128906247,16.244274809160306,-28.580152671755727,-18.0,0.0
10.360000610351562,-9.943119494628906,1.848323681640625,0.6943184814453125,-7.1603053435114505,8.412213740458014,-9.19083969465649,-8.623914379882812,2.4851813232421875,1.6112977172851561,-2.2442748091603053,-22.83969465648855,-16.106870229007633,0.0
10.37000060081482,-9.68454571533203,1.66636435546875,0.7852981445312499,-10.580152671755725,8.351145038167939,-8.549618320610687,-9.7683427734375,0.18435352783203124,2.741360900878906,-7.816793893129771,-14.793893129770993,-12.870229007633588,0.0
10.380000829696655,-9.713276135253906,1.467645617675781,0.6943184814453125,-12.534351145038167,7.709923664122138,-8.778625954198473,-8.602366564941406,0.7493851196289062,2.844311572265625,-9.206106870229007,-16.35114503816794,-14.793893129770993,0.0
10.390000581741333,-9.91438907470703,1.120486376953125,0.4285620971679687,-11.49618320610687,6.564885496183206,-8.702290076335878,-9.004592443847656,-1.426944189453125,2.868253588867187,-3.5267175572519083,-18.900763358778626,-15.954198473282442,0.0
10.400000810623169,-10.12507882080078,0.8259995727539062,0.51714755859375,-9.007633587786259,7.511450381679389,-9.618320610687023,-9.797073193359374,-2.2936451904296873,3.284844677734375,6.2748091603053435,-23.984732824427482,-18.900763358778626,0.0
10.410000324249268,-9.9215716796875,0.7924807495117187,0.086191259765625,-6.564885496183206,7.786259541984733,-9.603053435114504,-9.440337145996093,-1.2713210815429687,3.2824504760742186,11.740458015267176,-27.603053435114504,-22.106870229007633,0.0
10.420000553131104,-9.801861596679688,1.0103531005859374,0.0526724365234375,-6.5038167938931295,8.992366412213741,-9.526717557251908,-8.068459594726562,-0.10773907470703124,2.703053674316406,11.297709923664122,-30.778625954198475,-24.35114503816794,0.0
10.43000078201294,-9.418789331054686,1.2378022583007813,0.28969840087890625,-9.099236641221374,10.335877862595419,-9.664122137404581,-6.756437084960937,1.9656395629882812,2.214636535644531,-1.2213740458015268,-27.34351145038168,-24.442748091603054,0.0
10.440000534057617,-9.294290844726563,1.1563994018554686,0.4261678955078125,-10.641221374045802,11.17557251908397,-7.770992366412214,-6.710947253417968,2.4971523315429685,2.4157494750976563,-11.312977099236642,-21.328244274809162,-21.770992366412212,0.0
10.450000524520874,-7.991845141601562,-1.388636962890625,-0.36391865234375,-0.6259541984732825,12.83969465648855,-6.137404580152672,-8.276755139160155,0.9911994873046874,3.414131567382812,-14.702290076335878,-15.526717557251908,-17.328244274809162,0.0
10.460000276565552,-7.206546997070312,-1.70467158203125,-0.7110778930664062,9.816793893129772,15.374045801526718,-6.961832061068702,-8.020575561523437,0.9983820922851562,3.852270471191406,-17.16030534351145,-13.16030534351145,-17.221374045801525,0.0
10.470000505447388,-9.950302099609374,0.3064578125,0.8571241943359375,16.3206106870229,23.267175572519083,-10.610687022900763,-8.13310303955078,0.5027823486328125,3.366247534179687,-13.251908396946565,-15.251908396946565,-16.931297709923665,0.0
10.480000734329224,-8.437166650390624,1.4101847778320311,0.4165910888671875,13.541984732824428,19.16030534351145,-11.221374045801527,-8.473079675292968,0.24899697265624998,3.84987626953125,-11.679389312977099,-14.717557251908397,-16.015267175572518,0.0
10.49000096321106,-9.507374792480467,2.109291662597656,1.668758557128906,9.725190839694656,21.81679389312977,-10.65648854961832,-8.403647827148436,-1.0726023437499999,3.718195178222656,4.259541984732825,-19.603053435114504,-14.473282442748092,0.0
10.500000715255737,-11.03248125,3.84987626953125,2.3415292236328122,3.633587786259542,20.48854961832061,-11.068702290076336,-7.319074475097656,0.30406361083984373,2.389413256835937,7.465648854961832,-26.412213740458014,-16.778625954198475,0.0
10.510000705718994,-10.55364091796875,4.039018200683594,3.124433166503906,-7.358778625954199,17.267175572519083,-8.396946564885496,-5.693411547851563,2.3319524169921872,1.656787548828125,-9.938931297709924,-19.66412213740458,-18.15267175572519,0.0
10.52000093460083,-9.5001921875,1.7357962036132812,2.674323254394531,-20.076335877862597,10.442748091603054,-4.015267175572519,-7.364564306640625,0.9744400756835937,1.6041151123046875,-18.53435114503817,-10.580152671755725,-13.206106870229007,0.0
10.530000686645508,-10.398017810058594,1.9416975463867185,3.5146880371093747,-23.099236641221374,10.15267175572519,-5.572519083969466,-7.671022119140624,0.6272808349609375,2.1212626708984375,-24.16793893129771,-4.106870229007634,-10.67175572519084,0.0
10.540000677108765,-10.83376251220703,0.06943184814453125,4.211400720214844,-23.022900763358777,8.67175572519084,-7.8320610687022905,-7.888894470214844,-0.15322890625,2.398990063476562,-18.427480916030536,-3.5114503816793894,-10.16793893129771,0.0
10.550000667572021,-10.024522351074218,-1.3120225097656248,4.182670300292968,-21.51145038167939,3.6793893129770994,-11.755725190839694,-7.9655089233398435,-0.3232172241210937,2.3343466186523436,-17.206106870229007,-2.5343511450381677,-11.419847328244275,0.0
10.560000658035278,-9.950302099609374,-2.1547814941406247,4.4196962646484375,-22.244274809160306,-4.702290076335878,-15.709923664122137,-7.364564306640625,-0.4165910888671875,1.5777788940429687,-16.259541984732824,-0.4122137404580153,-13.770992366412214,0.0
10.570000886917114,-10.541669909667968,-0.2705447875976562,5.561730456542969,-18.82442748091603,-11.465648854961833,-21.740458015267176,-5.7891796142578125,0.74699091796875,0.11731588134765625,-22.259541984732824,4.916030534351145,-15.86259541984733,0.0
10.580000638961792,-10.050858569335936,-1.2737152832031249,5.8083332275390624,-11.572519083969466,-19.83206106870229,-23.66412213740458,-4.855440966796874,0.37828386230468747,-0.6967126831054687,-21.786259541984734,13.877862595419847,-13.83206106870229,0.0
10.59000039100647,-10.287884533691406,-0.32561142578124996,6.48589229736328,1.3740458015267176,-25.221374045801525,-25.603053435114504,-6.926425402832031,-0.4955997436523437,-0.6967126831054687,-9.694656488549619,26.244274809160306,-9.17557251908397,0.0
10.600000619888306,-9.674968908691406,-1.5251064575195312,5.9017070922851556,11.786259541984732,-35.43511450381679,-25.221374045801525,-5.7077767578125,-0.0383072265625,-2.7581203125,0.5801526717557252,28.80916030534351,-10.335877862595419,0.0
10.610000610351562,-9.483432775878907,-1.5418658691406248,5.238513232421875,30.061068702290076,-41.49618320610687,-23.923664122137403,-6.155492468261718,0.4333505004882812,-1.0917559570312498,6.488549618320611,38.33587786259542,-10.67175572519084,0.0
10.62000060081482,-10.24718310546875,0.7924807495117187,5.408501550292969,30.717557251908396,-47.3587786259542,-26.48854961832061,-7.163451367187499,2.942473840332031,1.2880804931640624,-2.16793893129771,47.343511450381676,-14.534351145038167,0.0
10.630000591278076,-11.949460485839843,3.076549133300781,6.155492468261718,7.557251908396947,-64.16793893129771,-28.47328244274809,-13.510479968261718,0.8667010009765624,6.845022546386718,-19.206106870229007,60.091603053435115,-15.679389312977099,0.0
10.640000343322754,-12.830526696777342,1.7956512451171873,5.758054992675781,-7.816793893129771,-81.19083969465649,-29.31297709923664,-20.08495772705078,-2.73896669921875,11.188104357910156,-25.938931297709924,53.11450381679389,-22.061068702290076,0.0
10.65000057220459,-13.690045092773437,-0.05985504150390625,5.437231970214843,-7.511450381679389,-95.29770992366412,-33.66412213740458,-21.86145535888672,-4.766855505371093,9.849745629882811,-32.58015267175573,43.786259541984734,-31.282442748091604,0.0
10.660000801086426,-14.420276599121093,-2.2481553588867187,4.76924970703125,1.0076335877862594,-106.21374045801527,-36.595419847328245,-19.922152014160154,-8.947131604003905,3.727771984863281,8.381679389312977,24.977099236641223,-26.015267175572518,0.0
10.670000553131104,-13.797784167480469,-3.450044592285156,4.465186096191406,26.27480916030534,-114.21374045801527,-37.69465648854962,-13.977349291992187,-3.246537451171875,-0.488417138671875,44.97709923664122,6.137404580152672,-20.931297709923665,0.0
10.680000305175781,-14.599841723632812,-3.0406361083984375,4.527435339355469,41.587786259541986,-120.59541984732824,-36.778625954198475,-8.427589843749999,1.8219874633789062,-1.3934253662109375,46.79389312977099,4.717557251908397,-20.244274809160306,0.0
10.690000534057617,-15.720328100585936,-2.7198130859375,4.649539624023437,46.06106870229008,-129.7709923664122,-34.2442748091603,-6.842628344726562,3.327940307617187,0.0047884033203125,34.2442748091603,12.106870229007633,-12.748091603053435,0.0
10.700000524520874,-14.872780712890624,-2.748543505859375,3.430890979003906,52.88549618320611,-139.81679389312978,-28.519083969465647,-6.021417175292968,3.258508459472656,0.10773907470703124,23.87786259541985,15.587786259541986,-3.984732824427481,0.0
10.710000276565552,-17.075446240234374,-2.3774422485351563,3.076549133300781,64.54961832061069,-143.70992366412213,-20.35114503816794,-8.947131604003905,2.0733786376953125,1.62805712890625,6.778625954198473,31.633587786259543,4.122137404580153,0.0
10.720000505447388,-16.141707592773436,-2.2936451904296873,1.9033903198242186,73.37404580152672,-149.61832061068702,-10.870229007633588,-7.843404638671874,-1.3958195678710936,1.2425906616210938,5.0534351145038165,32.68702290076336,5.022900763358779,0.0
10.730000495910645,-14.374786767578124,-1.5921441040039062,-0.469263525390625,83.12977099236642,-149.93893129770993,-2.9618320610687023,-9.909600671386718,-4.302380383300781,0.4572925170898437,14.366412213740459,34.01526717557252,3.236641221374046,0.0
10.740000486373901,-11.578359228515625,-0.8451531860351562,-1.6112977172851561,80.70229007633588,-147.9236641221374,4.732824427480916,-10.302249743652343,-3.7158009765625,-0.06703764648437499,27.64885496183206,34.47328244274809,-0.2748091603053435,0.0
10.750000476837158,-10.232817895507813,-0.47884033203125,-3.0238766967773434,75.77099236641222,-140.38167938931298,9.755725190839694,-9.4618849609375,-3.507505432128906,0.13407529296874998,31.328244274809162,41.20610687022901,-1.2061068702290076,0.0
10.760000705718994,-6.833051538085937,-2.059013427734375,-5.190629199218749,72.93129770992367,-131.1908396946565,14.763358778625955,-9.694122521972655,-2.5522189697265625,0.34715924072265625,39.969465648854964,44.79389312977099,-0.3053435114503817,0.0
10.770000696182251,-5.762843395996094,-1.3670891479492187,-5.576095666503906,72.56488549618321,-115.52671755725191,13.450381679389313,-8.497021691894531,0.12449848632812499,0.2059013427734375,33.43511450381679,49.908396946564885,-1.282442748091603,0.0
10.780000686645508,-6.189011291503906,0.00239420166015625,-5.267243652343749,57.98473282442748,-100.99236641221374,9.19083969465649,-10.1131078125,0.584185205078125,-0.239420166015625,25.87786259541985,57.05343511450382,0.44274809160305345,0.0
10.790000677108765,-6.552929943847656,-0.2154781494140625,-3.399766357421875,48.656488549618324,-87.0381679389313,6.351145038167939,-9.143456140136719,-0.8092401611328125,1.0462661254882812,24.702290076335878,56.0763358778626,1.2671755725190839,0.0
10.800000667572021,-6.469132885742187,0.48123453369140623,-2.114080065917969,48.36641221374046,-69.46564885496183,3.984732824427481,-8.719682446289061,1.1228805786132812,0.009576806640625,9.206106870229007,55.98473282442748,-0.7633587786259542,0.0
10.810000658035278,-7.326257080078125,1.37906015625,-0.28012159423828126,39.725190839694655,-55.954198473282446,4.412213740458015,-10.129867224121092,-2.152387292480469,1.5705962890624998,-2.8244274809160306,62.229007633587784,3.648854961832061,0.0
10.820000886917114,-6.509834313964843,0.05027823486328125,0.3064578125,30.076335877862597,-46.42748091603053,5.114503816793893,-10.433930834960936,-1.8195932617187498,1.3455413330078123,7.648854961832061,51.05343511450382,4.656488549618321,0.0
10.830000638961792,-6.739677673339843,0.8044517578125,1.0438719238281249,21.374045801526716,-35.954198473282446,3.480916030534351,-8.690952026367187,0.9169792358398436,0.47644613037109373,-8.381679389312977,49.25190839694657,1.7404580152671756,0.0
10.84000039100647,-8.154650854492187,1.1420341918945311,1.8124106567382812,1.9541984732824427,-28.80916030534351,4.030534351145038,-10.577582934570312,-1.9632453613281249,2.0829554443359375,-14.473282442748092,53.954198473282446,6.885496183206107,0.0
10.850000619888306,-6.0884548217773435,-0.23702596435546874,0.086191259765625,-7.251908396946565,-24.80916030534351,5.450381679389313,-10.335768566894531,-3.2034418212890623,1.0917559570312498,4.885496183206107,37.43511450381679,8.076335877862595,0.0
10.860000610351562,-7.1778165771484375,-0.18914193115234373,-0.0526724365234375,-7.358778625954199,-13.938931297709924,6.33587786259542,-9.313444458007812,0.02154781494140625,0.5770026000976562,5.908396946564886,29.541984732824428,3.4198473282442747,0.0
10.87000060081482,-6.426037255859375,0.29448680419921874,-0.4908113403320312,-12.702290076335878,-5.038167938931298,8.274809160305344,-9.153032946777342,1.2641384765625,1.1611878051757811,-10.366412213740459,36.18320610687023,4.290076335877862,0.0
10.880001068115234,-5.80354482421875,-0.17238251953125,-0.6871358764648438,-20.53435114503817,4.6106870229007635,7.00763358778626,-8.947131604003905,0.3280056274414062,1.697488977050781,-20.30534351145038,39.49618320610687,9.694656488549619,0.0
10.890000581741333,-5.367800122070312,-0.8978256225585937,-0.8451531860351562,-21.267175572519083,15.877862595419847,4.778625954198473,-10.213664282226562,-0.9600748657226562,2.6240450195312497,-13.83206106870229,41.00763358778626,14.198473282442748,0.0
10.900000810623169,-6.066907006835937,-0.016759411621093748,-0.296881005859375,-32.3206106870229,20.717557251908396,1.633587786259542,-11.008539233398437,-1.8028338500976562,2.6288334228515624,-2.885496183206107,36.29007633587786,12.82442748091603,0.0
10.910000562667847,-5.473144995117187,-1.3144167114257812,-0.5985504150390625,-31.099236641221374,26.748091603053435,3.0839694656488548,-8.312668164062499,-0.5985504150390625,2.0278888061523435,-4.442748091603053,28.106870229007633,8.778625954198473,0.0
10.920000791549683,-5.406107348632812,-1.915361328125,-0.023942016601562498,-10.67175572519084,46.595419847328245,5.435114503816794,-8.43956085205078,-0.24899697265624998,0.5626373901367188,-16.641221374045802,30.015267175572518,9.267175572519085,0.0
10.93000054359436,-5.348646508789062,-1.1755530151367186,0.32561142578124996,-6.076335877862595,56.18320610687023,1.6946564885496183,-9.4618849609375,-1.6639701538085936,1.5562310791015623,-24.564885496183205,36.13740458015267,13.32824427480916,0.0
10.940000534057617,-5.307945080566406,-2.080561242675781,0.5003881469726562,-0.5954198473282443,63.9236641221374,-0.16793893129770993,-11.722011328125,-4.115632653808594,2.588131994628906,-5.938931297709924,35.45038167938932,17.740458015267176,0.0
10.950000524520874,-5.80354482421875,-2.829946362304687,1.455674609375,14.259541984732824,74.74809160305344,-2.427480916030534,-11.707646118164062,-4.963180041503906,1.9919757812499999,15.893129770992367,24.03053435114504,15.114503816793894,0.0
10.96000051498413,-7.287949853515625,-2.1547814941406247,3.4332851806640625,23.297709923664122,82.50381679389314,-5.801526717557252,-10.01733974609375,-3.153163586425781,1.6232687255859375,21.709923664122137,19.00763358778626,9.022900763358779,0.0
10.970000505447388,-8.47786807861328,-0.7254431030273437,5.176263989257812,22.916030534351144,83.72519083969466,-7.9541984732824424,-9.883264453125,-2.9496564453125,1.2689268798828124,27.435114503816795,16.65648854961832,8.625954198473282,0.0
10.980000495910645,-9.488221179199218,0.39264907226562495,7.299920861816406,23.0381679389313,81.2824427480916,-7.129770992366412,-9.943119494628906,-2.454056701660156,1.1635820068359375,31.83206106870229,15.603053435114504,9.98473282442748,0.0
10.990000486373901,-10.68053360595703,1.216254443359375,9.085995300292968,25.984732824427482,75.29770992366412,-2.6259541984732824,-9.576806640625,-1.62805712890625,1.2042834350585936,34.595419847328245,14.564885496183207,10.091603053435115,0.0
11.000000238418579,-11.678915698242188,3.047818713378906,10.517727893066406,25.6793893129771,65.69465648854961,2.9618320610687023,-9.964667309570311,-1.3096283081054687,1.5801730957031248,37.43511450381679,14.992366412213741,10.916030534351146,0.0
11.010000705718994,-11.9135474609375,3.1387983764648437,10.36210478515625,24.0,54.51908396946565,10.15267175572519,-9.200916979980468,-0.7829039428710937,1.6711527587890624,35.9236641221374,14.702290076335878,10.65648854961832,0.0
11.020000696182251,-12.20085166015625,3.641580725097656,9.476250170898437,7.6183206106870225,40.6412213740458,13.16030534351145,-9.323021264648437,-0.737414111328125,1.675941162109375,34.51908396946565,14.793893129770993,11.48091603053435,0.0
11.030000925064087,-11.8369330078125,2.29843359375,8.540117321777343,-5.358778625954199,30.671755725190838,17.404580152671755,-9.430760339355468,0.06703764648437499,1.1611878051757811,27.81679389312977,16.244274809160306,12.01526717557252,0.0
11.040000438690186,-10.244788903808594,1.1659762084960936,7.101202124023437,-13.083969465648854,20.137404580152673,20.48854961832061,-10.20887587890625,-0.18914193115234373,1.4891934326171874,16.82442748091603,22.671755725190838,15.206106870229007,0.0
11.0500009059906,-9.900023864746093,-0.11252747802734374,6.655880615234374,-16.68702290076336,14.305343511450381,23.0381679389313,-9.782707983398437,0.06943184814453125,0.09576806640624999,10.458015267175572,20.076335877862597,15.84732824427481,0.0
11.060000658035278,-7.60398447265625,-1.5251064575195312,4.726154077148437,-15.877862595419847,4.854961832061068,24.946564885496183,-9.373299499511718,-0.9552864624023437,0.8643067993164062,6.870229007633588,21.49618320610687,17.419847328244273,0.0
11.070000648498535,-8.930372192382812,-1.1156979736328125,5.588066674804687,-14.625954198473282,7.32824427480916,23.801526717557252,-10.108319409179687,-0.8116343627929687,1.2234370483398436,4.396946564885496,24.229007633587788,18.977099236641223,0.0
11.080000400543213,-8.542511523437499,-1.9105729248046874,4.675875842285156,-9.603053435114504,7.770992366412214,23.435114503816795,-9.016563452148437,0.8786720092773437,-0.8834604125976562,-4.763358778625954,20.870229007633586,18.244274809160306,0.0
11.09000039100647,-8.954314208984375,-1.7501614135742187,4.383783239746093,-8.458015267175572,8.13740458015267,22.519083969465647,-9.445125549316407,-0.4477157104492187,-0.22026655273437498,-15.98473282442748,28.061068702290076,22.18320610687023,0.0
11.100000619888306,-10.541669909667968,-1.8435352783203125,4.235342736816406,-10.778625954198473,7.984732824427481,21.34351145038168,-10.036493359375,-2.8371289672851563,-0.39983167724609375,-8.51908396946565,25.022900763358777,24.396946564885496,0.0
11.110000610351562,-11.501744775390625,-2.499546533203125,3.842693664550781,-2.549618320610687,9.938931297709924,20.702290076335878,-10.491391674804687,-2.6431986328124997,-0.565031591796875,5.282442748091603,17.17557251908397,23.374045801526716,0.0
11.12000060081482,-13.05558165283203,-1.7741034301757812,4.690241052246093,15.083969465648854,19.96946564885496,20.99236641221374,-10.218452685546874,-2.128445275878906,0.26336218261718747,0.22900763358778625,16.900763358778626,21.14503816793893,0.0
11.130000591278076,-9.81862100830078,-5.123591552734375,3.6655227416992187,28.396946564885496,18.38167938931298,24.610687022900763,-10.089165795898436,-1.5682020874023437,0.6416460449218749,-0.21374045801526717,14.977099236641221,20.580152671755727,0.0
11.140000820159912,-12.325350146484375,-0.55545478515625,6.191405493164062,47.7557251908397,28.0,21.450381679389313,-10.000580334472655,-0.7805097412109374,0.2920926025390625,-2.1374045801526718,12.259541984732824,20.15267175572519,0.0
11.15000057220459,-11.283872424316405,1.5490484741210937,5.523423229980469,27.52671755725191,16.0,18.717557251908396,-9.552864624023437,0.14604630126953125,1.1180921752929687,-1.8931297709923665,10.442748091603054,18.900763358778626,0.0
11.160000801086426,-10.927136376953124,2.50912333984375,4.103661645507812,13.877862595419847,11.282442748091603,17.068702290076335,-9.911994873046874,0.6296750366210937,0.948103857421875,-9.587786259541986,6.778625954198473,18.977099236641223,0.0
11.170000553131104,-8.434772448730468,1.8435352783203125,1.4173673828125,-3.7251908396946565,4.99236641221374,13.954198473282442,-10.47702646484375,1.189918225097656,1.005564697265625,-15.954198473282442,4.824427480916031,19.358778625954198,0.0
11.18000054359436,-6.241683728027343,-0.25139117431640623,-0.679953271484375,-7.267175572519084,6.33587786259542,11.236641221374045,-10.991779821777342,1.4317325927734375,0.9911994873046874,-23.786259541984734,1.6641221374045803,21.19083969465649,0.0
11.190000534057617,-8.037334973144532,1.369483349609375,-0.4213794921875,-12.473282442748092,11.083969465648854,5.404580152671755,-11.40837091064453,1.8818425048828125,0.7278373046875,-30.12213740458015,-1.786259541984733,22.015267175572518,0.0
11.200000524520874,-8.384494213867187,2.2649147705078123,-1.8100164550781248,-23.709923664122137,13.419847328244275,4.580152671755725,-11.482591162109374,2.2840683837890623,0.584185205078125,-36.97709923664122,-5.099236641221374,22.244274809160306,0.0
11.21000075340271,-7.963114721679687,2.2361843505859373,-2.971204260253906,-30.47328244274809,19.786259541984734,8.259541984732824,-11.609483850097655,2.4684219116210935,0.46208092041015625,-46.12213740458015,-7.862595419847328,23.51145038167939,0.0
11.220000505447388,-6.471527087402343,-0.43574470214843747,-3.706224169921875,-21.587786259541986,32.80916030534351,11.938931297709924,-11.513715783691406,2.6048914062499997,0.37828386230468747,-54.42748091603053,-10.366412213740459,23.404580152671755,0.0
11.230000495910645,-8.087613208007811,-0.39264907226562495,-2.4947581298828125,-11.282442748091603,48.93129770992366,9.49618320610687,-12.131419812011718,1.4604630126953124,0.8116343627929687,-56.85496183206107,-11.435114503816793,24.12213740458015,0.0
11.240000486373901,-9.054870678710937,0.5123591552734374,-1.350329736328125,-10.13740458015267,59.17557251908397,3.9236641221374047,-10.556035119628906,1.8914193115234375,0.13407529296874998,-60.47328244274809,-19.114503816793892,20.137404580152673,0.0
11.250000476837158,-10.105925207519531,1.0797849487304687,-0.47884033203125,-10.900763358778626,64.51908396946565,2.381679389312977,-12.591106530761717,-1.158793603515625,2.703053674316406,-60.68702290076336,-16.15267175572519,21.954198473282442,0.0
11.260000944137573,-10.32379755859375,2.346317626953125,0.5985504150390625,-17.16030534351145,64.44274809160305,2.2290076335877864,-12.16254443359375,0.09816226806640624,0.948103857421875,-63.969465648854964,-22.061068702290076,19.435114503816795,0.0
11.27000093460083,-10.527304699707031,1.8650830932617186,0.7230489013671875,-29.740458015267176,59.16030534351145,3.312977099236641,-11.987767712402343,-0.031124621582031248,0.3902548706054687,-49.465648854961835,-28.9618320610687,17.557251908396946,0.0
11.280000686645508,-10.977414611816405,1.5394716674804687,0.9193734375,-26.213740458015266,58.030534351145036,4.213740458015267,-10.778695874023438,0.2346317626953125,0.5602431884765625,-43.52671755725191,-34.80916030534351,15.114503816793894,0.0
11.290000915527344,-11.456254943847656,2.310404602050781,1.8124106567382812,-30.50381679389313,54.35114503816794,4.1679389312977095,-12.258312499999999,0.4836287353515625,2.3487118286132813,-45.29770992366412,-29.984732824427482,15.572519083969466,0.0
11.300000667572021,-9.957484704589843,0.5147533569335937,0.8547299926757812,-36.045801526717554,46.0,6.442748091603053,-12.16254443359375,0.5746083984375,1.7764976318359373,-40.58015267175573,-33.587786259541986,14.946564885496183,0.0
11.310000658035278,-9.605537060546874,-0.11013327636718749,0.28730419921875,-25.862595419847327,45.48091603053435,6.916030534351145,-11.705251916503906,-0.6871358764648438,2.1883003173828124,-28.412213740458014,-37.45038167938932,13.221374045801527,0.0
11.320000648498535,-10.465055456542968,0.09337386474609374,0.97683427734375,-18.748091603053435,44.68702290076336,4.625954198473282,-11.518504187011718,-0.3495534423828125,2.5354595581054684,-16.290076335877863,-43.847328244274806,8.80916030534351,0.0
11.330000400543213,-9.6151138671875,-0.031124621582031248,0.5027823486328125,-14.458015267175572,39.80152671755725,4.015267175572519,-10.963049401855468,-0.16519991455078123,3.0071172851562498,-18.12213740458015,-47.16030534351145,4.656488549618321,0.0
11.34000039100647,-9.33978067626953,0.9864110839843749,0.9696516723632812,-15.877862595419847,35.969465648854964,3.3893129770992365,-9.018957653808593,1.8531120849609375,0.9337386474609375,-27.251908396946565,-50.717557251908396,-0.183206106870229,0.0
11.350000619888306,-10.455478649902343,0.82360537109375,1.2785036865234374,-22.9618320610687,30.900763358778626,3.404580152671756,-9.442731347656249,0.2753331909179687,1.0127473022460938,-28.259541984732824,-50.79389312977099,-1.2061068702290076,0.0
11.36000108718872,-10.330980163574218,0.26815058593749996,1.8267758666992187,-16.916030534351144,30.412213740458014,2.4122137404580153,-9.217676391601563,0.8762778076171874,0.9576806640625,-24.33587786259542,-51.69465648854962,-2.030534351145038,0.0
11.37000060081482,-9.962273107910155,0.6344634399414062,1.8315642700195311,-11.236641221374045,26.625954198473284,1.7404580152671756,-10.160991845703125,-0.06943184814453125,1.9225439331054686,-16.50381679389313,-50.48854961832061,-1.5419847328244274,0.0
11.380000352859497,-10.575188732910156,1.5610194824218748,2.020706201171875,-12.13740458015267,26.412213740458014,-0.061068702290076333,-8.497021691894531,2.2290017456054687,0.4525041137695312,-19.16030534351145,-56.38167938931298,-5.083969465648855,0.0
11.390000581741333,-10.414777221679687,1.0797849487304687,1.1444283935546875,-17.282442748091604,18.977099236641223,1.7557251908396947,-9.143456140136719,0.814028564453125,1.139639990234375,-19.557251908396946,-50.29007633587786,-2.6717557251908395,0.0
11.400000810623169,-12.059593762207031,3.2225954345703123,1.5610194824218748,-28.396946564885496,14.076335877862595,0.5954198473282443,-10.091559997558592,-0.32561142578124996,1.0486603271484374,-4.076335877862595,-54.0763358778626,-1.4351145038167938,0.0
11.410000801086426,-9.579200842285156,-0.0430956298828125,0.4955997436523437,-26.18320610687023,9.465648854961833,2.9160305343511452,-8.671798413085938,3.0310593017578125,-0.4333505004882812,-7.190839694656488,-56.961832061068705,-4.809160305343512,0.0
11.420000791549683,-10.462661254882812,1.5658078857421873,1.5155296508789062,-19.755725190839694,12.259541984732824,2.030534351145038,-9.519345800781249,2.2768857788085937,0.0143652099609375,-21.61832061068702,-43.93893129770992,-2.4885496183206106,0.0
11.43000054359436,-11.310208642578125,1.5418658691406248,2.0350714111328125,-25.633587786259543,8.290076335877863,1.5877862595419847,-10.924742175292968,-0.15083470458984374,0.32561142578124996,-16.244274809160306,-39.55725190839695,-1.1450381679389312,0.0
11.440000772476196,-10.658985791015624,-0.29448680419921874,1.9201497314453124,-15.007633587786259,7.022900763358779,3.480916030534351,-10.295067138671874,0.3280056274414062,-0.5793968017578125,-4.244274809160306,-45.12977099236641,-2.7022900763358777,0.0
11.450000286102295,-9.79946739501953,-0.8810662109374999,1.6519991455078125,-4.732824427480916,6.076335877862595,3.1755725190839694,-9.674968908691406,2.559401574707031,-1.0773907470703123,-10.15267175572519,-42.10687022900763,-6.748091603053435,0.0
11.46000051498413,-10.319009155273436,0.842758984375,1.668758557128906,-6.076335877862595,5.358778625954199,-0.030534351145038167,-9.229647399902344,3.0142998901367184,-1.7860744384765623,-26.0,-32.030534351145036,-7.1603053435114505,0.0
11.470000267028809,-8.827421520996094,-0.35194764404296874,0.3232172241210937,-5.923664122137405,3.2061068702290076,-0.4122137404580153,-9.923965881347655,1.2713210815429687,-1.4245499877929686,-23.480916030534353,-24.30534351145038,-4.6106870229007635,0.0
11.480000495910645,-9.1554271484375,0.5434837768554687,-0.08140285644531249,-4.351145038167939,3.6030534351145036,-3.3587786259541983,-10.417171423339843,1.0582371337890624,-1.0893617553710937,-12.0,-22.68702290076336,-4.763358778625954,0.0
11.490000247955322,-9.169792358398437,0.5506663818359374,-0.30885201416015623,-4.213740458015267,3.480916030534351,-4.824427480916031,-10.146626635742187,-0.23223756103515625,1.1444283935546875,0.5038167938931297,-20.83969465648855,-4.763358778625954,0.0
11.500000476837158,-9.172186560058593,0.70868369140625,-0.14125789794921875,-0.32061068702290074,5.923664122137405,-4.091603053435114,-10.24000050048828,0.21068974609375,0.718260498046875,14.229007633587786,-27.450381679389313,-4.809160305343512,0.0
11.510000944137573,-9.217676391601563,1.6543933471679686,0.0143652099609375,1.4351145038167938,8.778625954198473,-3.2519083969465647,-7.790732202148437,2.2840683837890623,-0.36391865234375,9.786259541984732,-31.114503816793892,-6.99236641221374,0.0
11.520000696182251,-9.373299499511718,2.9927520751953125,0.2705447875976562,-6.519083969465649,10.916030534351146,-1.7404580152671756,-6.639121203613281,3.651157531738281,-0.7996633544921875,-9.068702290076336,-24.99236641221374,-5.633587786259542,0.0
11.530000686645508,-9.595960253906249,3.3327287109375,0.47884033203125,-19.328244274809162,10.80916030534351,-0.9923664122137404,-7.493851196289062,3.5051112304687497,-0.38307226562499996,-24.625954198473284,-13.007633587786259,-1.6641221374045803,0.0
11.540000677108765,-10.47702646484375,3.892971899414062,0.8954314208984374,-31.755725190839694,9.664122137404581,0.04580152671755725,-8.954314208984375,1.7238251953125,0.4740519287109375,-28.458015267175572,-4.961832061068702,2.885496183206107,0.0
11.550000667572021,-9.70369932861328,2.118868469238281,0.19153613281249998,-33.70992366412214,10.290076335877863,3.0229007633587788,-8.858546142578124,1.5442600708007812,0.22505495605468748,-23.31297709923664,-5.740458015267175,3.5114503816793894,0.0
11.560000658035278,-10.108319409179687,2.231395947265625,-0.28730419921875,-36.48854961832061,10.534351145038167,3.9389312977099236,-9.459490759277344,0.97683427734375,0.7852981445312499,-24.9618320610687,-3.2213740458015265,2.2900763358778624,0.0
11.570000410079956,-9.651026892089844,1.189918225097656,-0.43574470214843747,-36.732824427480914,13.877862595419847,4.748091603053435,-9.284714038085937,0.239420166015625,0.9911994873046874,-24.641221374045802,-2.4732824427480917,0.4122137404580153,0.0
11.580000400543213,-8.98304462890625,-0.5722141967773438,-0.8451531860351562,-31.46564885496183,16.564885496183205,5.00763358778626,-9.643844287109374,-0.8307879760742187,1.0366893188476562,-22.519083969465647,-2.0,-2.030534351145038,0.0
11.59000039100647,-8.846575134277343,0.2561795776367187,-0.296881005859375,-31.480916030534353,16.900763358778626,1.9389312977099236,-11.61906065673828,-2.645592834472656,1.85790048828125,-6.625954198473282,-4.320610687022901,-2.763358778625954,0.0
11.600000619888306,-9.521740002441407,1.4772224243164063,0.2920926025390625,-38.36641221374046,14.198473282442748,-0.9770992366412213,-10.8409451171875,-2.1212626708984375,1.3623007446289062,6.702290076335878,-11.877862595419847,-6.763358778625954,0.0
11.610000610351562,-10.235212097167969,1.1540052001953125,0.6967126831054687,-39.343511450381676,15.206106870229007,-0.8244274809160306,-11.097124694824219,-2.7748797241210936,2.1068974609374997,23.52671755725191,-17.435114503816795,-9.877862595419847,0.0
11.62000060081482,-9.85692823486328,0.6584054565429687,0.469263525390625,-34.67175572519084,15.251908396946565,-0.8091603053435115,-10.66137999267578,-0.9864110839843749,2.061407629394531,36.732824427480914,-24.366412213740457,-14.885496183206106,0.0
11.630000352859497,-9.696516723632811,1.5251064575195312,0.507570751953125,-32.778625954198475,16.15267175572519,-1.2366412213740459,-8.183381274414062,2.839523168945312,1.1324573852539062,19.022900763358777,-24.595419847328245,-21.541984732824428,0.0
11.640001058578491,-9.957484704589843,2.2290017456054687,0.7445967163085937,-39.12977099236641,15.511450381679388,0.732824427480916,-10.089165795898436,0.9457096557617187,2.4013842651367185,4.183206106870229,-11.145038167938932,-18.061068702290076,0.0
11.65000057220459,-9.617508068847656,1.6041151123046875,0.3758896606445312,-41.89312977099237,13.374045801526718,2.183206106870229,-10.929530578613281,-0.0526724365234375,3.0023288818359375,5.709923664122138,-11.068702290076336,-15.84732824427481,0.0
11.660000562667847,-9.392453112792968,0.28969840087890625,-0.5506663818359374,-36.76335877862596,13.770992366412214,3.5877862595419847,-9.445125549316407,0.06464344482421874,3.67749375,12.412213740458014,-17.633587786259543,-17.938931297709924,0.0
11.670000314712524,-9.79946739501953,-1.3623007446289062,-0.8116343627929687,-16.610687022900763,23.206106870229007,1.5877862595419847,-10.448296044921875,-0.5985504150390625,4.551377355957031,20.412213740458014,-22.65648854961832,-18.12213740458015,0.0
11.680000305175781,-9.193734375,-1.1276689819335937,-1.3383587280273437,-10.625954198473282,24.213740458015266,-2.3053435114503817,-10.079588989257813,0.718260498046875,3.7301661865234372,24.33587786259542,-30.99236641221374,-20.778625954198475,0.0
11.690000534057617,-10.27830772705078,1.01514150390625,0.143652099609375,-11.297709923664122,29.740458015267176,-6.473282442748092,-8.090007409667969,3.3207577026367185,3.1675287963867187,5.862595419847328,-31.862595419847327,-22.702290076335878,0.0
11.700000524520874,-10.146626635742187,2.2026655273437497,0.076614453125,-20.549618320610687,25.389312977099237,-5.022900763358779,-8.63827958984375,2.1021090576171875,3.7900212280273435,-11.877862595419847,-24.564885496183205,-18.35114503816794,0.0
11.71000051498413,-9.730035546875,1.879448303222656,-0.15562310791015624,-34.51908396946565,18.30534351145038,-2.5343511450381677,-9.689334118652344,0.7015010864257812,4.886565588378906,-16.366412213740457,-21.46564885496183,-13.786259541984732,0.0
11.720000505447388,-10.977414611816405,2.6096798095703124,0.3399766357421875,-32.396946564885496,19.435114503816795,-0.7938931297709924,-9.667786303710937,-0.33518823242187495,3.9935283691406247,-7.022900763358779,-31.51145038167939,-13.786259541984732,0.0
11.730000734329224,-9.981426721191406,0.39264907226562495,-0.47884033203125,-32.82442748091603,16.15267175572519,2.045801526717557,-9.878476049804688,-0.009576806640625,4.204218115234375,3.801526717557252,-36.412213740458014,-14.641221374045802,0.0
11.740000486373901,-10.536881506347656,1.3862427612304686,0.0047884033203125,-22.0,22.977099236641223,1.9694656488549618,-9.083601098632812,0.8451531860351562,3.8139632446289062,3.2519083969465647,-41.282442748091604,-17.022900763358777,0.0
11.750000476837158,-9.931148486328125,1.66636435546875,-0.22026655273437498,-36.045801526717554,17.328244274809162,2.519083969465649,-8.109161022949218,1.886630908203125,2.6599580444335937,-13.267175572519085,-37.14503816793893,-17.6793893129771,0.0
11.760000705718994,-9.478644372558593,1.0414777221679687,-0.4333505004882812,-34.916030534351144,19.709923664122137,6.152671755725191,-9.433154541015625,-0.05746083984375,4.572925170898437,-22.778625954198475,-26.53435114503817,-12.396946564885496,0.0
11.77000093460083,-9.53131680908203,0.48123453369140623,-0.30406361083984373,-35.57251908396947,19.893129770992367,5.755725190839694,-9.550470422363281,-0.3136404174804687,4.3430818115234375,-11.32824427480916,-32.045801526717554,-10.51908396946565,0.0
11.780000686645508,-7.912836486816405,-2.9185318237304685,-1.599326708984375,-18.48854961832061,22.27480916030534,7.099236641221374,-9.457096557617186,-0.0430956298828125,3.6439749267578123,-1.3587786259541985,-38.16793893129771,-12.122137404580153,0.0
11.790000915527344,-7.639897497558593,-1.8411410766601561,-0.9361328491210937,-2.732824427480916,30.870229007633586,3.0229007633587788,-8.183381274414062,1.3551181396484375,3.1076737548828124,-7.480916030534351,-37.93893129770992,-15.816793893129772,0.0
11.800000429153442,-9.662997900390625,0.34237083740234375,0.09816226806640624,-5.32824427480916,32.76335877862596,-1.6946564885496183,-7.5465236328125,2.1595698974609374,1.6352397338867186,-21.801526717557252,-31.083969465648856,-15.282442748091603,0.0
11.810000658035278,-10.867281335449219,0.928950244140625,1.369483349609375,-9.740458015267176,33.81679389312977,-2.213740458015267,-8.252813122558594,0.7517793212890624,2.023100402832031,-33.20610687022901,-20.778625954198475,-10.580152671755725,0.0
11.820000648498535,-8.44674345703125,0.39983167724609375,0.63206923828125,-6.106870229007634,28.48854961832061,-0.9312977099236641,-8.027758166503906,1.1180921752929687,2.2577321655273437,-35.908396946564885,-16.50381679389313,-9.236641221374045,0.0
11.830000638961792,-10.982203015136719,1.2378022583007813,1.3311761230468748,-5.557251908396947,30.564885496183205,-2.2595419847328246,-8.583212951660157,-0.26336218261718747,2.3774422485351563,-32.83969465648855,-12.961832061068701,-7.66412213740458,0.0
11.840000867843628,-9.655815295410155,0.9121908325195311,1.5131354492187499,-3.8931297709923665,27.251908396946565,-0.8702290076335878,-8.487444885253906,-0.7493851196289062,2.6695348510742187,-25.69465648854962,-10.961832061068701,-6.854961832061068,0.0
11.850000619888306,-11.475408557128906,1.5969325073242187,1.47482822265625,-1.7251908396946565,26.38167938931298,-0.2748091603053435,-8.039729174804688,-0.6751648681640625,2.5857377929687497,-23.083969465648856,-8.65648854961832,-7.099236641221374,0.0
11.860000610351562,-9.655815295410155,1.22583125,0.44053310546874996,-8.610687022900763,19.404580152671755,1.8625954198473282,-8.398859423828124,-1.5035586425781249,2.3678654418945313,-15.145038167938932,-6.122137404580153,-5.816793893129771,0.0
11.87000060081482,-8.456320263671875,0.1292868896484375,-0.24660277099609373,-7.099236641221374,19.541984732824428,3.0381679389312977,-8.02536396484375,-0.9097966308593749,2.693476867675781,-8.83969465648855,-5.435114503816794,-5.786259541984733,0.0
11.880001068115234,-7.838616235351562,-0.3112462158203125,-0.35194764404296874,-3.3282442748091605,21.770992366412212,3.236641221374046,-7.520187414550781,-0.6607996582031249,2.1212626708984375,-6.961832061068702,-2.9160305343511452,-5.816793893129771,0.0
11.890000343322754,-9.253589416503905,0.47884033203125,0.9265560424804687,-3.83206106870229,26.48854961832061,0.13740458015267176,-7.934384301757812,-0.9433154541015625,1.93451494140625,-1.1755725190839694,-0.6106870229007634,-4.885496183206107,0.0
11.90000057220459,-9.797073193359374,-0.12689268798828124,0.9074024291992187,-1.9083969465648856,24.3206106870229,-1.4045801526717556,-7.9104422851562495,-0.8930372192382812,2.0278888061523435,3.236641221374046,1.8931297709923665,-4.961832061068702,0.0
11.910000562667847,-9.543287817382812,-0.41898529052734373,1.7094599853515624,2.0610687022900764,27.450381679389313,-4.061068702290076,-8.303091357421874,-1.3287819213867187,1.908178723144531,9.251908396946565,4.305343511450381,-4.595419847328245,0.0
11.920000791549683,-8.547299926757812,-0.277727392578125,1.350329736328125,3.7557251908396947,21.114503816793892,-5.877862595419847,-8.322244970703125,-1.1013327636718748,1.8315642700195311,14.534351145038167,5.66412213740458,-5.648854961832061,0.0
11.93000054359436,-11.02529864501953,0.10295067138671875,2.748543505859375,5.587786259541985,23.297709923664122,-9.801526717557252,-7.955932116699218,-0.6560112548828124,1.8650830932617186,16.396946564885496,9.145038167938932,-6.9465648854961835,0.0
11.940000534057617,-9.04050546875,-0.13168109130859373,2.2864625854492187,10.229007633587786,17.16030534351145,-11.038167938931299,-8.939948999023438,-1.2808978881835937,2.4396914916992185,20.290076335877863,13.923664122137405,-5.877862595419847,0.0
11.950000524520874,-10.941501586914061,0.411802685546875,3.318363500976562,10.076335877862595,17.587786259541986,-14.916030534351146,-7.077260107421875,-0.5339069702148437,1.8171990600585937,23.404580152671755,11.312977099236642,-8.381679389312977,0.0
11.96000051498413,-10.481814868164061,0.296881005859375,2.518700146484375,8.580152671755725,7.480916030534351,-14.992366412213741,-7.249642626953125,0.3591302490234375,1.838746875,22.946564885496183,16.198473282442748,-9.572519083969466,0.0
11.970000505447388,-10.168174450683592,0.6440402465820312,2.185906115722656,7.587786259541985,2.6564885496183206,-15.007633587786259,-7.558494641113281,-0.05985504150390625,2.123656872558594,20.65648854961832,20.47328244274809,-9.49618320610687,0.0
11.980000257492065,-11.075576879882812,2.0350714111328125,2.7964275390625,3.1908396946564888,-0.8244274809160306,-15.908396946564885,-9.145850341796875,-0.51714755859375,2.109291662597656,21.801526717557252,25.84732824427481,-8.229007633587786,0.0
11.990000486373901,-10.675745202636719,0.82360537109375,2.839523168945312,10.961832061068701,0.7480916030534351,-16.53435114503817,-7.752424975585937,-0.7134720947265625,1.714248388671875,25.83206106870229,24.3206106870229,-10.366412213740459,0.0
12.000000476837158,-9.380482104492186,-0.5698199951171875,2.3415292236328122,12.702290076335878,-4.1679389312977095,-16.610687022900763,-7.560888842773437,-0.6057330200195312,1.85790048828125,29.557251908396946,25.053435114503817,-12.885496183206106,0.0
12.010000944137573,-10.73799444580078,1.2114660400390624,3.2561142578125,4.778625954198473,-10.610687022900763,-19.114503816793892,-7.242460021972656,-0.258573779296875,1.6543933471679686,31.541984732824428,26.519083969465647,-14.65648854961832,0.0
12.020000457763672,-10.091559997558592,-0.49799394531249996,3.6296097167968746,4.1679389312977095,-18.091603053435115,-19.419847328244273,-7.395688928222656,-0.05027823486328125,1.656787548828125,28.412213740458014,33.57251908396947,-14.320610687022901,0.0
12.030000925064087,-9.97184991455078,-1.189918225097656,4.407725256347656,13.86259541984733,-23.083969465648856,-21.083969465648856,-6.782773303222656,0.8307879760742187,-0.5674257934570313,23.69465648854962,35.17557251908397,-14.870229007633588,0.0
12.040000438690186,-10.20887587890625,-1.177947216796875,5.078101721191406,19.068702290076335,-31.114503816793892,-24.198473282442748,-7.4699091796875,2.6575638427734374,-0.19871873779296872,7.709923664122138,49.87786259541985,-15.374045801526718,0.0
12.050000667572021,-10.180145458984374,-2.597708801269531,5.365405920410156,31.267175572519083,-39.32824427480916,-25.66412213740458,-10.39322940673828,0.9457096557617187,1.7310078002929687,-1.1908396946564885,61.55725190839695,-13.17557251908397,0.0
12.0600004196167,-10.608707556152343,-3.0023288818359375,5.9017070922851556,48.44274809160305,-49.45038167938932,-29.801526717557252,-12.935871569824219,0.49320554199218747,4.7931917236328125,3.0229007633587788,57.099236641221374,-16.38167938931298,0.0
12.070000648498535,-11.719617126464843,-0.16280571289062498,7.362170104980469,55.847328244274806,-60.778625954198475,-36.56488549618321,-13.618219042968748,1.8650830932617186,7.958326318359375,-16.763358778625953,56.412213740458014,-23.206106870229007,0.0
12.080000638961792,-13.740323327636718,1.946485949707031,8.896853369140624,38.045801526717554,-84.3206106870229,-39.00763358778626,-14.9015111328125,-1.5251064575195312,8.731653454589843,-16.748091603053435,47.12977099236641,-21.053435114503817,0.0
12.090000629425049,-14.061146350097655,0.7685387329101562,9.600748657226562,30.82442748091603,-113.31297709923665,-37.55725190839695,-14.30056651611328,-1.848323681640625,5.983109948730468,1.450381679389313,29.34351145038168,-16.3206106870229,0.0
12.100000619888306,-14.911087939453123,0.7805097412109374,9.701305126953125,35.12977099236641,-139.38931297709922,-35.55725190839695,-12.052411157226562,-2.0757728393554684,3.83072265625,9.86259541984733,22.290076335877863,-11.587786259541986,0.0
12.110000610351562,-15.773000537109374,-0.6967126831054687,9.662997900390625,40.58015267175573,-164.03053435114504,-32.87022900763359,-9.612719665527344,-2.6216508178710938,1.7094599853515624,15.908396946564885,16.580152671755727,-6.717557251908397,0.0
12.12000060081482,-16.40746397705078,-3.0693665283203124,8.382100012207031,49.43511450381679,-187.64885496183206,-31.740458015267176,-8.164227661132813,-1.6903063720703124,1.0917559570312498,23.374045801526716,13.511450381679388,-3.9083969465648853,0.0
12.130000352859497,-17.31247220458984,-4.522646936035156,4.271255761718749,56.06106870229008,-202.42748091603053,-31.81679389312977,-11.511321582031249,-2.24097275390625,2.2194249389648437,41.343511450381676,14.335877862595419,-1.0534351145038168,0.0
12.140000343322754,-17.161637499999998,-4.910507604980468,1.9416975463867185,63.3587786259542,-211.63358778625954,-33.11450381679389,-8.729259252929687,-0.7278373046875,0.7996633544921875,46.30534351145038,8.366412213740459,-4.320610687022901,0.0
12.15000057220459,-16.814478259277344,-5.013458276367187,-0.30885201416015623,74.93129770992367,-213.12977099236642,-29.404580152671755,-8.688557824707031,-1.637633935546875,0.8068459594726562,42.83969465648855,13.17557251908397,-4.229007633587786,0.0
12.160000801086426,-15.04755743408203,-3.9791631591796874,-2.806004345703125,93.38931297709924,-207.1145038167939,-18.916030534351144,-9.085995300292968,-2.8730419921875,0.7876923461914062,43.29770992366412,17.00763358778626,-3.6946564885496183,0.0
12.170000553131104,-13.17050333251953,-1.8219874633789062,-4.695029455566406,103.54198473282443,-193.00763358778627,-6.549618320610687,-8.652644799804687,-1.8770541015625,0.6871358764648438,37.11450381679389,24.53435114503817,-5.32824427480916,0.0
12.18000078201294,-11.920730065917969,-0.143652099609375,-5.9591679321289055,96.42748091603053,-177.46564885496184,4.229007633587786,-8.070853796386718,-1.177947216796875,-0.41898529052734373,29.954198473282442,30.870229007633586,-5.801526717557252,0.0
12.190000295639038,-8.13310303955078,-1.9823989746093749,-7.706935144042968,90.93129770992367,-157.54198473282443,14.16793893129771,-7.041347082519531,-0.39264907226562495,-0.9026140258789062,16.625954198473284,38.42748091603053,-5.740458015267175,0.0
12.200000524520874,-6.394912634277343,-2.7820623291015623,-8.736441857910156,91.40458015267176,-133.3587786259542,15.908396946564885,-7.173028173828125,0.12449848632812499,-1.7669208251953124,14.213740458015268,44.42748091603053,-5.267175572519084,0.0
12.21000051498413,-5.928043310546875,-1.8219874633789062,-8.552088330078124,80.58015267175573,-107.93893129770993,5.862595419847328,-8.190563879394531,-0.5003881469726562,-0.6392518432617187,3.312977099236641,55.69465648854962,-3.435114503816794,0.0
12.220000505447388,-5.911283898925781,-1.4317325927734375,-7.1395093505859375,72.0,-87.20610687022901,-1.5419847328244274,-10.565611926269531,-3.7995980346679685,0.6057330200195312,9.633587786259541,59.32824427480916,0.33587786259541985,0.0
12.230000257492065,-6.426037255859375,-1.0175357055664063,-4.113238452148437,76.09160305343511,-61.31297709923664,-6.305343511450381,-11.154585534667968,-3.526659045410156,0.7398083129882812,23.984732824427482,52.58015267175573,-0.9312977099236641,0.0
12.240000486373901,-6.710947253417968,1.2976572998046874,-1.4006079711914061,72.67175572519083,-46.412213740458014,-9.816793893129772,-9.897629663085937,-2.288856787109375,0.20350714111328125,23.16030534351145,48.732824427480914,-3.4656488549618323,0.0
12.250000238418579,-8.815450512695312,2.463633508300781,1.6256629272460936,62.79389312977099,-29.328244274809162,-5.7251908396946565,-11.319785449218749,-4.271255761718749,1.189918225097656,32.229007633587784,46.85496183206107,1.0534351145038168,0.0
12.260000944137573,-7.905653881835937,2.2673089721679687,1.7860744384765623,39.83206106870229,-31.282442748091604,-3.7557251908396947,-9.564835632324218,-1.5011644409179687,-0.6464344482421874,46.19847328244275,31.022900763358777,-1.1908396946564885,0.0
12.27000093460083,-8.79150849609375,4.6639048339843745,2.8802245971679685,18.580152671755727,-26.65648854961832,1.3893129770992367,-9.447519750976562,1.8722656982421875,-0.44053310546874996,32.18320610687023,34.534351145038165,-0.5954198473282443,0.0
12.280000686645508,-8.21690009765625,4.467580297851562,1.5346832641601562,-12.183206106870228,-31.572519083969464,9.358778625954198,-9.275137231445312,2.8706477905273435,0.2059013427734375,7.1603053435114505,43.61832061068702,4.33587786259542,0.0
12.290000677108765,-7.400477331542969,3.277662072753906,-0.062249243164062495,-22.83969465648855,-24.931297709923665,16.229007633587788,-9.727641345214844,0.6919242797851562,0.6153098266601562,5.282442748091603,42.595419847328245,11.435114503816793,0.0
12.300000667572021,-6.102820031738281,1.93451494140625,-1.2378022583007813,-27.954198473282442,-17.00763358778626,19.603053435114504,-10.187328063964843,0.6967126831054687,0.2920926025390625,8.625954198473282,37.725190839694655,13.404580152671755,0.0
12.310000658035278,-5.5641246582031245,0.36631285400390623,-2.059013427734375,-41.14503816793893,-10.687022900763358,19.923664122137403,-10.311826550292968,-0.11731588134765625,2.5474305664062498,6.213740458015267,39.725190839694655,14.717557251908397,0.0
12.320000648498535,-3.7134067749023436,-2.039859814453125,-2.1691467041015624,-38.06106870229008,2.2290076335877864,20.091603053435115,-9.193734375,0.34715924072265625,1.4317325927734375,0.015267175572519083,35.954198473282446,14.091603053435115,0.0
12.330000638961792,-3.5122938354492184,-2.6671406494140624,-1.5969325073242187,-31.282442748091604,18.763358778625953,14.549618320610687,-8.413224633789062,1.1013327636718748,1.2114660400390624,-11.114503816793894,36.62595419847328,13.786259541984732,0.0
12.340000629425049,-3.5913024902343746,-2.530671154785156,-0.7613561279296874,-32.38167938931298,28.27480916030534,9.526717557251908,-8.192958081054687,1.707065783691406,-0.6177040283203125,-28.83969465648855,39.3587786259542,14.900763358778626,0.0
12.350000381469727,-5.449202978515625,-0.8188169677734375,0.97683427734375,-37.51145038167939,36.56488549618321,6.442748091603053,-9.533711010742186,-1.0893617553710937,0.7781155395507812,-35.404580152671755,48.396946564885496,19.69465648854962,0.0
12.36000108718872,-4.134786267089844,-3.1196447631835937,-0.16759411621093748,-23.87786259541985,45.969465648854964,7.877862595419847,-11.645396875,-3.878606689453125,2.1452046874999997,-11.938931297709924,47.969465648854964,23.572519083969464,0.0
12.37000060081482,-4.620809204101562,-3.7612908081054686,0.34237083740234375,-7.236641221374046,56.79389312977099,5.114503816793893,-11.537657800292967,-4.6639048339843745,1.4628572143554686,11.877862595419847,36.732824427480914,21.282442748091604,0.0
12.380000829696655,-5.444414575195312,-3.8139632446289062,1.5729904907226562,3.3587786259541983,68.30534351145039,0.32061068702290074,-10.390835205078124,-3.0023288818359375,0.7972691528320313,21.87786259541985,31.114503816793892,15.908396946564885,0.0
12.390000343322754,-6.682216833496093,-2.9855694702148434,3.191470812988281,6.030534351145038,75.93893129770993,-4.977099236641221,-9.81862100830078,-2.6192566162109374,0.6392518432617187,26.213740458015266,29.34351145038168,15.206106870229007,0.0
12.400000810623169,-7.843404638671874,-2.3295582153320313,5.147533569335937,8.15267175572519,79.63358778625954,-8.900763358778626,-9.957484704589843,-2.3511060302734372,0.622492431640625,32.595419847328245,29.893129770992367,17.34351145038168,0.0
12.410000324249268,-9.062053283691405,-0.9648632690429687,7.271190441894531,15.374045801526718,80.61068702290076,-10.01526717557252,-9.756371765136718,-1.714248388671875,1.0654197387695312,36.18320610687023,29.801526717557252,18.198473282442748,0.0
12.420000791549683,-9.888052856445311,0.2059013427734375,9.344569079589844,25.16030534351145,77.14503816793894,-6.305343511450381,-9.445125549316407,-1.1947066284179686,0.8044517578125,37.74045801526717,29.61832061068702,18.213740458015266,0.0
12.43000054359436,-10.907982763671875,1.2713210815429687,10.826579907226561,33.87786259541985,70.2442748091603,-0.48854961832061067,-9.797073193359374,-1.6735469604492186,1.235408056640625,40.35114503816794,31.34351145038168,19.114503816793892,0.0
12.440000534057617,-10.989385620117186,2.3415292236328122,11.137826123046874,41.49618320610687,60.76335877862596,8.610687022900763,-9.507374792480467,-1.2114660400390624,1.0534487304687499,41.954198473282446,31.00763358778626,17.740458015267176,0.0
12.450000524520874,-10.836156713867187,3.919308117675781,10.381258398437499,36.47328244274809,49.29770992366412,15.038167938931299,-9.603142858886718,-0.16280571289062498,1.4891934326171874,32.54961832061068,35.69465648854962,17.61832061068702,0.0
12.46000051498413,-10.927136376953124,4.920084411621094,9.533711010742186,17.114503816793892,36.030534351145036,20.50381679389313,-8.264784130859374,0.3232172241210937,0.5722141967773438,21.786259541984734,34.396946564885496,17.83206106870229,0.0
12.470000505447388,-10.886434948730468,4.036623999023437,8.418013037109375,-6.030534351145038,18.641221374045802,25.0381679389313,-8.954314208984375,0.6416460449218749,0.8714894042968749,6.412213740458015,41.69465648854962,21.297709923664122,0.0
12.480000495910645,-10.283096130371094,2.999934680175781,8.384494213867187,-16.16793893129771,7.786259541984733,29.61832061068702,-9.78031378173828,-0.7996633544921875,2.1595698974609374,1.4351145038167938,47.45038167938932,25.84732824427481,0.0
12.490000486373901,-10.232817895507813,0.9026140258789062,6.931213806152344,-14.854961832061068,-2.0763358778625953,36.01526717557252,-9.832986218261718,-2.157175695800781,1.5155296508789062,10.16793893129771,39.55725190839695,26.99236641221374,0.0
12.500000476837158,-9.188945971679686,-0.6679822631835937,4.486733911132812,0.15267175572519084,-3.8625954198473282,42.0763358778626,-11.039663854980468,-1.429338391113281,1.4987702392578124,11.954198473282442,34.19847328244275,27.236641221374047,0.0
12.510000705718994,-10.714052429199219,-0.8068459594726562,2.521094348144531,11.786259541984732,-1.1908396946564885,43.63358778625954,-9.789890588378906,-1.218648645019531,1.3958195678710936,5.7251908396946565,29.251908396946565,25.603053435114504,0.0
12.520000696182251,-13.342885852050781,1.0726023437499999,2.2768857788085937,5.450381679389313,6.534351145038168,41.603053435114504,-10.527304699707031,-1.350329736328125,2.0183119995117185,-1.099236641221374,26.977099236641223,28.290076335877863,0.0
12.530000925064087,-12.933477368164061,-0.031124621582031248,2.224213342285156,-23.46564885496183,5.083969465648855,33.465648854961835,-10.83376251220703,0.488417138671875,1.2808978881835937,-12.564885496183207,22.061068702290076,28.625954198473284,0.0
12.540000438690186,-11.762712756347655,-2.9089550170898435,3.375824340820312,-38.12213740458015,3.8473282442748094,24.793893129770993,-11.042058056640624,0.5506663818359374,1.4724340209960938,-22.290076335877863,19.862595419847327,28.0,0.0
12.550000667572021,-10.077194787597655,-4.225765930175781,4.027047192382812,-36.62595419847328,3.480916030534351,16.48854961832061,-10.263942517089843,0.373495458984375,1.7286135986328124,-28.671755725190838,13.038167938931299,22.900763358778626,0.0
12.560000658035278,-8.355763793945313,-2.6862942626953124,3.0813375366210938,-18.442748091603054,5.709923664122138,11.022900763358779,-11.451466540527344,0.36391865234375,1.8315642700195311,-27.801526717557252,7.923664122137405,19.83206106870229,0.0
12.570000648498535,-7.398083129882812,0.17238251953125,1.1037269653320312,1.083969465648855,10.580152671755725,8.595419847328245,-11.686098303222655,1.1013327636718748,0.24660277099609373,-23.709923664122137,-5.557251908396947,15.32824427480916,0.0
12.580000638961792,-7.079654309082031,1.4963760375976562,-0.6871358764648438,13.938931297709924,17.083969465648856,9.068702290076336,-13.053187451171874,1.2282254516601563,1.6735469604492186,-32.82442748091603,-8.412213740458014,15.954198473282442,0.0
12.590000629425049,-6.6893994384765625,1.7286135986328124,-1.5490484741210937,22.549618320610687,26.9618320610687,9.312977099236642,-13.211204760742186,2.128445275878906,0.97683427734375,-33.16030534351145,-15.86259541984733,14.80916030534351,0.0
12.600000858306885,-6.943184814453125,2.272097375488281,-2.0638018310546875,15.587786259541986,31.84732824427481,4.641221374045801,-12.82573829345703,3.6391865234374996,1.7405846069335937,-46.274809160305345,-19.770992366412212,14.076335877862595,0.0
12.610000610351562,-8.537723120117187,2.310404602050781,-1.6232687255859375,4.870229007633588,39.221374045801525,2.6106870229007635,-13.656526269531248,1.0319009155273438,1.675941162109375,-49.32824427480916,-23.984732824427482,17.114503816793892,0.0
12.62000060081482,-9.366116894531249,2.2361843505859373,-0.7517793212890624,-3.3893129770992365,41.93893129770992,1.1603053435114503,-14.554351892089842,1.8531120849609375,1.1133037719726562,-42.99236641221374,-33.6793893129771,14.122137404580153,0.0
12.630000352859497,-10.141838232421874,2.9735984619140625,-0.201112939453125,-11.954198473282442,46.13740458015267,0.9618320610687023,-13.000515014648437,2.9640216552734375,-0.35194764404296874,-54.01526717557252,-44.091603053435115,11.022900763358779,0.0
12.640001058578491,-9.801861596679688,1.9129671264648436,0.16519991455078123,-21.374045801526716,46.396946564885496,4.5038167938931295,-13.172897534179686,1.687912170410156,1.4317325927734375,-63.29770992366412,-41.725190839694655,10.13740458015267,0.0
12.65000057220459,-10.390835205078124,1.5107412475585937,1.0749965454101562,-22.702290076335878,49.3587786259542,4.885496183206107,-12.59589493408203,0.8307879760742187,0.7613561279296874,-56.54961832061068,-50.274809160305345,8.351145038167939,0.0
12.660000801086426,-9.241618408203124,-0.1292868896484375,0.19632453613281248,-19.419847328244273,47.49618320610687,4.961832061068702,-13.010091821289063,-0.6512228515624999,2.023100402832031,-40.67175572519084,-54.68702290076336,6.8396946564885495,0.0
12.670000553131104,-9.430760339355468,0.0,0.33518823242187495,-12.83969465648855,49.70992366412214,2.519083969465649,-12.873622326660156,-0.5626373901367188,2.422932080078125,-22.15267175572519,-65.29770992366412,2.0916030534351147,0.0
12.68000054359436,-9.279925634765624,0.7254431030273437,0.23702596435546874,-7.969465648854962,53.282442748091604,-0.5343511450381679,-10.381258398437499,2.2577321655273437,1.2808978881835937,-33.48091603053435,-73.69465648854961,-5.145038167938932,0.0
12.690000295639038,-9.445125549316407,1.9728221679687499,0.3112462158203125,-14.488549618320612,52.80916030534351,-1.6030534351145038,-10.716446630859375,-0.14604630126953125,2.4779987182617185,-36.213740458015266,-70.45801526717557,-4.748091603053435,0.0
12.700000524520874,-8.633491186523438,0.45489831542968745,-0.09816226806640624,-14.381679389312977,53.221374045801525,-1.7251908396946565,-10.072406384277343,0.6296750366210937,1.24498486328125,-28.458015267175572,-77.66412213740458,-7.465648854961832,0.0
12.71000051498413,-8.932766394042968,0.05746083984375,-0.3495534423828125,-6.488549618320611,55.80152671755725,-2.8702290076335877,-10.019733947753906,1.3838485595703125,2.1978771240234374,-28.15267175572519,-75.37404580152672,-8.931297709923664,0.0
12.720000743865967,-9.342174877929686,0.39743747558593745,-0.21068974609375,-8.687022900763358,56.16793893129771,-5.877862595419847,-9.679757312011718,0.7230489013671875,2.1739351074218747,-26.900763358778626,-76.54961832061069,-9.389312977099237,0.0
12.730000495910645,-9.775525378417969,0.12449848632812499,0.7110778930664062,-5.862595419847328,56.80916030534351,-7.206106870229007,-8.985438830566405,2.655169641113281,1.0031704956054688,-27.297709923664122,-81.2824427480916,-12.030534351145038,0.0
12.740000486373901,-10.256759912109374,1.1947066284179686,1.1611878051757811,-5.8320610687022905,54.595419847328245,-8.213740458015268,-9.938331091308592,1.3623007446289062,1.438915197753906,-32.595419847328245,-74.25954198473282,-9.572519083969466,0.0
12.750000238418579,-10.867281335449219,1.2234370483398436,1.5610194824218748,-11.938931297709924,51.847328244274806,-8.01526717557252,-8.755595471191405,2.3367408203125,-0.04548983154296875,-26.977099236641223,-79.86259541984732,-9.541984732824428,0.0
12.760000467300415,-10.572794531249999,2.6431986328124997,1.5777788940429687,-18.137404580152673,45.43511450381679,-6.1679389312977095,-8.8489693359375,2.5953145996093747,0.3184288208007812,-41.49618320610687,-69.17557251908397,-6.0458015267175576,0.0
12.77000093460083,-11.298237634277344,2.2744915771484373,2.020706201171875,-28.748091603053435,40.87022900763359,-3.816793893129771,-9.287108239746093,0.4165910888671875,0.6153098266601562,-29.84732824427481,-67.93893129770993,-2.1068702290076335,0.0
12.780000686645508,-11.264718811035156,2.281674182128906,1.7453730102539062,-31.267175572519083,37.52671755725191,-2.5801526717557253,-8.398859423828124,2.2960393920898436,-0.5458779785156249,-24.442748091603054,-71.49618320610686,-1.816793893129771,0.0
12.790000915527344,-9.943119494628906,2.090138049316406,1.8914193115234375,-39.57251908396947,29.374045801526716,-0.061068702290076333,-8.504204296874999,2.549824768066406,-0.00239420166015625,-35.51145038167939,-60.87022900763359,1.2366412213740459,0.0
12.800000667572021,-9.842563024902343,0.3591302490234375,1.0510545288085937,-39.038167938931295,28.732824427480917,3.0229007633587788,-9.466673364257812,-0.2705447875976562,-0.21787235107421873,-25.557251908396946,-56.16793893129771,5.343511450381679,0.0
12.8100004196167,-9.004592443847656,-0.6775590698242188,0.6177040283203125,-35.587786259541986,24.778625954198475,3.4656488549618323,-9.006986645507812,1.2904746948242187,-1.5610194824218748,-13.923664122137405,-60.47328244274809,3.7099236641221376,0.0
12.820000648498535,-9.3852705078125,-0.09576806640624999,0.45968671875,-33.02290076335878,23.572519083969464,3.053435114503817,-8.078036401367187,2.521094348144531,-1.4125789794921875,-29.954198473282442,-48.44274809160305,1.0381679389312977,0.0
12.830000638961792,-9.64623848876953,0.1867477294921875,0.6847416748046875,-30.442748091603054,25.893129770992367,3.282442748091603,-8.583212951660157,0.3327940307617187,-1.4604630126953124,-35.17557251908397,-37.80152671755725,2.198473282442748,0.0
12.840000629425049,-9.823409411621093,0.08140285644531249,0.40222587890625,-27.16030534351145,26.38167938931298,2.33587786259542,-9.72285294189453,-1.3646949462890625,-1.3096283081054687,-18.061068702290076,-35.267175572519086,1.6488549618320612,0.0
12.850000619888306,-8.09479581298828,-0.5722141967773438,0.27293898925781246,-17.404580152671755,28.85496183206107,1.0076335877862594,-8.786720092773438,0.4644751220703125,-1.2330138549804688,-4.564885496183206,-36.18320610687023,-2.045801526717557,0.0
12.860000610351562,-9.428366137695312,0.12449848632812499,0.2609679809570312,-10.458015267175572,34.87022900763359,-0.4580152671755725,-7.656656909179687,1.1228805786132812,-1.149216796875,-12.595419847328245,-31.282442748091604,-5.969465648854962,0.0
12.87000060081482,-9.162609753417968,0.5602431884765625,0.6536170532226562,-11.083969465648854,37.43511450381679,-1.5419847328244274,-8.427589843749999,1.7908628417968748,-1.458068811035156,-19.87786259541985,-21.358778625954198,-6.580152671755725,0.0
12.880000829696655,-10.596736547851561,3.4572271972656248,1.6304513305664061,-19.81679389312977,36.62595419847328,-3.3435114503816794,-8.779537487792968,0.6703764648437499,-0.35194764404296874,-30.549618320610687,-9.34351145038168,-4.870229007633588,0.0
12.890000581741333,-9.466673364257812,2.5474305664062498,1.8770541015625,-35.282442748091604,28.045801526717558,-0.9007633587786259,-8.872911352539061,0.7565677246093749,-0.6655880615234374,-19.954198473282442,-8.16793893129771,-4.778625954198473,0.0
12.900000810623169,-12.00213292236328,4.074931225585937,3.0262708984374997,-34.16793893129771,28.717557251908396,1.3893129770992367,-9.217676391601563,0.25139117431640623,0.18914193115234373,-17.755725190839694,-4.5038167938931295,-5.175572519083969,0.0
12.910000324249268,-9.713276135253906,0.6464344482421874,1.5538368774414062,-36.13740458015267,19.34351145038168,7.541984732824427,-8.935160595703124,0.3327940307617187,0.296881005859375,-14.534351145038167,-1.83206106870229,-7.877862595419847,0.0
12.920000791549683,-11.59990704345703,3.375824340820312,2.389413256835937,-38.0,16.83969465648855,7.358778625954199,-9.260772021484375,-0.4429273071289062,0.63206923828125,-11.465648854961833,0.42748091603053434,-8.50381679389313,0.0
12.93000054359436,-9.74200655517578,-0.086191259765625,0.9576806640625,-40.36641221374046,9.694656488549619,10.65648854961832,-8.762778076171875,-0.105344873046875,0.8954314208984374,-4.702290076335878,1.5267175572519085,-9.282442748091603,0.0
12.940000534057617,-10.532093103027343,0.6560112548828124,1.2210428466796874,-28.748091603053435,12.610687022900763,10.381679389312977,-10.433930834960936,-2.020706201171875,2.233790148925781,9.648854961832061,1.6641221374045803,-7.847328244274809,0.0
12.950000524520874,-9.974244116210937,-0.38786066894531246,1.0366893188476562,-25.740458015267176,10.65648854961832,7.893129770992366,-8.271966735839843,-0.12210428466796874,1.0558429321289062,20.366412213740457,-8.473282442748092,-12.229007633587786,0.0
12.96000051498413,-10.20887587890625,-0.30406361083984373,0.9433154541015625,-22.610687022900763,8.793893129770993,6.687022900763359,-9.74200655517578,-0.6560112548828124,2.4109610717773435,27.52671755725191,-7.557251908396947,-11.419847328244275,0.0
12.970000505447388,-9.765948571777344,-0.9600748657226562,0.8259995727539062,-15.84732824427481,9.32824427480916,5.648854961832061,-9.660603698730467,-0.7206546997070312,3.0693665283203124,38.42748091603053,-13.48091603053435,-11.083969465648854,0.0
12.980000734329224,-9.5001921875,-0.7517793212890624,0.7757213378906249,-10.946564885496183,8.595419847328245,4.183206106870229,-8.425195642089843,1.6208745239257811,1.956062756347656,38.85496183206107,-21.16030534351145,-13.465648854961833,0.0
12.990000486373901,-9.425971936035156,0.00718260498046875,0.9193734375,-8.183206106870228,9.221374045801527,2.9770992366412212,-7.558494641113281,4.089296435546875,2.0781670410156248,16.458015267175572,-13.86259541984733,-14.83969465648855,0.0
13.000000476837158,-9.74200655517578,0.679953271484375,1.0917559570312498,-10.50381679389313,8.030534351145038,3.099236641221374,-7.570465649414062,3.1507693847656246,2.1978771240234374,-13.694656488549619,0.5343511450381679,-10.229007633587786,0.0
13.010000944137573,-10.053252770996092,0.28490999755859375,1.16837041015625,-11.954198473282442,4.977099236641221,2.8702290076335877,-9.655815295410155,-0.08858546142578125,3.210624426269531,-9.053435114503817,1.786259541984733,-5.068702290076335,0.0
13.020000696182251,-9.923965881347655,-0.22744915771484372,0.8044517578125,-4.732824427480916,3.0076335877862594,1.786259541984733,-8.896853369140624,0.967257470703125,3.3303345092773435,-8.122137404580153,-1.7099236641221374,-6.793893129770993,0.0
13.030000925064087,-10.333374365234375,0.06464344482421874,0.6727706665039062,-0.2595419847328244,2.4427480916030535,0.3053435114503817,-8.789114294433594,0.4213794921875,3.284844677734375,-12.65648854961832,-1.3435114503816794,-9.068702290076336,0.0
13.040000438690186,-10.05564697265625,0.3902548706054687,0.22505495605468748,1.9236641221374047,2.2442748091603053,-1.297709923664122,-8.99501563720703,-0.2920926025390625,2.978386865234375,-14.992366412213741,-2.381679389312977,-9.603053435114504,0.0
13.050000429153442,-9.97184991455078,0.9816226806640624,-0.18914193115234373,2.015267175572519,2.198473282442748,-1.8015267175572518,-9.3852705078125,-1.01514150390625,3.0406361083984375,-13.404580152671755,-3.954198473282443,-10.870229007633588,0.0
13.060000658035278,-9.502586389160156,0.8020575561523438,-0.7134720947265625,2.3053435114503817,3.5877862595419847,-2.2748091603053435,-9.550470422363281,-1.0773907470703123,2.91134921875,-11.114503816793894,-4.229007633587786,-11.816793893129772,0.0
13.070000648498535,-10.117896215820313,3.1507693847656246,0.37828386230468747,0.7480916030534351,9.86259541984733,-4.854961832061068,-9.866505041503906,-1.3670891479492187,2.9089550170898435,-6.473282442748092,-5.114503816793893,-13.465648854961833,0.0
13.080000638961792,-9.162609753417968,1.7381904052734374,-1.3024457031249999,-13.969465648854962,1.6641221374045803,-1.6641221374045803,-9.89523546142578,-0.5865794067382812,2.8012159423828122,-1.3893129770992367,-6.687022900763359,-14.748091603053435,0.0
13.090000867843628,-8.959102612304687,2.770091320800781,-0.8164227661132812,-13.587786259541986,4.778625954198473,-0.6717557251908397,-10.302249743652343,-0.679953271484375,2.940079638671875,1.1603053435114503,-6.6106870229007635,-15.725190839694656,0.0
13.100000619888306,-9.715670336914062,2.7940333374023436,-0.49320554199218747,-24.38167938931298,4.763358778625954,-0.7633587786259542,-9.9981861328125,-0.2920926025390625,3.1579519897460937,4.67175572519084,-7.862595419847328,-16.83969465648855,0.0
13.110000610351562,-9.406818322753905,1.7381904052734374,-0.46686932373046874,-23.374045801526716,7.740458015267175,1.5877862595419847,-10.448296044921875,-0.5099649536132812,3.651157531738281,6.534351145038168,-7.343511450381679,-16.80916030534351,0.0
13.12000060081482,-9.974244116210937,1.6543933471679686,-0.1197100830078125,-24.900763358778626,7.9541984732824424,1.9694656488549618,-10.601524951171875,-0.6272808349609375,2.8898014038085935,18.137404580152673,-16.458015267175572,-18.625954198473284,0.0
13.130000591278076,-9.6917283203125,1.1540052001953125,-0.0526724365234375,-19.893129770992367,9.49618320610687,1.7099236641221374,-9.938331091308592,0.033518823242187495,4.278438366699218,21.129770992366414,-16.885496183206108,-20.03053435114504,0.0
13.140000343322754,-10.230423693847655,1.465251416015625,0.15083470458984374,-19.450381679389313,10.16793893129771,1.450381679389313,-10.299855541992187,-0.4213794921875,3.4907460205078125,25.267175572519083,-22.53435114503817,-20.35114503816794,0.0
13.15000057220459,-9.811438403320311,0.9433154541015625,0.2561795776367187,-16.870229007633586,11.114503816793894,0.5190839694656488,-10.558429321289061,0.03591302490234375,4.103661645507812,31.801526717557252,-26.366412213740457,-20.30534351145038,0.0
13.160000801086426,-9.598354455566406,1.1252747802734375,0.41898529052734373,-15.648854961832061,10.702290076335878,-0.6106870229007634,-9.090783703613281,1.905784521484375,3.3710359375,26.99236641221374,-31.31297709923664,-22.717557251908396,0.0
13.170000553131104,-9.3852705078125,1.4700398193359374,0.7924807495117187,-14.351145038167939,11.022900763358779,-0.732824427480916,-7.5537062377929685,2.7533319091796873,3.0071172851562498,9.603053435114504,-26.610687022900763,-22.259541984732824,0.0
13.18000054359436,-9.586383447265625,1.9105729248046874,1.2234370483398436,-17.862595419847327,9.84732824427481,-0.22900763358778625,-7.762001782226562,2.89219560546875,2.6312276245117188,-10.870229007633588,-18.076335877862597,-20.076335877862597,0.0
13.190000534057617,-9.686939916992188,1.0582371337890624,1.0702081420898437,-18.35114503816794,7.541984732824427,0.9007633587786259,-9.777919580078125,0.1771709228515625,2.8012159423828122,-7.816793893129771,-15.801526717557252,-15.038167938931299,0.0
13.200000524520874,-9.425971936035156,-0.181959326171875,0.8020575561523438,-9.267175572519085,6.67175572519084,1.8015267175572518,-9.133879333496093,0.622492431640625,3.5098996337890624,-5.816793893129771,-14.473282442748092,-16.48854961832061,0.0
13.21000075340271,-9.962273107910155,0.34237083740234375,1.0558429321289062,4.183206106870229,10.702290076335878,-0.2748091603053435,-8.475473876953124,0.833182177734375,2.8514941772460936,-0.5954198473282443,-17.557251908396946,-18.916030534351144,0.0
13.220000505447388,-9.088389501953124,-1.01514150390625,0.34237083740234375,5.770992366412214,7.633587786259542,-1.3282442748091603,-10.026916552734374,-0.6272808349609375,3.9839515624999997,-0.8549618320610687,-10.763358778625955,-17.251908396946565,0.0
13.230000257492065,-9.586383447265625,0.20350714111328125,0.5458779785156249,6.931297709923665,6.305343511450381,-3.1908396946564888,-9.234435803222656,-0.12689268798828124,2.770091320800781,-0.6564885496183206,-12.442748091603054,-18.27480916030534,0.0
13.240000486373901,-10.493785876464843,1.429338391113281,1.467645617675781,10.442748091603054,9.34351145038168,-6.396946564885496,-8.441955053710936,0.15562310791015624,2.3319524169921872,-1.5267175572519085,-10.442748091603054,-19.083969465648856,0.0
13.250000953674316,-9.97903251953125,1.1516109985351561,1.0510545288085937,-1.4351145038167938,1.4809160305343512,-6.076335877862595,-8.67658681640625,-0.12449848632812499,1.8028338500976562,2.2442748091603053,-10.061068702290076,-18.15267175572519,0.0
13.260000467300415,-9.696516723632811,0.5985504150390625,0.9002198242187499,5.557251908396947,0.7633587786259542,-4.900763358778626,-8.63109698486328,-0.258573779296875,1.6807295654296874,4.198473282442748,-7.068702290076335,-18.091603053435115,0.0
13.27000093460083,-9.70369932861328,0.9074024291992187,1.2880804931640624,8.274809160305344,1.1603053435114503,-5.648854961832061,-8.650250598144531,-0.45010991210937495,1.7836802368164062,8.977099236641221,-4.2748091603053435,-18.458015267175572,0.0
13.280000448226929,-9.72285294189453,0.7613561279296874,0.7996633544921875,10.0,0.2748091603053435,-5.419847328244275,-8.667010009765624,-0.4165910888671875,1.8291700683593748,12.82442748091603,-2.1374045801526718,-18.47328244274809,0.0
13.290000677108765,-9.435548742675781,0.6200982299804687,0.8044517578125,12.0,0.1984732824427481,-5.603053435114504,-8.75320126953125,-0.3591302490234375,1.8124106567382812,17.14503816793893,-0.4580152671755725,-18.229007633587788,0.0
13.300000667572021,-9.545682019042967,0.9002198242187499,0.8475473876953125,11.877862595419847,0.6106870229007634,-6.152671755725191,-8.611943371582031,-0.0909796630859375,1.9800047729492187,20.427480916030536,1.4045801526717556,-17.51145038167939,0.0
13.3100004196167,-9.483432775878907,0.8738836059570312,0.6105214233398437,11.893129770992367,1.282442748091603,-7.297709923664122,-8.585607153320312,0.11731588134765625,2.0781670410156248,22.53435114503817,2.6412213740458017,-16.595419847328245,0.0
13.320000410079956,-8.95670841064453,-0.0383072265625,0.201112939453125,14.351145038167939,1.984732824427481,-7.9541984732824424,-8.427589843749999,0.21068974609375,2.166752502441406,22.641221374045802,3.984732824427481,-15.32824427480916,0.0
13.330000400543213,-9.794678991699218,0.34237083740234375,0.603338818359375,26.65648854961832,11.236641221374045,-10.717557251908397,-8.432378247070313,0.06943184814453125,2.1787235107421874,23.557251908396946,6.0458015267175576,-14.076335877862595,0.0
13.340000629425049,-10.220846887207031,1.149216796875,0.3591302490234375,24.12213740458015,11.587786259541986,-12.793893129770993,-8.552088330078124,-0.16280571289062498,2.360682836914062,24.99236641221374,6.870229007633588,-13.099236641221374,0.0
13.350000619888306,-9.289502441406249,1.3407529296874998,0.7110778930664062,22.33587786259542,15.312977099236642,-14.213740458015268,-8.578424548339843,-0.2346317626953125,2.4205378784179685,25.6793893129771,7.32824427480916,-12.381679389312977,0.0
13.360000610351562,-9.464279162597656,1.9871873779296874,0.24181436767578124,15.465648854961833,12.854961832061068,-13.816793893129772,-8.86812294921875,-0.18914193115234373,2.588131994628906,27.206106870229007,7.893129770992366,-11.969465648854962,0.0
13.37000060081482,-9.334992272949219,1.8315642700195311,1.16837041015625,9.694656488549619,15.297709923664122,-14.580152671755725,-8.796296899414061,-0.031124621582031248,2.683900061035156,27.64885496183206,7.847328244274809,-11.435114503816793,0.0
13.380003213882446,-9.287108239746093,1.8291700683593748,0.6464344482421874,3.816793893129771,11.145038167938932,-13.007633587786259,-8.985438830566405,0.12449848632812499,3.0142998901367184,27.984732824427482,8.122137404580153,-10.458015267175572,0.0
13.390118837356567,-10.149020837402343,2.1715409057617188,1.8124106567382812,0.7480916030534351,13.84732824427481,-13.022900763358779,-8.540117321777343,0.9121908325195311,2.9855694702148434,25.267175572519083,7.419847328244275,-10.183206106870228,0.0
13.400001049041748,-10.89122335205078,1.9105729248046874,1.8555062866210936,-1.984732824427481,14.51908396946565,-13.083969465648854,-9.770736975097655,0.7757213378906249,3.5098996337890624,21.114503816793892,11.83206106870229,-7.786259541984733,0.0
13.410000801086426,-8.820238916015624,0.6009446166992187,0.7565677246093749,-2.4580152671755724,7.984732824427481,-11.251908396946565,-9.629479077148437,0.076614453125,4.6064439941406246,17.923664122137403,14.16793893129771,-7.190839694656488,0.0
13.420000791549683,-9.782707983398437,0.9193734375,1.7429788085937499,-1.5877862595419847,11.465648854961833,-13.816793893129772,-9.050082275390624,2.020706201171875,3.268085266113281,10.992366412213741,9.557251908396946,-9.435114503816793,0.0
13.43000054359436,-11.066000073242186,1.0773907470703123,1.707065783691406,-1.1603053435114503,8.320610687022901,-14.870229007633588,-9.7683427734375,1.3120225097656248,2.961627453613281,-2.564885496183206,10.290076335877863,-8.305343511450381,0.0
13.440000772476196,-9.160215551757812,0.55545478515625,1.8076222534179687,-2.564885496183206,2.33587786259542,-14.381679389312977,-9.533711010742186,1.1085153686523437,2.511517541503906,-10.900763358778626,9.404580152671755,-9.358778625954198,0.0
13.450000286102295,-9.6151138671875,-0.17238251953125,2.0254946044921875,1.8778625954198473,1.618320610687023,-15.450381679389313,-9.497797985839844,0.8020575561523438,1.8555062866210936,-15.679389312977099,10.01526717557252,-10.229007633587786,0.0
13.46000051498413,-9.294290844726563,-0.9409212524414062,2.1883003173828124,8.305343511450381,-2.030534351145038,-15.679389312977099,-8.801085302734375,0.948103857421875,0.3687070556640625,-16.931297709923665,10.01526717557252,-10.427480916030534,0.0
13.470000505447388,-9.689334118652344,-0.7015010864257812,2.4349030883789062,12.51908396946565,-6.778625954198473,-16.427480916030536,-8.283937744140625,-0.0047884033203125,-0.277727392578125,-18.106870229007633,13.206106870229007,-10.229007633587786,0.0
13.480000495910645,-11.233594189453123,0.8930372192382812,3.459621398925781,2.6717557251908395,-15.84732824427481,-18.916030534351144,-8.947131604003905,-0.8571241943359375,0.6105214233398437,-17.099236641221374,20.50381679389313,-9.206106870229007,0.0
13.490000247955322,-10.74517705078125,-1.3024457031249999,3.4093431640625,8.13740458015267,-24.12213740458015,-17.87786259541985,-8.157045056152343,0.27293898925781246,-0.06703764648437499,-23.267175572519083,25.450381679389313,-8.961832061068701,0.0
13.500000238418579,-10.455478649902343,-2.521094348144531,3.7517140014648436,21.740458015267176,-28.717557251908396,-18.076335877862597,-7.426813549804687,0.5410895751953124,0.2346317626953125,-33.954198473282446,37.00763358778626,-7.267175572519084,0.0
13.510000944137573,-11.609483850097655,-2.8419173706054686,4.843469958496094,29.801526717557252,-37.6793893129771,-21.053435114503817,-9.289502441406249,-1.7357962036132812,0.8954314208984374,-28.916030534351144,44.0,-2.7480916030534353,0.0
13.520000696182251,-11.77228956298828,-4.96078583984375,5.343858105468749,46.274809160305345,-48.12213740458015,-22.68702290076336,-9.945513696289062,-2.5234885498046875,1.3024457031249999,-11.312977099236642,39.61832061068702,-2.7022900763358777,0.0
13.530000925064087,-13.311761230468749,-3.0550013183593747,8.092401611328125,62.56488549618321,-57.404580152671755,-26.65648854961832,-9.91438907470703,-0.2154781494140625,1.5418658691406248,-5.343511450381679,41.29770992366412,-5.419847328244275,0.0
13.540000677108765,-15.152902307128905,-2.0925322509765625,11.020510241699219,54.19847328244275,-86.50381679389314,-31.740458015267176,-9.72285294189453,-0.8020575561523438,1.4149731811523436,-0.030534351145038167,39.31297709923664,-3.8473282442748094,0.0
13.550000667572021,-15.342044238281249,-2.750937707519531,12.179303845214843,58.99236641221374,-115.52671755725191,-32.717557251908396,-11.310208642578125,-1.3383587280273437,1.7334020019531249,7.083969465648855,38.18320610687023,-0.3969465648854962,0.0
13.560000658035278,-15.60301221923828,-1.8411410766601561,11.286266625976562,65.38931297709924,-146.13740458015266,-34.213740458015266,-10.27830772705078,0.040701428222656245,1.0606313354492187,10.580152671755725,35.45038167938932,-1.2061068702290076,0.0
13.570000410079956,-15.67962667236328,0.6464344482421874,8.731653454589843,64.62595419847328,-177.22137404580153,-34.35114503816794,-10.714052429199219,-1.0965443603515623,1.6400281372070311,7.862595419847328,41.587786259541986,1.6641221374045803,0.0
13.580000638961792,-14.496891052246093,0.7206546997070312,5.604826086425781,59.87786259541985,-200.24427480916032,-29.84732824427481,-11.128249316406249,-3.3016040893554686,1.3407529296874998,21.69465648854962,36.61068702290076,3.3435114503816794,0.0
13.590000629425049,-14.58787071533203,0.7661445312499999,2.6982652709960937,66.22900763358778,-211.32824427480915,-22.885496183206108,-11.058817468261719,-4.388571643066406,2.4660277099609376,37.98473282442748,33.11450381679389,2.045801526717557,0.0
13.600000619888306,-12.938265771484375,0.30406361083984373,-0.8164227661132812,67.49618320610686,-215.49618320610688,-10.778625954198473,-9.80665,-3.294421484375,1.8770541015625,44.47328244274809,29.81679389312977,-2.5343511450381677,0.0
13.610000610351562,-12.334926953124999,0.1867477294921875,-3.679887951660156,65.34351145038168,-208.53435114503816,-1.4351145038167938,-9.0021982421875,-2.360682836914062,1.1516109985351561,42.79389312977099,30.045801526717558,-4.534351145038168,0.0
13.62000036239624,-11.935095275878906,-1.0989385620117187,-5.145139367675781,55.25190839694657,-196.29007633587787,4.763358778625954,-8.858546142578124,-0.6919242797851562,0.37828386230468747,33.770992366412216,34.62595419847328,-4.824427480916031,0.0
13.630000829696655,-9.9215716796875,-2.9735984619140625,-7.149086157226562,53.786259541984734,-174.41221374045801,9.877862595419847,-8.94473740234375,-1.120486376953125,0.24181436767578124,19.587786259541986,41.83206106870229,-2.0610687022900764,0.0
13.640000820159912,-8.839392529296875,-4.422090466308593,-9.713276135253906,54.06106870229008,-143.55725190839695,12.01526717557252,-9.878476049804688,-2.059013427734375,0.29927520751953124,21.572519083969464,43.038167938931295,-0.3053435114503817,0.0
13.65000057220459,-7.898471276855468,-5.288791467285156,-8.743624462890624,60.2442748091603,-112.19847328244275,7.038167938931298,-9.191340173339842,-0.6272808349609375,-0.11731588134765625,16.53435114503817,43.19083969465649,-3.4198473282442747,0.0
13.660000801086426,-7.888894470214844,-4.161122485351562,-6.53138212890625,64.62595419847328,-84.0,0.9923664122137404,-9.282319836425781,-1.3192051147460937,-0.0383072265625,4.900763358778626,48.152671755725194,-2.9160305343511452,0.0
13.670000553131104,-6.852205151367187,-3.0789433349609374,-4.469974499511719,70.03053435114504,-57.52671755725191,-3.8931297709923665,-9.9215716796875,-2.5450363647460934,0.14604630126953125,8.51908396946565,46.213740458015266,-1.465648854961832,0.0
13.68000054359436,-6.749254479980468,-0.47165772705078124,-2.27927998046875,72.50381679389314,-38.35114503816794,-9.114503816793894,-9.5384994140625,-0.9217676391601562,-0.05985504150390625,5.8320610687022905,46.30534351145038,-1.2366412213740459,0.0
13.690000534057617,-8.89924757080078,2.8012159423828122,0.6584054565429687,54.38167938931298,-32.61068702290076,-10.305343511450381,-9.801861596679688,-2.8730419921875,0.5626373901367188,7.694656488549619,45.32824427480916,1.2671755725190839,0.0
13.700000524520874,-7.809885815429687,1.484405029296875,0.9337386474609375,52.74809160305343,-25.129770992366414,-3.83206106870229,-10.828974108886719,-3.6008792968749996,1.426944189453125,26.03053435114504,40.30534351145038,3.969465648854962,0.0
13.710000276565552,-7.584830859375,3.095702746582031,1.1923124267578125,39.23664122137404,-27.17557251908397,-0.7938931297709924,-10.639832177734375,-2.185906115722656,-0.01915361328125,34.458015267175576,31.770992366412212,2.6106870229007635,0.0
13.720000505447388,-9.07163009033203,5.140350964355468,2.2601263671875,38.93129770992366,-13.84732824427481,6.9465648854961835,-10.376469995117187,-0.26336218261718747,-0.143652099609375,31.404580152671755,30.0,2.16793893129771,0.0
13.730000495910645,-8.992621435546875,6.58884296875,1.5155296508789062,1.7251908396946565,-21.83206106870229,9.465648854961833,-9.315838659667968,1.7980454467773437,-0.842758984375,18.763358778625953,29.64885496183206,2.717557251908397,0.0
13.740000486373901,-8.176198669433592,4.88417138671875,0.9624690673828125,-23.236641221374047,-20.65648854961832,18.045801526717558,-9.160215551757812,3.758896606445312,-0.08379705810546874,-6.244274809160306,38.30534351145038,5.908396946564886,0.0
13.750000238418579,-6.60799658203125,2.9448680419921875,-0.13407529296874998,-45.48091603053435,-21.64885496183206,24.290076335877863,-10.002974536132811,0.8547299926757812,1.7621324218749999,-20.0,44.82442748091603,13.007633587786259,0.0
13.760000705718994,-4.948814831542968,-0.4477157104492187,-0.814028564453125,-43.05343511450382,-11.053435114503817,27.908396946564885,-9.593566052246093,-0.9528922607421875,1.7693150268554687,-13.404580152671755,39.12977099236641,15.389312977099237,0.0
13.770000696182251,-6.83783994140625,0.12210428466796874,0.34715924072265625,-45.6793893129771,1.6488549618320612,22.702290076335878,-9.660603698730467,-1.0438719238281249,2.8012159423828122,-10.992366412213741,35.908396946564885,13.893129770992367,0.0
13.780000686645508,-4.015076184082031,-2.327164013671875,-1.1037269653320312,-39.038167938931295,10.061068702290076,25.740458015267176,-9.169792358398437,-0.296881005859375,1.3742717529296875,-14.091603053435115,29.709923664122137,11.618320610687023,0.0
13.790000915527344,-3.356670727539062,-3.6272155151367187,-1.218648645019531,-19.358778625954198,31.450381679389313,22.595419847328245,-10.096348400878906,-2.4444798950195312,1.5155296508789062,-15.312977099236642,28.82442748091603,13.17557251908397,0.0
13.800000667572021,-5.734112976074218,0.7876923461914062,1.22583125,-37.55725190839695,39.87786259541985,11.572519083969466,-10.031704956054687,-1.7429788085937499,1.446097802734375,-11.251908396946565,25.709923664122137,12.67175572519084,0.0
13.811278820037842,-5.9591679321289055,-0.0143652099609375,1.8339584716796873,-58.2442748091603,38.93129770992366,9.022900763358779,-10.022128149414062,-1.3646949462890625,1.1875240234375,-11.633587786259541,21.84732824427481,12.80916030534351,0.0
13.820000410079956,-5.2816088623046875,-2.760514514160156,2.281674182128906,-53.770992366412216,46.01526717557252,10.549618320610687,-10.484209069824217,-1.47482822265625,0.9265560424804687,-9.786259541984732,20.83969465648855,13.908396946564885,0.0
13.830000877380371,-5.868188269042968,-3.2225954345703123,3.4524387939453125,-40.534351145038165,54.6412213740458,8.50381679389313,-10.292672937011718,-2.0374656127929685,1.7166425903320313,-5.0534351145038165,20.580152671755727,13.84732824427481,0.0
13.840000629425049,-6.58884296875,-2.8993782104492185,4.709394665527343,-26.564885496183205,61.89312977099237,4.33587786259542,-10.694898815917968,-2.463633508300781,1.7238251953125,3.068702290076336,20.931297709923665,14.80916030534351,0.0
13.850000619888306,-7.369352709960937,-2.2170307373046874,6.234501123046875,-10.183206106870228,67.32824427480917,1.786259541984733,-9.804255798339844,-1.9416975463867185,1.5155296508789062,8.595419847328245,18.99236641221374,14.305343511450381,0.0
13.860000610351562,-8.805873706054687,-1.9488801513671874,7.831433630371094,1.7099236641221374,67.78625954198473,1.633587786259542,-9.801861596679688,-2.0829554443359375,1.4221557861328125,14.396946564885496,19.34351145038168,15.251908396946565,0.0
13.87000060081482,-9.208099584960937,-1.1707646118164061,9.138667736816405,15.068702290076336,65.6030534351145,1.6946564885496183,-9.062053283691405,-1.8626888916015625,1.1180921752929687,17.480916030534353,18.641221374045802,15.694656488549619,0.0
13.880000352859497,-9.995791931152343,0.5506663818359374,9.476250170898437,21.49618320610687,57.87786259541985,4.0,-9.471461767578125,-2.3726538452148436,1.2282254516601563,22.641221374045802,20.564885496183205,16.137404580152673,0.0
13.890000343322754,-10.836156713867187,1.4867992309570313,9.6151138671875,24.12213740458015,51.05343511450382,7.572519083969466,-8.99501563720703,-1.9800047729492187,1.005564697265625,26.53435114503817,20.702290076335878,16.244274809160306,0.0
13.90000057220459,-11.056423266601563,2.482787121582031,9.318232861328125,19.267175572519083,38.80916030534351,11.664122137404581,-9.459490759277344,-2.080561242675781,1.0079588989257813,30.80916030534351,22.35114503816794,17.34351145038168,0.0
13.910000324249268,-11.67652149658203,2.789244934082031,9.483432775878907,9.541984732824428,29.206106870229007,14.946564885496183,-9.284714038085937,-1.197100830078125,0.8571241943359375,31.389312977099237,22.68702290076336,17.297709923664122,0.0
13.920000791549683,-10.24718310546875,0.9720458740234375,7.613561279296874,-5.099236641221374,12.213740458015268,18.30534351145038,-9.82580361328125,-1.1563994018554686,1.3575123413085937,32.06106870229008,24.671755725190838,18.564885496183205,0.0
13.93000054359436,-9.445125549316407,1.1085153686523437,7.848193041992187,-5.419847328244275,6.9465648854961835,19.709923664122137,-9.150638745117186,-0.15322890625,1.189918225097656,26.30534351145038,25.00763358778626,18.68702290076336,0.0
13.940000295639038,-8.566453540039062,-1.1228805786132812,5.224148022460938,2.0,1.7099236641221374,24.48854961832061,-8.353369592285155,1.0749965454101562,0.6512228515624999,15.816793893129772,24.03053435114504,18.16793893129771,0.0
13.950000524520874,-8.872911352539061,-0.852335791015625,3.976768957519531,16.458015267175572,7.175572519083969,25.603053435114504,-10.627861169433594,-1.5131354492187499,2.786850732421875,11.34351145038168,30.50381679389313,23.770992366412212,0.0
13.96000051498413,-10.249577307128906,-0.14125789794921875,2.7437551025390623,13.86259541984733,6.1679389312977095,23.00763358778626,-10.398017810058594,-0.74699091796875,1.687912170410156,12.15267175572519,21.96946564885496,23.480916030534353,0.0
13.970000505447388,-12.00213292236328,0.9720458740234375,2.224213342285156,9.572519083969466,10.13740458015267,24.48854961832061,-9.236830004882812,1.3670891479492187,0.737414111328125,-9.16030534351145,18.625954198473284,21.267175572519083,0.0
13.980000495910645,-12.9861498046875,1.465251416015625,3.1387983764648437,-10.244274809160306,11.86259541984733,25.17557251908397,-9.991003527832031,2.540247961425781,0.00239420166015625,-35.404580152671755,21.404580152671755,23.389312977099237,0.0
13.990000486373901,-12.780248461914061,-0.5482721801757812,4.838681555175781,-22.610687022900763,8.80916030534351,24.0,-11.271901416015623,0.8092401611328125,1.0390835205078124,-49.93893129770992,30.366412213740457,30.763358778625953,0.0
14.000000238418579,-12.488155859374999,-1.1252747802734375,5.664681127929687,-23.34351145038168,5.358778625954199,21.51145038167939,-9.509768994140625,-0.9097966308593749,1.0223241088867188,-51.00763358778626,23.17557251908397,28.977099236641223,0.0
14.010005235671997,-10.333374365234375,-1.3000515014648437,3.81156904296875,-13.740458015267176,5.1603053435114505,19.938931297709924,-10.378864196777343,-0.5434837768554687,1.1923124267578125,-44.79389312977099,14.122137404580153,24.580152671755727,0.0
14.020000696182251,-8.90643017578125,0.0909796630859375,1.9009961181640624,-7.572519083969466,8.351145038167939,15.374045801526718,-12.492944262695312,-1.9871873779296874,2.001552587890625,-36.87022900763359,9.312977099236642,23.480916030534353,0.0
14.030000925064087,-7.8553756469726554,1.1420341918945311,0.2609679809570312,-10.0,10.946564885496183,9.664122137404581,-11.348515869140625,-0.16759411621093748,1.3263877197265623,-34.732824427480914,-4.534351145038168,17.64885496183206,0.0
14.040000677108765,-7.711723547363281,1.8650830932617186,-0.93852705078125,-21.908396946564885,11.923664122137405,4.625954198473282,-12.282254516601562,-0.12210428466796874,1.1707646118164061,-37.282442748091604,-10.488549618320612,18.412213740458014,0.0
14.050000667572021,-7.580042456054687,1.484405029296875,-1.5490484741210937,-35.70992366412214,16.564885496183205,1.8778625954198473,-11.69567510986328,2.262520568847656,-0.16759411621093748,-43.3587786259542,-21.221374045801525,16.595419847328245,0.0
14.060000658035278,-7.144297753906249,-0.1484405029296875,-1.6328455322265625,-30.671755725190838,27.786259541984734,0.5343511450381679,-12.564770312499999,1.1013327636718748,1.3048399047851562,-51.02290076335878,-21.267175572519083,20.47328244274809,0.0
14.070000886917114,-7.64229169921875,-0.9911994873046874,-1.7381904052734374,-20.99236641221374,39.9236641221374,-1.9694656488549618,-13.759476940917969,0.6440402465820312,1.3383587280273437,-38.48854961832061,-30.885496183206108,18.65648854961832,0.0
14.080000638961792,-8.312668164062499,0.6272808349609375,-1.2761094848632812,-11.893129770992367,49.05343511450382,-5.343511450381679,-13.374010473632811,1.5825672973632812,0.9433154541015625,-36.656488549618324,-42.2442748091603,14.229007633587786,0.0
14.090000629425049,-8.611943371582031,0.948103857421875,-1.0486603271484374,-9.709923664122137,54.33587786259542,-3.7251908396946565,-12.428300817871094,4.043806604003906,0.2825157958984375,-50.48854961832061,-46.76335877862596,10.992366412213741,0.0
14.100000381469727,-9.356540087890625,2.4851813232421875,0.3447650390625,-5.770992366412214,61.221374045801525,-1.2213740458015268,-11.247959399414063,2.5546131713867184,0.411802685546875,-68.70229007633588,-46.045801526717554,11.541984732824428,0.0
14.110000610351562,-10.649408984374999,3.1699229980468746,1.139639990234375,-11.404580152671755,61.05343511450382,0.22900763358778625,-13.084312072753905,0.97683427734375,1.7932570434570312,-60.80916030534351,-44.97709923664122,15.145038167938932,0.0
14.12000060081482,-11.14022032470703,3.3638533325195312,1.0702081420898437,-16.458015267175572,58.10687022900763,1.9389312977099236,-12.48097325439453,-0.18914193115234373,2.020706201171875,-45.20610687022901,-54.36641221374046,14.82442748091603,0.0
14.130000591278076,-10.101136804199218,1.4317325927734375,0.33039982910156246,-19.87786259541985,52.88549618320611,4.702290076335878,-11.394005700683593,1.2306196533203124,1.6807295654296874,-37.32824427480916,-63.465648854961835,11.648854961832061,0.0
14.140000820159912,-9.449913952636718,1.4245499877929686,0.10295067138671875,-19.938931297709924,53.51145038167939,5.190839694656488,-9.897629663085937,3.0142998901367184,1.2832920898437499,-47.770992366412216,-64.22900763358778,10.290076335877863,0.0
14.15000057220459,-10.251971508789062,1.8339584716796873,0.45010991210937495,-29.480916030534353,50.68702290076336,3.984732824427481,-10.156203442382813,0.13168109130859373,1.7429788085937499,-49.969465648854964,-59.55725190839695,11.648854961832061,0.0
14.160000801086426,-9.07163009033203,-0.8667010009765624,-0.11013327636718749,-28.259541984732824,47.31297709923664,5.221374045801527,-10.31661495361328,0.3447650390625,0.8355763793945312,-36.87022900763359,-66.51908396946565,9.86259541984733,0.0
14.170000314712524,-8.731653454589843,-1.8650830932617186,-0.0526724365234375,-6.33587786259542,54.99236641221374,3.969465648854962,-9.821015209960937,2.01112939453125,1.0295067138671874,-39.64885496183206,-65.17557251908397,6.900763358778626,0.0
14.180000305175781,-9.962273107910155,-0.08140285644531249,0.9816226806640624,-5.709923664122138,55.48091603053435,-1.0687022900763359,-8.52335791015625,1.350329736328125,-0.21308394775390624,-43.31297709923664,-65.09923664122137,3.49618320610687,0.0
14.190000534057617,-9.883264453125,0.3711012573242187,0.7948749511718749,-6.961832061068702,52.47328244274809,-2.5801526717557253,-9.82580361328125,0.2609679809570312,-0.10773907470703124,-36.83969465648855,-60.458015267175576,4.198473282442748,0.0
14.200000524520874,-9.478644372558593,-0.35673604736328124,0.5602431884765625,-1.1145038167938932,52.412213740458014,-2.6259541984732824,-9.069235888671875,1.3623007446289062,0.258573779296875,-33.05343511450382,-59.81679389312977,0.7633587786259542,0.0
14.210000276565552,-9.854534033203125,0.9504980590820312,1.0558429321289062,0.22900763358778625,51.343511450381676,-3.8473282442748094,-9.076418493652342,0.34715924072265625,0.2657563842773437,-32.916030534351144,-56.99236641221374,-0.9465648854961832,0.0
14.220000505447388,-10.271125122070313,1.9393033447265624,1.3407529296874998,-5.648854961832061,47.770992366412216,-4.732824427480916,-8.990227233886719,-0.5027823486328125,0.28969840087890625,-24.99236641221374,-56.778625954198475,-1.1603053435114503,0.0
14.230000257492065,-9.904812268066406,1.4628572143554686,0.4525041137695312,-11.648854961832061,42.33587786259542,-2.5801526717557253,-10.014945544433592,-0.2657563842773437,0.565031591796875,-12.0,-58.2442748091603,-1.5877862595419847,0.0
14.240000247955322,-9.624690673828125,1.1875240234375,0.6679822631835937,-10.687022900763358,39.66412213740458,0.366412213740458,-8.355763793945313,0.9026140258789062,0.08379705810546874,-17.96946564885496,-57.3587786259542,-4.320610687022901,0.0
14.250000476837158,-10.287884533691406,0.9433154541015625,0.5674257934570313,-14.610687022900763,40.12213740458015,0.6106870229007634,-8.892064965820312,-0.7996633544921875,0.2346317626953125,-15.770992366412214,-50.56488549618321,-2.6106870229007635,0.0
14.260000705718994,-10.12507882080078,-0.2825157958984375,0.5051765502929687,-13.389312977099237,37.05343511450382,0.5801526717557252,-9.811438403320311,-0.6584054565429687,-0.11731588134765625,2.854961832061069,-51.64885496183206,-1.5572519083969465,0.0
14.27000093460083,-10.314220751953124,1.6472107421875,1.22583125,-11.587786259541986,38.06106870229008,-1.7404580152671756,-9.425971936035156,1.139639990234375,0.06703764648437499,4.1679389312977095,-48.732824427480914,-3.312977099236641,0.0
14.280000686645508,-12.16254443359375,3.6559459350585937,1.9488801513671874,-28.076335877862597,33.31297709923664,-2.381679389312977,-8.595183959960938,1.917755529785156,-0.9193734375,-8.0,-40.68702290076336,-4.290076335877862,0.0
14.290000915527344,-9.203311181640624,-0.7517793212890624,0.44053310546874996,-27.587786259541986,25.72519083969466,3.4656488549618323,-9.5001921875,-0.20829554443359374,-0.5027823486328125,-6.519083969465649,-33.3587786259542,-2.4885496183206106,0.0
14.300000667572021,-9.823409411621093,0.8906430175781249,0.8355763793945312,-14.778625954198473,28.290076335877863,1.984732824427481,-10.826579907226561,-0.44053310546874996,0.3232172241210937,10.595419847328245,-31.893129770992367,-3.099236641221374,0.0
14.310000658035278,-10.651803186035156,2.750937707519531,1.4867992309570313,-28.03053435114504,22.045801526717558,-0.15267175572519084,-8.688557824707031,1.4508862060546874,-0.7206546997070312,11.633587786259541,-36.29007633587786,-9.267175572519085,0.0
14.320000648498535,-9.598354455566406,1.4221557861328125,0.93852705078125,-25.83206106870229,21.954198473282442,4.1679389312977095,-8.037334973144532,2.5330653564453125,0.08379705810546874,-6.580152671755725,-25.435114503816795,-10.030534351145038,0.0
14.330000638961792,-9.603142858886718,1.6208745239257811,1.2042834350585936,-28.427480916030536,20.30534351145038,5.450381679389313,-9.727641345214844,0.48123453369140623,0.26815058593749996,-13.114503816793894,-13.877862595419847,-7.66412213740458,0.0
14.34000039100647,-9.919177478027343,1.5418658691406248,1.448492004394531,-30.244274809160306,18.33587786259542,5.0534351145038165,-9.437942944335937,-0.00718260498046875,0.7637503295898437,-12.366412213740459,-10.290076335877863,-7.9541984732824424,0.0
14.350000381469727,-9.988609326171874,0.622492431640625,1.35990654296875,-27.938931297709924,16.259541984732824,6.091603053435114,-9.208099584960937,-1.1133037719726562,0.8451531860351562,1.618320610687023,-13.19083969465649,-9.740458015267176,0.0
14.360000610351562,-9.935936889648437,-0.07422025146484375,1.35990654296875,-21.557251908396946,15.83206106870229,5.6183206106870225,-10.24718310546875,-0.9409212524414062,1.0342951171875,15.969465648854962,-15.816793893129772,-11.801526717557252,0.0
14.37000060081482,-11.585541833496093,1.2904746948242187,2.2002713256835937,-18.564885496183205,15.877862595419847,4.1679389312977095,-10.211270080566406,-1.0319009155273438,1.39821376953125,25.61832061068702,-18.580152671755727,-13.98473282442748,0.0
14.380000829696655,-10.754753857421875,0.17477672119140625,1.7645266235351562,-19.083969465648856,11.267175572519085,5.709923664122138,-8.295908752441406,1.599326708984375,0.29927520751953124,27.6793893129771,-23.938931297709924,-17.19083969465649,0.0
14.390000343322754,-10.065223779296874,0.20829554443359374,1.599326708984375,-8.335877862595419,14.290076335877863,6.625954198473282,-7.9655089233398435,2.971204260253906,0.5913678100585937,11.19083969465649,-15.938931297709924,-17.72519083969466,0.0
14.400000810623169,-9.938331091308592,0.9241618408203125,1.5969325073242187,-14.229007633587786,11.938931297709924,5.862595419847328,-7.682993127441406,2.616862414550781,1.01514150390625,-5.419847328244275,-4.183206106870229,-13.648854961832061,0.0
14.410000562667847,-10.321403356933594,1.0390835205078124,1.5179238525390624,-18.99236641221374,9.16030534351145,5.847328244274809,-8.647856396484375,1.0319009155273438,1.6639701538085936,-1.9389312977099236,-0.42748091603053434,-7.908396946564886,0.0
14.420000791549683,-9.849745629882811,-0.07900865478515624,1.0582371337890624,-14.305343511450381,7.908396946564886,5.511450381679389,-8.722076647949219,1.5442600708007812,2.039859814453125,4.458015267175573,-2.2290076335877864,-6.412213740458015,0.0
14.43000054359436,-9.595960253906249,-0.39983167724609375,0.7829039428710937,-9.129770992366412,6.534351145038168,3.954198473282443,-8.968679418945312,1.3479355346679687,2.528276953125,4.183206106870229,-0.5648854961832062,-5.847328244274809,0.0
14.440000534057617,-9.93354268798828,-0.316034619140625,0.8858546142578124,-5.099236641221374,5.709923664122138,2.0610687022900764,-9.952696301269532,-0.7637503295898437,3.574543078613281,11.923664122137405,-0.6259541984732825,-2.2595419847328246,0.0
14.450000524520874,-9.789890588378906,-0.4740519287109375,0.8882488159179687,2.519083969465649,5.8320610687022905,0.7022900763358778,-10.108319409179687,0.1005564697265625,3.641580725097656,20.80916030534351,-6.290076335877862,-2.3969465648854964,0.0
14.46000051498413,-9.904812268066406,0.01915361328125,1.0893617553710937,8.122137404580153,5.541984732824427,-0.4122137404580153,-9.512163195800781,-0.6177040283203125,2.7437551025390623,24.47328244274809,-11.83206106870229,-1.3893129770992367,0.0
14.470000505447388,-9.945513696289062,0.03591302490234375,1.3407529296874998,10.625954198473282,4.977099236641221,-0.6564885496183206,-10.232817895507813,-0.5626373901367188,3.0741549316406247,37.81679389312977,-16.625954198473284,-1.1297709923664123,0.0
14.480000495910645,-9.91438907470703,0.5386953735351562,1.6065093139648436,15.17557251908397,3.9236641221374047,-1.9389312977099236,-9.749189160156249,0.6607996582031249,2.8203695556640622,40.54961832061068,-21.267175572519083,-3.145038167938931,0.0
14.490000486373901,-9.868899243164062,1.3575123413085937,1.8722656982421875,15.618320610687023,3.3282442748091605,-3.5877862595419847,-8.360552197265624,2.521094348144531,1.5849614990234373,25.297709923664122,-19.282442748091604,-6.732824427480916,0.0
14.500000476837158,-9.708487731933593,2.3032219970703123,1.9129671264648436,11.511450381679388,1.2366412213740459,-3.5419847328244276,-7.182604980468749,2.978386865234375,1.3838485595703125,-1.6488549618320612,-7.7251908396946565,-7.068702290076335,0.0
14.510000705718994,-10.141838232421874,2.748543505859375,1.4820108276367188,6.290076335877862,-1.5419847328244274,-2.732824427480916,-10.053252770996092,-0.4525041137695312,2.0470424194335934,0.9770992366412213,-2.4580152671755724,-3.282442748091603,0.0
14.520000696182251,-9.701305126953125,2.205059729003906,0.6584054565429687,5.801526717557252,-3.4656488549618323,-1.6030534351145038,-9.897629663085937,0.229843359375,2.906560815429687,7.374045801526718,-4.2748091603053435,-5.297709923664122,0.0
14.530000925064087,-9.749189160156249,1.9393033447265624,0.21787235107421873,4.916030534351145,-3.7099236641221376,-1.083969465648855,-9.751583361816406,0.32561142578124996,2.9664158569335934,7.404580152671755,-3.877862595419847,-7.3893129770992365,0.0
14.540000677108765,-9.528922607421874,1.7788918334960937,-0.13168109130859373,3.068702290076336,-2.854961832061069,-1.297709923664122,-9.94072529296875,0.02154781494140625,2.9281086303710935,7.0534351145038165,-4.351145038167939,-8.244274809160306,0.0
14.550000667572021,-9.41639512939453,1.5346832641601562,-0.46686932373046874,0.9770992366412213,-1.450381679389313,-1.4198473282442747,-9.739612353515625,-0.10295067138671875,2.920926025390625,7.694656488549619,-5.312977099236641,-9.526717557251908,0.0
14.5600004196167,-9.107543115234375,1.388636962890625,-0.45489831542968745,-0.42748091603053434,1.7404580152671756,-2.0,-9.6917283203125,-0.07422025146484375,2.8945898071289062,9.389312977099237,-5.908396946564886,-10.030534351145038,0.0
14.570000410079956,-8.901641772460938,2.5043349365234375,0.181959326171875,-12.381679389312977,0.8854961832061069,-4.106870229007634,-9.804255798339844,0.22505495605468748,2.798821740722656,10.442748091603054,-7.251908396946565,-10.641221374045802,0.0
14.580000638961792,-9.897629663085937,2.6288334228515624,0.22744915771484372,-20.85496183206107,0.015267175572519083,-3.236641221374046,-9.258377819824219,0.5913678100585937,2.7078420776367187,8.854961832061068,-7.450381679389313,-11.435114503816793,0.0
14.59000039100647,-6.459556079101562,-1.0295067138671874,-1.0630255371093749,-10.381679389312977,1.8473282442748091,0.0916030534351145,-9.356540087890625,0.4333505004882812,2.722207287597656,8.564885496183207,-7.893129770992366,-11.526717557251908,0.0
14.600000619888306,-10.390835205078124,2.6910826660156246,0.5434837768554687,-19.938931297709924,5.129770992366412,-3.7709923664122136,-9.5001921875,0.7254431030273437,2.8275521606445313,7.435114503816794,-8.122137404580153,-12.778625954198473,0.0
14.610000610351562,-9.713276135253906,1.2880804931640624,0.21068974609375,-21.19083969465649,3.0229007633587788,-1.1603053435114503,-9.442731347656249,0.5410895751953124,2.940079638671875,5.541984732824427,-7.572519083969466,-13.053435114503817,0.0
14.62000036239624,-9.718064538574218,1.120486376953125,0.3327940307617187,-21.251908396946565,3.7404580152671754,-1.3740458015267176,-9.567229833984374,0.584185205078125,2.748543505859375,3.572519083969466,-7.923664122137405,-13.49618320610687,0.0
14.630000591278076,-9.576806640625,0.7637503295898437,0.3447650390625,-18.137404580152673,4.885496183206107,-2.0610687022900764,-9.509768994140625,0.6823474731445313,2.91134921875,1.8473282442748091,-7.587786259541985,-13.954198473282442,0.0
14.640000343322754,-9.481038574218749,0.6464344482421874,0.3711012573242187,-17.49618320610687,5.083969465648855,-2.687022900763359,-9.550470422363281,0.6751648681640625,2.9855694702148434,-0.33587786259541985,-7.206106870229007,-14.335877862595419,0.0
14.65000057220459,-9.87608184814453,0.967257470703125,0.63206923828125,-16.732824427480917,5.1603053435114505,-3.282442748091603,-9.1554271484375,0.967257470703125,2.959233251953125,-4.1679389312977095,-7.66412213740458,-14.900763358778626,0.0
14.660000801086426,-9.83777462158203,1.0031704956054688,0.6727706665039062,-14.717557251908397,5.572519083969466,-3.572519083969466,-9.045293872070312,0.9217676391601562,2.89219560546875,-6.564885496183206,-7.587786259541985,-15.267175572519085,0.0
14.670000553131104,-9.579200842285156,0.8595183959960937,0.6560112548828124,-13.053435114503817,5.511450381679389,-3.633587786259542,-9.129090930175781,0.7565677246093749,2.81558115234375,-8.061068702290076,-7.099236641221374,-14.931297709923664,0.0
14.680000305175781,-9.94072529296875,1.0319009155273438,0.9026140258789062,-13.709923664122137,4.259541984732825,-4.1679389312977095,-8.853757739257812,0.8379705810546875,2.7557261108398436,-10.473282442748092,-6.916030534351145,-14.946564885496183,0.0
14.690000295639038,-9.8449572265625,0.7637503295898437,0.8164227661132812,-12.412213740458014,3.969465648854962,-4.137404580152672,-8.99501563720703,0.5291185668945312,2.664746447753906,-10.900763358778626,-6.442748091603053,-14.763358778625955,0.0
14.700000524520874,-9.981426721191406,0.8547299926757812,0.9409212524414062,-12.091603053435115,4.091603053435114,-3.816793893129771,-8.966285217285156,0.48123453369140623,2.5761609863281247,-11.633587786259541,-6.091603053435114,-14.351145038167939,0.0
14.71000051498413,-9.746794958496093,0.6847416748046875,0.82360537109375,-11.679389312977099,3.877862595419847,-4.137404580152672,-8.710105639648438,0.28730419921875,2.4061726684570313,-10.977099236641221,-5.1603053435114505,-14.50381679389313,0.0
14.720000505447388,-9.718064538574218,0.74699091796875,0.7254431030273437,-10.702290076335878,3.969465648854962,-3.954198473282443,-8.80347950439453,0.08858546142578125,2.3032219970703123,-9.969465648854962,-4.091603053435114,-14.106870229007633,0.0
14.730000495910645,-9.804255798339844,0.8355763793945312,0.8451531860351562,-10.51908396946565,4.305343511450381,-4.351145038167939,-8.698134631347656,-0.08140285644531249,2.1452046874999997,-8.335877862595419,-3.1603053435114505,-13.465648854961833,0.0
14.740000486373901,-9.433154541015625,0.19393033447265623,0.51714755859375,-7.908396946564886,4.595419847328245,-3.66412213740458,-8.607154968261717,-0.13646949462890623,2.128445275878906,-4.6106870229007635,-2.564885496183206,-13.251908396946565,0.0
14.750000476837158,-8.506598498535157,-0.8762778076171874,0.36631285400390623,7.00763358778626,12.0,-4.366412213740458,-8.52335791015625,-0.1149216796875,2.061407629394531,-1.1450381679389312,-1.3129770992366412,-12.793893129770993,0.0
14.760000705718994,-10.64222637939453,1.20667763671875,0.7206546997070312,7.465648854961832,16.458015267175572,-8.106870229007633,-8.621520178222656,-0.239420166015625,2.1691467041015624,1.0687022900763359,-0.13740458015267176,-12.442748091603054,0.0
14.77000093460083,-9.923965881347655,1.2569558715820313,0.13407529296874998,2.687022900763359,12.244274809160306,-7.679389312977099,-8.796296899414061,-0.316034619140625,2.2361843505859373,4.442748091603053,1.3893129770992367,-11.618320610687023,0.0
14.780000448226929,-7.864952453613281,0.2609679809570312,-0.488417138671875,2.3053435114503817,13.038167938931299,-5.755725190839694,-8.652644799804687,-0.2657563842773437,2.099714855957031,7.770992366412214,1.083969465648855,-11.038167938931299,0.0
