timestamp,Thigh_L_Acc_X,Thigh_L_Acc_Y,Thigh_L_Acc_Z,Thigh_L_Gyr_X,Thigh_L_Gyr_Y,Thigh_L_Gyr_Z,Thigh_R_Acc_X,Thigh_R_Acc_Y,Thigh_R_Acc_Z,Thigh_R_Gyr_X,Thigh_R_Gyr_Y,Thigh_R_Gyr_Z,gpio_output
10.000000715255737,-8.350975390624999,3.737348791503906,-2.463633508300781,-14.229007633587786,15.633587786259541,-5.816793893129771,-12.603077539062499,0.3447650390625,2.1619640991210938,16.244274809160306,15.114503816793894,0.2748091603053435,0.0
10.010000705718994,-8.343792785644531,2.5426421630859375,-1.927332336425781,-18.931297709923665,28.610687022900763,-2.687022900763359,-12.109871997070313,-0.5410895751953124,3.4859576171874997,11.633587786259541,15.022900763358779,1.0229007633587786,1.0
10.020000696182251,-8.480262280273436,1.6807295654296874,-2.0087351928710935,-17.419847328244273,36.88549618320611,-1.9541984732824427,-10.912771166992187,0.076614453125,3.3159692993164063,14.259541984732824,5.7251908396946565,-0.8091603053435115,1.0
10.030000925064087,-9.179369165039063,1.8650830932617186,-1.5897499023437498,-13.709923664122137,46.87022900763359,-0.7938931297709924,-9.854534033203125,1.22583125,3.265691064453125,7.6183206106870225,-0.33587786259541985,-2.885496183206107,1.0
10.040000677108765,-9.485826977539062,1.6639701538085936,-0.41898529052734373,-14.13740458015267,54.56488549618321,1.1908396946564885,-9.291896643066405,1.6208745239257811,3.6439749267578123,-4.137404580152672,-0.07633587786259542,-1.6946564885496183,1.0
10.0500009059906,-9.89523546142578,1.16837041015625,0.1197100830078125,-13.679389312977099,58.58015267175573,2.900763358778626,-9.220070593261719,1.7357962036132812,3.411737365722656,-9.877862595419847,-2.366412213740458,1.3587786259541985,1.0
10.060000896453857,-10.93671318359375,0.8188169677734375,0.8954314208984374,-16.091603053435115,57.89312977099237,2.9160305343511452,-9.70369932861328,1.5490484741210937,3.763685009765625,-12.778625954198473,-4.137404580152672,4.580152671755725,1.0
10.070001125335693,-10.311826550292968,-0.181959326171875,1.4987702392578124,-15.297709923664122,55.41984732824427,2.9160305343511452,-9.457096557617186,1.9800047729492187,3.268085266113281,-18.442748091603054,-7.038167938931298,6.305343511450381,1.0
10.080000400543213,-11.135431921386719,0.086191259765625,1.8722656982421875,-18.9618320610687,48.68702290076336,0.8396946564885496,-9.90241806640625,1.1947066284179686,3.399766357421875,-21.633587786259543,-6.748091603053435,7.893129770992366,1.0
10.09000039100647,-11.475408557128906,-0.833182177734375,2.2194249389648437,-21.66412213740458,42.74809160305343,-1.8931297709923665,-10.295067138671874,0.7805097412109374,3.5122938354492184,-18.671755725190838,-9.267175572519085,9.145038167938932,1.0
10.100000619888306,-12.366051574707031,1.1947066284179686,2.3870190551757813,-25.114503816793892,36.62595419847328,-6.488549618320611,-10.110713610839843,1.1109095703125,2.77727392578125,-14.625954198473282,-13.908396946564885,8.564885496183207,1.0
10.110000610351562,-12.140996618652343,2.138022082519531,1.7717092285156248,-36.961832061068705,24.076335877862597,-7.770992366412214,-8.975862023925782,1.0079588989257813,3.114856359863281,-7.6183206106870225,-19.633587786259543,8.213740458015268,1.0
10.12000060081482,-10.735600244140624,1.7190367919921874,1.4508862060546874,-34.13740458015267,23.893129770992367,-7.312977099236641,-10.488997473144531,0.8092401611328125,4.2329485351562495,-11.786259541984732,-16.290076335877863,9.938931297709924,1.0
10.130000591278076,-10.034099157714843,1.7788918334960937,0.6296750366210937,-44.10687022900763,15.633587786259541,-5.572519083969466,-10.867281335449219,-0.2561795776367187,3.689464758300781,-3.984732824427481,-19.984732824427482,11.816793893129772,1.0
10.140000581741333,-9.093177905273437,0.16280571289062498,0.5578489868164063,-36.38167938931298,14.610687022900763,-3.145038167938931,-10.242394702148436,0.20829554443359374,3.3446997192382812,1.297709923664122,-28.641221374045802,11.129770992366412,1.0
10.15000057220459,-8.487444885253906,0.21787235107421873,0.7326257080078125,-26.595419847328245,16.732824427480917,-1.5419847328244274,-8.729259252929687,3.641580725097656,1.7310078002929687,-16.442748091603054,-28.977099236641223,8.320610687022901,1.0
10.160000562667847,-8.690952026367187,0.8595183959960937,1.0797849487304687,-22.259541984732824,16.80916030534351,-0.5038167938931297,-8.022969763183593,2.9041666137695312,1.0821791503906248,-38.30534351145038,-19.374045801526716,12.15267175572519,1.0
10.170307636260986,-8.973467822265624,0.40462008056640625,1.0965443603515623,-17.740458015267176,15.32824427480916,1.1297709923664123,-9.622296472167967,0.5099649536132812,1.8411410766601561,-38.79389312977099,-11.19083969465649,18.18320610687023,1.0
10.18000078201294,-8.908824377441405,-1.0582371337890624,0.42377369384765623,-0.6870229007633588,14.885496183206106,3.6030534351145036,-8.913612780761719,0.7158662963867187,2.0470424194335934,-40.56488549618321,-11.251908396946565,16.641221374045802,1.0
10.190000534057617,-10.376469995117187,0.7613561279296874,0.46208092041015625,15.618320610687023,18.9618320610687,2.8702290076335877,-9.433154541015625,-1.0079588989257813,2.221819140625,-37.52671755725191,-8.885496183206106,15.389312977099237,1.0
10.200000762939453,-10.68053360595703,0.7805097412109374,0.3112462158203125,26.16793893129771,23.66412213740458,3.435114503816794,-9.591171850585937,-1.5107412475585937,2.3822306518554686,-30.48854961832061,-9.893129770992367,13.49618320610687,1.0
10.21000051498413,-11.180921752929686,1.6735469604492186,-0.21787235107421873,25.84732824427481,22.076335877862597,3.1908396946564888,-9.672574707031249,-1.5275006591796874,2.446874096679687,-23.374045801526716,-11.038167938931299,10.931297709923664,0.0
10.220000505447388,-9.629479077148437,2.061407629394531,0.20350714111328125,19.51145038167939,19.984732824427482,2.854961832061069,-9.76116016845703,-1.2521674682617188,4.266467358398438,-4.198473282442748,-9.541984732824428,9.17557251908397,0.0
10.230000495910645,-9.435548742675781,0.5434837768554687,-0.5339069702148437,6.076335877862595,15.541984732824428,2.8702290076335877,-10.46984385986328,-3.9169139160156248,3.0693665283203124,14.549618320610687,-22.137404580152673,6.9465648854961835,0.0
10.240000247955322,-10.259154113769531,1.5370774658203123,0.4285620971679687,3.435114503816794,15.557251908396946,-0.07633587786259542,-10.398017810058594,-2.2290017456054687,2.8275521606445313,30.045801526717558,-30.396946564885496,3.3587786259541983,0.0
10.250000476837158,-10.242394702148436,2.3822306518554686,1.4101847778320311,0.6106870229007634,18.38167938931298,-1.7099236641221374,-8.978256225585938,1.3144167114257812,1.6017209106445311,21.099236641221374,-32.54961832061068,-3.5572519083969465,0.0
10.260000467300415,-9.81862100830078,2.2457611572265623,1.4101847778320311,-14.961832061068701,11.572519083969466,-1.0687022900763359,-7.848193041992187,1.8291700683593748,1.2042834350585936,-4.015267175572519,-21.862595419847327,-3.7099236641221376,0.0
10.270000696182251,-9.629479077148437,1.3575123413085937,1.6543933471679686,-13.129770992366412,12.458015267175572,-0.22900763358778625,-9.102754711914063,-0.0718260498046875,2.2864625854492187,-8.702290076335878,-12.534351145038167,1.0381679389312977,0.0
10.280000448226929,-10.32379755859375,1.13006318359375,1.3479355346679687,-12.946564885496183,9.404580152671755,-1.0687022900763359,-10.223241088867187,-0.9026140258789062,2.8658593872070313,2.595419847328244,-11.725190839694656,1.4351145038167938,0.0
10.290000915527344,-10.189722265624999,0.3711012573242187,0.5889736083984375,-4.183206106870229,8.244274809160306,-1.5419847328244274,-10.398017810058594,-0.9552864624023437,2.375048046875,7.099236641221374,-13.374045801526718,-1.6030534351145038,0.0
10.300000429153442,-10.472238061523436,0.8212111694335937,0.2657563842773437,0.16793893129770993,8.106870229007633,-1.4198473282442747,-10.158597644042969,-0.49799394531249996,2.999934680175781,14.488549618320612,-12.442748091603054,-4.2748091603053435,0.0
10.310000896453857,-9.524134204101562,0.3758896606445312,-0.32082302246093747,5.236641221374046,9.404580152671755,-0.8091603053435115,-9.17458076171875,0.3184288208007812,1.7022773803710936,11.83206106870229,-16.213740458015266,-6.6106870229007635,0.0
10.320000410079956,-9.504980590820312,1.177947216796875,-0.143652099609375,4.244274809160306,11.297709923664122,-1.2366412213740459,-8.611943371582031,0.7661445312499999,2.73896669921875,2.946564885496183,-8.473282442748092,-5.694656488549619,0.0
10.330000877380371,-9.883264453125,1.9895815795898437,0.12449848632812499,-1.5725190839694656,11.312977099236642,-1.1145038167938932,-7.639897497558593,1.4628572143554686,2.0470424194335934,-7.679389312977099,-5.358778625954199,-5.8320610687022905,0.0
10.34000039100647,-10.05564697265625,1.7812860351562498,0.39264907226562495,-4.442748091603053,11.450381679389313,-0.061068702290076333,-9.0788126953125,-0.2561795776367187,1.7836802368164062,-5.221374045801527,-0.6564885496183206,-2.4122137404580153,0.0
10.350000381469727,-9.765948571777344,1.2425906616210938,0.3854664672851562,-4.854961832061068,11.19083969465649,0.3053435114503817,-9.241618408203124,-0.2059013427734375,2.061407629394531,-2.198473282442748,-0.1984732824427481,-3.786259541984733,0.0
10.360000610351562,-10.28549033203125,1.6543933471679686,0.51714755859375,-5.435114503816794,10.870229007633588,0.21374045801526717,-9.239224206542968,-0.3758896606445312,2.291250988769531,-0.061068702290076333,1.0534351145038168,-5.099236641221374,0.0
10.37000060081482,-9.504980590820312,0.41419688720703124,0.3591302490234375,-1.7557251908396947,10.961832061068701,1.786259541984733,-9.30147344970703,-0.3758896606445312,2.2553379638671873,1.6793893129770991,1.3435114503816794,-5.923664122137405,0.0
10.380000591278076,-9.447519750976562,0.7900865478515624,0.28730419921875,4.732824427480916,12.80916030534351,1.5419847328244274,-9.739612353515625,-0.9265560424804687,2.47081611328125,5.633587786259542,2.0916030534351147,-5.312977099236641,0.0
10.390000581741333,-9.215282189941405,0.9959878906249999,0.28969840087890625,6.717557251908397,13.389312977099237,0.8702290076335878,-8.961496813964843,0.16519991455078123,2.5139117431640625,10.106870229007633,-2.3206106870229006,-7.877862595419847,0.0
10.40000033378601,-9.598354455566406,1.7310078002929687,0.5865794067382812,7.175572519083969,13.633587786259541,-0.12213740458015267,-8.712499841308594,0.6464344482421874,1.3192051147460937,10.625954198473282,-5.083969465648855,-9.251908396946565,0.0
10.410000562667847,-9.488221179199218,1.9776105712890624,0.8547299926757812,4.33587786259542,13.755725190839694,-0.015267175572519083,-8.904035974121093,0.8068459594726562,1.4628572143554686,8.549618320610687,-4.152671755725191,-8.50381679389313,0.0
10.420000791549683,-10.129867224121092,2.940079638671875,1.3431471313476562,-2.3053435114503817,12.717557251908397,-0.015267175572519083,-9.7683427734375,-0.20829554443359374,1.7477672119140624,13.114503816793894,-3.1755725190839694,-6.916030534351145,0.0
10.430000305175781,-9.552864624023437,1.3287819213867187,0.8379705810546875,-12.610687022900763,7.221374045801527,1.7709923664122138,-10.836156713867187,-0.19153613281249998,4.031835595703125,19.404580152671755,-2.2290076335877864,-6.6106870229007635,0.0
10.440000534057617,-9.138667736816405,0.15322890625,0.9959878906249999,-2.9770992366412212,10.763358778625955,0.3511450381679389,-10.053252770996092,0.21787235107421873,3.766079211425781,24.427480916030536,-7.480916030534351,-8.534351145038167,0.0
10.450000524520874,-10.663774194335938,2.8850130004882812,1.8291700683593748,-12.198473282442748,11.267175572519085,-4.442748091603053,-8.705317236328124,2.4253262817382812,2.221819140625,16.366412213740457,-12.030534351145038,-11.633587786259541,0.0
10.46000051498413,-9.390058911132812,0.4836287353515625,1.3215993164062498,-18.0,7.66412213740458,-2.198473282442748,-7.055712292480468,3.6008792968749996,2.269703173828125,-5.282442748091603,-7.083969465648855,-11.206106870229007,0.0
10.470000267028809,-9.861716638183593,1.180341418457031,1.3934253662109375,-13.083969465648854,10.442748091603054,-3.5419847328244276,-9.603142858886718,0.45010991210937495,3.210624426269531,-11.587786259541986,2.0763358778625953,-3.5114503816793894,0.0
10.480000495910645,-10.359710583496094,1.6041151123046875,1.5322890624999999,-18.549618320610687,7.648854961832061,-4.656488549618321,-9.090783703613281,1.3910311645507811,3.689464758300781,-10.82442748091603,0.10687022900763359,-2.8091603053435112,0.0
10.490000486373901,-9.950302099609374,1.0438719238281249,1.1276689819335937,-16.48854961832061,5.923664122137405,-3.114503816793893,-8.913612780761719,0.9600748657226562,3.4452561889648434,-14.13740458015267,0.3969465648854962,-2.6412213740458017,0.0
10.500000476837158,-9.718064538574218,0.9600748657226562,0.9457096557617187,-14.01526717557252,5.862595419847328,-1.816793893129771,-8.520963708496094,0.8595183959960937,3.3303345092773435,-17.374045801526716,0.7786259541984732,-1.633587786259542,0.0
10.510000705718994,-9.390058911132812,1.0007762939453124,0.5865794067382812,-11.755725190839694,6.305343511450381,-2.1068702290076335,-8.511386901855468,0.948103857421875,3.0597897216796874,-18.549618320610687,0.2748091603053435,1.0381679389312977,0.0
10.520000457763672,-9.552864624023437,2.0374656127929685,0.8595183959960937,-13.022900763358779,7.175572519083969,-2.4732824427480917,-8.532934716796875,1.0175357055664063,3.3399113159179685,-22.061068702290076,0.48854961832061067,2.595419847328244,0.0
10.530000925064087,-9.744400756835937,2.0733786376953125,0.44532150878906246,-24.03053435114504,1.2061068702290076,-0.9465648854961832,-8.56166513671875,0.7972691528320313,2.978386865234375,-24.076335877862597,0.8702290076335878,5.358778625954199,0.0
10.540000438690186,-9.457096557617186,0.967257470703125,0.4525041137695312,-20.259541984732824,3.3740458015267176,0.5954198473282443,-8.458714465332031,0.41898529052734373,2.916137622070312,-26.091603053435115,1.6793893129770991,6.366412213740458,0.0
10.5500009059906,-9.131485131835937,0.9145850341796874,0.6153098266601562,-21.755725190839694,3.3740458015267176,-0.21374045801526717,-8.762778076171875,-0.201112939453125,2.980781066894531,-24.85496183206107,1.465648854961832,7.267175572519084,0.0
10.560000896453857,-8.875305554199219,-0.34237083740234375,0.1771709228515625,-14.885496183206106,4.931297709923665,0.15267175572519084,-8.705317236328124,-0.2537853759765625,2.959233251953125,-24.03053435114504,2.0916030534351147,6.916030534351145,0.0
10.570000886917114,-9.167398156738281,0.062249243164062495,0.34715924072265625,-7.038167938931298,10.381679389312977,-2.3206106870229006,-8.930372192382812,-0.5099649536132812,3.23696064453125,-20.732824427480917,2.8396946564885495,6.1679389312977095,0.0
10.580000400543213,-10.271125122070313,1.7764976318359373,0.7876923461914062,-14.51908396946565,8.931297709923664,-5.343511450381679,-8.645462194824217,-0.3232172241210937,2.6479870361328124,-19.84732824427481,1.7404580152671756,4.8396946564885495,0.0
10.590000629425049,-9.765948571777344,0.8810662109374999,0.93852705078125,-13.954198473282442,8.732824427480915,-4.8396946564885495,-9.485826977539062,-1.0630255371093749,3.0262708984374997,-17.786259541984734,4.106870229007634,5.145038167938932,0.0
10.600000619888306,-9.648632690429688,1.0007762939453124,1.0199299072265624,-13.587786259541986,8.396946564885496,-5.984732824427481,-9.306261853027344,-0.9265560424804687,3.0741549316406247,-15.450381679389313,4.229007633587786,3.312977099236641,0.0
10.610000610351562,-9.983820922851562,1.637633935546875,1.0821791503906248,-13.618320610687023,7.358778625954199,-7.00763358778626,-9.198522778320312,-0.9409212524414062,3.2800562744140622,-13.572519083969466,4.961832061068702,1.6946564885496183,0.0
10.62000060081482,-10.012551342773437,1.6112977172851561,1.235408056640625,-12.229007633587786,7.221374045801527,-6.977099236641221,-9.006986645507812,-1.1875240234375,2.683900061035156,-12.244274809160306,4.641221374045801,0.732824427480916,0.0
10.630000591278076,-9.665392102050781,1.70467158203125,1.438915197753906,-10.13740458015267,6.33587786259542,-6.33587786259542,-8.741230261230468,-0.9097966308593749,2.5665841796874997,-8.290076335877863,5.32824427480916,-0.1984732824427481,0.0
10.640000343322754,-9.758765966796874,1.9847931762695312,1.5298948608398437,-9.98473282442748,5.267175572519084,-5.694656488549619,-8.499415893554687,-1.1013327636718748,2.616862414550781,-7.557251908396947,6.641221374045801,-1.8931297709923665,0.0
10.65000057220459,-9.483432775878907,1.3958195678710936,1.6232687255859375,-10.67175572519084,3.572519083969466,-5.984732824427481,-8.621520178222656,-1.2593500732421874,2.43250888671875,-5.083969465648855,6.931297709923665,-2.854961832061069,0.0
10.660000324249268,-9.433154541015625,0.928950244140625,2.29843359375,-9.557251908396946,1.4198473282442747,-6.229007633587786,-8.300697155761718,-0.9528922607421875,2.3127988037109373,-2.6564885496183206,7.587786259541985,-3.648854961832061,0.0
10.670000314712524,-9.370905297851563,0.5147533569335937,2.925714428710937,-6.595419847328245,-2.2900763358778624,-6.122137404580153,-8.559270935058594,-1.149216796875,2.408566870117187,0.5801526717557252,8.687022900763358,-4.564885496183206,0.0
10.68000078201294,-10.460267053222656,3.0526071166992184,4.132392065429687,-10.595419847328245,-5.938931297709924,-7.893129770992366,-8.678981018066406,-1.1037269653320312,2.272097375488281,3.8931297709923665,9.48091603053435,-5.7251908396946565,0.0
10.690000534057617,-9.303867651367186,2.1068974609374997,3.1124621582031247,-22.03053435114504,-18.12213740458015,-6.122137404580153,-8.640673791503906,-0.8571241943359375,2.2577321655273437,7.511450381679389,10.381679389312977,-7.114503816793893,0.0
10.700000762939453,-8.932766394042968,1.2497732666015624,3.0166940917968748,-22.549618320610687,-25.328244274809162,-5.480916030534351,-8.705317236328124,-0.8810662109374999,2.2936451904296873,10.13740458015267,11.358778625954198,-8.442748091603054,0.0
10.710000276565552,-8.480262280273436,0.44053310546874996,2.7940333374023436,-18.396946564885496,-28.396946564885496,-6.916030534351145,-8.695740429687499,-0.8978256225585937,2.3367408203125,14.854961832061068,13.083969465648854,-10.213740458015268,0.0
10.720000743865967,-9.198522778320312,-0.15083470458984374,2.636016027832031,-13.206106870229007,-28.977099236641223,-8.625954198473282,-8.738836059570312,-0.7996633544921875,2.5234885498046875,20.0,13.923664122137405,-11.19083969465649,0.0
10.730000257492065,-9.437942944335937,-0.36631285400390623,1.9297265380859374,-5.374045801526718,-30.778625954198475,-9.709923664122137,-8.571241943359375,-0.737414111328125,2.6431986328124997,24.47328244274809,14.213740458015268,-12.290076335877863,0.0
10.740000486373901,-9.952696301269532,0.2537853759765625,1.9967641845703124,3.282442748091603,-25.64885496183206,-11.541984732824428,-8.580818749999999,-0.7134720947265625,2.9089550170898435,27.72519083969466,14.916030534351146,-13.557251908396946,0.0
10.750000476837158,-8.379705810546875,0.9337386474609375,1.426944189453125,6.198473282442748,-27.358778625954198,-11.648854961832061,-8.473079675292968,-0.40940848388671874,2.987963671875,30.03053435114504,15.145038167938932,-15.267175572519085,0.0
10.760000705718994,-9.916783276367187,1.9584569580078124,0.9840168823242187,0.9465648854961832,-26.47328244274809,-12.763358778625955,-7.189787585449218,1.4820108276367188,2.4875755249023435,21.938931297709924,16.80916030534351,-17.31297709923664,0.0
10.770000696182251,-7.953537915039062,1.0462661254882812,0.718260498046875,-0.6106870229007634,-27.893129770992367,-10.67175572519084,-7.395688928222656,0.42377369384765623,2.760514514160156,15.007633587786259,20.0,-16.870229007633586,0.0
10.780000686645508,-8.015787158203125,0.32082302246093747,0.7541735229492187,4.198473282442748,-22.946564885496183,-11.908396946564885,-8.104372619628906,0.12689268798828124,2.89219560546875,19.404580152671755,18.15267175572519,-16.076335877862597,0.0
10.790000438690186,-8.56166513671875,0.7661445312499999,0.5913678100585937,5.206106870229007,-21.17557251908397,-12.900763358778626,-8.722076647949219,0.7733271362304687,3.277662072753906,20.916030534351144,16.671755725190838,-16.35114503816794,0.0
10.800000667572021,-8.406042028808594,0.5339069702148437,0.06703764648437499,1.5114503816793894,-22.641221374045802,-11.404580152671755,-9.880870251464843,-0.01915361328125,3.6846763549804686,15.465648854961833,19.236641221374047,-14.946564885496183,0.0
10.810000896453857,-8.70771143798828,1.2114660400390624,0.2561795776367187,4.9465648854961835,-15.969465648854962,-12.51908396946565,-10.08677159423828,0.0718260498046875,4.508281726074219,10.412213740458014,20.610687022900763,-14.763358778625955,0.0
10.820000410079956,-9.325415466308593,2.987963671875,0.29448680419921874,-11.83206106870229,-19.068702290076335,-13.877862595419847,-8.611943371582031,1.7621324218749999,3.1675287963867187,-6.748091603053435,18.80916030534351,-17.96946564885496,0.0
10.830000877380371,-10.01015714111328,3.35188232421875,1.0654197387695312,-19.84732824427481,-16.458015267175572,-12.244274809160306,-9.205705383300781,1.714248388671875,4.2521021484374995,-32.38167938931298,29.00763358778626,-16.80916030534351,0.0
10.84000039100647,-9.361328491210937,0.7900865478515624,0.8978256225585937,-19.221374045801525,-14.748091603053435,-9.83206106870229,-9.785102185058593,-0.737414111328125,4.309562988281249,-30.793893129770993,26.396946564885496,-12.931297709923664,0.0
10.850000619888306,-9.562441430664062,0.689530078125,1.1180921752929687,-13.435114503816793,-12.244274809160306,-11.022900763358779,-9.854534033203125,-1.3958195678710936,4.99909306640625,-20.595419847328245,18.03053435114504,-10.992366412213741,0.0
10.860000371932983,-10.544064111328124,1.3287819213867187,1.8339584716796873,-18.0,-13.633587786259541,-13.17557251908397,-12.492944262695312,-2.0566192260742184,5.324704492187499,-9.557251908396946,10.931297709923664,-9.755725190839694,0.0
10.87000060081482,-11.247959399414063,1.905784521484375,2.5426421630859375,-26.290076335877863,-18.48854961832061,-12.67175572519084,-10.570400329589843,-1.2761094848632812,6.368576416015625,-6.2748091603053435,-0.5343511450381679,-10.16793893129771,0.0
10.880000352859497,-10.575188732910156,1.3575123413085937,2.43250888671875,-18.458015267175572,-16.68702290076336,-10.916030534351146,-8.382100012207031,0.9241618408203125,6.289567761230469,-12.396946564885496,-7.00763358778626,-10.961832061068701,0.0
10.890000343322754,-10.46984385986328,2.473210314941406,3.248931652832031,-24.732824427480917,-21.740458015267176,-12.900763358778626,-9.133879333496093,0.6009446166992187,5.374982727050781,-20.885496183206108,-9.709923664122137,-8.091603053435115,0.0
10.90000057220459,-10.977414611816405,1.3910311645507811,3.687070556640625,-24.99236641221374,-28.595419847328245,-13.053435114503817,-9.988609326171874,0.7613561279296874,5.3199160888671875,-29.572519083969464,-10.366412213740459,-5.419847328244275,0.0
10.910000324249268,-11.008539233398437,0.7110778930664062,3.69664736328125,-21.31297709923664,-37.05343511450382,-13.251908396946565,-10.582371337890624,1.1420341918945311,4.984727856445312,-37.19083969465649,-12.15267175572519,-5.374045801526718,0.0
10.920000791549683,-12.648567370605468,1.2042834350585936,5.734112976074218,-24.931297709923665,-47.404580152671755,-14.473282442748092,-12.243947290039062,0.6919242797851562,5.461173986816406,-43.41984732824427,-15.32824427480916,-6.3816793893129775,0.0
10.93000078201294,-12.706028210449219,-0.603338818359375,7.019799267578125,-21.587786259541986,-61.969465648854964,-11.49618320610687,-10.702081420898438,1.4221557861328125,5.396530541992187,-63.70992366412214,-22.931297709923665,-8.412213740458014,0.0
10.940000534057617,-13.256694592285156,-0.8283937744140625,8.303091357421874,-16.137404580152673,-75.8473282442748,-11.404580152671755,-8.329427575683594,1.62805712890625,3.5577836669921874,-69.87786259541984,-23.801526717557252,-8.625954198473282,0.0
10.950000524520874,-12.878410729980468,-0.1771709228515625,9.141061938476563,-12.885496183206106,-94.79389312977099,-12.778625954198473,-6.880935571289062,3.6750995483398436,1.5418658691406248,-98.2442748091603,-7.862595419847328,-4.473282442748092,0.0
10.96000051498413,-13.704410302734374,-2.020706201171875,10.029310754394531,-9.954198473282442,-111.96946564885496,-9.938931297709924,-10.620678564453124,-4.261678955078125,2.9735984619140625,-89.31297709923665,-0.7633587786259542,4.625954198473282,0.0
10.970000505447388,-13.218387365722656,-5.6574985229492185,9.950302099609374,10.091603053435115,-129.00763358778627,-11.786259541984732,-10.213664282226562,-5.896918688964844,2.808398547363281,-50.458015267175576,-9.98473282442748,2.9770992366412212,0.0
10.980000495910645,-12.064382165527343,-7.656656909179687,7.620743884277343,40.396946564885496,-143.98473282442748,-17.72519083969466,-8.422801440429687,-4.707000463867187,1.448492004394531,-22.15267175572519,-12.076335877862595,-3.9389312977099236,0.0
10.990000486373901,-12.279860314941406,-7.788338000488281,6.562506750488281,55.19083969465649,-154.42748091603053,-27.69465648854962,-8.805873706054687,-4.563348364257812,0.6200982299804687,-9.389312977099237,-5.175572519083969,-7.236641221374046,0.0
11.000000476837158,-11.33175645751953,-7.785943798828124,4.340687609863281,71.09923664122137,-165.2824427480916,-35.23664122137404,-7.754819177246094,-3.2154128295898436,-1.139639990234375,1.083969465648855,-6.809160305343512,-10.259541984732824,0.0
11.010000705718994,-11.365275280761718,-5.5545478515625,1.4221557861328125,97.08396946564885,-162.36641221374046,-38.42748091603053,-8.276755139160155,-2.152387292480469,-0.12449848632812499,6.824427480916031,-0.32061068702290074,-10.992366412213741,0.0
11.020000457763672,-9.89523546142578,-4.264073156738281,-2.50912333984375,114.50381679389314,-158.38167938931298,-40.3206106870229,-10.402806213378906,-2.77727392578125,0.6057330200195312,21.358778625954198,2.8396946564885495,-8.610687022900763,0.0
11.030000925064087,-9.816226806640625,-2.6599580444335937,-4.972756848144531,127.54198473282443,-143.7709923664122,-40.06106870229008,-10.709264025878905,-4.180276098632812,0.7996633544921875,41.343511450381676,-1.9389312977099236,-8.610687022900763,0.0
11.040000677108765,-9.938331091308592,1.0414777221679687,-5.872976672363281,125.77099236641222,-127.86259541984732,-39.61832061068702,-9.828197814941406,-2.3343466186523436,1.2018892333984375,43.52671755725191,-1.5877862595419847,-11.221374045801527,0.0
11.050000667572021,-9.277531433105468,1.9823989746093749,-5.5090580200195305,112.82442748091603,-111.02290076335878,-31.81679389312977,-10.268730920410155,-2.35589443359375,1.3718775512695311,38.534351145038165,0.2748091603053435,-8.244274809160306,0.0
11.0600004196167,-8.583212951660157,1.5729904907226562,-4.101267443847656,104.68702290076335,-89.93893129770993,-25.389312977099237,-10.855310327148437,-2.3774422485351563,1.1947066284179686,38.12213740458015,-1.0076335877862594,-1.5725190839694656,0.0
11.070000886917114,-8.698134631347656,2.04943662109375,-2.482787121582031,92.6412213740458,-70.07633587786259,-20.870229007633586,-10.874463940429687,-1.7238251953125,0.852335791015625,37.969465648854964,-1.5725190839694656,2.4427480916030535,0.0
11.080000400543213,-7.762001782226562,1.0295067138671874,-2.3774422485351563,82.47328244274809,-53.48091603053435,-15.633587786259541,-10.98699141845703,-1.7357962036132812,0.603338818359375,37.25190839694657,-0.4122137404580153,6.244274809160306,0.0
11.090000629425049,-9.074024291992187,1.7597382202148437,-0.9935936889648437,71.78625954198473,-32.595419847328245,-13.221374045801527,-9.94072529296875,-1.3239935180664062,0.39983167724609375,31.31297709923664,1.83206106870229,5.4961832061068705,0.0
11.100000619888306,-9.732429748535155,4.393360046386719,-0.6967126831054687,49.52671755725191,-19.541984732824428,-13.282442748091603,-9.507374792480467,-2.1021090576171875,0.6081272216796875,26.793893129770993,4.305343511450381,4.244274809160306,0.0
11.110000610351562,-8.659827404785156,4.197035510253906,-1.3239935180664062,30.18320610687023,-7.236641221374046,-6.412213740458015,-9.595960253906249,-2.4109610717773435,0.4381389038085937,23.389312977099237,6.152671755725191,4.290076335877862,0.0
11.12000060081482,-9.344569079589844,6.143521459960938,-1.0271125122070313,-2.5343511450381677,-1.083969465648855,-1.8473282442748091,-10.103531005859374,-2.1787235107421874,0.5339069702148437,20.793893129770993,6.9465648854961835,4.6106870229007635,0.0
11.130000591278076,-8.827421520996094,5.2073886108398435,-1.2401964599609374,-26.564885496183205,8.16793893129771,7.282442748091603,-9.969455712890625,-1.7310078002929687,0.9816226806640624,17.31297709923664,7.938931297709924,5.6183206106870225,0.0
11.140000581741333,-8.013392956542969,4.53940634765625,-1.608903515625,-48.30534351145038,15.633587786259541,14.16793893129771,-9.983820922851562,-1.1731588134765625,1.1659762084960936,14.091603053435115,8.366412213740459,6.3816793893129775,0.0
11.15000057220459,-7.129932543945312,3.574543078613281,-1.659181750488281,-62.29007633587786,24.03053435114504,20.47328244274809,-10.182539660644531,-0.97683427734375,1.70467158203125,12.244274809160306,10.320610687022901,7.633587786259542,0.0
11.160000562667847,-5.025429284667968,0.7709329345703124,-2.882618798828125,-63.52671755725191,33.38931297709924,27.755725190839694,-9.909600671386718,-0.5530605834960938,2.2768857788085937,10.351145038167939,11.358778625954198,9.297709923664122,0.0
11.170000553131104,-3.948038537597656,0.15322890625,-3.124433166503906,-56.18320610687023,52.13740458015267,29.801526717557252,-10.218452685546874,-1.70467158203125,3.3255461059570313,14.50381679389313,11.572519083969466,11.770992366412214,0.0
11.18000078201294,-3.5027170288085934,-0.34715924072265625,-3.411737365722656,-57.37404580152672,64.68702290076335,29.0381679389313,-9.37808790283203,-0.6440402465820312,3.806780639648437,17.66412213740458,7.984732824427481,11.251908396946565,0.0
11.190000534057617,-3.878606689453125,-0.07422025146484375,-3.2704794677734372,-58.916030534351144,78.51908396946565,28.702290076335878,-8.173804467773436,1.47482822265625,3.323151904296875,4.67175572519084,7.709923664122138,10.67175572519084,0.0
11.200000762939453,-4.498704919433593,-0.25139117431640623,-2.4564509033203126,-70.09160305343511,90.4885496183206,28.045801526717558,-8.717288244628906,0.055066638183593745,3.31357509765625,-2.687022900763359,6.763358778625954,15.34351145038168,0.0
11.210000276565552,-4.5968671875,-1.5466542724609373,-1.3287819213867187,-77.52671755725191,99.72519083969466,24.65648854961832,-9.023746057128905,-0.373495458984375,3.7229835815429686,-7.129770992366412,2.8396946564885495,17.31297709923664,0.0
11.220000505447388,-5.762843395996094,-3.1483751831054687,1.0749965454101562,-80.18320610687023,106.79389312977099,24.68702290076336,-8.94473740234375,-0.9217676391601562,4.153939880371094,-12.122137404580153,-1.9694656488549618,17.603053435114504,0.0
11.230000495910645,-6.663063220214843,-5.1690813842773435,4.496310717773437,-67.8473282442748,114.50381679389314,26.68702290076336,-8.846575134277343,-1.0893617553710937,4.479551306152343,-17.587786259541986,-8.01526717557252,17.862595419847327,0.0
11.240000486373901,-7.8362220336914055,-5.748478186035156,8.0062103515625,-43.81679389312977,116.99236641221374,27.450381679389313,-8.51617530517578,-1.1228805786132812,4.802768530273437,-22.427480916030536,-15.49618320610687,18.244274809160306,0.0
11.250000476837158,-9.198522778320312,-5.398924743652343,12.11705460205078,-10.885496183206106,114.35114503816794,28.412213740458014,-8.741230261230468,-2.5139117431640625,4.8506525634765625,-24.549618320610687,-22.076335877862597,18.641221374045802,0.0
11.260000705718994,-10.922347973632812,-4.058171813964844,14.961366174316405,29.69465648854962,106.2442748091603,32.36641221374046,-9.89523546142578,-3.622427111816406,4.6064439941406246,-9.129770992366412,-31.938931297709924,17.389312977099237,0.0
11.270000696182251,-11.899182250976562,0.13407529296874998,13.280636608886718,58.916030534351144,94.35114503816794,33.267175572519086,-9.179369165039063,-4.283226770019531,3.555389465332031,8.488549618320612,-44.47328244274809,12.473282442748092,0.0
11.280000686645508,-11.477802758789062,0.8930372192382812,10.058041174316406,44.3206106870229,68.03053435114504,31.435114503816795,-9.291896643066405,-3.3399113159179685,2.418143676757812,28.0,-55.282442748091604,9.419847328244275,0.0
11.290000915527344,-12.265495104980468,-0.9576806640625,10.067617980957031,52.44274809160305,56.47328244274809,29.61832061068702,-7.254431030273437,1.1420341918945311,1.3958195678710936,20.717557251908396,-54.70229007633588,4.870229007633588,0.0
11.300000667572021,-15.54555137939453,-0.11252747802734374,11.212046374511718,26.03053435114504,30.33587786259542,18.16793893129771,-8.695740429687499,-0.201112939453125,1.0366893188476562,10.15267175572519,-44.88549618320611,9.603053435114504,0.0
11.310000658035278,-18.095376147460936,0.59376201171875,9.258377819824219,0.061068702290076333,8.80916030534351,11.938931297709924,-10.704475622558594,-1.1468225952148436,1.4245499877929686,5.312977099236641,-38.01526717557252,16.977099236641223,0.0
11.320000648498535,-19.397821850585938,-0.6464344482421874,5.070919116210937,-11.053435114503817,-11.404580152671755,15.526717557251908,-10.041281762695311,-0.016759411621093748,0.45489831542968745,11.923664122137405,-36.97709923664122,18.0,0.0
11.330000877380371,-17.640477832031248,-3.1220389648437497,3.3494881225585935,24.9618320610687,-9.251908396946565,19.389312977099237,-9.193734375,1.1875240234375,0.16519991455078123,-7.251908396946565,-18.793893129770993,14.763358778625955,0.0
11.340000629425049,-15.066711047363281,-1.944091748046875,2.059013427734375,26.30534351145038,-14.290076335877863,11.816793893129772,-10.27830772705078,-2.346317626953125,1.0175357055664063,-8.717557251908397,0.13740458015267176,14.595419847328245,0.0
11.350000619888306,-12.761094848632812,-1.9967641845703124,1.2928688964843749,30.229007633587788,-17.17557251908397,3.6946564885496183,-9.823409411621093,-3.4739866088867184,0.93852705078125,4.885496183206107,4.67175572519084,9.465648854961833,0.0
11.360000371932983,-9.847351428222655,-1.2808978881835937,0.7015010864257812,41.083969465648856,-14.290076335877863,-1.9389312977099236,-10.342951171874999,-4.094084838867187,1.7693150268554687,18.50381679389313,14.916030534351146,5.66412213740458,0.0
11.37000060081482,-8.303091357421874,0.7541735229492187,-0.011971008300781249,39.3587786259542,-13.114503816793894,-6.656488549618321,-10.651803186035156,-2.616862414550781,0.852335791015625,32.80916030534351,15.709923664122137,1.8015267175572518,0.0
11.380000352859497,-7.352593298339843,2.863465185546875,-0.8643067993164062,39.66412213740458,-8.305343511450381,-8.396946564885496,-12.208034265136718,-1.9416975463867185,0.28490999755859375,44.091603053435115,20.778625954198475,0.10687022900763359,0.0
11.390000581741333,-7.048529687499999,4.673481640625,-1.5945383056640625,26.977099236641223,-2.3053435114503817,-6.030534351145038,-12.916717956542968,-1.1851298217773436,0.5219359619140624,50.396946564885496,22.259541984732824,-0.33587786259541985,0.0
11.40000057220459,-6.366182214355469,4.630386010742187,-2.1691467041015624,13.84732824427481,4.091603053435114,-1.5725190839694656,-12.868833923339842,-0.5626373901367188,0.8188169677734375,51.847328244274806,22.717557251908396,-0.7480916030534351,0.0
11.410000562667847,-5.853823059082031,3.6583401367187496,-2.3870190551757813,1.5267175572519085,13.007633587786259,2.16793893129771,-10.907982763671875,1.0989385620117187,0.7972691528320313,40.3206106870229,24.137404580152673,-4.595419847328245,0.0
11.420000314712524,-7.4770917846679685,3.744531396484375,-1.484405029296875,-8.320610687022901,26.18320610687023,2.732824427480916,-11.52329259033203,1.3096283081054687,1.22583125,31.801526717557252,33.41984732824427,-3.2061068702290076,0.0
11.430000305175781,-7.3286512817382805,2.8203695556640622,-0.8355763793945312,-19.374045801526716,34.152671755725194,3.282442748091603,-10.453084448242187,2.0973206542968748,1.1540052001953125,25.16030534351145,30.83969465648855,-3.5877862595419847,0.0
11.440000534057617,-7.539341027832031,1.0893617553710937,-0.7254431030273437,-18.396946564885496,43.31297709923664,4.030534351145038,-8.547299926757812,2.6503812377929687,1.0366893188476562,11.908396946564885,33.587786259541986,-5.206106870229007,0.0
11.450000524520874,-9.303867651367186,1.5035586425781249,0.23702596435546874,-19.0381679389313,51.282442748091604,3.282442748091603,-9.114725720214842,1.7238251953125,1.936909143066406,3.786259541984733,43.52671755725191,-1.450381679389313,0.0
11.46000075340271,-9.085995300292968,-0.6081272216796875,0.7038952880859375,-14.473282442748092,53.541984732824424,4.67175572519084,-10.01015714111328,-1.0390835205078124,2.422932080078125,22.48854961832061,37.70992366412214,4.305343511450381,0.0
11.470000743865967,-9.81862100830078,-1.455674609375,1.6424223388671875,0.12213740458015267,56.595419847328245,2.7786259541984735,-10.271125122070313,-0.7924807495117187,3.361459130859375,37.61832061068702,30.85496183206107,3.236641221374046,0.0
11.480000495910645,-10.82179150390625,-0.7565677246093749,2.588131994628906,10.0,55.80152671755725,0.2595419847328244,-8.396465222167969,1.5610194824218748,2.442085693359375,38.06106870229008,25.17557251908397,-1.984732824427481,0.0
11.490000486373901,-11.69567510986328,0.34237083740234375,3.3542765258789062,10.061068702290076,51.80152671755725,-1.5267175572519085,-8.757989672851561,1.6256629272460936,2.4157494750976563,30.366412213740457,26.427480916030536,-0.8854961832061069,0.0
11.500000476837158,-11.348515869140625,1.2880804931640624,3.689464758300781,6.67175572519084,44.900763358778626,-1.5725190839694656,-8.99501563720703,2.2098481323242187,2.5067291381835934,26.610687022900763,26.366412213740457,2.213740458015267,0.0
11.510000467300415,-11.264718811035156,2.1787235107421874,3.833116857910156,3.4198473282442747,36.961832061068705,-1.5725190839694656,-9.437942944335937,2.2553379638671873,2.7629087158203123,21.083969465648856,26.396946564885496,4.3816793893129775,0.0
11.520000696182251,-12.073958972167969,3.019088293457031,3.5314474487304683,-6.366412213740458,31.84732824427481,-2.2900763358778624,-10.529698901367187,1.350329736328125,3.258508459472656,18.580152671755727,26.625954198473284,6.564885496183206,0.0
11.530000448226929,-10.103531005859374,1.7238251953125,2.9448680419921875,-10.83969465648855,22.68702290076336,0.04580152671755725,-10.884040747070312,1.1923124267578125,3.622427111816406,15.83206106870229,24.213740458015266,6.137404580152672,0.0
11.540000438690186,-10.235212097167969,2.518700146484375,2.300827795410156,-15.34351145038168,16.732824427480917,0.33587786259541985,-11.240776794433593,0.928950244140625,3.9647979492187497,12.198473282442748,21.52671755725191,6.3816793893129775,0.0
11.5500009059906,-9.34696328125,1.9728221679687499,1.4604630126953124,-17.114503816793892,14.82442748091603,1.7709923664122138,-10.319009155273436,2.3127988037109373,3.5601778686523438,3.1603053435114505,17.603053435114504,4.458015267175573,0.0
11.5600004196167,-8.657433203124999,2.1835119140624997,1.4437036010742186,-16.778625954198475,14.366412213740459,1.9083969465648856,-11.01332763671875,1.6543933471679686,3.3111808959960936,-6.793893129770993,18.045801526717558,7.114503816793893,0.0
11.570000886917114,-8.528146313476562,1.5969325073242187,0.8882488159179687,-18.671755725190838,12.259541984732824,1.9389312977099236,-10.158597644042969,1.9943699829101562,2.8036101440429686,-11.633587786259541,12.396946564885496,6.809160305343512,0.0
11.580000400543213,-8.657433203124999,1.6639701538085936,1.0486603271484374,-18.519083969465647,10.183206106870228,2.4122137404580153,-9.72285294189453,1.2856862915039062,3.31357509765625,-18.16793893129771,10.885496183206106,7.755725190839694,0.0
11.59000039100647,-8.892064965820312,1.3479355346679687,0.8499415893554687,-16.229007633587788,10.625954198473282,4.8396946564885495,-9.93354268798828,0.7230489013671875,4.283226770019531,-20.82442748091603,9.84732824427481,8.977099236641221,0.0
11.600000619888306,-9.184157568359375,1.1947066284179686,0.25139117431640623,-12.610687022900763,11.236641221374045,6.519083969465649,-11.54244620361328,-0.3016694091796875,4.438849877929687,-18.946564885496183,7.1603053435114505,11.450381679389313,0.0
11.610000610351562,-9.332598071289063,-0.3591302490234375,-0.4285620971679687,5.206106870229007,20.80916030534351,8.030534351145038,-10.754753857421875,-0.8714894042968749,4.7931917236328125,-18.549618320610687,2.763358778625954,10.244274809160306,0.0
11.62000036239624,-8.544905725097657,0.15322890625,-0.4955997436523437,12.67175572519084,23.984732824427482,4.885496183206107,-9.9981861328125,-0.28012159423828126,3.4859576171874997,-10.732824427480915,-8.534351145038167,6.702290076335878,0.0
11.630000352859497,-9.7683427734375,1.5155296508789062,-0.09337386474609374,12.458015267175572,27.358778625954198,1.8931297709923665,-9.947907897949218,0.05985504150390625,3.4715924072265625,-16.045801526717558,-11.49618320610687,4.290076335877862,0.0
11.640000343322754,-10.915165368652342,1.7214309936523438,0.19632453613281248,3.3587786259541983,27.435114503816795,1.1755725190839694,-10.022128149414062,0.09816226806640624,3.375824340820312,-19.282442748091604,-13.679389312977099,3.7404580152671754,0.0
11.65000057220459,-10.582371337890624,1.2832920898437499,0.34237083740234375,-2.6412213740458017,27.435114503816795,0.4580152671755725,-9.713276135253906,0.7134720947265625,3.0166940917968748,-24.106870229007633,-16.83969465648855,3.068702290076336,0.0
11.660000562667847,-10.421959826660157,2.118868469238281,0.7326257080078125,-9.648854961832061,25.435114503816795,-0.8854961832061069,-9.859322436523437,0.8714894042968749,3.1004911499023438,-27.96946564885496,-17.31297709923664,3.1603053435114505,0.0
11.670000553131104,-10.78348427734375,1.9536685546875,0.47644613037109373,-24.137404580152673,19.404580152671755,-1.3129770992366412,-9.595960253906249,1.1372457885742187,2.9735984619140625,-30.68702290076336,-18.091603053435115,3.2519083969465647,0.0
11.68000078201294,-10.081983190917969,0.37828386230468747,0.2537853759765625,-23.435114503816795,16.53435114503817,0.16793893129770993,-9.318232861328125,0.93852705078125,2.9185318237304685,-34.717557251908396,-18.396946564885496,3.969465648854962,0.0
11.690000534057617,-10.656591589355468,0.3806780639648437,0.4644751220703125,-22.229007633587788,15.816793893129772,-1.7557251908396947,-10.982203015136719,-0.8858546142578124,3.5146880371093747,-23.954198473282442,-17.404580152671755,6.809160305343512,0.0
11.700000762939453,-10.78348427734375,-0.8738836059570312,0.5410895751953124,-8.900763358778626,21.236641221374047,-3.7404580152671754,-9.528922607421874,-0.74699091796875,3.4668040039062498,-13.893129770992367,-26.0,5.4961832061068705,0.0
11.71000051498413,-10.548852514648438,-0.040701428222656245,0.26336218261718747,-2.519083969465649,18.27480916030534,-5.709923664122138,-10.079588989257813,-0.7852981445312499,3.1196447631835937,-2.4732824427480917,-29.221374045801525,4.595419847328245,0.0
11.720000267028809,-11.288660827636718,1.4939818359375,0.9409212524414062,0.33587786259541985,20.03053435114504,-6.870229007633588,-10.072406384277343,-0.35673604736328124,2.8131869506835936,3.4198473282442747,-34.0763358778626,3.099236641221374,0.0
11.730000257492065,-10.014945544433592,2.0973206542968748,1.5705962890624998,-0.16793893129770993,20.48854961832061,-6.091603053435114,-7.671022119140624,4.086902233886718,0.6655880615234374,-15.297709923664122,-34.30534351145038,-1.3435114503816794,0.0
11.740000486373901,-10.158597644042969,3.071760729980469,1.1516109985351561,-15.694656488549619,13.83206106870229,-3.312977099236641,-7.6087728759765625,2.7940333374023436,0.5889736083984375,-35.969465648854964,-21.236641221374047,3.1603053435114505,0.0
11.750000476837158,-9.773131176757811,1.9776105712890624,1.4006079711914061,-18.732824427480917,11.603053435114504,-0.6106870229007634,-9.651026892089844,0.6488286499023437,0.63206923828125,-34.56488549618321,-13.48091603053435,9.282442748091603,0.0
11.760000705718994,-9.543287817382812,1.0726023437499999,0.9504980590820312,-14.335877862595419,10.122137404580153,0.4580152671755725,-9.823409411621093,0.5530605834960938,1.4963760375976562,-35.19083969465649,-8.0,8.854961832061068,0.0
11.770000696182251,-9.399635717773437,0.82360537109375,0.86191259765625,-9.19083969465649,8.732824427480915,1.6488549618320612,-9.74200655517578,-0.21068974609375,1.2042834350585936,-30.625954198473284,-6.244274809160306,6.961832061068702,0.0
11.780000448226929,-9.564835632324218,0.8188169677734375,0.40222587890625,-4.931297709923665,9.007633587786259,1.5419847328244274,-9.749189160156249,-0.82360537109375,1.4101847778320311,-26.977099236641223,-5.068702290076335,4.396946564885496,0.0
11.790000915527344,-9.380482104492186,1.0654197387695312,0.2657563842773437,-3.053435114503817,10.045801526717558,0.7786259541984732,-9.591171850585937,-0.7733271362304687,1.2617442749023438,-23.053435114503817,-4.2748091603053435,1.8625954198473282,0.0
11.800000667572021,-9.490615380859374,1.3551181396484375,0.1867477294921875,-4.641221374045801,10.549618320610687,0.13740458015267176,-9.70369932861328,-0.8212111694335937,1.4437036010742186,-18.977099236641223,-3.648854961832061,0.44274809160305345,0.0
11.810000896453857,-9.70369932861328,1.5610194824218748,0.4261678955078125,-7.038167938931298,11.083969465648854,-0.5038167938931297,-10.711658227539061,-2.8131869506835936,2.6791116577148437,-6.625954198473282,-2.198473282442748,0.4122137404580153,0.0
11.820000410079956,-9.859322436523437,1.3766659545898436,0.49799394531249996,-8.931297709923664,10.396946564885496,-1.0381679389312977,-10.338162768554687,-2.3726538452148436,1.7573440185546874,11.954198473282442,-13.84732824427481,-3.053435114503817,0.0
11.830000877380371,-9.64623848876953,1.1228805786132812,0.8643067993164062,-5.770992366412214,11.572519083969466,-1.7099236641221374,-10.402806213378906,-1.158793603515625,2.24097275390625,23.00763358778626,-18.091603053435115,-6.778625954198473,0.0
11.84000039100647,-9.612719665527344,1.1324573852539062,1.0438719238281249,-5.099236641221374,12.473282442748092,-2.0916030534351147,-8.949525805664061,0.7038952880859375,1.3910311645507811,19.404580152671755,-21.221374045801525,-11.801526717557252,0.0
11.850000619888306,-9.397241516113281,1.6472107421875,1.2234370483398436,-5.343511450381679,13.740458015267176,-2.1526717557251906,-8.664615808105468,2.308010400390625,1.3431471313476562,3.5267175572519083,-13.83206106870229,-13.770992366412214,0.0
11.860000610351562,-9.777919580078125,2.5570073730468748,1.467645617675781,-11.297709923664122,11.465648854961833,-1.3587786259541985,-8.920795385742187,0.9552864624023437,1.9321207397460936,-14.50381679389313,-0.21374045801526717,-10.67175572519084,0.0
11.87000060081482,-9.660603698730467,1.8842367065429686,1.6065093139648436,-13.801526717557252,9.419847328244275,-0.24427480916030533,-9.777919580078125,-0.33758243408203126,1.7836802368164062,-4.854961832061068,-0.32061068702290074,-7.419847328244275,0.0
11.880000829696655,-9.847351428222655,1.254561669921875,1.24498486328125,-10.15267175572519,7.0534351145038165,0.366412213740458,-9.258377819824219,0.38786066894531246,2.530671154785156,-2.3969465648854964,-0.12213740458015267,-8.854961832061068,0.0
11.890000581741333,-9.952696301269532,0.9026140258789062,1.0438719238281249,-5.786259541984733,6.259541984732825,1.5725190839694656,-8.827421520996094,0.06943184814453125,2.602497204589844,-0.916030534351145,0.8854961832061069,-10.534351145038167,0.0
11.90000057220459,-9.943119494628906,0.9026140258789062,0.842758984375,-4.213740458015267,5.801526717557252,1.5267175572519085,-8.951920007324219,0.05746083984375,2.710236279296875,-0.5038167938931297,1.251908396946565,-10.717557251908397,0.0
11.910000562667847,-9.777919580078125,0.8786720092773437,0.7493851196289062,-4.076335877862595,6.473282442748092,1.0076335877862594,-8.690952026367187,-0.44053310546874996,2.5737667846679684,-0.32061068702290074,1.450381679389313,-11.19083969465649,0.0
11.920000314712524,-9.900023864746093,1.4245499877929686,0.6823474731445313,-7.236641221374046,6.473282442748092,-0.13740458015267176,-8.769960681152343,-0.1197100830078125,2.81558115234375,-1.1450381679389312,1.9694656488549618,-11.954198473282442,0.0
11.930000305175781,-9.708487731933593,1.3766659545898436,0.7445967163085937,-12.15267175572519,6.5038167938931295,-1.0534351145038168,-8.801085302734375,0.062249243164062495,2.6384102294921874,-2.549618320610687,1.5572519083969465,-11.282442748091603,0.0
11.940000534057617,-9.852139831542969,1.407790576171875,0.7805097412109374,-16.442748091603054,6.33587786259542,-1.618320610687023,-8.463502868652343,-0.22266075439453123,2.3678654418945313,-4.9465648854961835,1.8015267175572518,-11.801526717557252,0.0
11.950000524520874,-9.770736975097655,1.3934253662109375,0.8379705810546875,-18.85496183206107,6.778625954198473,-2.213740458015267,-8.674192614746094,-0.181959326171875,2.2601263671875,-5.251908396946565,1.8625954198473282,-12.045801526717558,0.0
11.96000075340271,-9.667786303710937,1.1444283935546875,0.603338818359375,-20.50381679389313,7.022900763358779,-2.1068702290076335,-8.789114294433594,-0.40462008056640625,2.2194249389648437,-5.526717557251908,2.0610687022900764,-12.106870229007633,0.0
11.970000505447388,-9.361328491210937,0.4836287353515625,0.373495458984375,-18.885496183206108,8.65648854961832,-1.8015267175572518,-8.693346228027343,-0.05746083984375,2.3630770385742186,-6.458015267175573,2.595419847328244,-12.80916030534351,0.0
11.980000495910645,-9.332598071289063,0.49320554199218747,0.4381389038085937,-14.549618320610687,11.34351145038168,-2.8702290076335877,-8.700528833007812,-0.19871873779296872,2.398990063476562,-6.488549618320611,3.3587786259541983,-13.374045801526718,0.0
11.990000486373901,-8.997409838867187,1.5227122558593749,0.679953271484375,-20.458015267175572,10.030534351145038,-4.2748091603053435,-8.94473740234375,-0.3950432739257812,2.4133552734375,-5.282442748091603,3.3740458015267176,-13.114503816793894,0.0
12.000000476837158,-10.01733974609375,1.467645617675781,0.9576806640625,-17.984732824427482,14.641221374045802,-4.549618320610687,-8.801085302734375,-0.2442085693359375,2.6384102294921874,-5.679389312977099,4.290076335877862,-12.15267175572519,0.0
12.010000467300415,-10.065223779296874,1.659181750488281,0.8188169677734375,-24.47328244274809,12.854961832061068,-4.900763358778626,-8.846575134277343,-0.12689268798828124,2.602497204589844,-5.3893129770992365,4.122137404580153,-11.84732824427481,0.0
12.020000696182251,-9.713276135253906,1.3048399047851562,0.49799394531249996,-27.0381679389313,11.465648854961833,-4.396946564885496,-8.884882360839843,-0.05027823486328125,2.8419173706054686,-7.480916030534351,4.442748091603053,-11.618320610687023,0.0
12.030000448226929,-9.732429748535155,1.0869675537109373,0.5339069702148437,-28.076335877862597,12.045801526717558,-5.038167938931298,-9.351751684570312,-0.6584054565429687,3.294421484375,-7.236641221374046,4.99236641221374,-10.396946564885496,0.0
12.040000677108765,-9.56962403564453,-0.201112939453125,0.3136404174804687,-25.709923664122137,12.717557251908397,-5.267175572519084,-9.81862100830078,-1.0606313354492187,2.7533319091796873,2.885496183206107,-0.8091603053435115,-10.0,0.0
12.050000667572021,-9.861716638183593,-0.622492431640625,0.7948749511718749,-8.870229007633588,22.16793893129771,-7.862595419847328,-9.04050546875,0.33039982910156246,3.5721488769531247,-4.488549618320611,2.2748091603053435,-10.748091603053435,0.0
12.060000658035278,-9.380482104492186,0.18914193115234373,0.4740519287109375,-9.603053435114504,19.419847328244273,-9.740458015267176,-8.63827958984375,0.5339069702148437,2.89219560546875,-3.8931297709923665,-0.8091603053435115,-11.435114503816793,0.0
12.070000886917114,-9.220070593261719,1.1635820068359375,1.5011644409179687,-7.1603053435114505,23.328244274809162,-11.34351145038168,-9.169792358398437,0.19632453613281248,3.785232824707031,-12.748091603053435,4.442748091603053,-9.282442748091603,0.0
12.080000400543213,-9.880870251464843,1.678335363769531,1.5011644409179687,-13.587786259541986,18.076335877862597,-11.099236641221374,-8.851363537597656,0.3591302490234375,3.603273498535156,-11.068702290076336,1.816793893129771,-8.473282442748092,0.0
12.090000629425049,-9.215282189941405,1.3096283081054687,1.5777788940429687,-19.083969465648856,12.0,-10.549618320610687,-8.987833032226561,0.15322890625,3.2513258544921873,-10.091603053435115,0.48854961832061067,-6.702290076335878,0.0
12.100000619888306,-9.536105212402344,1.3527239379882812,2.090138049316406,-20.061068702290076,8.82442748091603,-9.893129770992367,-8.700528833007812,-0.48123453369140623,3.3327287109375,-10.290076335877863,1.633587786259542,-5.969465648854962,0.0
12.110000610351562,-10.560823522949217,3.1651345947265623,3.3351229125976563,-21.374045801526716,7.709923664122138,-11.236641221374045,-8.492233288574218,-1.0031704956054688,3.299209887695312,-9.877862595419847,1.2061068702290076,-7.083969465648855,0.0
12.12000060081482,-9.526528405761718,0.9864110839843749,3.0741549316406247,-27.480916030534353,-3.2213740458015265,-8.091603053435115,-8.152256652832031,-1.6112977172851561,3.1699229980468746,-9.877862595419847,0.732824427480916,-9.603053435114504,0.0
12.130000591278076,-9.399635717773437,0.488417138671875,3.7708676147460936,-16.16793893129771,-6.1679389312977095,-8.82442748091603,-7.601590270996093,-2.27927998046875,3.0621839233398433,-7.206106870229007,0.07633587786259542,-11.19083969465649,0.0
12.140000581741333,-9.188945971679686,-0.22505495605468748,4.575319372558593,-10.610687022900763,-12.183206106870228,-9.98473282442748,-6.818686328125,-2.1715409057617188,3.0262708984374997,0.549618320610687,-1.4351145038167938,-12.977099236641221,0.0
12.15000057220459,-9.667786303710937,0.3136404174804687,5.7843912109375,-5.343511450381679,-21.374045801526716,-12.51908396946565,-6.9144543945312495,-2.24097275390625,3.1316157714843746,6.778625954198473,-2.8396946564885495,-12.900763358778626,0.0
12.160000562667847,-7.958326318359375,-2.1619640991210938,6.102820031738281,-4.259541984732825,-35.69465648854962,-12.396946564885496,-6.356605407714843,-1.5083470458984374,3.42849677734375,10.854961832061068,-5.068702290076335,-14.702290076335878,0.0
12.170000791549683,-7.781155395507812,-4.589684582519531,7.163451367187499,26.137404580152673,-42.94656488549618,-14.702290076335878,-6.433219860839843,-1.43652099609375,3.9432501342773434,13.435114503816793,-5.404580152671755,-15.954198473282442,0.0
12.18000054359436,-8.597578161621094,-1.3742717529296875,7.369352709960937,27.404580152671755,-58.85496183206107,-23.00763358778626,-6.3709706176757805,-0.5578489868164063,4.338293408203125,17.923664122137403,-7.969465648854962,-18.16793893129771,0.0
12.190000295639038,-9.53131680908203,-0.08858546142578125,6.754042883300781,15.740458015267176,-75.6793893129771,-28.931297709923665,-6.354211206054687,0.718260498046875,5.202600207519531,15.114503816793894,-11.389312977099237,-20.48854961832061,0.0
12.200000762939453,-9.208099584960937,0.5195417602539062,5.5258174316406246,10.50381679389313,-91.09923664122137,-31.740458015267176,-6.375759020996093,1.7549498168945312,5.334281298828125,3.0381679389312977,-14.335877862595419,-23.00763358778626,0.0
12.21000051498413,-8.846575134277343,0.2609679809570312,4.570530969238281,6.519083969465649,-105.6793893129771,-34.68702290076336,-7.809885815429687,2.913743420410156,6.124367846679687,-8.67175572519084,-13.053435114503817,-26.85496183206107,0.0
12.220000505447388,-8.415618835449218,-0.35194764404296874,3.385401147460937,10.396946564885496,-116.03053435114504,-36.42748091603053,-10.74517705078125,2.4349030883789062,6.5577183471679685,-19.69465648854962,-12.488549618320612,-30.412213740458014,0.0
12.230000495910645,-9.023746057128905,-0.6560112548828124,2.607285607910156,18.366412213740457,-121.80152671755725,-37.786259541984734,-13.845668200683592,-0.05746083984375,6.9168485961914055,-26.519083969465647,-16.83969465648855,-34.25954198473283,0.0
12.24000072479248,-10.053252770996092,-1.3934253662109375,2.674323254394531,30.137404580152673,-126.04580152671755,-38.900763358778626,-15.552733984375,-2.4061726684570313,7.0461354858398435,-21.17557251908397,-26.442748091603054,-33.87786259541985,0.0
12.250000476837158,-11.927912670898436,-1.3120225097656248,4.187458703613281,45.083969465648856,-128.61068702290078,-39.66412213740458,-14.202404248046873,-1.6639701538085936,6.016628771972656,-9.648854961832061,-41.41984732824427,-29.328244274809162,0.0
12.260000705718994,-13.867216015624999,-1.3742717529296875,5.951985327148437,54.88549618320611,-133.9083969465649,-39.00763358778626,-11.906364855957031,-1.5658078857421873,4.630386010742187,-0.5190839694656488,-54.534351145038165,-21.938931297709924,0.0
12.270000696182251,-15.25824718017578,-2.001552587890625,8.353369592285155,69.06870229007633,-141.17557251908397,-35.38931297709924,-10.730811840820312,-1.3479355346679687,2.612074011230469,-7.9541984732824424,-57.38931297709924,-19.755725190839694,0.0
12.280000686645508,-17.216704138183594,0.19393033447265623,10.141838232421874,83.72519083969466,-152.44274809160305,-30.9618320610687,-9.17458076171875,-1.0175357055664063,0.6847416748046875,-11.312977099236642,-54.19847328244275,-17.267175572519083,0.0
12.290000438690186,-17.23585775146484,1.3479355346679687,7.5465236328125,71.78625954198473,-169.57251908396947,-26.702290076335878,-7.967903124999999,-0.9959878906249999,-1.3527239379882812,-7.541984732824427,-47.6793893129771,-13.221374045801527,0.0
12.300000667572021,-16.658855151367188,1.5083470458984374,4.917690209960937,56.44274809160305,-181.6793893129771,-23.587786259541986,-7.350199096679687,-0.689530078125,-1.2330138549804688,-8.16793893129771,-37.61832061068702,-12.122137404580153,0.0
12.310000896453857,-16.304513305664063,0.9935936889648437,1.7262193969726563,42.916030534351144,-195.14503816793894,-17.709923664122137,-7.165845568847656,-0.8092401611328125,-0.7924807495117187,-4.656488549618321,-28.427480916030536,-9.129770992366412,0.0
12.320000648498535,-14.188039038085936,1.9656395629882812,-0.34715924072265625,45.099236641221374,-193.26717557251908,-9.145038167938932,-7.975085729980468,-2.4061726684570313,-0.09576806640624999,1.4351145038167938,-19.022900763358777,-3.1908396946564888,0.0
12.330000877380371,-16.122553979492185,2.461239306640625,-2.319981408691406,17.69465648854962,-199.89312977099237,-5.00763358778626,-8.99501563720703,-4.7022120605468745,-0.19632453613281248,24.519083969465647,-20.396946564885496,1.0076335877862594,0.0
12.340000629425049,-15.114595080566405,-0.14125789794921875,-3.5577836669921874,30.83969465648855,-185.32824427480915,14.320610687022901,-11.705251916503906,-5.729324572753906,0.8092401611328125,42.97709923664122,-16.38167938931298,3.3893129770992365,0.0
12.350000619888306,-11.499350573730467,-1.438915197753906,-4.594472985839843,36.51908396946565,-172.4732824427481,21.480916030534353,-10.785878479003905,-3.7301661865234372,0.7254431030273437,55.282442748091604,-17.404580152671755,-1.1297709923664123,0.0
12.360000610351562,-9.203311181640624,-2.269703173828125,-4.405331054687499,42.152671755725194,-151.96946564885496,24.625954198473284,-10.512939489746094,-3.057395520019531,0.9121908325195311,44.412213740458014,-8.412213740458014,-1.2366412213740459,0.0
12.37000060081482,-7.50821640625,-3.0142998901367184,-3.0980969482421874,44.595419847328245,-128.03053435114504,23.633587786259543,-8.827421520996094,-0.28969840087890625,1.7621324218749999,36.88549618320611,-0.366412213740458,-1.5725190839694656,0.0
12.380000591278076,-4.771643908691406,-3.430890979003906,-3.749319799804687,59.083969465648856,-100.70229007633588,23.572519083969464,-9.950302099609374,-3.0166940917968748,1.5705962890624998,25.61832061068702,11.908396946564885,3.5114503816793894,0.0
12.390000581741333,-3.5314474487304683,-3.4524387939453125,-1.7836802368164062,68.2442748091603,-69.5114503816794,19.587786259541986,-10.283096130371094,-3.679887951660156,1.70467158203125,40.19847328244275,8.916030534351146,5.908396946564886,0.0
12.40000057220459,-1.5801730957031248,-3.105279553222656,-2.978386865234375,88.93129770992367,-39.603053435114504,13.511450381679388,-8.90643017578125,-2.8514941772460936,1.7669208251953124,45.221374045801525,10.854961832061068,0.12213740458015267,0.0
12.410000562667847,-5.494692810058593,1.2425906616210938,-1.1276689819335937,74.67175572519083,-11.17557251908397,3.5877862595419847,-9.777919580078125,-3.327940307617187,1.62805712890625,46.99236641221374,12.427480916030534,-1.5725190839694656,0.0
12.420000314712524,-7.086836914062499,2.365471240234375,-1.0797849487304687,50.01526717557252,-0.366412213740458,0.2595419847328244,-8.384494213867187,-0.08379705810546874,0.7302315063476562,39.038167938931295,9.923664122137405,-5.786259541984733,0.0
12.43000054359436,-6.4284314575195305,2.96881005859375,-0.6081272216796875,28.85496183206107,17.114503816793892,3.572519083969466,-8.789114294433594,0.5386953735351562,0.7422025146484375,12.030534351145038,22.061068702290076,-4.015267175572519,0.0
12.440000772476196,-6.0908490234374995,3.057395520019531,-0.86191259765625,3.7557251908396947,26.732824427480917,5.8320610687022905,-9.713276135253906,-1.0079588989257813,1.2617442749023438,3.7099236641221376,24.85496183206107,1.786259541984733,0.0
12.450000524520874,-6.579266162109374,2.29843359375,-0.3112462158203125,-11.32824427480916,39.725190839694655,7.633587786259542,-10.812214697265624,-1.4700398193359374,2.446874096679687,2.595419847328244,25.450381679389313,4.67175572519084,0.0
12.46000051498413,-6.344634399414062,1.5873557006835937,-0.7110778930664062,-22.99236641221374,47.69465648854962,8.595419847328245,-8.935160595703124,0.41898529052734373,1.7405846069335937,-2.5343511450381677,24.595419847328245,0.07633587786259542,0.0
12.470000505447388,-6.074089611816406,1.946485949707031,-0.39983167724609375,-34.61068702290076,60.732824427480914,9.17557251908397,-8.396465222167969,0.47165772705078124,2.710236279296875,-23.236641221374047,37.38931297709924,0.366412213740458,0.0
12.480000495910645,-5.904101293945312,1.889025109863281,-0.5793968017578125,-51.038167938931295,65.93893129770993,8.854961832061068,-10.216058483886718,-3.124433166503906,3.450044592285156,-13.16030534351145,35.49618320610687,10.335877862595419,0.0
12.490000486373901,-5.9591679321289055,-0.3806780639648437,-0.718260498046875,-58.36641221374046,72.94656488549619,8.198473282442748,-9.734823950195311,-2.068590234375,3.9815573608398434,6.122137404580153,25.786259541984734,10.854961832061068,0.0
12.500000476837158,-5.291185668945312,-1.8626888916015625,-1.1755530151367186,-45.63358778625954,86.12213740458016,9.297709923664122,-10.850521923828124,-1.70467158203125,4.671087438964843,11.587786259541986,23.297709923664122,8.16793893129771,0.0
12.510000705718994,-4.61602080078125,-2.3319524169921872,-1.4101847778320311,-43.12977099236641,96.2442748091603,6.137404580152672,-9.0021982421875,-0.354341845703125,4.139574670410156,11.053435114503817,18.99236641221374,9.206106870229007,0.0
12.520000457763672,-4.817133740234374,-2.626439221191406,-1.0797849487304687,-44.06106870229008,105.08396946564885,2.4427480916030535,-9.294290844726563,-0.39264907226562495,4.259284753417968,11.145038167938932,13.969465648854962,13.099236641221374,0.0
12.530000925064087,-4.979939453125,-2.858676782226562,0.16280571289062498,-40.412213740458014,116.38167938931298,0.2900763358778626,-8.329427575683594,0.3591302490234375,4.3430818115234375,4.931297709923665,9.84732824427481,15.007633587786259,0.0
12.540000438690186,-5.801150622558594,-2.710236279296875,1.7525556152343749,-30.091603053435115,125.57251908396947,-0.030534351145038167,-8.353369592285155,-0.6703764648437499,4.280832568359375,6.183206106870229,3.8931297709923665,18.580152671755727,0.0
12.5500009059906,-5.741295581054687,-3.189076611328125,3.6367923217773437,-14.83969465648855,134.91603053435114,0.030534351145038167,-8.86094034423828,-1.3144167114257812,5.0757075195312495,12.732824427480915,-2.122137404580153,21.099236641221374,0.0
12.560000658035278,-6.845022546386718,-2.5617957763671875,5.827486840820312,8.748091603053435,143.64885496183206,-1.099236641221374,-8.530540515136718,-0.8906430175781249,5.042188696289062,11.84732824427481,-8.0,20.27480916030534,0.0
12.570000648498535,-8.44674345703125,-2.0374656127929685,9.095572106933593,30.137404580152673,144.793893129771,-0.8396946564885496,-7.46272657470703,0.201112939453125,4.434061474609375,5.847328244274809,-12.13740458015267,20.16793893129771,0.0
12.580000638961792,-9.64623848876953,0.26336218261718747,11.858480822753906,52.778625954198475,141.09923664122138,0.5648854961832062,-8.322244970703125,-0.1867477294921875,3.995922570800781,-6.885496183206107,-10.732824427480915,22.396946564885496,0.0
12.59000039100647,-12.830526696777342,4.2497079467773435,14.137760803222655,66.73282442748092,129.72519083969465,9.312977099236642,-8.145074047851562,-0.7206546997070312,3.9624037475585934,-18.290076335877863,-7.129770992366412,25.053435114503817,0.0
12.600000619888306,-12.780248461914061,2.568978381347656,11.382034692382812,58.76335877862596,108.65648854961832,19.34351145038168,-7.510610607910156,-1.005564697265625,2.24097275390625,-13.816793893129772,-13.221374045801527,24.091603053435115,0.0
12.610000610351562,-11.841721411132811,1.9991583862304687,10.465055456542968,59.267175572519086,93.08396946564885,21.358778625954198,-8.540117321777343,-2.530671154785156,2.0566192260742184,-12.580152671755725,-8.992366412213741,22.442748091603054,0.0
12.62000036239624,-14.516044665527343,3.766079211425781,9.150638745117186,16.076335877862597,63.70992366412214,12.732824427480915,-8.161833459472655,-3.440467785644531,2.3726538452148436,3.633587786259542,-11.236641221374045,20.778625954198475,0.0
12.630000591278076,-15.796942553710936,2.8850130004882812,7.675810522460937,-16.229007633587788,37.786259541984734,11.068702290076336,-8.863334545898438,-3.4572271972656248,1.7669208251953124,8.946564885496183,-12.412213740458014,21.938931297709924,0.0
12.640000581741333,-18.78251202392578,2.6695348510742187,8.010998754882811,-30.427480916030536,20.702290076335878,16.549618320610687,-8.942343200683593,-1.1109095703125,0.9074024291992187,8.076335877862595,-11.48091603053435,20.35114503816794,0.0
12.65000057220459,-20.149601171875,0.5865794067382812,9.404424121093749,-36.93129770992366,0.7480916030534351,23.908396946564885,-9.773131176757811,-2.1715409057617188,1.879448303222656,0.0916030534351145,-2.4122137404580153,22.732824427480917,0.0
12.660000562667847,-19.220650927734376,-4.65432802734375,9.423577734375,-18.977099236641223,-16.50381679389313,30.763358778625953,-12.050016955566406,-3.603273498535156,2.0973206542968748,6.1679389312977095,3.648854961832061,23.557251908396946,0.0
12.670000553131104,-17.549498168945313,-6.976703637695312,9.49300958251953,30.458015267175572,-26.412213740458014,32.68702290076336,-11.326968054199218,-4.754884497070313,1.7453730102539062,17.83206106870229,4.854961832061068,17.450381679389313,0.0
12.68000078201294,-14.784195251464842,-5.087678527832031,7.048529687499999,87.16030534351145,-29.755725190839694,34.80916030534351,-11.094730493164063,-5.035006091308594,2.7078420776367187,27.419847328244273,12.0,11.083969465648854,0.0
12.690000295639038,-12.947842578125,-0.7948749511718749,3.9504327392578125,102.12213740458016,-32.732824427480914,32.62595419847328,-11.267113012695312,-4.716577270507813,1.5227122558593749,47.541984732824424,9.84732824427481,4.213740458015267,0.0
12.700000762939453,-9.282319836425781,0.9792284790039062,2.0733786376953125,81.93893129770993,-46.38167938931298,24.47328244274809,-11.722011328125,-2.7078420776367187,0.8307879760742187,56.80916030534351,11.816793893129772,-2.6106870229007635,0.0
12.71000051498413,-7.491456994628906,0.8571241943359375,1.687912170410156,53.49618320610687,-53.969465648854964,14.396946564885496,-12.437877624511717,-1.35990654296875,0.6200982299804687,58.74809160305343,14.580152671755725,-8.305343511450381,0.0
12.720000505447388,-4.783614916992187,-0.8690952026367187,0.28012159423828126,33.23664122137404,-59.6793893129771,3.572519083969466,-12.344503759765624,0.6919242797851562,0.055066638183593745,54.274809160305345,17.740458015267176,-13.389312977099237,0.0
12.730000495910645,-4.448426684570312,0.16280571289062498,-1.8722656982421875,30.65648854961832,-53.20610687022901,-3.480916030534351,-12.830526696777342,1.6112977172851561,0.6200982299804687,46.6412213740458,25.267175572519083,-13.32824427480916,0.0
12.740000247955322,-3.229778039550781,1.39821376953125,-4.486733911132812,31.34351145038168,-42.18320610687023,-4.366412213740458,-11.528080993652344,1.7501614135742187,0.70868369140625,34.717557251908396,27.358778625954198,-12.0,0.0
12.750000476837158,-2.877830395507812,2.0925322509765625,-5.128379956054687,33.93893129770992,-22.931297709923665,-4.122137404580153,-10.58476553955078,2.9927520751953125,1.1635820068359375,22.99236641221374,32.091603053435115,-9.129770992366412,0.0
12.760000705718994,-4.347870214843749,1.9895815795898437,-4.7931917236328125,35.31297709923664,0.7022900763358778,-3.633587786259542,-11.003750830078124,0.7876923461914062,2.1787235107421874,18.061068702290076,36.94656488549618,-4.1679389312977095,0.0
12.770000696182251,-8.882488159179687,6.823474731445312,-2.6886884643554687,10.458015267175572,9.358778625954198,-5.694656488549619,-10.426748229980468,0.277727392578125,2.4157494750976563,33.3587786259542,23.297709923664122,-1.6641221374045803,0.0
12.780000448226929,-11.027692846679686,5.758054992675781,-1.8914193115234375,-8.595419847328245,19.893129770992367,2.5801526717557253,-10.465055456542968,1.2521674682617188,3.2130186279296873,36.30534351145038,15.633587786259541,-1.9083969465648856,0.0
12.790000915527344,-10.192116467285155,4.8123453369140625,-1.4245499877929686,-15.374045801526718,31.83206106870229,8.366412213740459,-9.773131176757811,2.059013427734375,3.4165257690429685,26.16793893129771,10.51908396946565,-2.2595419847328246,0.0
12.800000429153442,-11.305420239257812,5.066130712890625,-0.5746083984375,-30.625954198473284,40.88549618320611,9.86259541984733,-10.002974536132811,1.924938134765625,3.7900212280273435,16.564885496183205,7.6183206106870225,1.786259541984733,0.0
12.810000896453857,-10.82179150390625,2.221819140625,0.0143652099609375,-40.412213740458014,46.68702290076336,13.98473282442748,-10.158597644042969,2.1835119140624997,4.163516687011718,7.419847328244275,2.6412213740458017,5.572519083969466,0.0
12.820000648498535,-10.295067138671874,0.4477157104492187,1.0845733520507812,-38.274809160305345,51.61832061068702,13.16030534351145,-10.979808813476561,1.6519991455078125,4.244919543457031,-0.6259541984732825,1.2366412213740459,7.404580152671755,0.0
12.830000877380371,-10.9941740234375,-0.3711012573242187,2.0278888061523435,-37.725190839694655,52.0,9.801526717557252,-11.21683477783203,1.8100164550781248,4.3454760131835934,-8.396946564885496,-1.3893129770992367,6.625954198473282,0.0
12.84000039100647,-10.539275708007812,0.00239420166015625,2.454056701660156,-33.19083969465649,50.717557251908396,5.816793893129771,-11.853692419433592,1.3168109130859373,4.537012145996093,-14.50381679389313,-2.8091603053435112,5.969465648854962,0.0
12.850000619888306,-10.862492932128905,0.6703764648437499,2.6408044311523438,-34.47328244274809,44.99236641221374,0.9770992366412213,-11.587936035156249,2.308010400390625,4.168305090332031,-24.564885496183205,-5.450381679389313,3.4656488549618323,0.0
12.860000371932983,-10.965443603515624,0.27293898925781246,2.375048046875,-31.954198473282442,40.50381679389313,-0.9923664122137404,-11.781866369628906,1.3168109130859373,4.043806604003906,-28.213740458015266,-5.6183206106870225,5.450381679389313,0.0
12.87000060081482,-8.892064965820312,0.34237083740234375,1.687912170410156,-25.389312977099237,34.79389312977099,-2.213740458015267,-11.379640490722656,1.0773907470703123,2.6384102294921874,-16.946564885496183,-16.33587786259542,6.564885496183206,0.0
12.880000591278076,-10.187328063964843,2.272097375488281,1.5155296508789062,-23.801526717557252,34.01526717557252,-5.0534351145038165,-11.537657800292967,3.1603461914062496,3.21780703125,-21.053435114503817,-16.717557251908396,7.572519083969466,0.0
12.890000581741333,-8.774749084472656,1.1372457885742187,0.3232172241210937,-30.15267175572519,26.458015267175572,-1.6488549618320612,-8.48505068359375,3.976768957519531,1.5466542724609373,-37.969465648854964,-18.717557251908396,6.793893129770993,0.0
12.90000033378601,-9.13627353515625,2.3487118286132813,0.8116343627929687,-28.15267175572519,27.34351145038168,-1.8015267175572518,-8.63827958984375,2.5378537597656248,1.6903063720703124,-41.6793893129771,-15.129770992366412,11.404580152671755,0.0
12.910000562667847,-8.947131604003905,1.5059528442382812,0.4836287353515625,-35.29770992366412,23.053435114503817,-0.7480916030534351,-8.781931689453124,1.199495031738281,2.849099975585937,-35.343511450381676,-13.725190839694656,15.679389312977099,0.0
12.920000314712524,-8.406042028808594,-0.16041151123046873,0.5530605834960938,-23.450381679389313,27.72519083969466,0.12213740458015267,-9.9215716796875,-0.7924807495117187,2.6048914062499997,-22.9618320610687,-17.61832061068702,17.893129770992367,0.0
12.93000054359436,-9.852139831542969,1.4173673828125,0.9935936889648437,-26.366412213740457,25.053435114503817,-2.763358778625954,-9.758765966796874,-0.08858546142578125,2.499546533203125,-9.17557251908397,-23.66412213740458,14.458015267175572,0.0
12.940000772476196,-9.689334118652344,0.6464344482421874,0.9983820922851562,-22.900763358778626,24.396946564885496,-1.0534351145038168,-7.9295958984374995,1.6615759521484375,1.889025109863281,-18.793893129770993,-24.83969465648855,11.129770992366412,0.0
12.950000286102295,-9.41639512939453,1.0342951171875,1.24498486328125,-17.938931297709924,26.48854961832061,-0.5190839694656488,-7.5465236328125,3.0885201416015624,0.8906430175781249,-36.961832061068705,-18.80916030534351,12.51908396946565,0.0
12.96000075340271,-8.755595471191405,-0.9313444458007812,0.4860229370117187,-11.816793893129772,27.435114503816795,1.1145038167938932,-8.556876733398436,0.6057330200195312,1.6232687255859375,-44.778625954198475,-7.755725190839694,19.66412213740458,0.0
12.970000505447388,-8.415618835449218,-1.20667763671875,0.5865794067382812,10.80916030534351,34.51908396946565,-0.42748091603053434,-9.229647399902344,0.19632453613281248,1.4341267944335936,-35.87786259541985,-4.33587786259542,20.106870229007633,0.0
12.980000257492065,-10.594342346191405,1.5610194824218748,1.6328455322265625,17.938931297709924,37.51145038167939,-5.221374045801527,-9.68454571533203,-0.17477672119140625,1.7741034301757812,-31.34351145038168,-2.3969465648854964,16.977099236641223,0.0
12.990000486373901,-10.563217724609375,2.0661960327148434,1.5298948608398437,15.221374045801527,35.51145038167939,-5.312977099236641,-9.3852705078125,-0.27293898925781246,1.6041151123046875,-30.0,-0.366412213740458,13.908396946564885,0.0
13.000000476837158,-10.108319409179687,2.868253588867187,1.5969325073242187,11.251908396946565,34.18320610687023,-5.358778625954199,-9.34696328125,-0.4908113403320312,1.2138602416992186,-27.282442748091604,0.15267175572519084,12.580152671755725,0.0
13.010000705718994,-10.639832177734375,2.7078420776367187,1.6112977172851561,2.9923664122137406,30.15267175572519,-4.8396946564885495,-9.318232861328125,-0.33518823242187495,1.0869675537109373,-22.595419847328245,1.0687022900763359,11.770992366412214,0.0
13.020000696182251,-9.0021982421875,1.66636435546875,1.1851298217773436,-1.5725190839694656,23.740458015267176,-2.2748091603053435,-9.686939916992188,-0.6727706665039062,1.3383587280273437,-19.267175572519083,2.549618320610687,10.992366412213741,0.0
13.030000448226929,-8.197746484375,0.9720458740234375,1.209071838378906,0.7022900763358778,23.81679389312977,-1.0687022900763359,-9.7683427734375,-1.1372457885742187,1.7310078002929687,-13.251908396946565,3.312977099236641,9.938931297709924,0.0
13.040000438690186,-9.610325463867188,2.35589443359375,1.5083470458984374,-8.51908396946565,20.778625954198475,-2.351145038167939,-10.970232006835937,-1.5753846923828123,1.924938134765625,1.7251908396946565,0.8854961832061069,8.870229007633588,0.0
13.0500009059906,-9.734823950195311,1.9297265380859374,1.7980454467773437,-2.5801526717557253,24.366412213740457,-2.045801526717557,-10.156203442382813,-0.7876923461914062,2.4516625,2.5343511450381677,0.22900763358778625,5.923664122137405,0.0
13.0600004196167,-10.012551342773437,2.863465185546875,1.5466542724609373,-10.702290076335878,21.404580152671755,-1.3893129770992367,-9.421183532714844,-1.4508862060546874,3.009511486816406,0.7022900763358778,2.3969465648854964,4.885496183206107,0.0
13.070000886917114,-10.232817895507813,2.825157958984375,1.7836802368164062,-16.3206106870229,20.091603053435115,-0.0916030534351145,-10.529698901367187,-2.068590234375,3.2728736694335936,15.86259541984733,-1.3129770992366412,4.885496183206107,0.0
13.080000638961792,-10.127473022460936,1.9488801513671874,1.2306196533203124,-21.389312977099237,15.923664122137405,1.5267175572519085,-9.660603698730467,-1.905784521484375,2.999934680175781,23.083969465648856,-9.755725190839694,1.5725190839694656,0.0
13.090000629425049,-9.30147344970703,1.3144167114257812,0.8020575561523438,-20.396946564885496,16.18320610687023,4.412213740458015,-8.36294639892578,-0.028730419921875,2.7246014892578123,24.793893129770993,-14.045801526717558,-2.3053435114503817,0.0
13.100000619888306,-9.244012609863281,2.1021090576171875,0.9169792358398436,-21.541984732824428,17.81679389312977,4.717557251908397,-8.099584216308592,1.6065093139648436,2.138022082519531,12.290076335877863,-11.633587786259541,-4.091603053435114,0.0
13.110000610351562,-9.349357482910156,2.8514941772460936,1.3096283081054687,-26.519083969465647,19.709923664122137,6.213740458015267,-7.225700610351562,1.8507178833007811,1.695094775390625,-2.2900763358778624,-9.465648854961833,-3.969465648854962,0.0
13.12000060081482,-9.270348828125,2.602497204589844,1.4867992309570313,-33.51145038167939,17.572519083969464,7.603053435114504,-8.877699755859375,0.2825157958984375,2.839523168945312,-11.297709923664122,-0.6412213740458015,0.7938931297709924,0.0
13.130000352859497,-9.41639512939453,1.5586252807617187,1.8602946899414061,-37.00763358778626,15.282442748091603,8.15267175572519,-8.961496813964843,0.2537853759765625,2.925714428710937,-7.816793893129771,-2.4427480916030535,1.099236641221374,0.0
13.140000343322754,-10.036493359375,1.4820108276367188,2.224213342285156,-38.25954198473283,13.83206106870229,7.0534351145038165,-9.181763366699219,0.4860229370117187,3.289633081054687,-9.282442748091603,-3.7557251908396947,-0.04580152671755725,0.0
13.15000057220459,-10.297461340332031,0.9983820922851562,2.4396914916992185,-38.10687022900763,11.98473282442748,6.625954198473282,-8.987833032226561,0.7326257080078125,3.258508459472656,-11.251908396946565,-4.442748091603053,0.32061068702290074,0.0
13.160000562667847,-10.287884533691406,0.6416460449218749,2.4947581298828125,-35.98473282442748,9.923664122137405,7.267175572519084,-8.971073620605468,0.277727392578125,3.337517114257812,-13.648854961832061,-5.419847328244275,0.21374045801526717,0.0
13.170000314712524,-10.388441003417968,0.603338818359375,2.31758720703125,-34.35114503816794,8.870229007633588,6.473282442748092,-10.070012182617187,-0.3447650390625,3.342305517578125,-7.00763358778626,-10.16793893129771,0.9770992366412213,0.0
13.18000078201294,-10.280701928710936,0.6081272216796875,2.2385785522460937,-32.70229007633588,8.366412213740459,4.595419847328245,-10.82179150390625,0.09816226806640624,3.948038537597656,-5.923664122137405,-10.091603053435115,0.5801526717557252,0.0
13.190000534057617,-9.86411083984375,0.4333505004882812,2.2098481323242187,-31.068702290076335,6.9465648854961835,3.2061068702290076,-10.029310754394531,0.22505495605468748,3.7612908081054686,-13.48091603053435,-9.664122137404581,0.6259541984732825,0.0
13.200000762939453,-9.897629663085937,0.7685387329101562,1.9704279663085937,-29.435114503816795,5.923664122137405,1.83206106870229,-10.867281335449219,-0.8571241943359375,4.42448466796875,-14.13740458015267,-8.290076335877863,1.7557251908396947,0.0
13.21000051498413,-9.617508068847656,0.8858546142578124,1.4437036010742186,-26.076335877862597,4.977099236641221,0.6259541984732825,-10.32379755859375,0.42377369384765623,3.4428619873046875,-9.725190839694656,-13.022900763358779,0.9312977099236641,0.0
13.220000505447388,-9.93354268798828,1.3024457031249999,1.1827356201171875,-23.022900763358777,4.9465648854961835,0.2595419847328244,-9.18655177001953,-0.5674257934570313,3.21780703125,-7.511450381679389,-16.83969465648855,-0.12213740458015267,0.0
13.230000495910645,-9.624690673828125,1.4149731811523436,0.8475473876953125,-20.519083969465647,6.015267175572519,0.42748091603053434,-9.121908325195312,-0.7398083129882812,3.3542765258789062,-4.519083969465649,-17.908396946564885,-0.7938931297709924,0.0
13.240000486373901,-9.548076220703125,1.848323681640625,0.5626373901367188,-21.404580152671755,7.541984732824427,-0.0,-9.076418493652342,1.47482822265625,2.626439221191406,-10.748091603053435,-16.16793893129771,-2.16793893129771,0.0
13.250000476837158,-9.184157568359375,1.5107412475585937,0.33758243408203126,-24.458015267175572,8.274809160305344,0.13740458015267176,-7.635109094238281,2.1260510742187497,2.4157494750976563,-26.061068702290076,-11.374045801526718,-2.763358778625954,0.0
13.260000705718994,-9.133879333496093,0.8667010009765624,0.27293898925781246,-22.519083969465647,11.755725190839694,-0.32061068702290074,-9.157821350097656,-0.01915361328125,3.201047619628906,-34.10687022900763,-2.50381679389313,2.0610687022900764,0.0
13.270000696182251,-8.698134631347656,0.852335791015625,0.0383072265625,-30.427480916030536,10.106870229007633,-1.6793893129770991,-9.303867651367186,-0.44532150878906246,3.574543078613281,-29.34351145038168,-3.954198473282443,2.4885496183206106,0.0
13.280000686645508,-9.773131176757811,2.3630770385742186,0.45968671875,-36.732824427480914,10.15267175572519,-2.5801526717557253,-8.942343200683593,-0.3950432739257812,3.4835634155273434,-29.083969465648856,-3.450381679389313,0.9618320610687023,0.0
13.290000915527344,-9.991003527832031,1.7094599853515624,0.3327940307617187,-41.29770992366412,10.51908396946565,-1.2213740458015268,-8.94473740234375,-0.6919242797851562,3.4356793823242184,-28.99236641221374,-3.1603053435114505,-0.32061068702290074,0.0
13.300000667572021,-9.624690673828125,1.1037269653320312,0.4836287353515625,-42.47328244274809,11.908396946564885,-1.450381679389313,-9.10993731689453,-1.0558429321289062,3.3159692993164063,-28.427480916030536,-3.145038167938931,-0.916030534351145,0.0
13.310000658035278,-9.598354455566406,0.6703764648437499,0.39743747558593745,-41.38931297709924,13.206106870229007,-2.5801526717557253,-9.038111267089842,-1.1947066284179686,3.227383837890625,-25.572519083969464,-2.213740458015267,-2.3206106870229006,0.0
13.320000648498535,-8.281543542480469,-1.9608511596679685,-0.35673604736328124,-31.984732824427482,15.374045801526718,-1.8625954198473282,-8.825027319335938,-1.235408056640625,3.35188232421875,-22.625954198473284,-2.015267175572519,-3.7099236641221376,0.0
13.330000877380371,-7.484274389648437,-1.6927005737304686,-0.3016694091796875,-14.595419847328245,22.12213740458015,-5.480916030534351,-8.975862023925782,-1.2856862915039062,3.2417490478515623,-18.213740458015266,-0.8244274809160306,-4.6106870229007635,0.0
13.34000039100647,-8.710105639648438,-0.1388636962890625,0.1580173095703125,-5.648854961832061,28.106870229007633,-10.01526717557252,-8.748412866210938,-1.0510545288085937,3.2345664428710936,-13.114503816793894,-0.24427480916030533,-6.5038167938931295,0.0
13.350000619888306,-9.619902270507811,1.1109095703125,0.6512228515624999,-3.145038167938931,29.81679389312977,-12.335877862595419,-8.901641772460938,-0.9888052856445312,3.114856359863281,-8.687022900763358,0.22900763358778625,-6.442748091603053,0.0
13.360000610351562,-10.20887587890625,2.319981408691406,1.0175357055664063,-8.488549618320612,28.290076335877863,-13.282442748091603,-9.062053283691405,-0.7757213378906249,3.0933085449218747,-4.67175572519084,1.0229007633587786,-7.175572519083969,0.0
13.37000060081482,-9.519345800781249,1.2785036865234374,0.6823474731445313,-10.67175572519084,23.52671755725191,-11.312977099236642,-8.942343200683593,-0.70868369140625,3.1028853515624997,-2.0,2.351145038167939,-7.587786259541985,0.0
13.380000591278076,-10.682927807617187,1.1372457885742187,1.197100830078125,-9.603053435114504,25.572519083969464,-11.541984732824428,-8.573636145019531,-0.622492431640625,3.189076611328125,-0.2595419847328244,3.114503816793893,-8.488549618320612,0.0
13.390000343322754,-9.773131176757811,0.8786720092773437,0.603338818359375,-12.244274809160306,18.610687022900763,-10.854961832061068,-8.79150849609375,-0.5770026000976562,3.3159692993164063,2.763358778625954,3.9083969465648853,-9.038167938931299,0.0
13.40000033378601,-10.359710583496094,1.43652099609375,1.3335703247070312,-15.709923664122137,15.34351145038168,-11.145038167938932,-8.544905725097657,-0.47644613037109373,3.399766357421875,3.3893129770992365,5.312977099236641,-9.725190839694656,0.0
13.410000562667847,-9.579200842285156,-0.011971008300781249,1.6065093139648436,-7.847328244274809,15.938931297709924,-10.427480916030534,-8.382100012207031,-0.43574470214843747,3.375824340820312,4.778625954198473,6.732824427480916,-10.122137404580153,0.0
13.420000791549683,-9.993397729492187,1.0797849487304687,1.7573440185546874,-11.755725190839694,9.801526717557252,-12.091603053435115,-8.664615808105468,-0.4908113403320312,3.2513258544921873,6.3816793893129775,7.022900763358779,-10.106870229007633,0.0
13.430000305175781,-9.536105212402344,-0.21068974609375,1.8195932617187498,-2.8396946564885495,8.80916030534351,-11.679389312977099,-8.319850769042969,-0.4213794921875,3.4763808105468748,6.916030534351145,8.274809160305344,-10.091603053435115,0.0
13.440000772476196,-9.543287817382812,-0.18435352783203124,2.085349645996094,3.2061068702290076,6.320610687022901,-13.221374045801527,-8.183381274414062,-0.30885201416015623,3.327940307617187,7.083969465648855,8.549618320610687,-10.641221374045802,0.0
13.450000286102295,-9.53131680908203,-0.15083470458984374,2.43250888671875,8.366412213740459,2.4885496183206106,-13.954198473282442,-8.305485559082031,-0.22266075439453123,3.268085266113281,7.755725190839694,8.106870229007633,-10.625954198473282,0.0
13.46000075340271,-9.349357482910156,-0.15322890625,2.9975404785156248,15.251908396946565,0.04580152671755725,-14.992366412213741,-8.429984045410155,-0.10773907470703124,3.306392492675781,7.694656488549619,8.396946564885496,-10.580152671755725,0.0
13.470000505447388,-9.069235888671875,-0.3232172241210937,3.4620156005859375,22.778625954198475,-2.946564885496183,-15.114503816793894,-8.317456567382813,-0.12689268798828124,3.430890979003906,7.022900763358779,8.229007633587786,-10.931297709923664,0.0
13.480000495910645,-9.502586389160156,1.2856862915039062,3.912125512695312,28.259541984732824,-7.145038167938932,-16.290076335877863,-8.185775476074218,0.033518823242187495,3.3686417358398435,6.900763358778626,7.572519083969466,-11.312977099236642,0.0
13.490000486373901,-9.95987890625,1.5035586425781249,2.923320227050781,23.480916030534353,-13.694656488549619,-15.19083969465649,-8.169016064453125,-0.0383072265625,3.438073583984375,8.946564885496183,6.473282442748092,-10.702290076335878,0.0
13.500000476837158,-7.012616662597656,0.16759411621093748,0.40462008056640625,28.12213740458015,-19.14503816793893,-13.755725190839694,-8.01818135986328,-0.17477672119140625,3.5769372802734374,8.732824427480915,5.816793893129771,-10.564885496183207,0.0
13.510000705718994,-8.418013037109375,0.8188169677734375,1.6160861206054686,33.38931297709924,-15.16030534351145,-16.106870229007633,-7.843404638671874,-0.3327940307617187,3.8091748413085935,12.50381679389313,4.732824427480916,-10.351145038167939,0.0
13.520000696182251,-8.475473876953124,1.714248388671875,1.946485949707031,30.15267175572519,-13.923664122137405,-18.213740458015266,-8.054094384765625,-0.201112939453125,3.840299462890625,15.129770992366412,3.572519083969466,-9.86259541984733,0.0
13.530000925064087,-10.682927807617187,4.881777185058594,2.722207287597656,10.931297709923664,-19.17557251908397,-21.297709923664122,-8.02536396484375,-0.2753331909179687,3.8857892944335934,15.740458015267176,2.8244274809160306,-9.358778625954198,0.0
13.540000677108765,-10.66856259765625,3.6104561035156246,2.961627453613281,2.3053435114503817,-21.83206106870229,-18.702290076335878,-7.68059892578125,0.19153613281249998,3.651157531738281,14.702290076335878,1.251908396946565,-9.511450381679388,0.0
13.5500009059906,-9.528922607421874,2.2601263671875,0.8690952026367187,5.8320610687022905,-34.3206106870229,-16.244274809160306,-7.908048083496094,0.0383072265625,3.6248213134765623,13.587786259541986,1.4809160305343512,-9.801526717557252,0.0
13.5600004196167,-9.165003955078124,-0.33758243408203126,3.8953661010742184,5.267175572519084,-22.18320610687023,-13.770992366412214,-7.481880187988281,0.26336218261718747,3.5122938354492184,11.709923664122137,1.6641221374045803,-10.534351145038167,0.0
13.570000886917114,-10.740388647460938,2.6910826660156246,2.568978381347656,2.8396946564885495,-28.18320610687023,-13.587786259541986,-7.948749511718749,-0.055066638183593745,3.5434184570312497,12.091603053435115,2.33587786259542,-9.969465648854962,0.0
13.580000638961792,-10.754753857421875,3.5697546752929687,1.697488977050781,-6.33587786259542,-32.458015267175576,-10.870229007633588,-7.694964135742187,0.5865794067382812,3.5386300537109374,9.557251908396946,2.2748091603053435,-10.0,0.0
13.590000629425049,-8.137891442871092,1.8219874633789062,1.4604630126953124,-10.320610687022901,-32.82442748091603,-6.076335877862595,-6.964732629394531,1.687912170410156,3.0789433349609374,0.6564885496183206,3.7251908396946565,-11.053435114503817,0.0
13.600000619888306,-8.092401611328125,0.16041151123046873,0.7900865478515624,-6.702290076335878,-31.603053435114504,-4.793893129770993,-6.852205151367187,0.5817910034179687,3.268085266113281,-6.854961832061068,6.809160305343512,-8.442748091603054,0.0
13.610000848770142,-6.885723974609375,0.2920926025390625,1.0414777221679687,-2.8396946564885495,-26.916030534351144,-7.633587786259542,-7.359775903320312,0.05027823486328125,3.2249896362304686,-4.732824427480916,5.816793893129771,-6.0458015267175576,0.0
13.62000036239624,-9.897629663085937,1.3311761230468748,1.8195932617187498,-10.351145038167939,-24.198473282442748,-12.564885496183207,-6.7277066650390625,1.369483349609375,2.607285607910156,-7.801526717557252,3.786259541984733,-6.99236641221374,0.0
13.630000591278076,-9.119514123535156,0.7685387329101562,1.5059528442382812,-17.00763358778626,-29.61832061068702,-11.816793893129772,-8.350975390624999,1.6831237670898436,3.0358477050781247,-20.82442748091603,10.564885496183207,-4.809160305343512,0.0
13.640000581741333,-8.968679418945312,0.6943184814453125,2.2577321655273437,-8.274809160305344,-24.564885496183205,-11.801526717557252,-7.4028715332031245,2.6982652709960937,2.8610709838867185,-42.93129770992366,13.725190839694656,-6.3816793893129775,0.0
13.65000057220459,-9.995791931152343,2.463633508300781,3.6487633300781246,-15.740458015267176,-28.198473282442748,-13.648854961832061,-8.537723120117187,1.1563994018554686,3.5506010620117183,-62.88549618320611,22.061068702290076,-4.748091603053435,0.0
13.660000562667847,-9.603142858886718,-0.5219359619140624,3.6104561035156246,-10.122137404580153,-32.61068702290076,-11.221374045801527,-10.062829577636718,-1.8100164550781248,2.6623522460937497,-52.58015267175573,24.15267175572519,-4.091603053435114,0.0
13.670000553131104,-9.68454571533203,-0.023942016601562498,3.1699229980468746,3.3587786259541983,-35.23664122137404,-11.954198473282442,-11.659762084960937,-1.8171990600585937,1.6328455322265625,-28.931297709923665,18.900763358778626,-10.992366412213741,0.0
13.68000054359436,-10.934318981933593,1.6543933471679686,3.919308117675781,3.099236641221374,-38.83969465648855,-14.15267175572519,-12.564770312499999,0.062249243164062495,3.4931402221679684,-28.290076335877863,19.389312977099237,-19.801526717557252,0.0
13.690000534057617,-11.003750830078124,2.070984436035156,5.013458276367187,-11.48091603053435,-53.954198473282446,-12.106870229007633,-14.674061975097656,-1.946485949707031,6.981492041015625,-38.51908396946565,19.52671755725191,-19.46564885496183,0.0
13.700000762939453,-13.232752575683593,0.7613561279296874,6.119579443359375,-13.251908396946565,-64.83969465648855,-12.564885496183207,-15.555128186035155,-4.69263525390625,8.896853369140624,-27.69465648854962,6.534351145038168,-13.32824427480916,0.0
13.710000276565552,-14.264653491210936,0.0430956298828125,7.651868505859374,-11.251908396946565,-78.03053435114504,-15.664122137404581,-14.525621472167968,-4.460397692871093,6.854599353027344,-2.1374045801526718,-11.511450381679388,-9.98473282442748,0.0
13.720000505447388,-16.517597253417968,0.23702596435546874,8.71489404296875,-8.305343511450381,-94.1526717557252,-17.633587786259543,-12.16254443359375,-4.752490295410156,3.0645781249999997,7.908396946564886,-20.580152671755727,-12.580152671755725,0.0
13.730000257492065,-16.61815372314453,-0.36152445068359373,9.038111267089842,-10.335877862595419,-114.70229007633588,-17.0381679389313,-10.445901843261717,-5.054159704589844,-0.8547299926757812,18.80916030534351,-21.083969465648856,-17.87786259541985,0.0
13.740000486373901,-17.66441984863281,-0.8068459594726562,10.04846436767578,-6.152671755725191,-131.4351145038168,-16.18320610687023,-8.623914379882812,-2.597708801269531,-2.6288334228515624,33.86259541984733,-13.816793893129772,-20.38167938931298,0.0
13.750000238418579,-17.166425903320313,-2.6886884643554687,9.093177905273437,-2.9923664122137406,-155.48091603053436,-14.51908396946565,-8.13310303955078,-0.33758243408203126,-2.597708801269531,46.656488549618324,-3.3435114503816794,-18.99236641221374,0.0
13.760000705718994,-15.231910961914062,-5.360617517089843,5.588066674804687,12.946564885496183,-172.13740458015266,-10.946564885496183,-8.489839086914062,1.199495031738281,-0.6296750366210937,52.30534351145038,8.931297709923664,-14.0,0.0
13.770000696182251,-14.915876342773437,-5.482721801757812,3.6200329101562496,30.27480916030534,-179.22137404580153,-13.755725190839694,-8.66940421142578,1.5466542724609373,-0.3184288208007812,52.25954198473283,17.984732824427482,-9.786259541984732,0.0
13.780000686645508,-13.721169714355469,-5.130774157714844,0.1149216796875,50.13740458015267,-184.68702290076337,-14.198473282442748,-9.052476477050782,0.9816226806640624,-0.3687070556640625,46.74809160305343,27.389312977099237,-5.312977099236641,0.0
13.790000915527344,-11.968614099121092,-4.910507604980468,-2.767697119140625,74.21374045801527,-179.3587786259542,-10.51908396946565,-8.264784130859374,1.5442600708007812,0.4070142822265625,28.732824427480917,37.404580152671755,-4.320610687022901,0.0
13.800000667572021,-9.904812268066406,-4.3263223999023435,-5.549759448242187,99.43511450381679,-164.99236641221373,-4.183206106870229,-7.596801867675781,1.9584569580078124,0.469263525390625,5.938931297709924,44.916030534351144,-2.900763358778626,0.0
13.810000896453857,-7.335833886718749,-3.699041564941406,-6.816292126464844,116.30534351145039,-139.93893129770993,-0.15267175572519084,-8.932766394042968,0.8379705810546875,3.4715924072265625,-17.49618320610687,65.37404580152672,5.267175572519084,0.0
13.820000648498535,-5.5449710449218745,-3.4452561889648434,-6.598419775390624,122.04580152671755,-116.2442748091603,-1.099236641221374,-10.405200415039062,-1.3958195678710936,2.118868469238281,-18.793893129770993,60.44274809160305,12.65648854961832,0.0
13.830000877380371,-5.109226342773437,-3.6631285400390623,-5.3007624755859375,136.27480916030535,-85.0381679389313,-4.9465648854961835,-11.135431921386719,-2.664746447753906,2.0733786376953125,-20.85496183206107,60.778625954198475,15.038167938931299,0.0
13.840000629425049,-6.347028601074219,-1.0893617553710937,-4.505887524414062,135.40458015267177,-59.770992366412216,-10.854961832061068,-11.015721838378905,-4.824316345214844,1.8650830932617186,-7.893129770992366,50.10687022900763,13.603053435114504,0.0
13.850000381469727,-6.227318518066406,0.7493851196289062,-3.2704794677734372,127.08396946564885,-34.62595419847328,-14.51908396946565,-10.50815108642578,-3.912125512695312,1.5442600708007812,-2.732824427480916,38.70229007633588,8.916030534351146,0.0
13.860000610351562,-6.959944226074218,2.5953145996093747,-2.24097275390625,110.65648854961832,-14.595419847328245,-14.229007633587786,-9.191340173339842,-3.404554760742187,2.5713725830078125,-11.312977099236642,37.221374045801525,5.770992366412214,0.0
13.87000060081482,-10.187328063964843,7.584830859375,0.4955997436523437,65.63358778625954,-2.381679389312977,-15.541984732824428,-10.359710583496094,-6.5409589355468745,3.0454245117187497,-0.15267175572519084,26.0,8.610687022900763,0.0
13.880000352859497,-9.145850341796875,6.411672045898437,-0.4381389038085937,19.46564885496183,-5.175572519083969,-4.916030534351145,-10.488997473144531,-5.659892724609374,2.674323254394531,28.458015267175572,6.854961832061068,6.213740458015267,0.0
13.890000343322754,-7.7979148071289055,5.5641246582031245,-0.8283937744140625,-5.6183206106870225,4.259541984732825,5.526717557251908,-9.121908325195312,-1.5490484741210937,2.6527754394531247,22.442748091603054,0.8244274809160306,-0.061068702290076333,0.0
13.90000057220459,-7.144297753906249,5.363011718749999,-0.9433154541015625,-31.52671755725191,13.236641221374045,13.419847328244275,-7.841010437011718,0.19393033447265623,2.262520568847656,12.564885496183207,-3.786259541984733,-0.2595419847328244,0.0
13.910000324249268,-6.536170532226562,4.613626599121093,-1.0678139404296874,-59.55725190839695,18.106870229007633,16.290076335877863,-10.177751257324218,-0.8403647827148437,2.906560815429687,10.396946564885496,-6.015267175572519,6.106870229007634,0.0
13.920000791549683,-5.7843912109375,3.3710359375,-1.2713210815429687,-77.0381679389313,22.80916030534351,20.427480916030536,-8.020575561523437,0.16519991455078123,2.1739351074218747,11.877862595419847,-12.534351145038167,6.030534351145038,0.0
13.93000054359436,-4.237736938476562,1.0773907470703123,-1.8148048583984373,-81.29770992366412,29.6793893129771,26.076335877862597,-9.852139831542969,0.59376201171875,2.89219560546875,6.137404580152672,-5.969465648854962,7.3893129770992365,0.0
13.940000772476196,-2.6216508178710938,-1.9991583862304687,-2.8706477905273435,-66.25954198473282,45.343511450381676,31.083969465648856,-9.18655177001953,-0.9744400756835937,2.8850130004882812,2.7938931297709924,-6.687022900763359,10.351145038167939,0.0
13.950000524520874,-1.7022773803710936,-2.7653029174804686,-3.69664736328125,-52.0763358778626,65.25190839694656,25.87786259541985,-9.706093530273437,-2.96881005859375,4.015076184082031,22.091603053435115,-16.229007633587788,12.885496183206106,0.0
13.96000075340271,-1.7310078002929687,-2.932897033691406,-4.630386010742187,-42.88549618320611,79.31297709923665,20.015267175572518,-9.591171850585937,-0.8451531860351562,4.139574670410156,29.801526717557252,-25.709923664122137,11.755725190839694,0.0
13.970000505447388,-2.1356278808593747,-1.7501614135742187,-4.836287353515624,-46.10687022900763,97.32824427480917,13.83206106870229,-7.551312036132812,3.1866824096679687,2.96881005859375,6.641221374045801,-26.18320610687023,8.763358778625955,0.0
13.980000495910645,-3.2034418212890623,-0.7062894897460937,-3.361459130859375,-63.908396946564885,110.29007633587786,7.251908396946565,-7.850587243652344,2.6384102294921874,4.458003491210937,-17.557251908396946,-21.587786259541986,15.007633587786259,0.0
13.990000486373901,-5.023035083007812,-1.458068811035156,-0.8499415893554687,-79.54198473282443,119.0381679389313,3.3435114503816794,-10.359710583496094,0.689530078125,4.498704919433593,-23.69465648854962,-25.328244274809162,21.0381679389313,0.0
14.000000476837158,-6.7803791015625,-3.2824504760742186,1.6735469604492186,-71.46564885496183,127.87786259541984,5.465648854961832,-9.94072529296875,-1.1875240234375,3.593696691894531,-18.885496183206108,-32.595419847328245,21.541984732824428,0.0
14.010000467300415,-8.497021691894531,-4.460397692871093,4.8314989501953125,-49.038167938931295,137.46564885496184,11.618320610687023,-9.172186560058593,-1.608903515625,2.5354595581054684,-9.114503816793894,-41.98473282442748,19.84732824427481,0.0
14.020000457763672,-10.04846436767578,-4.302380383300781,10.295067138671874,-15.053435114503817,140.35114503816794,19.19083969465649,-8.157045056152343,0.1484405029296875,1.8914193115234375,-16.442748091603054,-46.35114503816794,17.31297709923664,0.0
14.030001163482666,-11.757924353027343,-3.9935283691406247,16.807295654296873,29.129770992366414,131.98473282442748,24.82442748091603,-6.517016918945312,0.97683427734375,1.6807295654296874,-38.152671755725194,-43.14503816793893,19.480916030534353,0.0
14.040000438690186,-14.958971972656249,1.8363526733398436,19.70188546142578,65.61832061068702,112.76335877862596,31.419847328244273,-8.59278975830078,-1.0486603271484374,3.4907460205078125,-47.29770992366412,-36.97709923664122,25.740458015267176,0.0
14.0500009059906,-12.600683337402343,-0.40462008056640625,11.748347546386718,57.64885496183206,75.81679389312977,32.47328244274809,-8.518569506835936,-3.5865140869140624,2.8610709838867185,-35.404580152671755,-47.587786259541986,26.717557251908396,0.0
14.0600004196167,-12.332532751464843,0.55545478515625,9.0788126953125,56.97709923664122,55.25190839694657,23.587786259541986,-9.246406811523437,-4.364629626464843,3.7612908081054686,-18.870229007633586,-54.51908396946565,23.81679389312977,0.0
14.070000886917114,-14.405911389160156,-0.0526724365234375,9.390058911132812,22.85496183206107,29.557251908396946,13.603053435114504,-8.497021691894531,-2.3918074584960936,2.35589443359375,-7.6183206106870225,-61.908396946564885,17.389312977099237,0.0
14.080000638961792,-16.852785485839842,-2.4564509033203126,10.261548315429687,-7.312977099236641,-2.3206106870229006,8.213740458015268,-7.9655089233398435,-1.7573440185546874,1.4915876342773438,-20.50381679389313,-56.778625954198475,15.83206106870229,0.0
14.09000039100647,-16.768988427734374,-4.80755693359375,7.639897497558593,24.16793893129771,-13.251908396946565,18.717557251908396,-9.672574707031249,-4.333505004882812,1.209071838378906,-10.946564885496183,-50.213740458015266,20.198473282442748,0.0
14.100000619888306,-15.933412048339843,-4.709394665527343,5.068524914550781,55.98473282442748,-18.18320610687023,18.671755725190838,-10.058041174316406,-5.137956762695312,0.4213794921875,12.244274809160306,-53.038167938931295,16.549618320610687,0.0
14.110000371932983,-15.25824718017578,-3.488351818847656,5.343858105468749,85.98473282442748,-14.549618320610687,22.38167938931298,-8.106766821289062,-3.189076611328125,1.0510545288085937,15.358778625954198,-41.25190839694657,6.885496183206107,0.0
14.120000839233398,-15.710751293945311,2.398990063476562,3.536235852050781,94.76335877862596,-24.442748091603054,20.27480916030534,-6.066907006835937,-1.5083470458984374,0.3064578125,8.793893129770993,-27.14503816793893,-0.5954198473282443,0.0
14.130000352859497,-13.077129467773437,6.449979272460937,1.1156979736328125,64.8854961832061,-31.221374045801525,24.9618320610687,-8.954314208984375,-2.7653029174804686,-0.5602431884765625,16.427480916030536,-14.977099236641221,-0.183206106870229,0.0
14.140000581741333,-10.544064111328124,5.719747766113281,1.2497732666015624,34.48854961832061,-36.93129770992366,18.900763358778626,-12.567164514160156,-3.5889082885742187,0.2346317626953125,33.587786259541986,-5.9541984732824424,-0.8549618320610687,0.0
14.150000810623169,-10.709264025878905,6.344634399414062,2.626439221191406,29.984732824427482,-30.259541984732824,13.221374045801527,-13.673285681152343,-1.678335363769531,0.8499415893554687,35.404580152671755,1.4351145038167938,-6.244274809160306,0.0
14.160000562667847,-8.844180932617187,5.331887097167969,-0.8954314208984374,20.931297709923665,-28.366412213740457,12.351145038167939,-15.107412475585937,-3.1651345947265623,1.8028338500976562,38.396946564885496,7.847328244274809,-10.061068702290076,0.0
14.170000553131104,-7.620743884277343,5.082890124511718,-2.655169641113281,3.0229007633587788,-21.61832061068702,8.335877862595419,-15.562310791015625,-2.6001030029296874,0.258573779296875,45.19083969465649,2.717557251908397,-15.17557251908397,0.0
14.18000078201294,-4.860229370117187,2.767697119140625,-3.67749375,-11.282442748091603,-12.977099236641221,6.885496183206107,-15.519215161132811,-1.4700398193359374,1.908178723144531,52.01526717557252,7.755725190839694,-20.885496183206108,0.0
14.190000534057617,-6.270414147949219,4.357447021484375,-3.7229835815429686,-31.51145038167939,0.366412213740458,2.7938931297709924,-14.341267944335936,-0.7996633544921875,2.2840683837890623,53.55725190839695,5.6183206106870225,-25.587786259541986,0.0
14.200000762939453,-7.321468676757812,5.370194323730469,-2.9664158569335934,-56.10687022900763,12.595419847328245,1.7099236641221374,-12.923900561523437,0.63206923828125,2.4013842651367185,50.3206106870229,4.763358778625954,-30.15267175572519,0.0
14.21000051498413,-8.537723120117187,5.386953735351562,-1.7310078002929687,-75.37404580152672,21.068702290076335,3.5877862595419847,-11.870451831054687,1.7238251953125,2.7054478759765623,43.80152671755725,4.091603053435114,-31.480916030534353,0.0
14.220000505447388,-7.101202124023437,1.1923124267578125,-1.7980454467773437,-76.47328244274809,28.732824427480917,8.534351145038167,-11.089942089843749,2.480392919921875,2.9376854370117185,34.61068702290076,4.702290076335878,-32.79389312977099,0.0
14.230000495910645,-8.0062103515625,-0.411802685546875,-0.9457096557617187,-62.458015267175576,44.62595419847328,6.580152671755725,-10.568006127929687,2.5713725830078125,3.1268273681640624,27.69465648854962,5.740458015267175,-32.152671755725194,0.0
14.240000486373901,-8.367734802246094,-1.8028338500976562,-0.14604630126953125,-49.64885496183206,53.725190839694655,2.5801526717557253,-10.019733947753906,2.8323405639648436,3.5122938354492184,23.541984732824428,7.786259541984733,-30.793893129770993,0.0
14.250000238418579,-8.633491186523438,-2.070984436035156,0.41898529052734373,-32.62595419847328,59.51145038167939,-0.7786259541984732,-9.124302526855468,3.0071172851562498,3.7038299682617186,20.0,8.961832061068701,-29.46564885496183,0.0
14.260000944137573,-9.624690673828125,-1.5562310791015623,1.5729904907226562,-15.007633587786259,64.83969465648855,-5.022900763358779,-8.475473876953124,3.153163586425781,3.603273498535156,17.114503816793892,8.717557251908397,-24.931297709923665,0.0
14.270000457763672,-9.945513696289062,-1.39821376953125,1.6112977172851561,-0.10687022900763359,66.21374045801527,-5.755725190839694,-8.02536396484375,3.2561142578125,3.7110125732421873,12.473282442748092,9.633587786259541,-20.519083969465647,0.0
14.280000686645508,-10.019733947753906,-0.9433154541015625,1.7214309936523438,9.526717557251908,62.94656488549618,-5.893129770992366,-7.867346655273437,3.308786694335937,3.641580725097656,7.083969465648855,10.702290076335878,-16.045801526717558,0.0
14.290000438690186,-11.192892761230468,0.7613561279296874,2.090138049316406,8.15267175572519,57.37404580152672,-6.656488549618321,-7.807491613769531,3.3446997192382812,3.584119885253906,1.9236641221374047,11.725190839694656,-10.900763358778626,0.0
14.300000667572021,-10.455478649902343,1.0007762939453124,2.068590234375,4.809160305343512,49.969465648854964,-5.465648854961832,-7.898471276855468,3.3494881225585935,3.584119885253906,-4.3816793893129775,12.259541984732824,-5.893129770992366,0.0
14.310000896453857,-11.257536206054686,1.4724340209960938,2.626439221191406,-0.4580152671755725,43.55725190839695,-4.717557251908397,-8.099584216308592,3.5098996337890624,3.5960908935546874,-11.816793893129772,13.114503816793894,-0.7175572519083969,0.0
14.320000648498535,-11.274295617675781,1.5873557006835937,2.6048914062499997,-4.961832061068702,36.6412213740458,-4.290076335877862,-7.764395983886718,3.2417490478515623,4.129997863769531,-26.68702290076336,16.50381679389313,4.977099236641221,0.0
14.330000877380371,-9.524134204101562,1.2737152832031249,1.9776105712890624,-11.282442748091603,24.717557251908396,-2.030534351145038,-7.920019091796875,2.8562825805664063,3.81156904296875,-35.48091603053435,16.12213740458015,9.816793893129772,0.0
14.340000867843628,-9.5001921875,2.2170307373046874,1.9656395629882812,-18.65648854961832,17.0381679389313,-2.0610687022900764,-9.636661682128906,1.89620771484375,3.3686417358398435,-41.954198473282446,18.610687022900763,15.465648854961833,0.0
14.350000619888306,-7.812280017089844,-0.9959878906249999,1.149216796875,-14.51908396946565,12.793893129770993,1.4809160305343512,-9.244012609863281,0.0383072265625,3.9791631591796874,-39.51145038167939,15.587786259541986,18.870229007633586,0.0
14.360000610351562,-9.054870678710937,0.009576806640625,1.4101847778320311,2.0,13.84732824427481,-0.3969465648854962,-10.0748005859375,-0.7805097412109374,3.3446997192382812,-25.96946564885496,6.6106870229007635,19.541984732824428,0.0
14.37000060081482,-9.976638317871092,1.6448165405273436,2.090138049316406,9.877862595419847,15.19083969465649,-0.9465648854961832,-9.457096557617186,0.23223756103515625,3.3590649291992185,-27.17557251908397,2.213740458015267,17.49618320610687,0.0
14.380000591278076,-10.335768566894531,2.47081611328125,2.01112939453125,4.458015267175573,9.145038167938932,2.50381679389313,-9.849745629882811,-0.689530078125,2.750937707519531,-32.030534351145036,-0.2748091603053435,17.114503816793892,0.0
14.390000581741333,-9.991003527832031,1.85790048828125,1.9967641845703124,7.633587786259542,8.67175572519084,5.847328244274809,-10.110713610839843,-1.0965443603515623,2.786850732421875,-33.31297709923664,-3.2519083969465647,16.717557251908396,0.0
14.40000033378601,-10.27830772705078,2.4013842651367185,1.8004396484374998,8.458015267175572,7.694656488549619,6.8396946564885495,-10.381258398437499,-1.5562310791015623,2.825157958984375,-31.267175572519083,-5.847328244274809,14.82442748091603,0.0
14.410000562667847,-10.328585961914062,2.281674182128906,1.4437036010742186,5.526717557251908,6.473282442748092,7.221374045801527,-10.151415039062499,-1.6615759521484375,2.77727392578125,-28.82442748091603,-8.80916030534351,12.244274809160306,0.0
14.420000314712524,-10.0748005859375,1.9967641845703124,0.9648632690429687,1.633587786259542,5.8320610687022905,7.297709923664122,-10.436325036621094,-2.205059729003906,2.8706477905273435,-24.35114503816794,-10.0,10.748091603053435,0.0
14.43000054359436,-9.868899243164062,1.9297265380859374,0.6392518432617187,-4.290076335877862,5.267175572519084,5.847328244274809,-9.718064538574218,-1.6400281372070311,2.7557261108398436,-21.251908396946565,-13.16030534351145,6.656488549618321,0.0
14.440000772476196,-9.900023864746093,2.1930887207031247,0.24899697265624998,-10.65648854961832,5.404580152671755,4.778625954198473,-9.974244116210937,-1.8650830932617186,2.7940333374023436,-18.68702290076336,-13.557251908396946,5.114503816793893,0.0
14.450000524520874,-9.8449572265625,2.0542250244140625,0.06703764648437499,-17.862595419847327,5.908396946564886,4.290076335877862,-10.314220751953124,-2.8514941772460936,3.3111808959960936,-10.488549618320612,-14.687022900763358,4.488549618320611,0.0
14.46000075340271,-9.890447058105469,1.446097802734375,0.239420166015625,-22.82442748091603,6.396946564885496,3.816793893129771,-11.37006368408203,-2.461239306640625,3.7110125732421873,3.2977099236641223,-17.206106870229007,2.9160305343511452,0.0
14.470000505447388,-9.617508068847656,1.0390835205078124,0.30406361083984373,-23.083969465648856,7.480916030534351,3.8931297709923665,-8.990227233886719,-1.8315642700195311,2.971204260253906,4.8396946564885495,-23.374045801526716,-0.24427480916030533,0.0
14.480000495910645,-9.93354268798828,1.0654197387695312,0.4429273071289062,-25.46564885496183,8.610687022900763,3.7709923664122136,-10.402806213378906,-2.5378537597656248,3.6846763549804686,16.595419847328245,-23.61832061068702,1.4351145038167938,0.0
14.490000486373901,-9.883264453125,0.44532150878906246,0.5195417602539062,-25.450381679389313,9.801526717557252,3.8931297709923665,-10.781090075683593,-1.1755530151367186,2.868253588867187,31.633587786259543,-30.977099236641223,0.3511450381679389,0.0
14.500000476837158,-9.746794958496093,0.19632453613281248,0.6440402465820312,-23.938931297709924,11.038167938931299,2.3206106870229006,-8.010998754882811,2.2457611572265623,2.0374656127929685,18.85496183206107,-31.34351145038168,-4.625954198473282,0.0
14.510000705718994,-9.7683427734375,0.5147533569335937,0.9409212524414062,-26.48854961832061,12.885496183206106,0.6106870229007634,-8.678981018066406,1.7621324218749999,1.599326708984375,-5.419847328244275,-17.64885496183206,-3.1755725190839694,0.0
14.520000696182251,-10.175357055664062,0.6655880615234374,1.5753846923828123,-31.786259541984734,12.442748091603054,-1.1755725190839694,-9.265560424804686,0.41898529052734373,2.521094348144531,-16.47328244274809,-6.351145038167939,1.0687022900763359,0.0
14.530000925064087,-9.641450085449218,-1.6112977172851561,1.0558429321289062,-27.954198473282442,10.061068702290076,-1.5114503816793894,-9.70369932861328,0.011971008300781249,2.346317626953125,-9.938931297709924,-6.793893129770993,1.8473282442748091,0.0
14.540000438690186,-10.28549033203125,-2.6216508178710938,0.8547299926757812,0.4580152671755725,16.717557251908396,-4.442748091603053,-9.3086560546875,-0.12689268798828124,2.6503812377929687,-9.709923664122137,-4.717557251908397,0.8549618320610687,0.0
14.5500009059906,-10.079588989257813,-1.180341418457031,0.40462008056640625,8.045801526717558,15.221374045801527,-7.908396946564886,-9.358934289550781,0.00239420166015625,2.9041666137695312,-7.32824427480916,-3.3282442748091605,0.10687022900763359,0.0
14.560000896453857,-9.414000927734374,-0.277727392578125,0.30885201416015623,12.65648854961832,14.381679389312977,-9.099236641221374,-8.954314208984375,0.5674257934570313,2.612074011230469,-8.82442748091603,-3.5419847328244276,0.6870229007633588,0.0
14.570000886917114,-9.74200655517578,0.565031591796875,0.43574470214843747,6.9465648854961835,11.435114503816793,-9.954198473282442,-8.82263311767578,1.0414777221679687,2.492363928222656,-11.221374045801527,-2.1374045801526718,2.1374045801526718,0.0
14.580000638961792,-10.347739575195313,1.3575123413085937,1.0702081420898437,11.664122137404581,14.244274809160306,-11.099236641221374,-8.607154968261717,0.74699091796875,2.4301146850585935,-13.297709923664122,-0.6412213740458015,4.015267175572519,0.0
14.590000629425049,-10.601524951171875,2.612074011230469,1.4963760375976562,10.335877862595419,15.572519083969466,-12.580152671755725,-8.367734802246094,0.6177040283203125,2.090138049316406,-13.709923664122137,0.3511450381679389,6.137404580152672,0.0
14.600000619888306,-10.433930834960936,2.6216508178710938,1.1420341918945311,-4.015267175572519,6.931297709923665,-10.427480916030534,-8.949525805664061,0.011971008300781249,1.5059528442382812,-10.534351145038167,1.3587786259541985,8.229007633587786,0.0
14.610000610351562,-9.595960253906249,1.2641384765625,0.9409212524414062,2.0610687022900764,6.931297709923665,-7.145038167938932,-9.198522778320312,-0.23223756103515625,1.5682020874023437,-8.183206106870228,3.435114503816794,8.732824427480915,0.0
14.62000036239624,-10.031704956054687,1.9704279663085937,0.9361328491210937,2.9923664122137406,7.786259541984733,-7.068702290076335,-8.614337573242187,0.3854664672851562,1.3934253662109375,-6.290076335877862,4.702290076335878,7.3893129770992365,0.0
14.630000591278076,-9.5384994140625,1.4963760375976562,0.8068459594726562,5.404580152671755,9.129770992366412,-6.717557251908397,-9.617508068847656,-0.6344634399414062,1.7501614135742187,-1.2061068702290076,8.15267175572519,9.267175572519085,0.0
14.640000581741333,-9.418789331054686,1.5370774658203123,0.7134720947265625,5.603053435114504,8.458015267175572,-6.519083969465649,-9.0788126953125,0.1867477294921875,1.8938135131835936,0.9923664122137404,6.854961832061068,7.3893129770992365,0.0
14.65000033378601,-9.425971936035156,2.0183119995117185,0.7661445312499999,6.1679389312977095,9.419847328244275,-5.969465648854962,-8.137891442871092,1.1516109985351561,1.6136919189453125,-5.984732824427481,9.16030534351145,5.6183206106870225,0.0
14.660000562667847,-9.68454571533203,2.518700146484375,0.7900865478515624,1.1297709923664123,10.030534351145038,-5.740458015267175,-7.637503295898437,0.3112462158203125,1.47482822265625,-11.267175572519085,11.358778625954198,5.709923664122138,0.0
14.670000553131104,-9.138667736816405,1.687912170410156,0.699106884765625,0.44274809160305345,10.763358778625955,-4.763358778625954,-10.383652600097655,-1.6927005737304686,3.852270471191406,-3.053435114503817,18.68702290076336,8.748091603053435,0.0
14.68000078201294,-9.545682019042967,2.664746447753906,1.3646949462890625,0.5801526717557252,13.221374045801527,-5.572519083969466,-10.002974536132811,-1.7621324218749999,3.801992236328125,6.106870229007634,12.80916030534351,5.755725190839694,0.0
14.690000534057617,-10.290278735351562,2.480392919921875,1.1707646118164061,-8.50381679389313,8.13740458015267,-4.67175572519084,-8.772354882812499,-0.35673604736328124,2.5043349365234375,11.022900763358779,4.305343511450381,0.6717557251908397,0.0
14.700000762939453,-10.85291612548828,2.578555187988281,1.2473790649414063,-10.473282442748092,8.580152671755725,-3.6946564885496183,-9.212887988281249,-0.59376201171875,2.8323405639648436,9.465648854961833,5.587786259541985,-0.44274809160305345,0.0
14.71000051498413,-9.469067565917967,1.2641384765625,1.0510545288085937,-5.343511450381679,10.992366412213741,-3.618320610687023,-9.337386474609374,-0.4429273071289062,3.2249896362304686,9.114503816793894,5.969465648854962,-0.366412213740458,0.0
14.720000267028809,-10.488997473144531,2.978386865234375,1.3623007446289062,-11.34351145038168,10.381679389312977,-5.938931297709924,-9.088389501953124,-0.08140285644531249,2.8850130004882812,8.122137404580153,4.687022900763359,-0.6870229007633588,0.0
14.730000495910645,-9.612719665527344,1.47482822265625,0.9097966308593749,-14.16793893129771,7.297709923664122,-3.9389312977099236,-9.126696728515624,0.17238251953125,2.8850130004882812,7.862595419847328,4.67175572519084,-0.5954198473282443,0.0
14.74000096321106,-9.911994873046874,1.9009961181640624,1.0797849487304687,-14.687022900763358,6.916030534351145,-4.183206106870229,-9.217676391601563,0.03591302490234375,2.9568390502929685,6.641221374045801,5.862595419847328,-0.0,0.0
14.750000238418579,-10.117896215820313,2.6862942626953124,1.3718775512695311,-18.519083969465647,5.7251908396946565,-3.5114503816793894,-9.188945971679686,0.2825157958984375,3.0813375366210938,6.641221374045801,6.015267175572519,0.3969465648854962,0.0
14.760000705718994,-9.196128576660156,2.212242333984375,1.0510545288085937,-24.50381679389313,2.717557251908397,0.12213740458015267,-9.117119921875,0.6009446166992187,3.0645781249999997,5.190839694656488,5.557251908396947,0.5648854961832062,0.0
14.770000457763672,-9.509768994140625,2.1978771240234374,0.9720458740234375,-27.236641221374047,2.7938931297709924,2.0916030534351147,-8.734047656249999,0.5793968017578125,2.779668127441406,3.053435114503817,6.152671755725191,1.4961832061068703,0.0
14.780000448226929,-10.271125122070313,1.9608511596679685,0.679953271484375,-29.068702290076335,1.7709923664122138,3.0381679389312977,-8.724470849609375,0.5602431884765625,3.189076611328125,1.4809160305343512,7.297709923664122,2.3206106870229006,0.0
