timestamp,Thigh_L_Acc_X,Thigh_L_Acc_Y,Thigh_L_Acc_Z,Thigh_L_Gyr_X,Thigh_L_Gyr_Y,Thigh_L_Gyr_Z,Thigh_R_Acc_X,Thigh_R_Acc_Y,Thigh_R_Acc_Z,Thigh_R_Gyr_X,Thigh_R_Gyr_Y,Thigh_R_Gyr_Z,gpio_output
10.000000476837158,-8.865728747558594,1.4173673828125,-0.5770026000976562,-41.23664122137404,76.29007633587786,-1.099236641221374,-12.397176196289061,1.4101847778320311,0.948103857421875,-24.85496183206107,-60.99236641221374,0.732824427480916,0.0
10.010000705718994,-8.992621435546875,-0.584185205078125,-0.7517793212890624,-27.83206106870229,83.48091603053435,0.7938931297709924,-11.908759057617187,0.13407529296874998,2.2768857788085937,-28.793893129770993,-62.80916030534351,-1.9694656488549618,1.0
10.020000696182251,-8.607154968261717,-1.1180921752929687,-0.41898529052734373,-20.427480916030536,86.65648854961832,-1.4351145038167938,-10.134655627441406,2.863465185546875,0.9959878906249999,-39.64885496183206,-63.465648854961835,-8.412213740458014,1.0
10.030000686645508,-9.85692823486328,0.9504980590820312,0.6512228515624999,-13.664122137404581,92.07633587786259,-3.572519083969466,-9.519345800781249,1.5705962890624998,1.8148048583984373,-45.83206106870229,-59.61832061068702,-9.465648854961833,1.0
10.040000915527344,-10.800243688964843,1.6903063720703124,1.5083470458984374,-16.0,90.03053435114504,-6.99236641221374,-9.880870251464843,1.4317325927734375,1.446097802734375,-43.541984732824424,-60.091603053435115,-11.022900763358779,1.0
10.050000429153442,-10.867281335449219,1.0414777221679687,1.1563994018554686,-18.091603053435115,86.1526717557252,-8.412213740458014,-9.239224206542968,-0.12449848632812499,1.3407529296874998,-20.83969465648855,-69.61832061068702,-12.274809160305344,1.0
10.060000896453857,-11.291055029296874,3.2321722412109373,2.3415292236328122,-20.427480916030536,84.22900763358778,-10.687022900763358,-9.050082275390624,3.5793314819335937,0.9792284790039062,-32.2442748091603,-68.22900763358778,-15.908396946564885,1.0
10.070000648498535,-10.290278735351562,2.4851813232421875,2.501940734863281,-35.11450381679389,74.07633587786259,-11.526717557251908,-8.916006982421875,0.9744400756835937,0.6679822631835937,-33.847328244274806,-62.97709923664122,-13.32824427480916,1.0
10.080000877380371,-9.926360083007811,1.0558429321289062,1.8626888916015625,-35.786259541984734,68.09160305343511,-11.404580152671755,-10.328585961914062,-0.5195417602539062,2.051830822753906,-14.259541984732824,-64.3969465648855,-9.083969465648854,1.0
10.090000629425049,-9.428366137695312,-0.4285620971679687,1.5251064575195312,-28.83969465648855,63.57251908396947,-9.648854961832061,-8.40843623046875,2.205059729003906,0.33758243408203126,-10.16793893129771,-70.65648854961832,-11.267175572519085,1.0
10.100000619888306,-10.615890161132812,2.224213342285156,2.2074539306640624,-23.81679389312977,64.1526717557252,-10.122137404580153,-7.989450939941406,2.5713725830078125,1.2808978881835937,-23.81679389312977,-58.79389312977099,-8.244274809160306,1.0
10.110000371932983,-11.075576879882812,3.4452561889648434,2.6431986328124997,-41.969465648854964,54.06106870229008,-9.755725190839694,-8.767566479492187,-0.0143652099609375,1.0654197387695312,-10.274809160305344,-59.20610687022901,-2.6564885496183206,1.0
10.12000036239624,-11.616666455078125,1.915361328125,1.8363526733398436,-37.32824427480916,50.778625954198475,-7.175572519083969,-8.63109698486328,1.35990654296875,0.622492431640625,1.2213740458015268,-64.03053435114504,1.1297709923664123,1.0
10.130000591278076,-10.213664282226562,0.9696516723632812,2.370259643554687,-32.87022900763359,45.603053435114504,-3.1908396946564888,-6.330269189453125,4.024652990722656,-0.28730419921875,-16.519083969465647,-57.98473282442748,-0.10687022900763359,1.0
10.140000581741333,-12.014103930664062,3.1938650146484373,3.536235852050781,-30.946564885496183,44.213740458015266,-3.2213740458015265,-8.291120349121094,0.8403647827148437,0.296881005859375,-28.870229007633586,-43.083969465648856,4.5038167938931295,1.0
10.15000057220459,-9.593566052246093,-0.7829039428710937,1.8459294799804686,-43.465648854961835,31.450381679389313,-1.0076335877862594,-9.30147344970703,-1.7429788085937499,-0.062249243164062495,-6.732824427480916,-47.17557251908397,6.854961832061068,1.0
10.160000562667847,-10.884040747070312,1.5418658691406248,2.8850130004882812,-30.595419847328245,30.778625954198475,-2.1374045801526718,-9.394847314453125,-1.7860744384765623,0.4525041137695312,7.66412213740458,-49.80152671755725,5.038167938931298,1.0
10.170000553131104,-9.624690673828125,0.09337386474609374,2.2290017456054687,-31.068702290076335,25.908396946564885,-2.946564885496183,-7.709329345703124,1.5538368774414062,-0.9457096557617187,1.816793893129771,-48.01526717557252,-2.6717557251908395,1.0
10.18000054359436,-10.213664282226562,0.45010991210937495,2.166752502441406,-25.96946564885496,24.229007633587788,-2.2290076335877864,-7.105990527343749,0.37828386230468747,-1.2497732666015624,-16.15267175572519,-37.32824427480916,-5.603053435114504,1.0
10.190000772476196,-9.330203869628905,0.43574470214843747,2.616862414550781,-26.625954198473284,19.603053435114504,-3.7251908396946565,-8.027758166503906,-1.0678139404296874,-0.1005564697265625,-11.572519083969466,-31.206106870229007,-6.549618320610687,1.0
10.200000524520874,-11.516109985351562,2.6216508178710938,3.0741549316406247,-30.03053435114504,13.725190839694656,-6.030534351145038,-10.828974108886719,-2.521094348144531,1.4939818359375,8.916030534351146,-29.435114503816795,-6.259541984732825,1.0
10.21000075340271,-10.611101757812499,1.3910311645507811,2.5761609863281247,-19.450381679389313,14.82442748091603,-3.83206106870229,-10.012551342773437,-2.2290017456054687,1.4867992309570313,29.00763358778626,-38.0,-9.786259541984732,0.0
10.220000267028809,-10.067617980957031,1.139639990234375,1.3120225097656248,-11.419847328244275,13.801526717557252,-2.2290076335877864,-10.761936462402343,-0.833182177734375,1.35990654296875,40.10687022900763,-45.05343511450382,-14.427480916030534,0.0
10.230024814605713,-9.370905297851563,1.6543933471679686,1.197100830078125,-6.305343511450381,13.618320610687023,-1.5877862595419847,-8.269572534179687,1.6735469604492186,0.8188169677734375,22.35114503816794,-42.33587786259542,-22.076335877862597,0.0
10.240000486373901,-11.192892761230468,4.422090466308593,2.013523596191406,-18.793893129770993,12.732824427480915,-1.7099236641221374,-9.892841259765625,-0.4165910888671875,1.3455413330078123,11.404580152671755,-32.85496183206107,-20.946564885496183,0.0
10.250000238418579,-11.089942089843749,4.132392065429687,1.3431471313476562,-39.49618320610687,6.412213740458015,-0.8091603053435115,-10.510545288085936,-1.0989385620117187,1.4317325927734375,24.85496183206107,-39.404580152671755,-19.267175572519083,0.0
10.260000705718994,-10.93671318359375,3.536235852050781,1.3431471313476562,-36.38167938931298,10.396946564885496,0.4580152671755725,-10.242394702148436,0.5099649536132812,1.3718775512695311,29.221374045801525,-44.12213740458015,-21.221374045801525,0.0
10.270000457763672,-10.670956799316405,3.4428619873046875,1.13006318359375,-52.54961832061068,6.519083969465649,-0.6106870229007634,-8.750807067871094,2.212242333984375,1.024718310546875,14.183206106870228,-39.48091603053435,-23.740458015267176,0.0
10.280000448226929,-9.399635717773437,2.437297290039062,0.086191259765625,-59.93893129770992,1.465648854961832,2.9618320610687023,-8.920795385742187,0.55545478515625,2.176329309082031,-1.099236641221374,-27.587786259541986,-19.633587786259543,0.0
10.290000677108765,-10.256759912109374,1.0319009155273438,0.5123591552734374,-58.68702290076336,7.740458015267175,2.7786259541984735,-9.720458740234374,-0.8786720092773437,1.5227122558593749,9.48091603053435,-32.0,-15.954198473282442,0.0
10.3000009059906,-9.04050546875,-2.839523168945312,-0.7422025146484375,-35.954198473282446,13.083969465648854,3.5419847328244276,-10.457872851562499,-0.3591302490234375,2.403778466796875,26.610687022900763,-36.47328244274809,-15.083969465648854,0.0
10.3100004196167,-10.28549033203125,-0.430956298828125,0.12210428466796874,-20.259541984732824,21.374045801526716,-3.0839694656488548,-9.17458076171875,1.1755530151367186,2.233790148925781,28.03053435114504,-40.13740458015267,-18.946564885496183,0.0
10.320000886917114,-9.030928662109375,-1.5921441040039062,-0.45489831542968745,-19.404580152671755,20.15267175572519,-4.0,-8.916006982421875,2.6288334228515624,2.5953145996093747,12.641221374045802,-30.580152671755727,-19.297709923664122,0.0
10.330000400543213,-10.307038146972655,1.4437036010742186,1.1851298217773436,-20.35114503816794,24.137404580152673,-6.778625954198473,-8.20971749267578,1.7453730102539062,1.5035586425781249,-0.6412213740458015,-26.82442748091603,-15.694656488549619,0.0
10.340000629425049,-10.426748229980468,1.4604630126953124,0.7829039428710937,-34.213740458015266,14.793893129770993,-7.740458015267175,-9.023746057128905,0.3064578125,2.3056161987304686,9.145038167938932,-26.671755725190838,-11.587786259541986,0.0
10.350000381469727,-10.007762939453125,-0.16519991455078123,0.46686932373046874,-24.458015267175572,14.183206106870228,-4.916030534351145,-10.958260998535156,-1.0989385620117187,2.9281086303710935,21.206106870229007,-27.69465648854962,-8.442748091603054,0.0
10.360000610351562,-10.007762939453125,-0.38786066894531246,0.258573779296875,-15.114503816793894,13.511450381679388,-5.236641221374046,-9.830592016601562,-0.23702596435546874,3.066972326660156,36.778625954198475,-36.2442748091603,-10.83969465648855,0.0
10.370000839233398,-9.53131680908203,-0.6177040283203125,-0.00718260498046875,-6.030534351145038,14.595419847328245,-5.633587786259542,-7.903259680175781,2.8107927490234372,2.5139117431640625,26.3206106870229,-33.587786259541986,-13.969465648854962,0.0
10.380000591278076,-9.294290844726563,0.18914193115234373,0.30406361083984373,-1.9389312977099236,16.47328244274809,-6.0458015267175576,-7.6614453125,2.0781670410156248,3.0741549316406247,6.656488549618321,-21.66412213740458,-11.374045801526718,0.0
10.390000343322754,-8.9255837890625,-0.4261678955078125,0.08379705810546874,0.6870229007633588,16.03053435114504,-5.801526717557252,-9.792284790039062,0.39983167724609375,2.4947581298828125,6.8396946564885495,-18.793893129770993,-4.3816793893129775,0.0
10.40000033378601,-9.636661682128906,-1.1085153686523437,0.5674257934570313,21.389312977099237,24.106870229007633,-7.694656488549619,-8.418013037109375,-0.0909796630859375,3.4069489624023435,12.65648854961832,-21.16030534351145,-3.5877862595419847,0.0
10.410000562667847,-8.054094384765625,-0.9888052856445312,-0.33518823242187495,31.435114503816795,21.267175572519083,-10.259541984732824,-9.540893615722656,-0.5913678100585937,4.062960217285156,24.259541984732824,-23.114503816793892,-3.480916030534351,0.0
10.420000553131104,-9.797073193359374,-0.21308394775390624,0.105344873046875,37.41984732824427,24.18320610687023,-12.67175572519084,-8.947131604003905,0.239420166015625,3.4524387939453125,28.137404580152673,-26.16793893129771,-4.244274809160306,0.0
10.43000078201294,-11.207257971191405,2.731784094238281,1.7788918334960937,32.13740458015267,26.33587786259542,-14.778625954198473,-7.096413720703125,2.932897033691406,1.678335363769531,12.793893129770993,-25.16030534351145,-7.00763358778626,0.0
10.440000534057617,-11.130643518066405,4.357447021484375,2.0566192260742184,13.709923664122137,17.862595419847327,-12.83969465648855,-7.654262707519531,1.7525556152343749,1.8626888916015625,-7.145038167938932,-12.198473282442748,-2.687022900763359,0.0
10.450000762939453,-10.625466967773438,3.861847277832031,2.3630770385742186,9.053435114503817,14.458015267175572,-7.984732824427481,-8.655039001464843,0.6392518432617187,2.2601263671875,-6.3816793893129775,-9.603053435114504,1.2061068702290076,0.0
10.46000051498413,-10.788272680664061,3.948038537597656,1.7405846069335937,-3.969465648854962,5.8320610687022905,-5.923664122137405,-8.379705810546875,0.842758984375,2.166752502441406,-6.0,-9.053435114503817,1.5877862595419847,0.0
10.470000743865967,-9.593566052246093,1.1611878051757811,0.8212111694335937,5.541984732824427,8.381679389312977,-2.366412213740458,-8.520963708496094,0.16041151123046873,2.43250888671875,-6.106870229007634,-6.488549618320611,1.251908396946565,0.0
10.480000495910645,-9.354145886230468,1.3814543579101561,0.565031591796875,3.633587786259542,7.740458015267175,-3.66412213740458,-9.10993731689453,-0.40462008056640625,2.427720483398437,-5.648854961832061,-5.4961832061068705,0.4732824427480916,0.0
10.490000486373901,-9.931148486328125,1.7836802368164062,0.35194764404296874,-0.16793893129770993,7.847328244274809,-4.977099236641221,-8.465897070312499,0.15083470458984374,2.138022082519531,-5.022900763358779,-4.732824427480916,-0.916030534351145,0.0
10.500000238418579,-9.612719665527344,1.8076222534179687,0.22505495605468748,-2.519083969465649,10.381679389312977,-5.541984732824427,-8.588001354980468,0.0430956298828125,1.9895815795898437,-3.6946564885496183,-3.633587786259542,-1.3893129770992367,0.0
10.510000705718994,-9.617508068847656,1.9416975463867185,0.36391865234375,-7.511450381679389,12.091603053435115,-6.137404580152672,-9.121908325195312,-0.19632453613281248,1.93451494140625,-2.717557251908397,-1.9389312977099236,-1.618320610687023,0.0
10.520000696182251,-9.86411083984375,2.147598889160156,0.2154781494140625,-13.86259541984733,12.931297709923664,-6.076335877862595,-8.580818749999999,0.316034619140625,1.7884686401367187,-3.114503816793893,-0.3511450381679389,-3.3282442748091605,0.0
10.530000686645508,-9.567229833984374,2.1404162841796874,0.40940848388671874,-17.755725190839694,14.67175572519084,-5.847328244274809,-8.98304462890625,-0.28012159423828126,1.9991583862304687,-0.12213740458015267,1.4198473282442747,-3.114503816793893,0.0
10.540000438690186,-9.744400756835937,2.2649147705078123,0.39264907226562495,-23.81679389312977,14.977099236641221,-6.473282442748092,-8.975862023925782,0.09337386474609374,2.3295582153320313,0.1984732824427481,2.885496183206107,-3.3740458015267176,0.0
10.550000667572021,-9.658209497070311,2.138022082519531,0.26336218261718747,-26.061068702290076,16.427480916030536,-6.534351145038168,-8.985438830566405,0.0143652099609375,2.3726538452148436,0.061068702290076333,5.282442748091603,-3.786259541984733,0.0
10.560000658035278,-9.679757312011718,1.956062756347656,0.6105214233398437,-30.458015267175572,16.580152671755727,-6.534351145038168,-8.75320126953125,0.28730419921875,2.35589443359375,0.5190839694656488,6.366412213740458,-4.549618320610687,0.0
10.570000648498535,-9.49300958251953,1.3814543579101561,0.27293898925781246,-31.64885496183206,17.450381679389313,-6.305343511450381,-8.588001354980468,0.047884033203124995,2.31758720703125,0.3511450381679389,8.885496183206106,-4.396946564885496,0.0
10.580000877380371,-9.665392102050781,1.24498486328125,0.6512228515624999,-33.98473282442748,18.427480916030536,-7.083969465648855,-8.568847741699217,0.0526724365234375,2.269703173828125,0.6564885496183206,10.961832061068701,-5.419847328244275,0.0
10.59000039100647,-9.380482104492186,0.737414111328125,0.5961562133789062,-33.63358778625954,18.625954198473284,-7.145038167938932,-8.425195642089843,0.14604630126953125,2.1811177124023438,-0.4122137404580153,13.603053435114504,-6.061068702290076,0.0
10.600000619888306,-8.528146313476562,-1.4125789794921875,0.16759411621093748,-23.61832061068702,19.801526717557252,-6.793893129770993,-7.989450939941406,0.05746083984375,2.4899697265625,-7.709923664122138,20.793893129770993,-7.038167938931298,0.0
10.610000610351562,-7.6279264892578125,-1.7453730102539062,-0.15322890625,-4.106870229007634,24.763358778625953,-9.022900763358779,-7.8170684204101555,-0.3232172241210937,1.9967641845703124,-4.3816793893129775,20.732824427480917,-7.66412213740458,0.0
10.62000036239624,-9.962273107910155,-0.24899697265624998,0.8762778076171874,-3.145038167938931,30.229007633587788,-16.641221374045802,-8.935160595703124,-2.0542250244140625,2.3247698120117186,5.603053435114504,22.47328244274809,-7.603053435114504,0.0
10.630000591278076,-10.539275708007812,0.565031591796875,1.4413093994140624,-7.404580152671755,28.625954198473284,-19.572519083969464,-8.422801440429687,-0.8954314208984374,2.422932080078125,17.0381679389313,19.206106870229007,-11.099236641221374,0.0
10.640000581741333,-9.828197814941406,1.350329736328125,1.9297265380859374,-8.82442748091603,24.885496183206108,-19.419847328244273,-8.21690009765625,-0.51714755859375,2.4253262817382812,16.47328244274809,22.35114503816794,-13.129770992366412,0.0
10.65000057220459,-11.195286962890624,1.8052280517578123,2.729389892578125,-14.717557251908397,21.51145038167939,-19.893129770992367,-7.335833886718749,0.8858546142578124,2.3918074584960936,9.236641221374045,25.61832061068702,-15.129770992366412,0.0
10.660000562667847,-10.903194360351561,1.6903063720703124,2.5163059448242184,-16.47328244274809,15.404580152671755,-19.404580152671755,-7.036558679199218,0.70868369140625,2.7246014892578123,0.9312977099236641,28.3206106870229,-15.16030534351145,0.0
10.670000553131104,-11.839327209472655,3.0047230834960934,3.2800562744140622,-18.931297709923665,9.84732824427481,-20.427480916030536,-9.363722692871093,-0.3687070556640625,4.007893579101562,-2.519083969465649,33.603053435114504,-13.32824427480916,0.0
10.680000305175781,-10.998962426757812,1.6639701538085936,3.0813375366210938,-23.129770992366414,1.0076335877862594,-17.6793893129771,-8.710105639648438,0.277727392578125,3.2321722412109373,-6.366412213740458,35.80152671755725,-13.465648854961833,0.0
10.690000772476196,-10.144232434082031,0.6607996582031249,2.8012159423828122,-7.068702290076335,-0.5801526717557252,-14.183206106870228,-8.389282617187499,1.5251064575195312,1.6112977172851561,-11.34351145038168,41.20610687022901,-11.84732824427481,0.0
10.700000524520874,-11.303026037597656,2.0254946044921875,2.530671154785156,-16.38167938931298,-9.022900763358779,-14.427480916030534,-8.856151940917968,1.5131354492187499,1.149216796875,-19.557251908396946,50.3206106870229,-8.396946564885496,0.0
10.71000051498413,-11.305420239257812,0.8882488159179687,2.5378537597656248,-11.038167938931299,-15.557251908396946,-11.236641221374045,-10.644620581054687,-1.1372457885742187,2.013523596191406,-10.564885496183207,51.7557251908397,-3.312977099236641,0.0
10.720000267028809,-11.034875451660156,-0.3112462158203125,2.8754361938476563,0.7480916030534351,-18.82442748091603,-9.526717557251908,-10.311826550292968,-0.04548983154296875,2.5330653564453125,-2.4885496183206106,49.267175572519086,-7.7251908396946565,0.0
10.730000257492065,-11.264718811035156,-0.36152445068359373,2.6575638427734374,10.412213740458014,-23.49618320610687,-9.877862595419847,-9.670180505371093,-0.011971008300781249,2.7557261108398436,-16.137404580152673,55.81679389312977,-11.541984732824428,0.0
10.740000247955322,-11.422736120605467,-0.7852981445312499,2.9089550170898435,17.87786259541985,-27.862595419847327,-9.465648854961833,-10.311826550292968,-1.7693150268554687,3.284844677734375,-9.038167938931299,53.43511450381679,-10.198473282442748,0.0
10.750000476837158,-11.291055029296874,-1.39821376953125,3.0693665283203124,27.755725190839694,-33.282442748091604,-10.687022900763358,-9.660603698730467,0.2825157958984375,2.27927998046875,-8.610687022900763,52.6412213740458,-11.435114503816793,0.0
10.760000705718994,-12.08592998046875,-0.9097966308593749,3.4644098022460934,35.37404580152672,-39.19083969465649,-10.82442748091603,-8.59997236328125,0.016759411621093748,1.5538368774414062,-17.297709923664122,60.06106870229008,-8.595419847328245,0.0
10.770000696182251,-13.728352319335936,0.5793968017578125,5.530605834960937,27.389312977099237,-49.770992366412216,-12.198473282442748,-8.863334545898438,0.5506663818359374,0.9313444458007812,-10.580152671755725,60.2442748091603,-5.175572519083969,0.0
10.780000448226929,-13.70680450439453,-0.51714755859375,5.889736083984375,23.755725190839694,-69.46564885496183,-10.061068702290076,-8.51617530517578,0.842758984375,0.8978256225585937,-16.30534351145038,66.42748091603053,-2.946564885496183,0.0
10.790000677108765,-14.413093994140624,-2.2936451904296873,7.7787611938476555,28.16793893129771,-87.29770992366412,-5.786259541984733,-8.91840118408203,0.9002198242187499,0.35673604736328124,-20.595419847328245,68.04580152671755,-0.4580152671755725,0.0
10.8000009059906,-15.4378123046875,-3.42849677734375,9.167398156738281,38.10687022900763,-107.20610687022901,-6.702290076335878,-8.999804040527343,-0.229843359375,0.26815058593749996,-29.587786259541986,72.50381679389314,0.8244274809160306,0.0
10.810000658035278,-16.352397338867185,-4.680664245605469,11.111489904785156,49.221374045801525,-132.10687022900763,-7.297709923664122,-8.954314208984375,-0.5506663818359374,0.316034619140625,-36.70229007633588,75.37404580152672,1.3893129770992367,0.0
10.820000886917114,-18.21987463378906,-4.517858532714843,12.97896719970703,64.01526717557252,-160.5801526717557,-10.946564885496183,-9.981426721191406,-2.4588451049804685,0.6344634399414062,-29.083969465648856,72.70229007633588,2.0,0.0
10.830000400543213,-19.10812344970703,-3.632003918457031,14.089876770019531,84.10687022900764,-191.05343511450383,-10.870229007633588,-9.576806640625,-2.3151930053710936,1.2497732666015624,-28.213740458015266,75.63358778625954,0.7938931297709924,0.0
10.840000867843628,-17.70990968017578,-0.06943184814453125,7.46272657470703,82.76335877862596,-216.25954198473283,-10.763358778625955,-11.106701501464842,-5.4779333984375,2.6982652709960937,-3.1755725190839694,69.0381679389313,2.9618320610687023,0.0
10.850000381469727,-16.685191369628907,0.8643067993164062,2.5809493896484375,71.2824427480916,-234.38167938931298,-9.038167938931299,-9.9215716796875,-4.474762902832031,2.123656872558594,20.580152671755727,57.48091603053435,-0.15267175572519084,0.0
10.860000610351562,-14.152126013183594,0.565031591796875,-0.16998831787109375,72.59541984732824,-240.44274809160305,-0.04580152671755725,-6.186617089843749,-0.39983167724609375,-0.7445967163085937,24.244274809160306,45.43511450381679,-7.0534351145038165,0.0
10.87000060081482,-12.368445776367187,-0.6679822631835937,-1.66636435546875,76.54961832061069,-234.73282442748092,10.931297709923664,-8.33182177734375,1.2617442749023438,-0.74699091796875,-3.5114503816793894,60.274809160305345,-5.450381679389313,0.0
10.880000591278076,-8.360552197265624,-2.185906115722656,-4.9416322265625,79.19083969465649,-221.57251908396947,22.732824427480917,-6.3973068359375,3.8666356811523435,-2.7150246826171873,-33.083969465648856,68.2442748091603,-5.908396946564886,0.0
10.890000581741333,-7.5153990112304685,-2.8131869506835936,-6.809109521484374,77.29770992366412,-195.61832061068702,26.03053435114504,-8.250418920898436,3.8474820678710935,-2.094926452636719,-67.14503816793894,85.61832061068702,0.3511450381679389,0.0
10.90000057220459,-6.847416748046874,-2.8012159423828122,-9.267954626464844,58.916030534351144,-177.93893129770993,18.946564885496183,-11.350910070800781,0.5506663818359374,-0.36391865234375,-49.465648854961835,82.09160305343511,8.610687022900763,0.0
10.910000324249268,-6.9168485961914055,-4.73094248046875,-6.452373474121093,58.045801526717554,-152.27480916030535,8.488549618320612,-14.705186596679686,-3.842693664550781,2.0063409912109376,-23.46564885496183,79.61832061068702,17.87786259541985,0.0
10.920000553131104,-6.394912634277343,-5.590460876464843,-5.102043737792968,73.37404580152672,-125.37404580152672,-1.5114503816793894,-12.054805358886718,-2.93050283203125,0.8547299926757812,-5.221374045801527,67.40458015267176,17.954198473282442,0.0
10.93000078201294,-7.709329345703124,-3.6918589599609373,-1.62805712890625,91.78625954198473,-99.6030534351145,-10.381679389312977,-10.82179150390625,-4.726154077148437,0.17477672119140625,12.793893129770993,52.97709923664122,17.557251908396946,0.0
10.940000534057617,-8.975862023925782,-0.19632453613281248,1.0654197387695312,98.77862595419847,-84.50381679389314,-14.931297709923664,-8.635885388183594,-2.2385785522460937,-1.3431471313476562,17.770992366412212,42.54961832061068,14.122137404580153,0.0
10.950000762939453,-10.146626635742187,3.318363500976562,3.394977954101562,90.61068702290076,-74.50381679389314,-11.786259541984732,-9.102754711914063,-2.3439234252929686,-1.5442600708007812,9.740458015267176,44.68702290076336,16.748091603053435,0.0
10.96000051498413,-10.632649572753905,5.03740029296875,4.446032482910156,67.29770992366412,-75.19083969465649,-4.732824427480916,-10.04846436767578,-3.3399113159179685,-1.3814543579101561,25.099236641221374,39.70992366412214,18.977099236641223,0.0
10.970000743865967,-11.465831750488281,6.789955908203124,4.422090466308593,44.50381679389313,-76.80916030534351,1.8015267175572518,-10.271125122070313,-2.6958710693359373,-0.9337386474609375,38.79389312977099,33.725190839694655,17.954198473282442,0.0
10.980000495910645,-9.576806640625,5.291185668945312,2.24097275390625,25.557251908396946,-79.81679389312977,14.595419847328245,-10.280701928710936,-2.3511060302734372,0.30885201416015623,32.74809160305343,41.29770992366412,16.427480916030536,0.0
10.990000247955322,-8.583212951660157,3.737348791503906,0.9026140258789062,8.458015267175572,-76.18320610687023,21.328244274809162,-9.524134204101562,-1.0127473022460938,-0.35194764404296874,38.58015267175573,36.51908396946565,14.595419847328245,0.0
11.000000238418579,-7.335833886718749,2.683900061035156,0.28490999755859375,-11.221374045801527,-73.02290076335878,21.374045801526716,-8.614337573242187,0.3136404174804687,-0.1771709228515625,27.49618320610687,40.213740458015266,13.709923664122137,0.0
11.010000705718994,-5.9783215454101555,0.9624690673828125,-0.5746083984375,-26.519083969465647,-66.56488549618321,23.419847328244273,-9.248801013183593,-0.7158662963867187,0.5602431884765625,25.908396946564885,42.595419847328245,15.908396946564885,0.0
11.020000457763672,-4.216189123535156,-0.5817910034179687,-1.2497732666015624,-28.30534351145038,-55.06870229007634,22.229007633587788,-10.500968481445312,-1.1061211669921875,0.7852981445312499,36.916030534351144,38.80916030534351,18.137404580152673,0.0
11.030000686645508,-3.246537451171875,-0.9816226806640624,-1.35990654296875,-24.870229007633586,-39.25190839694657,20.213740458015266,-9.701305126953125,-0.7062894897460937,0.8355763793945312,34.99236641221374,36.48854961832061,16.396946564885496,0.0
11.040000915527344,-3.009511486816406,-0.01915361328125,-0.5698199951171875,-23.633587786259543,-24.396946564885496,18.641221374045802,-9.521740002441407,-0.9026140258789062,0.7637503295898437,30.290076335877863,37.7557251908397,15.557251908396946,0.0
11.0500009059906,-2.3415292236328122,-0.27293898925781246,0.1005564697265625,-25.419847328244273,-8.65648854961832,18.045801526717558,-10.678139404296875,-2.068590234375,0.7565677246093749,32.48854961832061,36.10687022900763,16.916030534351144,0.0
11.060000896453857,-0.8379705810546875,-1.3287819213867187,0.8954314208984374,-18.137404580152673,7.435114503816794,18.793893129770993,-10.582371337890624,-2.518700146484375,1.1372457885742187,35.343511450381676,33.603053435114504,17.251908396946565,0.0
11.070000648498535,-2.521094348144531,0.7709329345703124,3.593696691894531,-15.740458015267176,22.35114503816794,15.435114503816793,-10.192116467285155,-2.2194249389648437,0.8283937744140625,36.732824427480914,32.56488549618321,17.480916030534353,0.0
11.08000111579895,-5.276820458984375,3.840299462890625,6.490680700683593,-44.18320610687023,21.282442748091604,9.587786259541986,-12.552799304199217,-4.565742565917969,1.8555062866210936,49.847328244274806,31.129770992366414,20.916030534351144,0.0
11.09000039100647,-4.656722229003906,2.133233679199219,8.073247998046874,-43.12977099236641,20.47328244274809,16.68702290076336,-11.595118640136718,-2.1906945190429687,0.7350199096679687,58.33587786259542,21.51145038167939,19.87786259541985,0.0
11.100000619888306,-5.856217260742187,2.418143676757812,11.099518896484375,-25.862595419847327,21.282442748091604,23.00763358778626,-13.05558165283203,-2.748543505859375,1.9129671264648436,52.16793893129771,26.977099236641223,19.51145038167939,0.0
11.110000371932983,-7.271190441894531,2.370259643554687,14.365209960937499,-0.8396946564885496,15.007633587786259,31.938931297709924,-9.97903251953125,-1.4413093994140624,0.9600748657226562,57.20610687022901,15.541984732824428,16.763358778625953,0.0
11.12000060081482,-7.884106066894531,3.7995980346679685,16.007632299804687,30.061068702290076,6.625954198473282,44.18320610687023,-10.453084448242187,0.6751648681640625,0.30406361083984373,38.51908396946565,17.435114503816795,15.206106870229007,0.0
11.130000591278076,-7.036558679199218,4.103661645507812,13.479355346679686,33.11450381679389,-0.44274809160305345,51.98473282442748,-12.042834350585936,-0.8810662109374999,2.104503259277344,26.290076335877863,26.229007633587788,18.12213740458015,0.0
11.140000581741333,-5.1714755859374995,2.6288334228515624,5.968744738769531,21.96946564885496,-0.6106870229007634,48.87022900763359,-11.228805786132812,-0.6488286499023437,2.760514514160156,25.450381679389313,19.69465648854962,18.519083969465647,0.0
11.15000033378601,-4.764461303710937,3.4763808105468748,-3.5721488769531247,-8.793893129770993,5.465648854961832,37.89312977099237,-10.283096130371094,1.3575123413085937,1.120486376953125,22.732824427480917,6.106870229007634,14.763358778625955,0.0
11.160000562667847,-3.8235400512695312,-0.7733271362304687,-6.962338427734375,-47.06870229007634,21.786259541984734,28.38167938931298,-12.344503759765624,-0.3184288208007812,2.6001030029296874,-1.099236641221374,13.206106870229007,16.931297709923665,0.0
11.170000553131104,-7.304709265136719,-1.4341267944335936,-1.70467158203125,-91.23664122137404,31.66412213740458,13.954198473282442,-11.920730065917969,-1.6639701538085936,3.239354846191406,-5.358778625954199,6.809160305343512,16.641221374045802,0.0
11.18000054359436,-8.10197841796875,-7.7787611938476555,1.8626888916015625,-73.00763358778626,45.74045801526717,16.549618320610687,-12.643778967285156,-0.7709329345703124,2.978386865234375,-13.099236641221374,-0.9007633587786259,16.748091603053435,0.0
11.190000772476196,-9.054870678710937,-5.604826086425781,7.242460021972656,-8.702290076335878,72.38167938931298,20.65648854961832,-11.358092675781249,-1.1252747802734375,2.1883003173828124,-18.900763358778626,-13.603053435114504,14.885496183206106,0.0
11.200000286102295,-13.043610644531249,1.6998831787109374,13.199233752441405,31.69465648854962,83.26717557251908,21.236641221374047,-12.301408129882812,-2.7629087158203123,2.6695348510742187,-7.877862595419847,-22.748091603053435,16.916030534351144,0.0
11.21000075340271,-8.736441857910156,-4.958391638183594,9.469067565917967,63.221374045801525,82.70229007633588,23.022900763358777,-11.386823095703125,0.12449848632812499,1.2593500732421874,-6.183206106870229,-33.282442748091604,13.770992366412214,0.0
11.220000505447388,-10.20169327392578,1.7477672119140624,2.858676782226562,59.45038167938932,82.13740458015268,10.717557251908397,-10.230423693847655,0.9576806640625,0.8475473876953125,-21.389312977099237,-34.01526717557252,12.076335877862595,0.0
11.230000257492065,-12.109871997070313,6.2584431396484375,2.7437551025390623,0.8702290076335878,70.10687022900764,1.0076335877862594,-11.259930407714844,1.3407529296874998,1.1133037719726562,-33.70992366412214,-29.419847328244273,15.068702290076336,0.0
11.240000486373901,-8.576030346679687,0.5051765502929687,3.5003228271484375,-25.099236641221374,56.717557251908396,3.816793893129771,-12.638990563964843,0.24660277099609373,0.32082302246093747,-42.274809160305345,-33.6793893129771,17.755725190839694,0.0
11.250000238418579,-7.970297326660156,-1.9752163696289062,2.2960393920898436,-11.404580152671755,62.16793893129771,4.106870229007634,-12.662932580566405,-0.45968671875,0.8858546142578124,-38.656488549618324,-37.725190839694655,15.694656488549619,0.0
11.260000467300415,-9.576806640625,0.38786066894531246,2.0159177978515626,-12.030534351145038,63.16030534351145,-4.396946564885496,-13.189656945800781,-0.105344873046875,0.33039982910156246,-28.244274809160306,-45.221374045801525,9.419847328244275,0.0
11.270000457763672,-8.001421948242188,-1.3239935180664062,2.3343466186523436,-6.656488549618321,62.44274809160305,-4.564885496183206,-12.914323754882812,2.0159177978515626,-0.42377369384765623,-31.31297709923664,-51.3587786259542,3.801526717557252,0.0
11.280000686645508,-5.786785412597656,-3.4907460205078125,1.8602946899414061,18.977099236641223,69.80152671755725,-2.900763358778626,-14.101847778320312,2.6503812377929687,-0.3399766357421875,-47.55725190839695,-45.48091603053435,2.50381679389313,0.0
11.290000677108765,-7.702146740722656,-1.139639990234375,1.608903515625,42.82442748091603,80.36641221374046,-10.396946564885496,-14.417882397460936,0.2561795776367187,0.46686932373046874,-40.091603053435115,-42.045801526717554,4.885496183206107,0.0
11.3000009059906,-6.1626750732421876,-3.81156904296875,-0.7422025146484375,62.76335877862596,85.00763358778626,-12.045801526717558,-14.755464831542968,-0.6296750366210937,0.05746083984375,-11.740458015267176,-51.20610687022901,5.450381679389313,0.0
11.310000658035278,-7.793126403808594,-0.852335791015625,0.3687070556640625,99.83206106870229,101.55725190839695,-14.763358778625955,-12.667720983886719,1.158793603515625,-1.0007762939453124,3.9083969465648853,-64.1526717557252,1.7709923664122138,0.0
11.320000886917114,-10.663774194335938,5.506663818359375,1.3359645263671873,93.14503816793894,104.25954198473282,-21.770992366412212,-12.409147204589843,2.3295582153320313,-0.5195417602539062,-1.6030534351145038,-59.9236641221374,-0.12213740458015267,0.0
11.330000400543213,-9.090783703613281,4.723759875488281,0.7134720947265625,71.81679389312977,97.2824427480916,-16.519083969465647,-11.197681164550781,3.5984850952148437,-1.388636962890625,-4.885496183206107,-58.61068702290076,1.6030534351145038,0.0
11.340001106262207,-10.644620581054687,5.238513232421875,1.0462661254882812,70.87022900763358,101.22137404580153,-11.007633587786259,-11.54244620361328,0.9050082275390624,0.7637503295898437,-11.32824427480916,-52.42748091603053,5.404580152671755,0.0
11.350000619888306,-11.247959399414063,7.41244833984375,2.3367408203125,39.66412213740458,92.85496183206106,-14.412213740458014,-11.71482872314453,0.6488286499023437,0.928950244140625,-8.534351145038167,-53.465648854961835,3.5419847328244276,0.0
11.360000610351562,-8.003816149902343,0.6536170532226562,-0.17238251953125,24.442748091603054,83.98473282442748,-7.633587786259542,-10.378864196777343,2.741360900878906,0.26336218261718747,-5.419847328244275,-58.274809160305345,0.7480916030534351,0.0
11.37000036239624,-9.246406811523437,-0.46208092041015625,-0.12210428466796874,48.42748091603053,94.94656488549619,-5.923664122137405,-9.969455712890625,3.2609026611328122,0.5506663818359374,-27.64885496183206,-52.274809160305345,-2.7022900763358777,0.0
11.380000352859497,-10.527304699707031,3.2249896362304686,2.482787121582031,30.442748091603054,90.47328244274809,-14.549618320610687,-10.206481677246094,1.8698714965820311,0.38307226562499996,-35.98473282442748,-49.282442748091604,-3.7404580152671754,0.0
11.390000581741333,-10.376469995117187,4.477157104492187,2.032677209472656,8.076335877862595,81.5114503816794,-17.099236641221374,-6.584054565429687,2.7341782958984373,-1.8148048583984373,-48.47328244274809,-56.717557251908396,-7.404580152671755,0.0
11.40000033378601,-11.54244620361328,5.106832141113281,2.5258827514648434,-15.526717557251908,72.13740458015268,-18.198473282442748,-9.572018237304688,-0.6057330200195312,0.7996633544921875,-48.213740458015266,-43.52671755725191,-5.312977099236641,0.0
11.410000562667847,-10.982203015136719,2.157175695800781,2.2553379638671873,-28.15267175572519,63.465648854961835,-17.61832061068702,-10.287884533691406,-1.254561669921875,0.9193734375,-27.053435114503817,-51.603053435114504,-7.480916030534351,0.0
11.420000553131104,-9.093177905273437,-0.17477672119140625,1.4796166259765624,-23.480916030534353,59.404580152671755,-16.946564885496183,-9.64623848876953,-0.34237083740234375,0.7876923461914062,-10.15267175572519,-61.603053435114504,-9.557251908396946,0.0
11.43000078201294,-9.311050256347656,0.16280571289062498,1.697488977050781,-19.49618320610687,57.87786259541985,-18.748091603053435,-7.055712292480468,1.2880804931640624,-0.3495534423828125,5.587786259541985,-74.94656488549619,-12.396946564885496,0.0
11.440000534057617,-10.268730920410155,1.0510545288085937,2.1499930908203124,-14.534351145038167,59.64885496183206,-21.358778625954198,-9.050082275390624,1.1180921752929687,1.2689268798828124,-5.404580152671755,-67.12977099236642,-13.114503816793894,0.0
11.450000762939453,-9.1554271484375,1.2808978881835937,2.001552587890625,-22.076335877862597,53.770992366412216,-23.083969465648856,-9.624690673828125,0.45968671875,0.5410895751953124,1.7099236641221374,-71.98473282442748,-12.580152671755725,0.0
11.46000051498413,-9.552864624023437,0.7398083129882812,1.1085153686523437,-14.351145038167939,55.41984732824427,-24.12213740458015,-8.645462194824217,2.636016027832031,0.47644613037109373,-16.671755725190838,-66.27480916030534,-13.221374045801527,0.0
11.470000505447388,-10.029310754394531,2.4349030883789062,1.1228805786132812,-14.916030534351146,56.656488549618324,-24.671755725190838,-9.70369932861328,-0.8379705810546875,0.6248866333007812,-15.541984732824428,-60.36641221374046,-9.297709923664122,0.0
11.480000495910645,-10.488997473144531,3.402160559082031,1.16837041015625,-23.00763358778626,54.48854961832061,-26.03053435114504,-9.184157568359375,1.2401964599609374,-0.5195417602539062,-6.030534351145038,-66.59541984732824,-9.297709923664122,0.0
11.490000486373901,-10.97502041015625,3.220201232910156,1.0127473022460938,-29.801526717557252,54.0,-23.770992366412212,-8.420407238769531,2.9041666137695312,-1.180341418457031,-29.31297709923664,-57.587786259541986,-11.938931297709924,0.0
11.500000476837158,-14.449007019042968,8.487444885253906,2.221819140625,-52.900763358778626,54.0,-24.442748091603054,-10.412383020019531,1.1324573852539062,-0.3711012573242187,-37.17557251908397,-42.19847328244275,-8.366412213740459,0.0
11.510000467300415,-11.48498536376953,6.253654736328125,1.8555062866210936,-105.19083969465649,29.236641221374047,-20.732824427480917,-10.58476553955078,-0.967257470703125,0.354341845703125,-23.64885496183206,-42.83969465648855,-8.992366412213741,0.0
11.520000696182251,-7.733271362304687,-1.687912170410156,-0.45968671875,-72.67175572519083,34.38167938931298,-6.977099236641221,-10.9175595703125,-0.11731588134765625,0.22505495605468748,-11.816793893129772,-47.51145038167939,-10.549618320610687,0.0
11.530000686645508,-11.973402502441406,1.7310078002929687,0.9816226806640624,-58.3206106870229,43.16030534351145,-11.557251908396946,-9.229647399902344,1.01514150390625,-0.21068974609375,-9.007633587786259,-50.58015267175573,-16.48854961832061,0.0
11.540001153945923,-12.492944262695312,5.482721801757812,2.6408044311523438,-75.63358778625954,37.267175572519086,-14.793893129770993,-8.84178673095703,2.4851813232421875,0.5506663818359374,-19.49618320610687,-43.7557251908397,-18.106870229007633,0.0
11.550000429153442,-10.479420666503906,2.327164013671875,1.6615759521484375,-86.38167938931298,31.51145038167939,-7.0534351145038165,-9.5384994140625,1.24498486328125,1.3144167114257812,-25.923664122137403,-37.404580152671755,-15.038167938931299,0.0
11.560000896453857,-7.615955480957031,-2.0733786376953125,0.05985504150390625,-67.69465648854961,33.099236641221374,-2.564885496183206,-10.072406384277343,-0.16759411621093748,1.5969325073242187,-14.992366412213741,-38.94656488549618,-12.992366412213741,0.0
11.570000886917114,-10.319009155273436,1.7669208251953124,2.1883003173828124,-52.6412213740458,44.44274809160305,-8.854961832061068,-10.17056865234375,-0.8020575561523438,2.422932080078125,3.3893129770992365,-46.595419847328245,-12.473282442748092,0.0
11.580000877380371,-12.682086193847656,4.96078583984375,2.9568390502929685,-77.09923664122137,31.022900763358777,-11.49618320610687,-7.738059765625,2.9759926635742184,0.7565677246093749,-1.297709923664122,-54.54961832061068,-16.412213740458014,0.0
11.590000629425049,-9.586383447265625,0.37828386230468747,0.9097966308593749,-75.74045801526718,27.053435114503817,-3.0381679389312977,-7.922413293457031,2.288856787109375,1.9943699829101562,-23.938931297709924,-42.83969465648855,-13.34351145038168,0.0
11.600000619888306,-11.69567510986328,3.095702746582031,2.2026655273437497,-79.58778625954199,25.51145038167939,-3.2519083969465647,-10.328585961914062,-0.4381389038085937,2.327164013671875,-16.3206106870229,-42.97709923664122,-8.213740458015268,0.0
11.610000610351562,-11.058817468261719,0.8116343627929687,1.8507178833007811,-80.74809160305344,15.877862595419847,-0.7480916030534351,-8.777143286132812,1.0773907470703123,1.714248388671875,-1.1297709923664123,-54.70229007633588,-8.717557251908397,0.0
11.62000060081482,-9.126696728515624,-2.2170307373046874,1.0486603271484374,-49.00763358778626,22.564885496183205,4.549618320610687,-6.9910688476562495,2.1930887207031247,1.4437036010742186,-18.396946564885496,-51.786259541984734,-8.687022900763358,0.0
11.630000591278076,-9.409212524414063,-0.0909796630859375,1.2713210815429687,-39.43511450381679,23.893129770992367,2.3969465648854964,-9.03332286376953,-1.3192051147460937,2.9089550170898435,-13.32824427480916,-45.221374045801525,-4.412213740458015,0.0
11.640000581741333,-10.635043774414061,1.1037269653320312,1.1372457885742187,-43.038167938931295,18.16793893129771,-0.16793893129770993,-8.386888415527343,0.28012159423828126,1.7573440185546874,4.0,-57.61832061068702,-4.1679389312977095,0.0
11.65000057220459,-9.387664709472656,0.0430956298828125,0.3591302490234375,-34.12213740458015,18.0,2.183206106870229,-6.775590698242187,2.0063409912109376,1.5203180541992187,-10.106870229007633,-51.908396946564885,-6.916030534351145,0.0
11.660000562667847,-9.526528405761718,0.6536170532226562,0.6512228515624999,-35.954198473282446,18.12213740458015,1.8778625954198473,-8.724470849609375,-0.8307879760742187,2.5713725830078125,-11.648854961832061,-42.76335877862596,-3.2061068702290076,0.0
11.670000553131104,-9.816226806640625,0.258573779296875,0.5602431884765625,-38.152671755725194,15.251908396946565,-0.32061068702290074,-9.363722692871093,-0.7278373046875,2.0159177978515626,5.648854961832061,-49.93893129770992,-1.251908396946565,0.0
11.68000078201294,-9.512163195800781,-0.033518823242187495,0.09576806640624999,-30.015267175572518,15.755725190839694,-0.13740458015267176,-7.022193469238281,1.9321207397460936,1.3192051147460937,-3.1908396946564888,-48.213740458015266,-6.33587786259542,0.0
11.690000534057617,-9.6917283203125,0.7062894897460937,0.06464344482421874,-27.282442748091604,17.0381679389313,0.5801526717557252,-8.257601525878906,-0.4740519287109375,2.1715409057617188,-17.770992366412212,-35.282442748091604,-4.885496183206107,0.0
11.700000524520874,-9.169792358398437,-0.38307226562499996,-0.18914193115234373,-22.580152671755727,18.366412213740457,-0.24427480916030533,-10.386046801757812,-1.448492004394531,3.0550013183593747,-5.4961832061068705,-32.93129770992366,-1.2671755725190839,0.0
11.71000075340271,-9.375693701171874,0.9169792358398436,0.2154781494140625,-19.0381679389313,17.16030534351145,-2.6717557251908395,-10.242394702148436,-1.1875240234375,2.2385785522460937,10.229007633587786,-39.74045801526717,-3.1755725190839694,0.0
11.720000505447388,-9.730035546875,1.455674609375,0.5051765502929687,-21.923664122137403,14.900763358778626,-3.3740458015267176,-7.979874133300781,1.139639990234375,1.8650830932617186,6.320610687022901,-39.17557251908397,-9.282442748091603,0.0
11.730000495910645,-9.430760339355468,1.3168109130859373,0.7924807495117187,-19.72519083969466,14.732824427480915,-1.4961832061068703,-8.719682446289061,0.6823474731445313,1.8698714965820311,-13.32824427480916,-25.72519083969466,-10.290076335877863,0.0
11.740000486373901,-10.08677159423828,2.1906945190429687,1.6519991455078125,-21.709923664122137,13.938931297709924,-0.5954198473282443,-8.801085302734375,-0.12210428466796874,2.1715409057617188,-21.84732824427481,-16.885496183206108,-9.083969465648854,0.0
11.750000476837158,-10.079588989257813,1.8914193115234375,1.5227122558593749,-20.045801526717558,11.114503816793894,1.1603053435114503,-10.08677159423828,-1.4101847778320311,2.9448680419921875,-10.15267175572519,-14.51908396946565,-6.977099236641221,0.0
11.760000705718994,-10.134655627441406,1.4963760375976562,0.9840168823242187,-15.84732824427481,9.86259541984733,2.6106870229007635,-8.614337573242187,-0.22266075439453123,2.81558115234375,-7.450381679389313,-15.465648854961833,-10.580152671755725,0.0
11.770000696182251,-10.496180078124999,1.2042834350585936,0.7398083129882812,-12.870229007633588,9.083969465648854,2.595419847328244,-10.177751257324218,-2.0470424194335934,3.536235852050781,1.282442748091603,-11.404580152671755,-9.770992366412214,0.0
11.780000686645508,-10.077194787597655,0.5003881469726562,0.584185205078125,-10.854961832061068,8.473282442748092,0.5038167938931297,-9.442731347656249,-0.7422025146484375,3.0885201416015624,8.977099236641221,-15.86259541984733,-12.198473282442748,0.0
11.790000915527344,-10.144232434082031,0.39743747558593745,0.16041151123046873,-8.396946564885496,8.427480916030534,-2.015267175572519,-8.573636145019531,-0.7038952880859375,3.1771056030273437,14.427480916030534,-18.641221374045802,-13.068702290076336,0.0
11.8000009059906,-10.105925207519531,0.45489831542968745,-0.10295067138671875,-8.13740458015267,8.15267175572519,-5.038167938931298,-8.231265307617187,0.9145850341796874,3.3111808959960936,15.16030534351145,-20.244274809160306,-15.007633587786259,0.0
11.810000658035278,-9.737218151855469,0.6416460449218749,-0.1867477294921875,-6.3816793893129775,11.114503816793894,-5.7251908396946565,-7.436390356445312,1.4987702392578124,3.1842882080078123,5.816793893129771,-15.908396946564885,-15.938931297709924,0.0
11.820000886917114,-9.4618849609375,1.1037269653320312,-0.3136404174804687,-11.251908396946565,12.641221374045802,-5.709923664122138,-6.811503723144531,2.4133552734375,2.7341782958984373,-11.786259541984732,-6.778625954198473,-15.435114503816793,0.0
11.830000638961792,-8.978256225585938,1.6807295654296874,-0.3854664672851562,-16.427480916030536,14.244274809160306,-4.427480916030534,-7.6997525390625,0.5195417602539062,2.93050283203125,-19.755725190839694,2.8091603053435112,-11.419847328244275,0.0
11.840000867843628,-9.100360510253905,1.4891934326171874,-0.5626373901367188,-21.435114503816795,13.84732824427481,-4.076335877862595,-8.312668164062499,-0.28730419921875,2.779668127441406,-5.175572519083969,-0.15267175572519084,-9.038167938931299,0.0
11.850000619888306,-9.011775048828124,0.9074024291992187,-0.4165910888671875,-19.374045801526716,16.38167938931298,-4.198473282442748,-8.180987072753906,-0.316034619140625,3.114856359863281,-0.916030534351145,3.267175572519084,-8.916030534351146,0.0
11.860000610351562,-9.404424121093749,0.9217676391601562,-0.1771709228515625,-18.977099236641223,18.198473282442748,-3.9083969465648853,-7.771578588867187,-0.15083470458984374,3.1100679565429687,2.4427480916030535,5.557251908396947,-8.595419847328245,0.0
11.87000060081482,-9.41639512939453,0.49799394531249996,-0.08858546142578125,-18.610687022900763,19.46564885496183,-4.824427480916031,-7.8912886718749995,-0.22505495605468748,2.89219560546875,6.0458015267175576,7.480916030534351,-7.068702290076335,0.0
11.880000591278076,-10.038887561035155,0.6679822631835937,0.25139117431640623,-18.885496183206108,20.580152671755727,-6.549618320610687,-7.673416320800781,-0.08379705810546874,2.73896669921875,7.3893129770992365,10.198473282442748,-6.366412213740458,0.0
11.890000581741333,-10.065223779296874,0.3399766357421875,0.6679822631835937,-16.946564885496183,21.053435114503817,-7.6183206106870225,-7.7763669921875,-0.3591302490234375,2.729389892578125,9.16030534351145,13.435114503816793,-5.114503816793893,0.0
11.90000033378601,-9.70369932861328,-0.22744915771484372,0.82360537109375,-14.122137404580153,20.65648854961832,-8.931297709923664,-7.7596075805664055,-0.44053310546874996,2.6982652709960937,11.145038167938932,15.648854961832061,-4.305343511450381,0.0
11.910001039505005,-9.89523546142578,-0.7709329345703124,0.948103857421875,-7.175572519083969,21.34351145038168,-10.198473282442748,-7.491456994628906,-0.5123591552734374,2.5713725830078125,12.564885496183207,17.87786259541985,-4.183206106870229,0.0
11.920000553131104,-10.544064111328124,-0.11731588134765625,1.62805712890625,6.030534351145038,26.30534351145038,-12.793893129770993,-7.551312036132812,-0.7326257080078125,2.5641899780273434,13.877862595419847,20.900763358778626,-4.137404580152672,0.0
11.930001020431519,-9.9981861328125,-0.36391865234375,1.9919757812499999,12.763358778625955,27.083969465648856,-15.893129770992367,-7.378929516601562,-0.24181436767578124,2.281674182128906,15.236641221374045,22.16793893129771,-4.488549618320611,0.0
11.940000534057617,-11.281478222656249,1.005564697265625,2.3415292236328122,16.33587786259542,27.893129770992367,-18.33587786259542,-8.226476904296874,-0.9696516723632812,2.5378537597656248,9.358778625954198,31.786259541984734,-4.244274809160306,0.0
11.950000762939453,-10.012551342773437,1.0199299072265624,1.5586252807617187,11.83206106870229,19.267175572519083,-18.580152671755727,-7.826645227050781,-0.5123591552734374,2.7341782958984373,9.709923664122137,34.48854961832061,-5.4961832061068705,0.0
11.96000051498413,-10.465055456542968,2.3678654418945313,2.176329309082031,6.458015267175573,15.267175572519085,-19.34351145038168,-8.813056311035156,-1.2617442749023438,1.687912170410156,12.213740458015268,36.2442748091603,-4.977099236641221,0.0
11.970000743865967,-10.517727893066406,2.5067291381835934,3.1364041748046874,6.534351145038168,15.389312977099237,-19.69465648854962,-6.801926916503906,-0.5674257934570313,1.5729904907226562,11.664122137404581,37.267175572519086,-7.221374045801527,0.0
11.980000495910645,-10.108319409179687,1.8100164550781248,2.858676782226562,-2.763358778625954,6.641221374045801,-17.51145038167939,-7.682993127441406,-0.05746083984375,1.4413093994140624,9.83206106870229,42.274809160305345,-6.549618320610687,0.0
11.990000486373901,-10.12507882080078,0.9528922607421875,3.394977954101562,2.6717557251908395,3.6030534351145036,-14.702290076335878,-5.968744738769531,1.7094599853515624,0.7805097412109374,-6.320610687022901,50.51908396946565,-6.595419847328245,0.0
12.000000476837158,-10.678139404296875,1.0462661254882812,3.7517140014648436,4.290076335877862,0.8702290076335878,-13.465648854961833,-7.40526573486328,-0.9792284790039062,1.4173673828125,-9.129770992366412,59.64885496183206,-1.2213740458015268,0.0
12.010000705718994,-10.749965454101561,0.6057330200195312,4.0988732421875,7.755725190839694,-5.419847328244275,-12.305343511450381,-7.936778503417968,-1.6304513305664061,1.0989385620117187,8.259541984732824,56.51908396946565,1.618320610687023,0.0
12.020000457763672,-10.812214697265624,1.0582371337890624,4.714183068847656,15.572519083969466,-10.366412213740459,-11.603053435114504,-6.83783994140625,1.3407529296874998,0.9169792358398436,11.83206106870229,55.93893129770992,-2.6106870229007635,0.0
12.030000686645508,-10.87206973876953,0.6679822631835937,5.240907434082031,19.34351145038168,-15.251908396946565,-10.885496183206106,-8.245630517578125,2.4851813232421875,1.8219874633789062,-11.816793893129772,67.57251908396947,-4.641221374045801,0.0
12.040000438690186,-11.487379565429686,0.5722141967773438,5.84185205078125,20.946564885496183,-22.625954198473284,-12.412213740458014,-12.026074938964843,-0.062249243164062495,3.4835634155273434,-20.03053435114504,70.58015267175573,-3.5114503816793894,0.0
12.050000667572021,-10.982203015136719,-0.016759411621093748,6.342240197753906,31.923664122137403,-33.64885496183206,-15.068702290076336,-12.411541406249999,0.16519991455078123,3.897760302734375,-26.366412213740457,62.595419847328245,-8.091603053435115,0.0
12.060000896453857,-11.104307299804686,0.8930372192382812,6.303932971191406,42.961832061068705,-42.50381679389313,-15.572519083969466,-16.282965490722656,-0.055066638183593745,6.1650692749023435,-42.229007633587784,68.25954198473282,-10.992366412213741,0.0
12.070000648498535,-12.715605017089842,4.055777612304687,7.560888842773437,31.206106870229007,-56.900763358778626,-16.106870229007633,-15.528791967773437,-0.15322890625,6.751648681640624,-51.3587786259542,62.70229007633588,-12.931297709923664,0.0
12.080000877380371,-12.272677709960936,3.6367923217773437,7.316680273437499,23.450381679389313,-78.2442748091603,-11.48091603053435,-15.2845833984375,-2.1811177124023438,6.406883642578125,-35.57251908396947,48.2442748091603,-8.427480916030534,0.0
12.090000629425049,-12.059593762207031,3.306392492675781,6.48589229736328,19.893129770992367,-94.87022900763358,-4.3816793893129775,-10.457872851562499,0.7900865478515624,3.488351818847656,-21.114503816793892,28.748091603053435,-6.977099236641221,0.0
12.100000619888306,-12.548010900878905,2.710236279296875,6.311115576171875,14.366412213740459,-110.3969465648855,3.1908396946564888,-8.379705810546875,-0.316034619140625,2.6815058593749996,-25.419847328244273,30.946564885496183,1.251908396946565,0.0
12.110000371932983,-13.639766857910155,0.21068974609375,6.4092778442382805,1.618320610687023,-126.82442748091603,12.50381679389313,-7.644685900878906,-1.5251064575195312,1.1228805786132812,-16.35114503816794,22.091603053435115,7.435114503816794,0.0
12.120000839233398,-14.875174914550781,-1.5490484741210937,5.576095666503906,3.49618320610687,-140.85496183206106,18.27480916030534,-7.070077502441406,1.1037269653320312,0.3136404174804687,-21.52671755725191,22.12213740458015,7.206106870229007,0.0
12.130000591278076,-16.13931339111328,-2.636016027832031,5.437231970214843,-0.8854961832061069,-151.93893129770993,21.740458015267176,-6.191405493164062,2.3295582153320313,-0.46208092041015625,-43.725190839694655,32.06106870229008,8.290076335877863,0.0
12.140000343322754,-17.396269262695313,-3.478775012207031,4.414907861328125,-11.435114503816793,-164.7175572519084,16.27480916030534,-10.156203442382813,-0.70868369140625,0.5530605834960938,-55.05343511450382,42.68702290076336,15.969465648854962,0.0
12.15000057220459,-16.991649182128906,-5.288791467285156,1.9225439331054686,-1.4198473282442747,-172.8854961832061,12.687022900763358,-8.552088330078124,-0.47884033203125,-1.01514150390625,-58.396946564885496,42.61068702290076,12.931297709923664,0.0
12.160000562667847,-16.299724902343748,-5.363011718749999,0.59376201171875,19.801526717557252,-171.206106870229,9.206106870229007,-10.733206042480468,-4.350264416503906,0.5985504150390625,-58.35114503816794,53.038167938931295,13.709923664122137,0.0
12.170000553131104,-13.268665600585937,-6.842628344726562,0.12210428466796874,38.412213740458014,-167.6030534351145,6.442748091603053,-6.421248852539062,-2.7629087158203123,-1.5538368774414062,-47.64885496183206,46.85496183206107,7.404580152671755,0.0
12.18000054359436,-12.133814013671874,-5.4899044067382805,-0.009576806640625,61.11450381679389,-160.2290076335878,2.6564885496183206,-8.595183959960938,-3.8762124877929685,-0.603338818359375,-53.57251908396947,64.01526717557252,9.297709923664122,0.0
12.190000772476196,-10.223241088867187,-4.7764323120117185,-0.6464344482421874,66.65648854961832,-153.55725190839695,1.465648854961832,-7.280767248535156,-2.7629087158203123,-1.0606313354492187,-44.94656488549618,66.61068702290076,9.511450381679388,0.0
12.200000524520874,-10.730811840820312,-4.237736938476562,-0.5482721801757812,80.10687022900764,-143.98473282442748,-0.916030534351145,-8.386888415527343,-1.9009961181640624,-1.5658078857421873,-41.16030534351145,70.54961832061069,9.709923664122137,0.0
12.21000075340271,-10.05564697265625,-3.4763808105468748,-1.3359645263671873,80.51908396946565,-138.44274809160305,-4.320610687022901,-10.97502041015625,-4.369418029785156,0.4477157104492187,-19.96946564885496,70.97709923664122,12.458015267175572,0.0
12.220000743865967,-10.000580334472655,-3.019088293457031,-1.0917559570312498,83.70992366412214,-129.08396946564886,-7.343511450381679,-11.149797131347656,-4.726154077148437,0.7302315063476562,-3.114503816793893,69.55725190839695,12.061068702290076,0.0
12.230000495910645,-10.728417639160156,-1.4867992309570313,-0.6775590698242188,88.82442748091603,-122.01526717557252,-8.106870229007633,-11.724405529785155,-5.054159704589844,0.8930372192382812,23.72519083969466,57.51145038167939,10.580152671755725,0.0
12.240000247955322,-10.618284362792968,0.06703764648437499,0.32561142578124996,91.0381679389313,-113.08396946564885,-8.427480916030534,-10.8409451171875,-2.2936451904296873,-0.948103857421875,32.56488549618321,49.74045801526717,8.793893129770993,0.0
12.250000238418579,-10.498574279785156,2.0470424194335934,1.3000515014648437,83.09923664122137,-110.07633587786259,-5.312977099236641,-10.002974536132811,-2.463633508300781,-0.7398083129882812,30.458015267175572,50.01526717557252,9.816793893129772,0.0
12.260000705718994,-10.383652600097655,2.588131994628906,2.4564509033203126,67.90839694656489,-107.6030534351145,-2.2290076335877864,-10.817003100585938,-3.4452561889648434,-0.5291185668945312,49.98473282442748,45.87786259541985,13.465648854961833,0.0
12.270000696182251,-8.949525805664061,1.197100830078125,1.924938134765625,57.7557251908397,-109.34351145038168,1.5267175572519085,-8.449137658691406,-1.4245499877929686,-1.2425906616210938,65.46564885496183,35.64885496183206,10.549618320610687,0.0
12.280000686645508,-8.93755479736328,1.4221557861328125,2.27927998046875,52.29007633587786,-102.36641221374046,4.961832061068702,-9.016563452148437,0.4261678955078125,-1.908178723144531,57.16030534351145,37.06870229007634,7.206106870229007,0.0
12.290000677108765,-7.781155395507812,0.8595183959960937,2.1547814941406247,38.74809160305343,-100.90076335877863,6.534351145038168,-9.868899243164062,1.6328455322265625,-1.0893617553710937,40.74809160305343,47.14503816793893,7.1603053435114505,0.0
12.3000009059906,-7.692569934082031,1.254561669921875,2.262520568847656,27.480916030534353,-97.48091603053435,6.076335877862595,-8.305485559082031,2.1978771240234374,-0.9433154541015625,16.30534351145038,55.06870229007634,7.526717557251908,0.0
12.310000658035278,-7.089231115722656,0.06464344482421874,1.608903515625,22.778625954198475,-92.85496183206106,7.923664122137405,-11.082759484863281,-2.346317626953125,2.5905261962890624,20.763358778625953,60.80916030534351,12.916030534351146,0.0
12.320000886917114,-6.4475850708007805,-0.5386953735351562,1.3215993164062498,26.9618320610687,-83.92366412213741,7.801526717557252,-11.762712756347655,-2.9735984619140625,2.6001030029296874,48.717557251908396,51.282442748091604,15.465648854961833,0.0
12.330000638961792,-4.723759875488281,-1.7022773803710936,0.143652099609375,36.99236641221374,-76.3206106870229,8.641221374045802,-10.71884083251953,-2.0063409912109376,2.1835119140624997,61.770992366412216,39.404580152671755,12.916030534351146,0.0
12.340000867843628,-4.448426684570312,-0.8714894042968749,0.3758896606445312,43.20610687022901,-61.908396946564885,6.549618320610687,-10.350133776855468,-0.565031591796875,1.1228805786132812,52.68702290076336,35.38931297709924,8.351145038167939,0.0
12.350000619888306,-5.154716174316406,1.1061211669921875,1.0965443603515623,30.977099236641223,-53.05343511450382,1.3282442748091603,-10.50815108642578,-1.3407529296874998,1.3192051147460937,46.80916030534351,33.31297709923664,8.01526717557252,0.0
12.360000610351562,-5.379771130371093,2.437297290039062,1.9847931762695312,15.969465648854962,-46.80916030534351,-1.1755725190839694,-10.115502014160155,-0.19632453613281248,0.689530078125,40.229007633587784,31.786259541984734,10.076335877862595,0.0
12.37000060081482,-4.455609289550781,2.7653029174804686,2.6048914062499997,5.9541984732824424,-40.79389312977099,0.7633587786259542,-11.540052001953125,-1.599326708984375,1.5514426757812498,39.786259541984734,31.17557251908397,13.206106870229007,0.0
12.380000591278076,-4.4819455078125,2.844311572265625,3.3638533325195312,-1.0687022900763359,-32.62595419847328,0.8854961832061069,-9.536105212402344,0.6775590698242188,0.63206923828125,33.02290076335878,27.770992366412212,12.030534351145038,0.0
12.390000581741333,-4.639962817382812,2.6096798095703124,3.6846763549804686,-7.587786259541985,-28.595419847328245,2.4427480916030535,-11.123460913085937,-2.2481553588867187,1.2210428466796874,32.82442748091603,28.50381679389313,15.038167938931299,0.0
12.40000057220459,-3.5218706420898434,1.0103531005859374,3.9336733276367184,-9.251908396946565,-20.519083969465647,4.3816793893129775,-9.212887988281249,-1.7429788085937499,1.2138602416992186,48.778625954198475,15.679389312977099,15.49618320610687,0.0
12.410000324249268,-3.6727053466796873,0.36631285400390623,3.9049429077148434,-7.572519083969466,-13.84732824427481,4.870229007633588,-12.8329208984375,-2.31758720703125,1.8076222534179687,45.66412213740458,21.022900763358777,15.389312977099237,0.0
12.420000553131104,-3.821145849609375,0.9552864624023437,4.96078583984375,-8.778625954198473,-2.4885496183206106,4.183206106870229,-9.983820922851562,-1.1085153686523437,0.5219359619140624,45.49618320610687,10.259541984732824,11.450381679389313,0.0
12.43000078201294,-5.312733483886719,1.9943699829101562,5.810727429199218,-20.35114503816794,2.2900763358778624,0.3816793893129771,-10.687716210937499,-1.5059528442382812,2.4301146850585935,31.938931297709924,18.412213740458014,12.992366412213741,0.0
12.440000534057617,-5.705382556152343,3.3973721557617185,6.888118176269531,-25.96946564885496,7.633587786259542,1.5725190839694656,-9.342174877929686,-2.2002713256835937,1.3311761230468748,36.717557251908396,6.824427480916031,11.84732824427481,0.0
12.450000762939453,-4.728548278808593,3.0526071166992184,6.8785413696289055,-18.625954198473284,10.259541984732824,5.450381679389313,-9.282319836425781,-2.250549560546875,1.66636435546875,39.86259541984733,0.9618320610687023,11.923664122137405,0.0
12.460000276565552,-4.936843823242187,4.841075756835937,7.091625317382812,-8.290076335877863,15.48091603053435,13.679389312977099,-11.348515869140625,-3.9552211425781247,4.153939880371094,49.05343511450382,2.33587786259542,13.206106870229007,0.0
12.470000982284546,-5.504269616699219,5.607220288085937,7.213729602050781,-7.4961832061068705,15.98473282442748,20.931297709923665,-10.70686982421875,-1.6136919189453125,2.559401574707031,60.99236641221374,-12.335877862595419,9.755725190839694,0.0
12.480000495910645,-6.133944653320312,5.382165332031249,8.729259252929687,-6.854961832061068,14.641221374045802,30.35114503816794,-9.107543115234375,0.6943184814453125,1.3144167114257812,38.99236641221374,-11.511450381679388,6.916030534351145,0.0
12.490000486373901,-6.404489440917969,3.9743747558593747,10.412383020019531,-9.450381679389313,14.290076335877863,40.82442748091603,-9.667786303710937,0.488417138671875,1.024718310546875,27.69465648854962,-9.32824427480916,10.442748091603054,0.0
12.500000476837158,-6.320692382812499,1.5227122558593749,8.207323291015625,-25.282442748091604,10.992366412213741,39.00763358778626,-10.797849487304687,0.2561795776367187,1.5753846923828123,22.9618320610687,-6.33587786259542,16.045801526717558,0.0
12.510000705718994,-7.244854223632812,-0.7445967163085937,3.2728736694335936,-44.58015267175573,11.816793893129772,31.938931297709924,-10.87925234375,1.599326708984375,0.27293898925781246,12.702290076335878,-8.610687022900763,17.49618320610687,0.0
12.520000696182251,-10.682927807617187,0.05746083984375,2.0183119995117185,-63.64885496183206,16.091603053435115,23.236641221374047,-8.997409838867187,3.229778039550781,-0.9241618408203125,-13.34351145038168,-6.6106870229007635,18.778625954198475,0.0
12.530000686645508,-11.080365283203124,-1.6543933471679686,1.149216796875,-60.0,24.396946564885496,25.740458015267176,-11.286266625976562,0.15322890625,-0.5865794067382812,-28.03053435114504,1.3893129770992367,26.412213740458014,0.0
12.540000915527344,-12.868833923339842,-0.2561795776367187,2.6982652709960937,-43.83206106870229,43.23664122137404,28.717557251908396,-10.89840595703125,-0.8834604125976562,0.33039982910156246,-30.68702290076336,2.717557251908397,29.923664122137403,0.0
12.550000667572021,-11.456254943847656,-1.6232687255859375,6.593631372070312,-17.282442748091604,53.7557251908397,33.05343511450382,-9.873687646484374,-0.239420166015625,-0.33758243408203126,-32.045801526717554,-2.50381679389313,26.396946564885496,0.0
12.560000896453857,-3.2800562744140622,-8.087613208007811,3.845087866210937,9.007633587786259,51.847328244274806,37.49618320610687,-10.50815108642578,-0.7134720947265625,-0.13646949462890623,-30.47328244274809,0.7633587786259542,24.30534351145038,0.0
12.570000648498535,-4.237736938476562,-3.9647979492187497,2.442085693359375,40.213740458015266,74.35114503816794,28.610687022900763,-9.49300958251953,-0.833182177734375,-0.06943184814453125,-31.61832061068702,1.1450381679389312,21.053435114503817,0.0
12.580000877380371,-6.718129858398437,0.5291185668945312,2.346317626953125,32.87022900763359,76.91603053435115,13.938931297709924,-11.037269653320312,-0.7350199096679687,-0.076614453125,-27.14503816793893,2.549618320610687,20.076335877862597,0.0
12.59000039100647,-9.5384994140625,2.901772412109375,4.048595007324218,10.641221374045802,71.83206106870229,4.793893129770993,-12.46900224609375,-0.5003881469726562,-0.7948749511718749,-24.9618320610687,0.21374045801526717,18.610687022900763,0.0
12.600000619888306,-6.813897924804687,-1.8938135131835936,3.3303345092773435,3.2061068702290076,64.73282442748092,8.01526717557252,-13.939042065429687,-0.5003881469726562,-0.8930372192382812,-23.053435114503817,0.42748091603053434,14.992366412213741,0.0
12.610000610351562,-7.0102224609374995,-4.127603662109375,2.518700146484375,23.633587786259543,79.58778625954199,4.015267175572519,-15.061922644042967,-0.2825157958984375,-0.6560112548828124,-15.679389312977099,-1.9389312977099236,11.48091603053435,0.0
12.62000060081482,-9.883264453125,-0.1388636962890625,3.392583752441406,27.236641221374047,81.8473282442748,-8.977099236641221,-15.385139868164062,0.37828386230468747,-0.5339069702148437,-5.801526717557252,-4.091603053435114,9.206106870229007,0.0
12.630000591278076,-10.912771166992187,3.584119885253906,3.5386300537109374,15.129770992366412,77.69465648854961,-12.366412213740459,-14.836867687988281,1.350329736328125,-0.7805097412109374,0.21374045801526717,-9.221374045801527,8.427480916030534,0.0
12.640000581741333,-7.0078282592773435,-1.898601916503906,1.1180921752929687,16.213740458015266,71.0381679389313,-6.0458015267175576,-13.699621899414062,2.6862942626953124,-0.8954314208984374,2.3053435114503817,-11.358778625954198,7.175572519083969,0.0
12.65000057220459,-7.151480358886718,-2.319981408691406,1.3096283081054687,54.94656488549618,88.7175572519084,-3.6793893129770994,-12.579135522460938,2.47081611328125,-0.45010991210937495,0.21374045801526717,-11.007633587786259,8.396946564885496,0.0
12.660000562667847,-9.871293444824218,2.482787121582031,2.7461493041992187,61.87786259541985,92.77862595419847,-10.549618320610687,-12.045228552246092,2.422932080078125,0.1580173095703125,2.2595419847328246,-11.435114503816793,9.709923664122137,0.0
12.670000553131104,-4.786009118652344,-3.794809631347656,0.30885201416015623,71.86259541984732,87.87786259541984,-3.9083969465648853,-11.822567797851562,2.231395947265625,0.4572925170898437,0.7175572519083969,-14.01526717557252,11.34351145038168,0.0
12.680000305175781,-6.5409589355468745,-2.4899697265625,-0.1292868896484375,119.49618320610686,113.63358778625954,-4.763358778625954,-11.499350573730467,1.8555062866210936,1.2330138549804688,-4.091603053435114,-14.885496183206106,10.687022900763358,0.0
12.690000772476196,-9.969455712890625,4.110844250488281,1.6112977172851561,108.79389312977099,114.7175572519084,-15.740458015267176,-11.590330236816406,1.7645266235351562,1.7190367919921874,-5.3893129770992365,-17.46564885496183,8.473282442748092,0.0
12.700000524520874,-10.544064111328124,6.909665991210937,1.9488801513671874,74.79389312977099,104.56488549618321,-19.114503816793892,-11.81059678955078,1.5466542724609373,1.6735469604492186,-10.15267175572519,-23.541984732824428,7.572519083969466,0.0
12.71000051498413,-10.103531005859374,5.327098693847656,0.8906430175781249,56.961832061068705,100.53435114503817,-14.961832061068701,-11.587936035156249,2.0470424194335934,1.448492004394531,-20.778625954198475,-29.068702290076335,5.236641221374046,0.0
12.720000505447388,-9.698910925292969,5.6958057495117185,1.608903515625,32.50381679389313,94.70229007633588,-15.541984732824428,-11.214440576171874,2.2457611572265623,1.4030021728515625,-31.236641221374047,-33.52671755725191,2.8702290076335877,0.0
12.730000257492065,-10.479420666503906,5.123591552734375,2.1811177124023438,4.977099236641221,87.22137404580153,-18.82442748091603,-10.955866796875,1.9728221679687499,1.465251416015625,-41.908396946564885,-37.02290076335878,1.4045801526717556,0.0
12.740000486373901,-8.662221606445312,1.458068811035156,1.3311761230468748,-8.610687022900763,78.10687022900764,-17.419847328244273,-9.758765966796874,3.2824504760742186,-0.26336218261718747,-48.091603053435115,-48.152671755725194,-2.931297709923664,0.0
12.750000476837158,-8.966285217285156,-0.105344873046875,2.059013427734375,2.595419847328244,82.7175572519084,-18.35114503816794,-10.735600244140624,2.3918074584960936,1.3910311645507811,-58.47328244274809,-44.54961832061068,-4.213740458015267,0.0
12.760000944137573,-9.64623848876953,0.3280056274414062,1.9321207397460936,6.870229007633588,83.77099236641222,-23.236641221374047,-9.459490759277344,1.7429788085937499,0.967257470703125,-54.94656488549618,-54.85496183206107,-7.633587786259542,0.0
12.770000696182251,-11.700463513183593,1.8459294799804686,3.1004911499023438,1.282442748091603,81.61832061068702,-30.580152671755727,-11.152191333007812,1.0749965454101562,2.2960393920898436,-49.7557251908397,-58.18320610687023,-8.091603053435115,0.0
12.780001163482666,-12.15536182861328,1.9752163696289062,3.3111808959960936,-8.564885496183207,74.50381679389314,-33.57251908396947,-10.998962426757812,-0.5985504150390625,2.7964275390625,-38.091603053435115,-67.96946564885496,-9.603053435114504,0.0
12.790000677108765,-11.02529864501953,1.7812860351562498,2.310404602050781,-16.702290076335878,70.70229007633588,-35.404580152671755,-9.548076220703125,1.465251416015625,2.327164013671875,-33.74045801526717,-77.95419847328245,-14.351145038167939,0.0
12.8000009059906,-11.403582507324218,3.071760729980469,1.6543933471679686,-35.908396946564885,66.38167938931298,-39.770992366412216,-7.9463553100585935,3.5410242553710933,1.0749965454101562,-31.96946564885496,-84.01526717557252,-13.893129770992367,0.0
12.8100004196167,-11.142614526367186,3.7517140014648436,1.3646949462890625,-63.603053435114504,59.541984732824424,-42.6412213740458,-7.788338000488281,4.402936853027343,1.218648645019531,-34.229007633587784,-82.1526717557252,-2.9160305343511452,0.0
12.820000648498535,-9.176974963378905,-0.47884033203125,-0.5506663818359374,-63.847328244274806,60.83969465648855,-36.274809160305345,-5.928043310546875,6.574477758789062,-0.852335791015625,-49.89312977099237,-84.54961832061069,8.870229007633588,0.0
12.830000638961792,-12.349292163085936,5.406107348632812,1.2282254516601563,-64.7175572519084,71.74045801526718,-38.274809160305345,-7.4220251464843745,4.455609289550781,0.14125789794921875,-59.48091603053435,-72.3969465648855,22.106870229007633,0.0
12.840000867843628,-8.959102612304687,3.756502404785156,0.6177040283203125,-94.27480916030534,55.954198473282446,-33.89312977099237,-6.763619689941406,4.800374328613281,-2.3726538452148436,-61.49618320610687,-78.79389312977099,30.396946564885496,0.0
12.850000381469727,-7.7596075805664055,0.6488286499023437,-0.28012159423828126,-79.1145038167939,62.50381679389313,-23.84732824427481,-6.56968935546875,3.4859576171874997,-2.221819140625,-92.41221374045801,-63.25190839694657,34.412213740458014,0.0
12.860000610351562,-10.366893188476562,4.235342736816406,1.3000515014648437,-74.09160305343511,68.76335877862596,-20.82442748091603,-8.470685473632813,-1.5155296508789062,-0.7517793212890624,-85.77099236641222,-53.52671755725191,37.93893129770992,0.0
12.87000060081482,-8.95670841064453,4.173093493652344,2.379836450195312,-94.47328244274809,51.465648854961835,-17.282442748091604,-8.109161022949218,-0.8283937744140625,-2.157175695800781,-72.42748091603053,-60.51908396946565,33.37404580152672,0.0
12.880000352859497,-8.118737829589843,1.8243816650390623,2.0757728393554684,-90.73282442748092,50.85496183206107,-8.992366412213741,-7.417236743164062,0.5722141967773438,-1.8746598999023436,-80.1526717557252,-51.51145038167939,27.49618320610687,0.0
12.890000581741333,-11.25514200439453,4.929661218261718,4.055777612304687,-79.58778625954199,55.43511450381679,-4.473282442748092,-9.718064538574218,-2.4061726684570313,0.22266075439453123,-73.22137404580153,-36.93129770992366,27.358778625954198,0.0
12.90000057220459,-9.612719665527344,2.090138049316406,3.1196447631835937,-85.40458015267176,37.19083969465649,0.8549618320610687,-10.802637890625,-5.027823486328125,-0.06943184814453125,-40.58015267175573,-44.87022900763359,23.61832061068702,0.0
12.910000562667847,-9.208099584960937,0.74699091796875,3.095702746582031,-66.80916030534351,31.541984732824428,7.343511450381679,-10.390835205078124,-2.808398547363281,-0.06703764648437499,-15.251908396946565,-52.68702290076336,15.038167938931299,0.0
12.920000314712524,-10.864887133789061,2.6479870361328124,4.146757275390625,-55.603053435114504,27.541984732824428,9.282442748091603,-8.008604553222655,0.3806780639648437,0.26336218261718747,-17.068702290076335,-46.97709923664122,4.183206106870229,0.0
12.93000078201294,-10.874463940429687,1.5131354492187499,4.106055847167968,-49.41984732824427,23.572519083969464,11.129770992366412,-9.234435803222656,-1.89620771484375,0.7350199096679687,-13.465648854961833,-39.17557251908397,3.5267175572519083,0.0
12.940000534057617,-11.022904443359375,0.3016694091796875,3.5122938354492184,-41.7557251908397,15.969465648854962,8.198473282442748,-10.196904870605469,-2.96881005859375,1.3575123413085937,7.541984732824427,-41.23664122137404,0.6870229007633588,0.0
12.950000762939453,-12.914323754882812,2.4157494750976563,3.9528269409179684,-40.412213740458014,9.969465648854962,3.1908396946564888,-8.341398583984375,0.22026655273437498,0.354341845703125,16.9618320610687,-45.98473282442748,-8.198473282442748,0.0
12.960000276565552,-12.026074938964843,2.844311572265625,3.380612744140625,-59.282442748091604,-5.8320610687022905,1.6030534351145038,-7.706935144042968,1.0223241088867188,0.8164227661132812,3.6946564885496183,-39.908396946564885,-13.221374045801527,0.0
12.970000743865967,-10.544064111328124,0.8762778076171874,1.8842367065429686,-62.42748091603053,-11.648854961832061,5.1603053435114505,-9.112331518554686,-0.05985504150390625,1.6232687255859375,-2.381679389312977,-27.83206106870229,-10.82442748091603,0.0
12.980000495910645,-11.535263598632811,1.7022773803710936,1.4173673828125,-59.31297709923664,-14.717557251908397,4.061068702290076,-9.361328491210937,-0.3711012573242187,2.482787121582031,3.2213740458015265,-23.709923664122137,-9.526717557251908,0.0
12.990000486373901,-11.382034692382812,-0.3711012573242187,0.30885201416015623,-58.80916030534351,-19.083969465648856,3.816793893129771,-10.536881506347656,-0.5961562133789062,2.722207287597656,22.900763358778626,-26.16793893129771,-8.50381679389313,0.0
13.000000476837158,-9.679757312011718,-3.5960908935546874,-0.9792284790039062,-32.97709923664122,-12.748091603053435,5.114503816793893,-9.648632690429688,-0.8571241943359375,2.327164013671875,38.396946564885496,-34.56488549618321,-10.473282442748092,0.0
13.010000705718994,-7.584830859375,-4.6830584472656245,-2.123656872558594,-7.9541984732824424,-7.816793893129771,3.236641221374046,-8.688557824707031,1.1923124267578125,1.6065093139648436,46.916030534351144,-38.47328244274809,-14.732824427480915,0.0
13.020000696182251,-8.343792785644531,-2.039859814453125,-1.4604630126953124,1.0534351145038168,-0.5038167938931297,-3.2977099236641223,-8.123526232910155,2.2553379638671873,2.7150246826171873,33.38931297709924,-29.206106870229007,-14.946564885496183,0.0
13.030000686645508,-8.602366564941406,-0.3280056274414062,-1.3623007446289062,-3.5267175572519083,-0.5190839694656488,-5.984732824427481,-7.359775903320312,1.8435352783203125,1.3455413330078123,17.64885496183206,-22.595419847328245,-12.442748091603054,0.0
13.040000915527344,-8.379705810546875,-0.9528922607421875,-1.0295067138671874,15.923664122137405,11.129770992366412,-4.412213740458015,-8.2743609375,-0.2705447875976562,1.7717092285156248,24.778625954198475,-21.328244274809162,-8.396946564885496,0.0
13.050000667572021,-8.755595471191405,0.16041151123046873,-1.1228805786132812,16.27480916030534,10.076335877862595,-5.770992366412214,-11.073182678222656,-0.9002198242187499,3.7014357666015623,39.14503816793893,-18.748091603053435,-7.587786259541985,0.0
13.060000896453857,-9.160215551757812,0.5578489868164063,-0.5889736083984375,23.52671755725191,14.65648854961832,-3.9083969465648853,-10.177751257324218,-0.82360537109375,2.798821740722656,47.55725190839695,-26.38167938931298,-10.13740458015267,0.0
13.070000648498535,-10.307038146972655,2.7269956909179687,0.0143652099609375,15.419847328244275,11.86259541984733,-3.7404580152671754,-8.10197841796875,1.9201497314453124,2.2936451904296873,39.93893129770992,-27.786259541984734,-15.038167938931299,0.0
13.080000638961792,-9.9215716796875,2.559401574707031,0.565031591796875,12.702290076335878,13.725190839694656,-0.061068702290076333,-6.691793640136718,2.1643583007812497,2.5617957763671875,16.778625954198475,-18.65648854961832,-16.778625954198475,0.0
13.090000629425049,-9.785102185058593,2.6240450195312497,0.9409212524414062,4.854961832061068,11.236641221374045,2.2290076335877864,-7.587225061035156,1.659181750488281,1.8818425048828125,3.9083969465648853,-13.297709923664122,-14.625954198473282,0.0
13.100000381469727,-10.175357055664062,2.300827795410156,1.1516109985351561,-0.2595419847328244,9.83206106870229,3.9236641221374047,-8.863334545898438,0.5458779785156249,2.3822306518554686,1.7557251908396947,-9.633587786259541,-12.717557251908397,0.0
13.110000610351562,-9.871293444824218,1.1468225952148436,0.9433154541015625,-3.572519083969466,8.01526717557252,4.427480916030534,-9.165003955078124,0.4836287353515625,2.8467057739257813,1.1908396946564885,-9.068702290076336,-13.84732824427481,0.0
13.12000036239624,-10.110713610839843,0.4908113403320312,0.9504980590820312,-4.244274809160306,7.603053435114504,2.9923664122137406,-9.478644372558593,-0.229843359375,3.0789433349609374,0.9007633587786259,-8.320610687022901,-16.48854961832061,0.0
13.130000352859497,-10.378864196777343,0.00239420166015625,1.0773907470703123,-5.1603053435114505,6.732824427480916,0.32061068702290074,-10.024522351074218,-0.7972691528320313,2.2290017456054687,12.381679389312977,-15.893129770992367,-17.61832061068702,0.0
13.140000581741333,-9.957484704589843,-0.49799394531249996,0.9744400756835937,2.0,8.13740458015267,-2.4580152671755724,-9.526528405761718,-0.49320554199218747,3.7205893798828122,11.404580152671755,-16.12213740458015,-20.580152671755727,0.0
13.15000033378601,-9.986215124511718,-0.05985504150390625,0.59376201171875,1.6946564885496183,8.076335877862595,-4.305343511450381,-9.823409411621093,-0.7158662963867187,3.5218706420898434,18.580152671755727,-21.053435114503817,-20.946564885496183,0.0
13.160000562667847,-9.751583361816406,0.06703764648437499,0.5219359619140624,5.32824427480916,9.633587786259541,-6.33587786259542,-10.673351000976561,0.011971008300781249,3.1387983764648437,28.076335877862597,-26.15267175572519,-19.938931297709924,0.0
13.170000553131104,-9.4618849609375,0.8355763793945312,0.44053310546874996,5.1603053435114505,11.282442748091603,-7.083969465648855,-7.635109094238281,3.488351818847656,2.051830822753906,13.694656488549619,-28.580152671755727,-25.572519083969464,0.0
13.18000054359436,-9.564835632324218,2.0470424194335934,0.7541735229492187,2.50381679389313,13.236641221374045,-6.320610687022901,-8.513781103515624,2.77727392578125,2.877830395507812,-14.610687022900763,-14.106870229007633,-24.671755725190838,0.0
13.190000534057617,-9.447519750976562,2.6527754394531247,1.1228805786132812,-4.3816793893129775,11.954198473282442,-3.2977099236641223,-7.802703210449218,2.8754361938476563,2.2361843505859373,-32.29007633587786,-6.809160305343512,-22.53435114503817,0.0
13.200000762939453,-9.854534033203125,2.288856787109375,1.1635820068359375,-5.8320610687022905,10.885496183206106,-1.1908396946564885,-9.859322436523437,-0.15562310791015624,2.4851813232421875,-26.870229007633586,-3.9083969465648853,-17.0381679389313,0.0
13.21000051498413,-9.533711010742186,1.2952630981445312,1.180341418457031,-5.083969465648855,9.816793893129772,-0.22900763358778625,-8.968679418945312,0.8116343627929687,2.8706477905273435,-24.03053435114504,-4.183206106870229,-18.015267175572518,0.0
13.220000505447388,-9.883264453125,0.6200982299804687,1.2306196533203124,-2.8091603053435112,9.206106870229007,1.3893129770992367,-8.971073620605468,0.047884033203124995,2.829946362304687,-18.80916030534351,-3.5419847328244276,-18.076335877862597,0.0
13.230000495910645,-9.79946739501953,0.16280571289062498,1.6017209106445311,-0.48854961832061067,10.122137404580153,1.0687022900763359,-9.018957653808593,-0.26336218261718747,3.0119056884765625,-17.49618320610687,-1.9694656488549618,-18.47328244274809,0.0
13.240000486373901,-9.765948571777344,0.1771709228515625,1.687912170410156,1.099236641221374,10.793893129770993,-0.183206106870229,-9.054870678710937,-0.3495534423828125,2.6695348510742187,-11.709923664122137,-2.2748091603053435,-18.50381679389313,0.0
13.250000476837158,-10.024522351074218,0.6296750366210937,1.6831237670898436,0.5038167938931297,10.15267175572519,-2.8244274809160306,-8.678981018066406,-0.19153613281249998,2.5354595581054684,-10.80916030534351,-0.9312977099236641,-19.633587786259543,0.0
13.260000705718994,-9.97903251953125,0.8259995727539062,1.6136919189453125,1.7709923664122138,9.98473282442748,-3.2061068702290076,-8.820238916015624,-1.1635820068359375,2.473210314941406,-3.114503816793893,-0.2595419847328244,-19.328244274809162,0.0
13.270000696182251,-9.718064538574218,1.0223241088867188,1.5203180541992187,0.916030534351145,9.419847328244275,-3.7557251908396947,-8.066065393066406,-0.41419688720703124,2.142810485839844,-3.114503816793893,0.5190839694656488,-21.404580152671755,0.0
13.280000686645508,-9.734823950195311,1.637633935546875,1.3359645263671873,0.0,9.007633587786259,-3.5114503816793894,-8.647856396484375,-1.1444283935546875,2.118868469238281,1.3740458015267176,3.0839694656488548,-21.633587786259543,0.0
13.290000677108765,-9.536105212402344,1.7717092285156248,1.1228805786132812,-1.5267175572519085,8.122137404580153,-2.519083969465649,-7.764395983886718,-0.5147533569335937,1.8291700683593748,10.122137404580153,0.5038167938931297,-23.14503816793893,0.0
13.30000114440918,-9.502586389160156,1.8411410766601561,1.01514150390625,-1.251908396946565,8.732824427480915,-1.4961832061068703,-8.413224633789062,-0.7637503295898437,2.070984436035156,9.297709923664122,6.1679389312977095,-24.68702290076336,0.0
13.3100004196167,-9.342174877929686,1.8938135131835936,0.9840168823242187,-3.9083969465648853,8.778625954198473,-0.42748091603053434,-8.667010009765624,-0.814028564453125,2.3056161987304686,12.534351145038167,8.885496183206106,-24.732824427480917,0.0
13.320000886917114,-9.272743029785156,1.7669208251953124,0.8164227661132812,-6.183206106870229,8.50381679389313,0.7633587786259542,-8.70771143798828,-0.8259995727539062,2.398990063476562,18.3206106870229,10.030534351145038,-25.129770992366414,0.0
13.330000638961792,-9.356540087890625,1.5035586425781249,0.9265560424804687,-8.717557251908397,9.312977099236642,0.9770992366412213,-8.585607153320312,-0.5339069702148437,2.6192566162109374,22.732824427480917,11.572519083969466,-25.328244274809162,0.0
13.340000867843628,-9.342174877929686,0.9911994873046874,1.1180921752929687,-11.038167938931299,9.938931297709924,0.366412213740458,-8.750807067871094,-0.63206923828125,2.9927520751953125,27.557251908396946,13.129770992366412,-24.458015267175572,0.0
13.350000619888306,-9.567229833984374,0.8379705810546875,1.1228805786132812,-14.244274809160306,10.198473282442748,-1.3435114503816794,-8.583212951660157,-0.28490999755859375,3.019088293457031,31.862595419847327,13.022900763358779,-24.18320610687023,0.0
13.360000371932983,-9.53131680908203,0.5123591552734374,1.4006079711914061,-16.12213740458015,10.427480916030534,-3.2213740458015265,-8.762778076171875,-0.143652099609375,3.1196447631835937,34.76335877862596,14.0,-22.625954198473284,0.0
13.37000060081482,-9.861716638183593,0.4261678955078125,1.43652099609375,-17.16030534351145,10.82442748091603,-4.732824427480916,-8.48505068359375,0.20829554443359374,3.1794998046874996,35.81679389312977,13.86259541984733,-21.603053435114504,0.0
13.380000591278076,-9.991003527832031,0.36631285400390623,1.4628572143554686,-15.755725190839694,11.32824427480916,-5.862595419847328,-8.635885388183594,-0.023942016601562498,3.2321722412109373,35.98473282442748,14.67175572519084,-20.015267175572518,0.0
13.390000581741333,-9.916783276367187,0.7541735229492187,1.5370774658203123,-15.664122137404581,11.679389312977099,-6.641221374045801,-8.396465222167969,0.15083470458984374,3.201047619628906,34.80916030534351,14.870229007633588,-19.801526717557252,0.0
13.40000057220459,-9.610325463867188,0.948103857421875,1.2928688964843749,-14.900763358778626,11.893129770992367,-7.221374045801527,-8.731653454589843,-0.4477157104492187,3.6248213134765623,32.213740458015266,16.748091603053435,-19.633587786259543,0.0
13.410000562667847,-9.7683427734375,1.4796166259765624,1.4030021728515625,-16.65648854961832,11.404580152671755,-8.442748091603054,-8.283937744140625,-0.028730419921875,3.651157531738281,28.27480916030534,17.053435114503817,-20.732824427480917,0.0
13.420000314712524,-9.557653027343749,1.3239935180664062,1.5586252807617187,-17.31297709923664,10.473282442748092,-8.076335877862595,-8.853757739257812,-0.612915625,3.4548329956054684,27.450381679389313,17.908396946564885,-19.87786259541985,0.0
13.43000078201294,-8.655039001464843,-1.0438719238281249,1.3311761230468748,-9.251908396946565,10.793893129770993,-6.824427480916031,-8.611943371582031,0.12449848632812499,3.9169139160156248,29.603053435114504,16.290076335877863,-19.770992366412212,0.0
13.440000534057617,-7.659051110839843,-1.3958195678710936,0.6296750366210937,5.038167938931298,12.763358778625955,-9.786259541984732,-8.856151940917968,-0.1005564697265625,4.4005426513671875,28.47328244274809,14.793893129770993,-19.69465648854962,0.0
13.450000762939453,-9.536105212402344,-0.02154781494140625,2.4253262817382812,9.114503816793894,18.900763358778626,-15.511450381679388,-9.03332286376953,0.679953271484375,6.057330200195312,17.801526717557252,17.083969465648856,-19.404580152671755,0.0
13.46000051498413,-9.595960253906249,1.177947216796875,2.8131869506835936,11.17557251908397,16.702290076335878,-16.80916030534351,-8.990227233886719,0.19632453613281248,5.4013189453125,11.694656488549619,12.793893129770993,-15.801526717557252,0.0
13.470000743865967,-11.765106958007811,2.3032219970703123,4.491522314453125,3.6793893129770994,13.709923664122137,-19.64885496183206,-9.356540087890625,-0.9433154541015625,4.599261389160156,17.099236641221374,7.755725190839694,-12.13740458015267,0.0
13.480000495910645,-11.324573852539062,2.2553379638671873,5.453991381835937,-5.251908396946565,4.67175572519084,-19.83206106870229,-8.741230261230468,0.10295067138671875,4.125209460449218,20.106870229007633,8.351145038167939,-10.412213740458014,0.0
13.490000247955322,-11.487379565429686,1.0917559570312498,5.930437512207031,-6.396946564885496,-7.465648854961832,-16.763358778625953,-8.89924757080078,0.6153098266601562,3.265691064453125,26.137404580152673,5.3893129770992365,-8.427480916030534,0.0
13.500000238418579,-10.280701928710936,0.8738836059570312,7.4962453979492185,-1.9694656488549618,-15.969465648854962,-13.740458015267176,-7.6997525390625,3.287238879394531,2.104503259277344,16.80916030534351,3.7251908396946565,-10.274809160305344,0.0
13.510000705718994,-10.678139404296875,0.852335791015625,8.17141026611328,-1.83206106870229,-28.48854961832061,-9.48091603053435,-8.40843623046875,2.6336218261718747,3.1459809814453124,0.5648854961832062,11.938931297709924,-7.9541984732824424,0.0
13.520000696182251,-11.575965026855467,1.0989385620117187,9.22485899658203,-3.7557251908396947,-40.18320610687023,-8.244274809160306,-7.886500268554687,3.0214824951171875,2.710236279296875,-16.091603053435115,12.580152671755725,-6.213740458015267,0.0
13.530000686645508,-10.66856259765625,-1.8507178833007811,9.459490759277344,4.488549618320611,-52.48854961832061,-7.877862595419847,-7.055712292480468,3.430890979003906,1.9105729248046874,-44.3206106870229,20.763358778625953,-4.198473282442748,0.0
13.540000438690186,-11.25514200439453,-3.3303345092773435,10.108319409179687,19.87786259541985,-66.30534351145039,-9.435114503816793,-8.705317236328124,-0.47165772705078124,1.1109095703125,-56.51908396946565,27.404580152671755,0.12213740458015267,0.0
13.550000429153442,-11.49216796875,-4.786009118652344,10.692504614257812,40.58015267175573,-81.3587786259542,-14.351145038167939,-8.585607153320312,-0.47165772705078124,-0.10773907470703124,-46.29007633587786,21.87786259541985,-1.5267175572519085,0.0
13.560000896453857,-13.345280053710937,-2.2026655273437497,10.951078393554686,44.412213740458014,-106.1526717557252,-22.83969465648855,-9.701305126953125,-1.0869675537109373,0.6823474731445313,-42.94656488549618,25.221374045801525,-1.5419847328244274,0.0
13.570000648498535,-16.06269893798828,-1.5394716674804687,10.529698901367187,34.47328244274809,-134.29007633587787,-28.412213740458014,-10.467449658203124,-2.463633508300781,0.507570751953125,-30.65648854961832,19.557251908396946,-0.916030534351145,0.0
13.580000877380371,-17.15924329833984,-0.22744915771484372,9.267954626464844,27.0381679389313,-163.6030534351145,-31.206106870229007,-12.717999218749998,-3.296815686035156,0.8355763793945312,-18.83969465648855,19.221374045801525,-0.7480916030534351,0.0
13.590000629425049,-18.30367169189453,-0.3854664672851562,9.53131680908203,22.33587786259542,-191.3587786259542,-30.38167938931298,-11.128249316406249,-2.0781670410156248,-0.05746083984375,-13.938931297709924,9.419847328244275,-4.916030534351145,0.0
13.600000619888306,-19.498378320312497,0.8068459594726562,9.014169250488282,23.801526717557252,-218.83969465648855,-26.396946564885496,-10.512939489746094,-1.139639990234375,0.4165910888671875,-15.816793893129772,11.419847328244275,-5.236641221374046,0.0
13.610000610351562,-19.809624536132812,0.3495534423828125,6.993463049316406,30.137404580152673,-238.06106870229007,-17.282442748091604,-11.535263598632811,-3.3303345092773435,1.2114660400390624,-12.916030534351146,18.259541984732824,-0.32061068702290074,0.0
13.62000036239624,-19.278111767578125,-1.1156979736328125,2.499546533203125,43.61832061068702,-247.54198473282443,-4.1679389312977095,-12.598289135742187,-4.695029455566406,2.4947581298828125,14.076335877862595,16.732824427480917,4.106870229007634,0.0
13.630000591278076,-18.258181860351563,-1.5059528442382812,-1.886630908203125,55.87786259541985,-243.14503816793894,8.473282442748092,-8.283937744140625,0.5315127685546874,0.316034619140625,18.27480916030534,9.114503816793894,-3.1603053435114505,0.0
13.640000820159912,-16.12015977783203,-0.40940848388671874,-4.486733911132812,53.603053435114504,-233.29770992366412,18.045801526717558,-6.019022973632812,3.0741549316406247,-0.22505495605468748,-19.6793893129771,28.595419847328245,-4.396946564885496,0.0
13.65000057220459,-13.565546606445311,-0.8762778076171874,-5.492298608398437,41.70992366412214,-221.23664122137404,26.671755725190838,-4.340687609863281,6.7085530517578125,-3.1459809814453124,-59.63358778625954,47.404580152671755,1.0534351145038168,0.0
13.660000562667847,-11.042058056640624,-2.0350714111328125,-7.079654309082031,34.79389312977099,-200.01526717557252,27.14503816793893,-6.943184814453125,3.5434184570312497,-1.3431471313476562,-107.22137404580153,79.83206106870229,7.3893129770992365,0.0
13.670000553131104,-9.107543115234375,-3.1579519897460937,-7.141903552246093,30.15267175572519,-180.2290076335878,23.022900763358777,-4.453215087890625,0.9026140258789062,-2.6695348510742187,-113.3587786259542,80.09160305343511,12.641221374045802,0.0
13.68000054359436,-7.675810522460937,-4.513070129394531,-5.626373901367187,41.099236641221374,-151.93893129770993,15.923664122137405,-7.805097412109374,-2.0661960327148434,-2.195482922363281,-115.6793893129771,91.78625954198473,17.297709923664122,0.0
13.690000772476196,-8.200140686035155,-4.570530969238281,-2.96881005859375,54.48854961832061,-124.99236641221374,9.251908396946565,-10.747571252441405,-6.497863305664062,-1.3934253662109375,-73.5114503816794,81.29770992366412,19.87786259541985,0.0
13.700000286102295,-7.4794859863281244,-4.6447512207031245,-1.5921441040039062,74.22900763358778,-105.95419847328245,4.717557251908397,-12.476184851074217,-7.829039428710937,-1.0271125122070313,-28.091603053435115,65.3587786259542,14.854961832061068,0.0
13.71000075340271,-7.072471704101562,-3.2824504760742186,-0.00239420166015625,87.6793893129771,-86.19847328244275,1.4809160305343512,-10.75714805908203,-4.580107775878906,-1.2713210815429687,-15.603053435114504,63.267175572519086,7.511450381679389,0.0
13.720000505447388,-9.406818322753905,1.4317325927734375,2.1691467041015624,76.33587786259542,-77.2824427480916,-2.763358778625954,-11.540052001953125,-6.002263562011718,0.8954314208984374,4.198473282442748,59.9236641221374,8.198473282442748,0.0
13.730000495910645,-9.852139831542969,3.7900212280273435,3.066972326660156,58.36641221374046,-76.19847328244275,-0.061068702290076333,-10.484209069824217,-4.802768530273437,0.48123453369140623,36.61068702290076,43.603053435114504,9.435114503816793,0.0
13.74000072479248,-9.035717065429687,5.121197351074218,2.2290017456054687,46.30534351145038,-76.97709923664122,9.648854961832061,-6.6702458251953125,1.209071838378906,-2.8514941772460936,30.885496183206108,34.80916030534351,3.8931297709923665,0.0
13.750000476837158,-8.090007409667969,5.315127685546875,1.3623007446289062,24.38167938931298,-73.20610687022901,17.022900763358777,-10.08677159423828,0.5051765502929687,1.0989385620117187,3.1755725190839694,55.25190839694657,2.7938931297709924,0.0
13.760000705718994,-8.001421948242188,3.9432501342773434,1.024718310546875,-3.267175572519084,-70.07633587786259,19.435114503816795,-11.042058056640624,-3.507505432128906,3.909731311035156,29.435114503816795,51.083969465648856,11.770992366412214,0.0
13.770000696182251,-7.807491613769531,2.5426421630859375,0.6919242797851562,-25.251908396946565,-65.80152671755725,17.923664122137403,-8.89924757080078,0.4333505004882812,1.7956512451171873,42.961832061068705,36.38167938931298,11.511450381679388,0.0
13.780000686645508,-5.315127685546875,-0.679953271484375,-0.22266075439453123,-35.37404580152672,-58.62595419847328,18.244274809160306,-9.014169250488282,1.68551796875,0.622492431640625,30.48854961832061,38.900763358778626,11.251908396946565,0.0
13.790000677108765,-3.545812658691406,-2.272097375488281,-0.488417138671875,-37.52671755725191,-45.221374045801525,14.931297709923664,-9.619902270507811,0.28490999755859375,1.2737152832031249,21.954198473282442,42.74809160305343,13.358778625954198,0.0
13.800000429153442,-2.9831752685546875,-2.233790148925781,-0.5099649536132812,-35.17557251908397,-30.50381679389313,8.198473282442748,-9.423577734375,0.5027823486328125,0.9911994873046874,18.595419847328245,43.41984732824427,15.312977099236642,0.0
13.810000896453857,-1.898601916503906,-2.5905261962890624,-0.8667010009765624,-30.442748091603054,-15.679389312977099,3.1297709923664123,-9.871293444824218,-0.49799394531249996,1.1923124267578125,19.17557251908397,43.083969465648856,16.778625954198475,0.0
13.820000886917114,-2.0063409912109376,-1.4221557861328125,-0.1867477294921875,-25.938931297709924,1.8473282442748091,-2.9618320610687023,-9.70369932861328,-0.8690952026367187,1.1133037719726562,20.549618320610687,42.29007633587786,17.64885496183206,0.0
13.830000400543213,-0.4165910888671875,-2.24097275390625,0.5291185668945312,-19.893129770992367,14.793893129770993,-5.251908396946565,-11.291055029296874,-2.020706201171875,2.2290017456054687,27.114503816793892,43.083969465648856,19.236641221374047,0.0
13.840000867843628,-1.5825672973632812,-1.1133037719726562,2.4756045166015626,-18.610687022900763,28.38167938931298,-10.83969465648855,-10.510545288085936,-2.133233679199219,2.185906115722656,26.427480916030536,41.69465648854962,18.946564885496183,0.0
13.850000619888306,-3.0047230834960934,0.6440402465820312,4.774038110351563,-24.213740458015266,35.70992366412214,-16.412213740458014,-10.587159741210938,-2.0374656127929685,1.848323681640625,29.633587786259543,37.908396946564885,19.00763358778626,0.0
13.860000610351562,-4.417302062988281,2.427720483398437,7.196970190429687,-40.13740458015267,31.00763358778626,-19.541984732824428,-10.242394702148436,-1.448492004394531,1.2737152832031249,30.091603053435115,34.091603053435115,19.51145038167939,0.0
13.87000060081482,-4.086902233886718,1.9991583862304687,8.379705810546875,-26.198473282442748,32.213740458015266,-10.610687022900763,-11.473014355468749,-2.6719290527343746,2.1643583007812497,33.70992366412214,34.16793893129771,20.229007633587788,0.0
13.880000591278076,-3.42849677734375,0.9911994873046874,8.470685473632813,-5.694656488549619,33.11450381679389,-1.9694656488549618,-9.78031378173828,-1.0390835205078124,2.0350714111328125,32.58015267175573,31.374045801526716,18.412213740458014,0.0
13.890000581741333,-3.4165257690429685,2.1404162841796874,7.867346655273437,18.549618320610687,36.35114503816794,8.335877862595419,-12.540828295898438,-4.453215087890625,4.460397692871093,41.38931297709924,33.98473282442748,21.61832061068702,0.0
13.90000057220459,-5.384559533691406,1.8267758666992187,9.991003527832031,34.091603053435115,39.87786259541985,15.511450381679388,-9.816226806640625,-1.465251416015625,2.1595698974609374,55.23664122137404,17.51145038167939,19.557251908396946,0.0
13.910000562667847,-7.6279264892578125,2.7748797241210936,13.254300390625,53.81679389312977,37.16030534351145,22.900763358778626,-10.596736547851561,-1.0869675537109373,2.7629087158203123,46.44274809160305,20.763358778625953,18.549618320610687,0.0
13.920000553131104,-9.121908325195312,3.737348791503906,14.025233325195313,46.79389312977099,26.3206106870229,27.404580152671755,-10.632649572753905,-1.6711527587890624,2.6144682128906247,47.55725190839695,17.31297709923664,19.786259541984734,0.0
13.93000078201294,-9.212887988281249,3.35188232421875,10.026916552734374,12.885496183206106,9.786259541984732,21.51145038167939,-11.987767712402343,-1.4053963745117186,3.0310593017578125,40.0,21.66412213740458,21.954198473282442,0.0
13.940000295639038,-10.77630167236328,2.729389892578125,2.3247698120117186,-18.778625954198475,5.129770992366412,16.38167938931298,-10.675745202636719,-1.139639990234375,2.0925322509765625,38.595419847328245,14.763358778625955,23.6793893129771,0.0
13.950000762939453,-10.407594616699217,0.2920926025390625,-0.33518823242187495,-25.87786259541985,10.625954198473282,16.85496183206107,-10.369287390136718,0.603338818359375,0.3064578125,31.83206106870229,8.793893129770993,24.977099236641223,0.0
13.96000051498413,-13.577517614746093,1.7286135986328124,1.659181750488281,-34.50381679389313,20.595419847328245,16.580152671755727,-10.192116467285155,0.25139117431640623,0.27293898925781246,15.84732824427481,11.282442748091603,26.091603053435115,0.0
13.970000743865967,-9.873687646484374,-2.8419173706054686,3.842693664550781,-22.48854961832061,24.916030534351144,28.85496183206107,-10.93671318359375,-1.6017209106445311,0.9121908325195311,14.610687022900763,10.793893129770993,28.061068702290076,0.0
13.980000257492065,-8.66940421142578,-3.296815686035156,8.406042028808594,20.564885496183205,44.99236641221374,30.977099236641223,-11.58075343017578,-1.7693150268554687,1.0845733520507812,25.114503816793892,7.190839694656488,26.702290076335878,0.0
13.990000247955322,-3.0550013183593747,-6.224924316406249,3.3877953491210935,49.37404580152672,46.0763358778626,31.34351145038168,-10.66137999267578,0.1149216796875,0.19153613281249998,29.16030534351145,2.0763358778625953,21.068702290076335,0.0
14.000000715255737,-6.023811376953125,0.9888052856445312,1.5658078857421873,54.33587786259542,64.33587786259542,18.16793893129771,-8.904035974121093,2.1116858642578125,-1.3431471313476562,16.977099236641223,1.786259541984733,16.213740458015266,0.0
14.010000705718994,-7.601590270996093,2.4779987182617185,2.0829554443359375,26.702290076335878,61.954198473282446,9.374045801526718,-11.118672509765624,2.7365724975585937,-1.1324573852539062,-4.656488549618321,10.778625954198473,17.862595419847327,0.0
14.020000696182251,-8.602366564941406,1.0630255371093749,4.879382983398437,16.259541984732824,63.23664122137404,6.824427480916031,-12.428300817871094,2.212242333984375,-2.0757728393554684,-18.106870229007633,14.65648854961832,20.48854961832061,0.0
14.030000448226929,-8.257601525878906,-1.6424223388671875,4.012681982421875,12.274809160305344,61.038167938931295,3.7709923664122136,-14.757859033203124,1.218648645019531,-1.369483349609375,-17.419847328244273,18.412213740458014,21.16030534351145,0.0
14.040000915527344,-8.973467822265624,-2.578555187988281,2.942473840332031,20.9618320610687,68.93129770992367,-1.5114503816793894,-14.003685510253906,1.8531120849609375,-1.6328455322265625,-14.15267175572519,12.717557251908397,17.572519083969464,0.0
14.050000667572021,-8.719682446289061,-2.1835119140624997,3.2561142578125,32.534351145038165,72.09160305343511,-6.320610687022901,-13.563152404785155,1.9943699829101562,-1.7022773803710936,-16.641221374045802,8.229007633587786,13.48091603053435,0.0
14.060000658035278,-9.583989245605467,-0.7254431030273437,3.1507693847656246,43.725190839694655,76.79389312977099,-9.099236641221374,-14.427459204101561,-0.08140285644531249,0.22026655273437498,-9.511450381679388,9.86259541984733,15.358778625954198,0.0
14.070000648498535,-6.9168485961914055,-3.8235400512695312,1.3766659545898436,60.93129770992366,76.99236641221374,-9.435114503816793,-13.019668627929686,0.9313444458007812,-0.2657563842773437,-1.3740458015267176,0.3816793893129771,12.396946564885496,0.0
14.080000877380371,-7.381323718261719,-2.868253588867187,1.6017209106445311,92.13740458015268,90.06106870229007,-12.229007633587786,-12.337321154785155,0.7062894897460937,0.2537853759765625,-3.099236641221374,0.24427480916030533,12.061068702290076,0.0
14.090000629425049,-8.13310303955078,1.4772224243164063,2.437297290039062,89.78625954198473,89.20610687022901,-20.12213740458015,-12.030863342285155,0.70868369140625,0.7517793212890624,2.854961832061069,-2.3206106870229006,11.282442748091603,0.0
14.100000619888306,-11.176133349609374,4.924872814941406,2.133233679199219,80.80916030534351,92.67175572519083,-20.946564885496183,-11.741164941406248,0.7445967163085937,0.8212111694335937,6.320610687022901,-6.687022900763359,11.206106870229007,0.0
14.110000610351562,-12.502521069335936,8.700528833007812,2.2266075439453124,48.396946564885496,85.48091603053435,-20.50381679389313,-11.468225952148437,1.3814543579101561,0.9337386474609375,7.312977099236641,-10.305343511450381,10.045801526717558,0.0
14.12000036239624,-8.844180932617187,3.8570588745117185,1.5490484741210937,30.83969465648855,77.61832061068702,-9.450381679389313,-10.989385620117186,1.8650830932617186,1.0462661254882812,3.312977099236641,-13.053435114503817,9.86259541984733,0.0
14.130000591278076,-7.996633544921875,-0.33758243408203126,0.40222587890625,51.93893129770992,91.26717557251908,-3.3435114503816794,-10.364498986816406,1.7884686401367187,1.0366893188476562,-4.99236641221374,-13.694656488549619,10.274809160305344,0.0
14.140000581741333,-9.964667309570311,2.825157958984375,1.158793603515625,56.36641221374046,97.80152671755725,-7.099236641221374,-10.117896215820313,1.3479355346679687,0.9959878906249999,-9.022900763358779,-14.442748091603054,9.664122137404581,0.0
14.15000033378601,-10.965443603515624,5.825092639160156,2.50912333984375,35.98473282442748,92.7175572519084,-7.145038167938932,-10.103531005859374,1.2904746948242187,0.7350199096679687,-14.061068702290076,-17.541984732824428,9.954198473282442,0.0
14.160000324249268,-8.259995727539062,2.35589443359375,0.7206546997070312,17.603053435114504,84.21374045801527,-2.0916030534351147,-10.053252770996092,1.2593500732421874,0.5219359619140624,-20.641221374045802,-19.87786259541985,9.312977099236642,0.0
14.170000553131104,-7.613561279296874,1.458068811035156,1.1611878051757811,18.290076335877863,87.32824427480917,-0.6870229007633588,-9.524134204101562,1.5490484741210937,0.22026655273437498,-27.099236641221374,-21.297709923664122,9.022900763358779,0.0
14.18000078201294,-8.734047656249999,1.8818425048828125,2.0829554443359375,8.977099236641221,85.25190839694656,-4.183206106870229,-9.641450085449218,1.2761094848632812,0.21068974609375,-29.603053435114504,-22.83969465648855,8.595419847328245,0.0
14.190000772476196,-8.59278975830078,0.5410895751953124,2.1499930908203124,2.16793893129771,81.1145038167939,-5.450381679389313,-9.883264453125,1.3311761230468748,0.354341845703125,-31.923664122137403,-24.9618320610687,8.351145038167939,0.0
14.200000286102295,-8.59278975830078,0.7876923461914062,2.2744915771484373,5.755725190839694,80.18320610687023,-6.549618320610687,-9.452308154296874,1.678335363769531,0.4381389038085937,-35.98473282442748,-27.81679389312977,7.572519083969466,0.0
14.21000051498413,-9.586383447265625,2.221819140625,2.6671406494140624,2.4885496183206106,78.53435114503817,-9.572519083969466,-9.749189160156249,1.3527239379882812,0.6679822631835937,-37.267175572519086,-28.33587786259542,5.541984732824427,0.0
14.220000505447388,-10.084377392578125,2.0973206542968748,2.2026655273437497,-5.740458015267175,73.22137404580153,-11.526717557251908,-9.610325463867188,0.8212111694335937,0.8212111694335937,-38.48854961832061,-31.374045801526716,4.015267175572519,0.0
14.230000495910645,-9.624690673828125,1.0558429321289062,1.1516109985351561,-8.961832061068701,69.3587786259542,-10.916030534351146,-10.096348400878906,0.32082302246093747,1.0630255371093749,-33.908396946564885,-35.31297709923664,2.351145038167939,0.0
14.240000247955322,-10.366893188476562,1.8052280517578123,1.0678139404296874,-9.786259541984732,68.01526717557252,-11.145038167938932,-10.333374365234375,0.40462008056640625,0.70868369140625,-32.229007633587784,-40.94656488549618,-0.1984732824427481,0.0
14.250000476837158,-10.46984385986328,2.8850130004882812,0.8786720092773437,-15.84732824427481,64.79389312977099,-10.732824427480915,-9.236830004882812,-0.42377369384765623,1.0199299072265624,-32.656488549618324,-44.3206106870229,-2.9770992366412212,0.0
14.260000705718994,-9.330203869628905,1.5586252807617187,0.3327940307617187,-14.473282442748092,65.1145038167939,-8.351145038167939,-7.867346655273437,-0.7134720947265625,0.8355763793945312,-36.68702290076336,-49.20610687022901,-6.229007633587786,0.0
14.270000696182251,-11.295843432617186,4.091690637207031,1.618480322265625,-23.14503816793893,64.2442748091603,-9.038167938931299,-8.295908752441406,-0.9816226806640624,0.45489831542968745,-38.54961832061068,-44.29007633587786,-7.00763358778626,0.0
14.280000686645508,-10.702081420898438,3.4835634155273434,0.5913678100585937,-40.396946564885496,54.68702290076336,-6.473282442748092,-9.744400756835937,-3.2609026611328122,0.7230489013671875,-16.47328244274809,-49.20610687022901,-6.824427480916031,0.0
14.290000677108765,-9.995791931152343,0.30406361083984373,0.17477672119140625,-32.091603053435115,55.48091603053435,-2.1374045801526718,-9.236830004882812,-4.790797521972656,2.3630770385742186,-4.091603053435114,-53.20610687022901,-8.15267175572519,0.0
14.3000009059906,-9.366116894531249,0.7517793212890624,0.7278373046875,-23.221374045801525,58.732824427480914,-1.8931297709923665,-8.923189587402343,0.3591302490234375,-0.4955997436523437,7.694656488549619,-64.74809160305344,-14.091603053435115,0.0
14.310000658035278,-12.167332836914062,4.106055847167968,1.9129671264648436,-36.0,57.55725190839695,-5.770992366412214,-8.307879760742187,0.6536170532226562,-0.14604630126953125,-9.755725190839694,-57.282442748091604,-17.00763358778626,0.0
14.320000886917114,-11.066000073242186,2.128445275878906,1.1851298217773436,-54.76335877862596,48.778625954198475,-4.0458015267175576,-9.65342109375,-0.737414111328125,-0.22266075439453123,1.3587786259541985,-59.51145038167939,-16.549618320610687,0.0
14.330000400543213,-12.55758770751953,6.682216833496093,3.9983167724609374,-62.80916030534351,44.68702290076336,-6.290076335877862,-8.987833032226561,2.3582886352539063,-0.97683427734375,-5.572519083969466,-58.54961832061068,-19.51145038167939,0.0
14.340000867843628,-9.6917283203125,1.956062756347656,1.608903515625,-80.77862595419847,33.786259541984734,-0.6106870229007634,-9.176974963378905,1.4101847778320311,-0.26336218261718747,-15.145038167938932,-49.541984732824424,-18.564885496183205,0.0
14.350000381469727,-9.289502441406249,-0.11731588134765625,1.1516109985351561,-75.06870229007633,31.129770992366414,3.267175572519084,-10.524910498046875,-1.0199299072265624,0.22026655273437498,-6.900763358778626,-48.3206106870229,-16.259541984732824,0.0
14.360000610351562,-10.292672937011718,0.10773907470703124,1.3192051147460937,-68.27480916030534,27.923664122137403,1.450381679389313,-10.498574279785156,-0.3758896606445312,1.1061211669921875,11.114503816793894,-53.31297709923664,-19.389312977099237,0.0
14.37000060081482,-9.97184991455078,-0.35194764404296874,1.4508862060546874,-61.02290076335878,26.18320610687023,2.6259541984732824,-7.8362220336914055,2.2553379638671873,0.19153613281249998,0.04580152671755725,-55.83206106870229,-24.061068702290076,0.0
14.380000591278076,-9.880870251464843,0.5674257934570313,1.6136919189453125,-54.534351145038165,27.52671755725191,2.717557251908397,-8.542511523437499,-0.2609679809570312,1.20667763671875,-4.931297709923665,-48.0763358778626,-22.015267175572518,0.0
14.390000581741333,-9.651026892089844,-0.3327940307617187,1.4700398193359374,-50.152671755725194,25.49618320610687,2.427480916030534,-9.270348828125,-0.12689268798828124,0.7230489013671875,11.221374045801527,-55.61832061068702,-21.572519083969464,0.0
14.40000057220459,-12.119448803710936,2.398990063476562,2.8610709838867185,-46.01526717557252,25.740458015267176,0.7175572519083969,-7.905653881835937,2.0566192260742184,0.5458779785156249,1.8015267175572518,-58.961832061068705,-24.30534351145038,0.0
14.410000324249268,-9.409212524414063,-0.22266075439453123,1.1659762084960936,-51.86259541984733,16.106870229007633,4.534351145038168,-8.559270935058594,1.1324573852539062,1.5658078857421873,-10.916030534351146,-48.68702290076336,-22.213740458015266,0.0
14.420000791549683,-9.210493786621093,-1.2210428466796874,1.6831237670898436,-31.49618320610687,20.519083969465647,6.6106870229007635,-9.344569079589844,-0.6679822631835937,1.426944189453125,0.5038167938931297,-55.81679389312977,-19.114503816793892,0.0
14.43000078201294,-11.245565197753905,2.2457611572265623,2.6575638427734374,-35.404580152671755,15.297709923664122,1.083969465648855,-8.20971749267578,1.8507178833007811,1.0749965454101562,-2.3206106870229006,-62.68702290076336,-22.793893129770993,0.0
14.440000534057617,-10.433930834960936,2.3367408203125,2.6384102294921874,-48.67175572519084,5.175572519083969,2.7480916030534353,-9.222464794921875,-0.15322890625,2.195482922363281,-14.610687022900763,-55.221374045801525,-19.87786259541985,0.0
14.450000524520874,-9.107543115234375,-0.16041151123046873,2.0374656127929685,-46.961832061068705,-0.7175572519083969,5.740458015267175,-10.350133776855468,-0.5434837768554687,1.7549498168945312,-2.900763358778626,-63.541984732824424,-17.66412213740458,0.0
14.460000276565552,-9.37808790283203,-0.7565677246093749,1.6112977172851561,-30.610687022900763,-0.13740458015267176,4.977099236641221,-9.126696728515624,1.2497732666015624,1.7980454467773437,-12.488549618320612,-62.48854961832061,-21.114503816793892,0.0
14.470000743865967,-11.259930407714844,0.7852981445312499,2.3319524169921872,-26.977099236641223,1.2061068702290076,3.0076335877862594,-10.819397302246093,-1.448492004394531,2.2840683837890623,-5.343511450381679,-58.70229007633588,-18.229007633587788,0.0
14.480000495910645,-9.291896643066405,0.0526724365234375,1.2018892333984375,-22.213740458015266,-4.091603053435114,4.076335877862595,-9.593566052246093,0.5817910034179687,1.458068811035156,7.816793893129771,-69.00763358778626,-19.17557251908397,0.0
14.490000486373901,-10.589553942871094,0.8379705810546875,0.9409212524414062,-14.01526717557252,-1.1603053435114503,2.595419847328244,-9.583989245605467,0.09337386474609374,2.1811177124023438,-2.33587786259542,-59.41984732824427,-20.442748091603054,0.0
14.500000476837158,-9.830592016601562,0.2753331909179687,0.6584054565429687,-13.236641221374045,-3.4656488549618323,1.9389312977099236,-11.58075343017578,-1.7405846069335937,2.4444798950195312,12.67175572519084,-60.961832061068705,-17.740458015267176,0.0
14.510000467300415,-9.229647399902344,0.5985504150390625,0.4381389038085937,1.5267175572519085,1.8625954198473282,-1.4809160305343512,-8.839392529296875,0.7924807495117187,1.7621324218749999,13.404580152671755,-64.4885496183206,-22.18320610687023,0.0
14.520000457763672,-9.222464794921875,0.6105214233398437,0.14125789794921875,1.6030534351145038,1.1297709923664123,-1.7251908396946565,-10.694898815917968,-1.2785036865234374,3.0071172851562498,11.877862595419847,-54.35114503816794,-21.022900763358777,0.0
14.530000686645508,-9.567229833984374,1.3168109130859373,0.6368576416015624,8.122137404580153,5.587786259541985,-2.4122137404580153,-10.340556970214843,-0.2657563842773437,1.8076222534179687,23.51145038167939,-61.969465648854964,-21.893129770992367,0.0
14.540000915527344,-9.406818322753905,1.5586252807617187,0.3112462158203125,6.931297709923665,4.213740458015267,-2.595419847328244,-8.578424548339843,1.5729904907226562,1.946485949707031,11.557251908396946,-52.2442748091603,-25.236641221374047,0.0
14.550000667572021,-9.595960253906249,1.5729904907226562,0.277727392578125,4.961832061068702,6.183206106870229,-1.1603053435114503,-10.596736547851561,-1.5729904907226562,3.1699229980468746,11.282442748091603,-43.7557251908397,-21.69465648854962,0.0
14.560000896453857,-9.459490759277344,1.3263877197265623,0.18914193115234373,7.343511450381679,7.358778625954199,-2.7480916030534353,-10.105925207519531,-1.218648645019531,2.877830395507812,31.801526717557252,-52.12213740458015,-21.251908396946565,0.0
14.570000648498535,-9.986215124511718,1.5538368774414062,0.02633621826171875,2.7786259541984735,6.2748091603053435,-4.488549618320611,-7.8170684204101555,2.0829554443359375,1.6304513305664061,26.137404580152673,-51.7557251908397,-25.587786259541986,0.0
14.580000877380371,-9.519345800781249,1.4604630126953124,0.15083470458984374,5.770992366412214,9.664122137404581,-3.984732824427481,-7.829039428710937,0.201112939453125,2.5665841796874997,4.778625954198473,-36.93129770992366,-25.450381679389313,0.0
14.590000629425049,-10.172962854003906,2.4899697265625,0.5051765502929687,-4.854961832061068,8.244274809160306,-5.435114503816794,-9.97903251953125,-1.9776105712890624,3.4165257690429685,14.977099236641221,-36.51908396946565,-20.870229007633586,0.0
14.600000381469727,-9.86411083984375,1.0558429321289062,0.24660277099609373,-5.1603053435114505,7.4961832061068705,-6.030534351145038,-10.292672937011718,-0.8954314208984374,3.6679169433593746,30.290076335877863,-40.70229007633588,-20.564885496183205,0.0
14.610000371932983,-9.447519750976562,0.22744915771484372,0.1005564697265625,0.5648854961832062,9.251908396946565,-6.778625954198473,-8.21690009765625,0.8355763793945312,3.4069489624023435,30.885496183206108,-43.14503816793893,-24.259541984732824,0.0
14.62000060081482,-9.739612353515625,0.82360537109375,0.37828386230468747,2.0916030534351147,11.633587786259541,-9.022900763358779,-7.343016491699219,0.8475473876953125,3.2417490478515623,14.641221374045802,-35.23664122137404,-24.946564885496183,0.0
14.630000591278076,-9.792284790039062,1.4963760375976562,0.74699091796875,0.3053435114503817,13.221374045801527,-10.885496183206106,-8.33182177734375,-0.30406361083984373,2.5809493896484375,12.259541984732824,-30.977099236641223,-20.427480916030536,0.0
14.640000581741333,-9.832986218261718,1.2928688964843749,0.82360537109375,-1.3587786259541985,12.15267175572519,-12.320610687022901,-9.955090502929687,-1.4221557861328125,3.5051112304687497,27.267175572519083,-33.02290076335878,-15.755725190839694,0.0
14.65000057220459,-10.177751257324218,0.9911994873046874,0.8667010009765624,2.427480916030534,11.32824427480916,-12.625954198473282,-8.585607153320312,0.9983820922851562,3.3638533325195312,36.534351145038165,-37.57251908396947,-17.770992366412212,0.0
14.660000562667847,-9.519345800781249,0.8571241943359375,0.8810662109374999,12.091603053435115,13.618320610687023,-12.351145038167939,-6.809109521484374,1.9033903198242186,2.5953145996093747,21.435114503816795,-30.091603053435115,-20.427480916030536,0.0
14.670000553131104,-9.574412438964844,1.8339584716796873,1.1851298217773436,11.17557251908397,14.13740458015267,-11.801526717557252,-8.674192614746094,0.6823474731445313,3.038241906738281,7.358778625954199,-16.213740458015266,-15.32824427480916,0.0
14.68000054359436,-9.706093530273437,2.379836450195312,1.438915197753906,5.450381679389313,12.15267175572519,-11.83206106870229,-7.841010437011718,1.180341418457031,3.009511486816406,4.244274809160306,-13.389312977099237,-11.893129770992367,0.0
14.690000772476196,-9.658209497070311,2.2936451904296873,1.5418658691406248,5.877862595419847,10.51908396946565,-10.259541984732824,-8.391676818847655,0.40222587890625,2.655169641113281,10.274809160305344,-11.557251908396946,-9.572519083969466,0.0
14.700000286102295,-9.356540087890625,1.6065093139648436,1.5682020874023437,7.7251908396946565,9.648854961832061,-9.083969465648854,-7.793126403808594,0.6416460449218749,2.882618798828125,8.549618320610687,-5.190839694656488,-9.282442748091603,0.0
14.71000075340271,-9.950302099609374,1.7334020019531249,1.7884686401367187,6.885496183206107,8.198473282442748,-8.778625954198473,-7.773972790527344,0.2154781494140625,2.5737667846679684,11.84732824427481,-3.572519083969466,-7.923664122137405,0.0
14.720000505447388,-9.727641345214844,1.3120225097656248,1.879448303222656,10.900763358778626,7.816793893129771,-9.32824427480916,-8.044517578125,0.076614453125,2.5737667846679684,17.923664122137403,-1.1297709923664123,-6.152671755725191,0.0
14.730000495910645,-9.682151513671874,1.13006318359375,1.8459294799804686,13.526717557251908,7.083969465648855,-9.526717557251908,-7.900865478515625,0.2825157958984375,2.578555187988281,20.045801526717558,1.8015267175572518,-5.022900763358779,0.0
14.740000486373901,-9.81862100830078,1.4820108276367188,1.7094599853515624,14.274809160305344,6.290076335877862,-9.419847328244275,-7.4962453979492185,0.5458779785156249,2.437297290039062,20.53435114503817,3.801526717557252,-4.091603053435114,0.0
14.750000476837158,-9.928754284667969,1.6136919189453125,1.7764976318359373,14.763358778625955,6.0458015267175576,-9.435114503816793,-7.941566906738281,-0.031124621582031248,2.3295582153320313,23.84732824427481,6.229007633587786,-1.6946564885496183,0.0
14.760000705718994,-9.641450085449218,1.6472107421875,1.6927005737304686,15.17557251908397,6.305343511450381,-9.038167938931299,-7.879317663574218,0.00718260498046875,2.664746447753906,25.435114503816795,8.992366412213741,-0.9923664122137404,0.0
14.770000696182251,-9.816226806640625,1.848323681640625,1.3958195678710936,12.610687022900763,6.137404580152672,-9.145038167938932,-7.522581616210937,0.21308394775390624,2.422932080078125,26.564885496183205,11.251908396946565,-0.5801526717557252,0.0
