timestamp,Thigh_L_Acc_X,Thigh_L_Acc_Y,Thigh_L_Acc_Z,Thigh_L_Gyr_X,Thigh_L_Gyr_Y,Thigh_L_Gyr_Z,Thigh_R_Acc_X,Thigh_R_Acc_Y,Thigh_R_Acc_Z,Thigh_R_Gyr_X,Thigh_R_Gyr_Y,Thigh_R_Gyr_Z,gpio_output
10.000000476837158,-10.445901843261717,4.062960217285156,2.039859814453125,38.412213740458014,87.81679389312977,-2.9923664122137406,-10.740388647460938,1.9009961181640624,1.944091748046875,-21.221374045801525,-26.412213740458014,3.66412213740458,0.0
10.010000467300415,-11.235988391113281,3.375824340820312,2.1308394775390624,32.94656488549618,89.46564885496183,-3.114503816793893,-9.670180505371093,2.398990063476562,1.0319009155273438,-23.404580152671755,-30.99236641221374,3.2519083969465647,1.0
10.020000457763672,-8.70771143798828,-0.5865794067382812,0.9720458740234375,31.557251908396946,86.99236641221374,-1.8931297709923665,-9.727641345214844,1.2976572998046874,0.93852705078125,-20.33587786259542,-34.85496183206107,3.7099236641221376,1.0
10.030000925064087,-9.198522778320312,-0.3184288208007812,2.0350714111328125,43.00763358778626,95.81679389312977,-3.969465648854962,-8.963891015625,2.5330653564453125,-0.055066638183593745,-28.702290076335878,-38.35114503816794,2.3206106870229006,1.0
10.040000677108765,-9.512163195800781,1.9847931762695312,2.588131994628906,32.44274809160305,92.7175572519084,-10.213740458015268,-8.82263311767578,3.0166940917968748,0.25139117431640623,-40.534351145038165,-32.44274809160305,3.1297709923664123,1.0
10.0500009059906,-10.158597644042969,3.5984850952148437,2.932897033691406,15.587786259541986,87.09923664122137,-13.679389312977099,-9.406818322753905,1.4413093994140624,-0.2561795776367187,-43.63358778625954,-33.038167938931295,6.0,1.0
10.060000658035278,-9.641450085449218,1.7956512451171873,2.6910826660156246,2.9618320610687023,79.05343511450381,-15.923664122137405,-8.097190014648437,1.6256629272460936,-1.419761584472656,-48.82442748091603,-37.66412213740458,6.442748091603053,1.0
10.070000886917114,-9.698910925292969,1.3359645263671873,2.5522189697265625,-1.5725190839694656,76.82442748091603,-16.85496183206107,-9.866505041503906,1.867477294921875,-0.3687070556640625,-51.02290076335878,-31.52671755725191,6.67175572519084,1.0
10.080000638961792,-10.32379755859375,1.8148048583984373,2.6240450195312497,-2.381679389312977,76.18320610687023,-19.923664122137403,-10.206481677246094,0.74699091796875,-0.14125789794921875,-50.916030534351144,-29.862595419847327,6.1679389312977095,1.0
10.090000629425049,-9.521740002441407,1.8243816650390623,2.952050646972656,-5.480916030534351,71.6793893129771,-21.46564885496183,-10.747571252441405,-1.1276689819335937,0.948103857421875,-41.49618320610687,-29.96946564885496,5.587786259541985,1.0
10.100000619888306,-10.034099157714843,0.7062894897460937,2.3726538452148436,-1.7557251908396947,69.96946564885496,-22.091603053435115,-11.137826123046874,-1.3814543579101561,0.9409212524414062,-26.091603053435115,-36.717557251908396,3.1297709923664123,1.0
10.110000610351562,-10.371681591796875,0.7350199096679687,1.7812860351562498,1.6030534351145038,68.59541984732824,-22.82442748091603,-10.824185705566405,-2.655169641113281,1.484405029296875,-3.5877862595419847,-45.93893129770992,-0.3816793893129771,1.0
10.12000060081482,-9.955090502929687,0.7924807495117187,1.465251416015625,7.083969465648855,70.09160305343511,-23.00763358778626,-12.531251489257812,-5.343858105468749,4.520252734375,8.16793893129771,-47.06870229007634,-1.8015267175572518,1.0
10.130000591278076,-11.228805786132812,3.124433166503906,1.9129671264648436,4.778625954198473,72.80916030534351,-25.84732824427481,-8.267178332519531,0.22026655273437498,0.3280056274414062,5.633587786259542,-61.57251908396947,-10.320610687022901,1.0
10.140000820159912,-11.29344923095703,4.639962817382812,1.9847931762695312,-21.297709923664122,65.55725190839695,-27.64885496183206,-9.14824454345703,-1.2378022583007813,0.25139117431640623,2.7480916030534353,-55.52671755725191,-10.106870229007633,1.0
10.15000057220459,-10.85291612548828,2.221819140625,1.3024457031249999,-25.206106870229007,65.69465648854961,-24.091603053435115,-8.022969763183593,0.9888052856445312,-1.2497732666015624,4.961832061068702,-60.74809160305343,-10.091603053435115,1.0
10.160000801086426,-12.184092248535155,6.868964562988281,3.0693665283203124,-36.61068702290076,65.49618320610686,-25.0381679389313,-8.767566479492187,1.3862427612304686,-0.15322890625,-9.557251908396946,-45.908396946564885,-9.618320610687023,1.0
10.170000553131104,-12.227187878417968,5.219359619140625,2.4301146850585935,-81.89312977099236,47.847328244274806,-23.404580152671755,-9.138667736816405,-1.1875240234375,-0.18435352783203124,2.2442748091603053,-46.213740458015266,-8.229007633587786,1.0
10.18000078201294,-11.628637463378906,3.402160559082031,1.3646949462890625,-69.57251908396947,50.36641221374046,-15.19083969465649,-9.672574707031249,0.679953271484375,-0.507570751953125,7.893129770992366,-47.05343511450382,-9.358778625954198,1.0
10.190000534057617,-9.694122521972655,2.789244934082031,1.3215993164062498,-82.47328244274809,42.458015267175576,-12.67175572519084,-7.996633544921875,2.442085693359375,-1.1037269653320312,-8.274809160305344,-40.656488549618324,-14.229007633587786,1.0
10.200000524520874,-10.9941740234375,2.6431986328124997,1.4915876342773438,-88.10687022900764,40.6412213740458,-7.587786259541985,-8.487444885253906,-0.5339069702148437,-0.5243301635742187,-10.67175572519084,-31.267175572519083,-9.84732824427481,1.0
10.21000051498413,-9.481038574218749,0.16759411621093748,1.8435352783203125,-76.80916030534351,42.54961832061068,-4.809160305343512,-8.99501563720703,-1.8195932617187498,-0.15322890625,7.786259541984733,-34.58015267175573,-8.977099236641221,0.0
10.220000505447388,-10.218452685546874,0.4261678955078125,1.7788918334960937,-66.87022900763358,42.36641221374046,-5.282442748091603,-8.43956085205078,0.21308394775390624,-0.7972691528320313,19.297709923664122,-41.00763358778626,-13.694656488549619,0.0
10.230000257492065,-9.220070593261719,0.06464344482421874,1.9584569580078124,-54.88549618320611,42.38167938931298,-3.450381679389313,-7.714117749023437,1.5801730957031248,-0.45010991210937495,8.580152671755725,-33.74045801526717,-15.389312977099237,0.0
10.24000072479248,-9.670180505371093,0.46686932373046874,2.3391350219726563,-52.25954198473283,44.152671755725194,-2.33587786259542,-8.188169677734374,0.031124621582031248,0.63206923828125,7.786259541984733,-25.61832061068702,-12.793893129770993,0.0
10.250000476837158,-9.198522778320312,-1.2282254516601563,1.4939818359375,-38.152671755725194,47.099236641221374,-2.900763358778626,-10.046070166015625,-1.0223241088867188,1.177947216796875,24.931297709923665,-28.244274809160306,-10.763358778625955,0.0
10.260000467300415,-10.627861169433594,1.5490484741210937,2.5043349365234375,-28.15267175572519,49.14503816793893,-7.786259541984733,-8.149862451171874,1.0773907470703123,0.11252747802734374,31.69465648854962,-36.82442748091603,-15.19083969465649,0.0
10.27000117301941,-11.635820068359374,3.5697546752929687,2.8227637573242186,-40.412213740458014,42.68702290076336,-8.244274809160306,-7.096413720703125,2.4492682983398435,0.8882488159179687,13.145038167938932,-28.625954198473284,-18.106870229007633,0.0
10.280000686645508,-11.008539233398437,2.272097375488281,2.73896669921875,-38.778625954198475,43.954198473282446,-2.7480916030534353,-9.294290844726563,0.6967126831054687,1.4796166259765624,3.801526717557252,-19.0381679389313,-13.908396946564885,0.0
10.290000915527344,-10.101136804199218,0.8355763793945312,2.6910826660156246,-36.656488549618324,40.12213740458015,-3.1297709923664123,-10.510545288085936,-0.01915361328125,2.1811177124023438,9.068702290076336,-17.603053435114504,-11.389312977099237,0.0
10.300000667572021,-10.690110412597656,0.3806780639648437,2.5522189697265625,-26.0,39.786259541984734,-4.152671755725191,-10.12507882080078,-0.8786720092773437,3.375824340820312,20.244274809160306,-22.885496183206108,-10.854961832061068,0.0
10.3100004196167,-11.137826123046874,-0.0430956298828125,2.2026655273437497,-17.404580152671755,35.66412213740458,-4.67175572519084,-10.249577307128906,-1.0726023437499999,2.5258827514648434,34.82442748091603,-34.61068702290076,-12.15267175572519,0.0
10.320000648498535,-12.418724011230468,1.7788918334960937,2.942473840332031,-5.923664122137405,36.12213740458015,-5.969465648854962,-9.112331518554686,1.3407529296874998,2.262520568847656,33.05343511450382,-40.97709923664122,-16.290076335877863,0.0
10.330000638961792,-10.702081420898438,1.7812860351562498,2.3415292236328122,-11.633587786259541,27.14503816793893,-4.488549618320611,-7.939172705078125,1.7956512451171873,1.4724340209960938,12.51908396946565,-35.93893129770992,-17.786259541984734,0.0
10.34000039100647,-9.595960253906249,0.4525041137695312,2.1547814941406247,-5.1603053435114505,26.18320610687023,-1.5267175572519085,-9.919177478027343,-0.9217676391601562,2.798821740722656,18.519083969465647,-33.12977099236641,-12.122137404580153,0.0
10.350000619888306,-10.13226142578125,2.0159177978515626,2.8227637573242186,-7.572519083969466,20.900763358778626,-5.374045801526718,-10.326191760253906,-0.25139117431640623,3.0933085449218747,36.030534351145036,-44.19847328244275,-12.396946564885496,0.0
10.360000610351562,-10.647014782714843,2.252943762207031,2.7269956909179687,-9.908396946564885,14.763358778625955,-3.7557251908396947,-7.888894470214844,2.5258827514648434,2.0374656127929685,26.931297709923665,-48.44274809160305,-17.435114503816795,0.0
10.37000036239624,-10.024522351074218,2.099714855957031,2.5546131713867184,-8.213740458015268,12.961832061068701,0.5038167938931297,-9.222464794921875,1.2569558715820313,3.1268273681640624,8.900763358778626,-37.282442748091604,-15.34351145038168,0.0
10.380000352859497,-10.089165795898436,2.0350714111328125,2.212242333984375,-10.442748091603054,9.450381679389313,1.5114503816793894,-11.583147631835937,-1.608903515625,3.6200329101562496,20.748091603053435,-40.3206106870229,-11.679389312977099,0.0
10.390000343322754,-10.041281762695311,1.9847931762695312,1.3527239379882812,-8.045801526717558,6.137404580152672,1.4809160305343512,-10.426748229980468,0.40462008056640625,2.935291235351562,33.86259541984733,-53.05343511450382,-14.061068702290076,0.0
10.400000810623169,-9.792284790039062,2.042254016113281,0.7015010864257812,-7.6183206106870225,6.427480916030534,2.2290076335877864,-8.894459167480468,2.2936451904296873,2.5857377929687497,20.65648854961832,-51.16030534351145,-18.03053435114504,0.0
10.410000562667847,-9.651026892089844,2.47081611328125,0.5458779785156249,-14.870229007633588,6.595419847328245,2.549618320610687,-9.557653027343749,0.7685387329101562,2.212242333984375,4.625954198473282,-43.43511450381679,-16.061068702290076,0.0
10.420000791549683,-9.701305126953125,2.288856787109375,0.507570751953125,-22.03053435114504,6.8396946564885495,2.045801526717557,-10.843339318847656,0.08379705810546874,2.4396914916992185,11.129770992366412,-45.69465648854962,-12.641221374045802,0.0
10.43000054359436,-9.485826977539062,1.6424223388671875,0.05027823486328125,-22.50381679389313,6.488549618320611,1.5419847328244274,-9.737218151855469,1.3551181396484375,2.442085693359375,15.32824427480916,-52.030534351145036,-13.435114503816793,0.0
10.440000772476196,-9.363722692871093,1.7525556152343749,0.062249243164062495,-21.34351145038168,9.755725190839694,1.465648854961832,-7.491456994628906,3.4859576171874997,1.5346832641601562,-4.885496183206107,-48.87022900763359,-17.374045801526716,0.0
10.450000286102295,-8.810662109374999,0.5386953735351562,-0.2920926025390625,-24.0,11.801526717557252,2.7022900763358777,-7.156268762207031,2.916137622070312,1.7238251953125,-28.68702290076336,-34.83969465648855,-15.038167938931299,0.0
10.46000051498413,-8.501810095214843,-1.235408056640625,-0.5458779785156249,-11.526717557251908,18.946564885496183,1.8473282442748091,-8.827421520996094,1.0295067138671874,1.7836802368164062,-29.34351145038168,-32.10687022900763,-9.740458015267176,0.0
10.470000505447388,-9.227253198242186,-0.70868369140625,0.05027823486328125,-4.091603053435114,26.83969465648855,-4.748091603053435,-10.122684619140625,0.06943184814453125,2.5234885498046875,-22.106870229007633,-30.580152671755727,-8.274809160305344,0.0
10.480000495910645,-9.361328491210937,0.12210428466796874,-0.0526724365234375,-1.9541984732824427,27.435114503816795,-8.16793893129771,-9.533711010742186,0.5003881469726562,2.2840683837890623,-20.33587786259542,-32.229007633587784,-10.061068702290076,0.0
10.490000486373901,-10.144232434082031,0.11252747802734374,0.3447650390625,-1.0687022900763359,30.396946564885496,-9.022900763358779,-8.726865051269531,-0.6560112548828124,2.319981408691406,-13.49618320610687,-33.7557251908397,-10.030534351145038,0.0
10.500000476837158,-10.40041201171875,0.28730419921875,0.6871358764648438,-1.2061068702290076,30.458015267175572,-10.305343511450381,-8.611943371582031,0.10773907470703124,1.66636435546875,-6.030534351145038,-37.23664122137404,-10.702290076335878,0.0
10.510000944137573,-9.478644372558593,1.4437036010742186,0.4860229370117187,-4.488549618320611,25.96946564885496,-10.83969465648855,-7.510610607910156,1.350329736328125,1.915361328125,-12.305343511450381,-32.51908396946565,-11.389312977099237,0.0
10.52000093460083,-11.235988391113281,2.693476867675781,1.6208745239257811,-13.84732824427481,27.206106870229007,-11.221374045801527,-7.163451367187499,2.269703173828125,1.6328455322265625,-28.198473282442748,-22.076335877862597,-10.67175572519084,0.0
10.530000925064087,-9.727641345214844,1.6352397338867186,0.9983820922851562,-17.541984732824428,20.9618320610687,-8.13740458015267,-8.037334973144532,0.9792284790039062,1.8195932617187498,-32.50381679389313,-14.229007633587786,-6.9465648854961835,0.0
10.540000677108765,-8.89924757080078,1.0486603271484374,1.4820108276367188,-14.82442748091603,20.015267175572518,-7.221374045801527,-8.013392956542969,0.6009446166992187,1.8507178833007811,-29.923664122137403,-12.13740458015267,-5.404580152671755,0.0
10.550000667572021,-10.232817895507813,1.388636962890625,1.9752163696289062,-11.587786259541986,22.625954198473284,-8.320610687022901,-8.240842114257813,-0.28490999755859375,2.0159177978515626,-25.34351145038168,-9.282442748091603,-4.916030534351145,0.0
10.560000658035278,-11.044452258300781,1.2569558715820313,1.8363526733398436,-8.51908396946565,22.12213740458015,-8.748091603053435,-8.336610180664062,-0.7350199096679687,2.1787235107421874,-19.068702290076335,-7.236641221374046,-4.442748091603053,0.0
10.570000648498535,-10.608707556152343,1.675941162109375,1.1707646118164061,-11.709923664122137,16.3206106870229,-9.389312977099237,-8.33182177734375,-0.6105214233398437,2.0374656127929685,-13.541984732824428,-6.396946564885496,-4.259541984732825,0.0
10.580000638961792,-10.536881506347656,1.8004396484374998,1.189918225097656,-14.595419847328245,13.98473282442748,-9.587786259541986,-8.176198669433592,-0.584185205078125,2.0159177978515626,-11.099236641221374,-4.534351145038168,-4.564885496183206,0.0
10.590000629425049,-10.864887133789061,1.946485949707031,1.4700398193359374,-13.068702290076336,15.419847328244275,-9.49618320610687,-7.869740856933594,-0.4477157104492187,1.8028338500976562,-9.312977099236642,-3.3893129770992365,-4.519083969465649,0.0
10.600000619888306,-10.273519323730468,1.3024457031249999,1.2569558715820313,-11.282442748091603,15.923664122137405,-10.091603053435115,-8.540117321777343,-0.9409212524414062,2.023100402832031,-3.984732824427481,-0.8549618320610687,-4.687022900763359,0.0
10.610000610351562,-9.648632690429688,0.8930372192382812,1.2521674682617188,-13.938931297709924,10.992366412213741,-10.67175572519084,-8.755595471191405,-0.9648632690429687,2.2074539306640624,0.8244274809160306,0.5801526717557252,-5.679389312977099,0.0
10.62000036239624,-9.928754284667969,1.4508862060546874,1.4413093994140624,-14.931297709923664,10.290076335877863,-11.251908396946565,-8.391676818847655,-0.5386953735351562,2.032677209472656,4.854961832061068,0.8091603053435115,-7.221374045801527,0.0
10.630000829696655,-10.091559997558592,2.8419173706054686,1.656787548828125,-23.633587786259543,6.793893129770993,-12.335877862595419,-8.185775476074218,0.5267243652343749,1.687912170410156,4.152671755725191,3.7251908396946565,-8.610687022900763,0.0
10.640000820159912,-9.782707983398437,2.032677209472656,2.1978771240234374,-19.389312977099237,9.633587786259541,-10.259541984732824,-9.212887988281249,-0.9217676391601562,2.109291662597656,5.755725190839694,9.221374045801527,-5.938931297709924,0.0
10.65000057220459,-9.476250170898437,1.4053963745117186,1.8315642700195311,-24.977099236641223,4.717557251908397,-9.633587786259541,-9.804255798339844,-1.3192051147460937,3.1268273681640624,15.236641221374045,10.15267175572519,-4.458015267175573,0.0
10.660000801086426,-10.359710583496094,1.22583125,2.0733786376953125,-17.6793893129771,5.633587786259542,-10.229007633587786,-9.02135185546875,-0.5889736083984375,3.220201232910156,26.061068702290076,6.213740458015267,-5.404580152671755,0.0
10.670000314712524,-10.117896215820313,0.41898529052734373,1.9033903198242186,-8.65648854961832,6.67175572519084,-11.740458015267176,-7.838616235351562,1.2234370483398436,2.528276953125,24.12213740458015,5.969465648854962,-7.6183206106870225,0.0
10.68000078201294,-8.360552197265624,1.0103531005859374,1.668758557128906,-5.7251908396946565,6.290076335877862,-12.595419847328245,-7.249642626953125,1.4030021728515625,2.0087351928710935,8.259541984732824,14.229007633587786,-7.190839694656488,0.0
10.690000534057617,-10.77630167236328,1.9321207397460936,2.3127988037109373,-11.038167938931299,6.67175572519084,-13.526717557251908,-7.331045483398437,1.4700398193359374,2.3151930053710936,2.3053435114503817,20.16793893129771,-5.6183206106870225,0.0
10.700000524520874,-10.24000050048828,2.5522189697265625,2.7748797241210936,-15.465648854961833,4.1679389312977095,-12.396946564885496,-6.849810949707031,2.5474305664062498,2.31758720703125,-13.007633587786259,26.458015267175572,-6.061068702290076,0.0
10.71000051498413,-11.621454858398437,2.4564509033203126,3.1172505615234374,-20.595419847328245,-0.5343511450381679,-9.435114503816793,-6.8593877563476555,1.4987702392578124,3.191470812988281,-36.18320610687023,35.41984732824427,-2.717557251908397,0.0
10.720000505447388,-11.154585534667968,0.7445967163085937,2.636016027832031,-20.15267175572519,-8.595419847328245,-6.229007633587786,-7.706935144042968,-1.189918225097656,1.917755529785156,-30.519083969465647,36.045801526717554,1.5114503816793894,0.0
10.730000495910645,-9.710881933593749,-0.6655880615234374,1.9656395629882812,-8.305343511450381,-14.259541984732824,-5.9541984732824424,-6.313509777832031,-0.13646949462890623,-0.4381389038085937,-12.595419847328245,34.51908396946565,0.061068702290076333,0.0
10.740000247955322,-11.058817468261719,1.1731588134765625,2.817975354003906,-14.763358778625955,-20.717557251908396,-7.893129770992366,-5.889736083984375,1.1061211669921875,-2.3343466186523436,-12.244274809160306,43.52671755725191,-0.16793893129770993,0.0
10.750000476837158,-10.544064111328124,-1.0366893188476562,3.2537200561523436,-11.648854961832061,-27.51145038167939,-4.152671755725191,-6.964732629394531,-0.3711012573242187,-2.602497204589844,-4.854961832061068,53.55725190839695,6.076335877862595,0.0
10.760000467300415,-10.002974536132811,-2.940079638671875,3.1842882080078123,2.16793893129771,-32.74809160305343,-4.473282442748092,-8.530540515136718,-1.6639701538085936,-1.3024457031249999,14.366412213740459,54.213740458015266,7.847328244274809,0.0
10.77000093460083,-9.854534033203125,-2.849099975585937,3.6296097167968746,24.580152671755727,-35.38931297709924,-10.15267175572519,-8.097190014648437,1.8195932617187498,-0.5243301635742187,12.076335877862595,55.98473282442748,0.9007633587786259,0.0
10.780000448226929,-10.714052429199219,-0.5793968017578125,4.580107775878906,26.30534351145038,-41.3587786259542,-15.725190839694656,-10.85291612548828,0.9744400756835937,2.7269956909179687,-18.366412213740457,71.43511450381679,-3.0839694656488548,0.0
10.790000915527344,-12.275071911621094,0.7781155395507812,6.344634399414062,6.5038167938931295,-59.70992366412214,-19.84732824427481,-14.832079284667968,-1.5298948608398437,4.69263525390625,-23.450381679389313,68.50381679389314,-7.129770992366412,0.0
10.800000429153442,-13.424288708496093,0.354341845703125,8.12113203125,-1.099236641221374,-80.83969465648855,-23.72519083969466,-15.789759948730469,-0.32082302246093747,6.121973645019531,-41.847328244274806,66.29007633587786,-15.801526717557252,0.0
10.810000658035278,-15.167267517089844,-0.5267243652343749,10.259154113769531,-0.44274809160305345,-104.51908396946565,-24.061068702290076,-17.83201396484375,-3.825934252929687,7.017405065917968,-42.152671755725194,58.36641221374046,-18.625954198473284,0.0
10.820000648498535,-15.62216583251953,-1.4604630126953124,11.360486877441405,14.396946564885496,-129.45038167938932,-23.19083969465649,-17.61414161376953,-4.220977526855468,6.76122548828125,-27.480916030534353,42.42748091603053,-15.755725190839694,0.0
10.830000400543213,-16.95094775390625,-1.659181750488281,11.901576452636718,36.80916030534351,-154.25954198473283,-19.17557251908397,-12.018892333984374,-1.1563994018554686,3.6918589599609373,-8.854961832061068,22.82442748091603,-10.80916030534351,0.0
10.840000629425049,-19.05784521484375,-0.3232172241210937,11.839327209472655,42.99236641221374,-179.00763358778627,-15.709923664122137,-10.101136804199218,-0.7541735229492187,1.5849614990234373,10.351145038167939,8.51908396946565,-2.4122137404580153,0.0
10.850000619888306,-19.316418994140623,0.5770026000976562,8.997409838867187,47.221374045801525,-198.83969465648855,-10.259541984732824,-7.307103466796875,0.7924807495117187,0.5339069702148437,5.847328244274809,6.885496183206107,-0.7022900763358778,0.0
10.860000610351562,-18.90940471191406,1.9895815795898437,5.7317187744140625,33.69465648854962,-218.65648854961833,-4.091603053435114,-5.372588525390625,2.4013842651367185,-0.7326257080078125,-10.290076335877863,14.473282442748092,0.061068702290076333,0.0
10.87000060081482,-18.037915307617187,2.0302830078125,2.1404162841796874,22.595419847328245,-228.41221374045801,4.488549618320611,-6.883329772949218,-0.38786066894531246,0.055066638183593745,-18.732824427480917,26.15267175572519,5.129770992366412,0.0
10.880000352859497,-17.144878088378906,0.0909796630859375,-0.5003881469726562,25.404580152671755,-231.54198473282443,16.68702290076336,-8.219294299316406,-3.6679169433593746,0.6727706665039062,-7.938931297709924,28.15267175572519,4.99236641221374,0.0
10.890000581741333,-12.196063256835936,-3.1962592163085937,-3.124433166503906,40.13740458015267,-223.3587786259542,24.610687022900763,-5.394136340332031,1.6328455322265625,-2.4588451049804685,-7.969465648854962,24.99236641221374,-6.854961832061068,0.0
10.90000033378601,-9.471461767578125,-4.244919543457031,-4.192247106933594,40.58015267175573,-208.53435114503816,21.16030534351145,-7.682993127441406,0.296881005859375,-0.8212111694335937,-41.69465648854962,53.343511450381676,-6.961832061068702,0.0
10.910000801086426,-8.113949426269532,-5.437231970214843,-5.322310290527343,30.83969465648855,-193.6946564885496,15.435114503816793,-10.16338604736328,-3.4763808105468748,0.6919242797851562,-30.68702290076336,59.17557251908397,-0.15267175572519084,0.0
10.920000553131104,-5.372588525390625,-8.044517578125,-5.84185205078125,50.06106870229008,-170.93129770992365,7.709923664122138,-8.238447912597655,-0.19871873779296872,-0.9528922607421875,-27.0381679389313,52.50381679389313,-3.618320610687023,0.0
10.93000054359436,-5.872976672363281,-6.232106921386718,-6.0333881835937495,62.25954198473283,-144.85496183206106,-1.3893129770992367,-9.050082275390624,1.6615759521484375,-0.8690952026367187,-41.06870229007634,60.67175572519084,-4.320610687022901,0.0
10.940000772476196,-6.6510922119140625,-4.3263223999023435,-4.584896179199219,56.534351145038165,-125.19083969465649,-12.274809160305344,-12.143390820312499,-3.5098996337890624,2.0733786376953125,-38.595419847328245,67.69465648854961,3.5419847328244276,0.0
10.950000286102295,-6.478709692382812,-4.055777612304687,-2.5665841796874997,67.20610687022901,-103.89312977099236,-17.49618320610687,-8.310273962402343,-0.8164227661132812,-0.842758984375,-22.427480916030536,46.68702290076336,1.3435114503816794,0.0
10.960000276565552,-7.1203557373046875,-0.6512228515624999,-0.2154781494140625,82.50381679389314,-84.7175572519084,-22.35114503816794,-10.618284362792968,-1.0917559570312498,0.047884033203124995,-45.954198473282446,56.80916030534351,1.6641221374045803,0.0
10.970000505447388,-8.111555224609374,1.0965443603515623,2.3535002319335936,76.91603053435115,-73.29770992366412,-22.106870229007633,-10.632649572753905,-3.1651345947265623,1.2042834350585936,-28.885496183206108,51.98473282442748,6.412213740458015,0.0
10.980000495910645,-8.068459594726562,3.4093431640625,2.7533319091796873,75.52671755725191,-71.90839694656489,-19.46564885496183,-8.154650854492187,-2.3678654418945313,-0.7445967163085937,-16.35114503816794,37.12977099236641,7.450381679389313,0.0
10.99000072479248,-9.478644372558593,5.274426257324219,4.666299035644531,66.77862595419847,-66.35114503816794,-10.458015267175572,-9.129090930175781,-0.9816226806640624,-0.9409212524414062,-22.412213740458014,43.81679389312977,7.1603053435114505,0.0
11.000000476837158,-11.130643518066405,6.758831286621094,6.042964990234375,38.091603053435115,-71.55725190839695,-3.3282442748091605,-9.421183532714844,-1.7286135986328124,-0.30885201416015623,-34.70229007633588,54.30534351145038,7.541984732824427,0.0
11.010000944137573,-11.25514200439453,5.6766521362304685,4.8123453369140625,12.106870229007633,-81.49618320610686,9.282442748091603,-9.344569079589844,-3.6463691284179687,0.21308394775390624,-11.755725190839694,46.732824427480914,12.488549618320612,0.0
11.020000696182251,-9.878476049804688,3.2417490478515623,3.246537451171875,1.251908396946565,-80.90076335877863,17.801526717557252,-8.980650427246093,-0.9193734375,-1.216254443359375,1.083969465648855,41.465648854961835,11.48091603053435,0.0
11.030000925064087,-8.815450512695312,2.4947581298828125,1.85790048828125,-13.114503816793894,-78.3969465648855,20.290076335877863,-9.5001921875,-0.9217676391601562,0.16519991455078123,-12.458015267175572,55.05343511450382,11.221374045801527,0.0
11.040000677108765,-7.783549597167968,0.41419688720703124,0.8188169677734375,-29.786259541984734,-76.54961832061069,21.282442748091604,-9.811438403320311,-3.1675287963867187,1.0414777221679687,8.549618320610687,51.786259541984734,15.389312977099237,0.0
11.0500009059906,-5.305550878906249,-2.96881005859375,0.143652099609375,-25.83206106870229,-67.57251908396947,21.862595419847327,-11.786654772949218,-5.571307263183593,3.1411925781249996,37.038167938931295,47.66412213740458,18.564885496183205,0.0
11.0600004196167,-3.459621398925781,-4.398148449707031,-0.2920926025390625,-7.00763358778626,-51.099236641221374,20.061068702290076,-9.172186560058593,-1.199495031738281,1.20667763671875,41.81679389312977,36.99236641221374,13.129770992366412,0.0
11.070000648498535,-3.5817256835937497,-2.7724855224609373,0.36631285400390623,5.175572519083969,-34.717557251908396,13.129770992366412,-8.889670764160156,-0.39983167724609375,0.5482721801757812,35.05343511450382,36.458015267175576,11.17557251908397,0.0
11.080000638961792,-2.4756045166015626,-2.5641899780273434,0.565031591796875,9.007633587786259,-22.3206106870229,7.9541984732824424,-11.130643518066405,-2.2864625854492187,1.8100164550781248,36.18320610687023,37.9236641221374,15.251908396946565,0.0
11.090000629425049,-2.4899697265625,-1.637633935546875,1.120486376953125,13.389312977099237,-7.755725190839694,3.5419847328244276,-9.327809667968749,0.1388636962890625,0.7637503295898437,31.14503816793893,33.847328244274806,14.061068702290076,0.0
11.100000619888306,-2.176329309082031,-0.40940848388671874,1.599326708984375,13.282442748091603,1.0381679389312977,0.030534351145038167,-10.857704528808593,-0.30406361083984373,0.9528922607421875,27.923664122137403,33.87786259541985,15.541984732824428,0.0
11.110000610351562,-3.689464758300781,1.1468225952148436,3.5673604736328124,2.4885496183206106,10.793893129770993,-4.580152671755725,-10.886434948730468,0.06943184814453125,0.3591302490234375,26.061068702290076,31.83206106870229,17.083969465648856,0.0
11.12000060081482,-3.5434184570312497,0.5386953735351562,4.642357019042969,0.44274809160305345,15.465648854961833,-2.8702290076335877,-10.467449658203124,-0.12689268798828124,0.3758896606445312,23.236641221374047,30.244274809160306,17.938931297709924,0.0
11.130000591278076,-3.8474820678710935,1.235408056640625,5.827486840820312,0.48854961832061067,20.03053435114504,-2.7786259541984735,-11.614272253417967,-2.003946789550781,1.678335363769531,24.412213740458014,30.83969465648855,20.35114503816794,0.0
11.140000820159912,-4.53940634765625,1.7764976318359373,7.153874560546875,-2.6717557251908395,23.053435114503817,-2.687022900763359,-10.639832177734375,-2.262520568847656,1.7597382202148437,27.709923664122137,26.717557251908396,19.603053435114504,0.0
11.15000033378601,-4.189852905273438,1.5322890624999999,7.352593298339843,-0.4122137404580153,24.30534351145038,-0.12213740458015267,-8.927977990722656,0.584185205078125,0.612915625,18.244274809160306,23.389312977099237,15.816793893129772,0.0
11.160000562667847,-4.762067102050781,2.750937707519531,7.551312036132812,1.0381679389312977,25.72519083969466,3.282442748091603,-9.337386474609374,-0.9624690673828125,1.1180921752929687,12.381679389312977,25.404580152671755,17.083969465648856,0.0
11.170000553131104,-4.6639048339843745,3.1938650146484373,7.122749938964843,2.0763358778625953,26.442748091603054,7.419847328244275,-11.621454858398437,-3.871424084472656,3.6631285400390623,20.793893129770993,31.099236641221374,21.129770992366414,0.0
11.180001020431519,-4.951209033203125,3.718195178222656,5.681440539550781,1.3282442748091603,28.748091603053435,11.664122137404581,-10.905588562011719,-5.0014872680664055,3.6248213134765623,56.10687022900763,11.083969465648854,20.748091603053435,0.0
11.190000295639038,-4.908113403320312,4.601655590820312,4.821922143554687,-7.7251908396946565,30.442748091603054,13.877862595419847,-8.90643017578125,-0.6248866333007812,1.189918225097656,46.97709923664122,3.0229007633587788,12.610687022900763,0.0
11.200000524520874,-6.438008264160156,2.454056701660156,8.257601525878906,-14.488549618320612,31.053435114503817,21.17557251908397,-11.226411584472656,-4.661510632324219,4.671087438964843,37.465648854961835,13.34351145038168,15.221374045801527,0.0
11.21000051498413,-7.977479931640625,-1.3455413330078123,13.014880224609374,-4.977099236641221,26.045801526717558,28.03053435114504,-11.456254943847656,-5.595249279785156,3.440467785644531,83.5114503816794,-17.206106870229007,18.259541984732824,0.0
11.220000267028809,-9.60793126220703,0.14125789794921875,12.497732666015624,-7.312977099236641,16.15267175572519,25.862595419847327,-10.172962854003906,0.258573779296875,0.622492431640625,64.82442748091603,-21.893129770992367,9.221374045801527,0.0
11.230000257492065,-9.634267480468749,-2.0350714111328125,6.2009822998046875,2.4580152671755724,23.541984732824428,29.328244274809162,-11.2240173828125,-0.7996633544921875,1.5466542724609373,43.099236641221374,-14.82442748091603,13.435114503816793,0.0
11.240000486373901,-11.844115612792969,-1.0510545288085937,3.5098996337890624,-5.022900763358779,28.229007633587788,13.84732824427481,-10.340556970214843,-0.2825157958984375,0.5961562133789062,41.87786259541985,-19.64885496183206,16.259541984732824,0.0
11.250000238418579,-12.176909643554687,0.7350199096679687,1.0414777221679687,6.259541984732825,41.603053435114504,14.65648854961832,-9.318232861328125,3.1507693847656246,0.34715924072265625,14.748091603053435,-14.67175572519084,16.65648854961832,0.0
11.260000467300415,-11.482591162109374,1.889025109863281,2.91134921875,4.9465648854961835,55.41984732824427,21.068702290076335,-8.645462194824217,2.346317626953125,0.05985504150390625,-20.061068702290076,1.8015267175572518,18.916030534351144,0.0
11.27000093460083,-6.133944653320312,-3.1411925781249996,5.7891796142578125,26.977099236641223,58.44274809160305,30.778625954198475,-11.204863769531249,-1.8291700683593748,1.5322890624999999,-10.366412213740459,10.045801526717558,23.14503816793893,0.0
11.280000686645508,-2.480392919921875,-6.198588098144531,4.297591979980469,74.13740458015268,75.05343511450381,30.748091603053435,-10.544064111328124,-0.12689268798828124,1.4006079711914061,-6.1679389312977095,4.977099236641221,18.9618320610687,0.0
11.290000915527344,-5.044582897949218,-1.879448303222656,2.8227637573242186,85.32824427480917,82.29007633587786,14.778625954198473,-11.427524523925781,-0.6943184814453125,0.8906430175781249,-2.6564885496183206,5.312977099236641,15.511450381679388,0.0
11.300000667572021,-7.003039855957031,0.6200982299804687,3.9983167724609374,70.0,76.99236641221374,0.030534351145038167,-13.225569970703123,-1.2018892333984375,0.49320554199218747,3.435114503816794,3.480916030534351,13.98473282442748,0.0
11.310000658035278,-9.64623848876953,1.5322890624999999,4.69263525390625,61.61832061068702,73.40458015267176,-5.175572519083969,-14.008473913574218,-0.584185205078125,-0.5410895751953124,4.854961832061068,-1.786259541984733,10.732824427480915,0.0
11.320000648498535,-9.974244116210937,0.9074024291992187,3.77326181640625,42.274809160305345,62.213740458015266,-8.427480916030534,-15.148113903808593,0.41898529052734373,-1.4939818359375,6.656488549618321,-3.877862595419847,7.6183206106870225,0.0
11.330000400543213,-10.366893188476562,1.3072341064453123,4.256890551757812,33.51145038167939,63.20610687022901,-9.770992366412214,-14.693215588378905,1.419761584472656,-1.5490484741210937,6.824427480916031,-6.595419847328245,7.801526717557252,0.0
11.34000039100647,-9.689334118652344,0.12689268798828124,3.706224169921875,24.83969465648855,56.76335877862596,-10.992366412213741,-14.183250634765624,1.8100164550781248,-1.5370774658203123,8.625954198473282,-7.1603053435114505,8.13740458015267,0.0
11.350000619888306,-9.974244116210937,0.5267243652343749,2.9759926635742184,36.778625954198475,64.80916030534351,-10.778625954198473,-13.172897534179686,2.231395947265625,-0.6488286499023437,10.67175572519084,-6.549618320610687,10.50381679389313,0.0
11.360000610351562,-10.220846887207031,1.7956512451171873,2.9041666137695312,32.76335877862596,63.63358778625954,-16.519083969465647,-12.562376110839843,2.461239306640625,-0.17477672119140625,10.488549618320612,-5.816793893129771,11.267175572519085,0.0
11.37000060081482,-8.32463917236328,-0.6584054565429687,1.6903063720703124,30.12213740458015,59.45038167938932,-17.114503816793892,-12.054805358886718,2.741360900878906,0.3495534423828125,7.66412213740458,-6.351145038167939,12.259541984732824,0.0
11.380000352859497,-6.766013891601562,-3.375824340820312,0.03591302490234375,54.29007633587786,69.92366412213741,-15.435114503816793,-11.59990704345703,2.808398547363281,0.6607996582031249,2.2442748091603053,-7.099236641221374,13.648854961832061,0.0
11.390000343322754,-8.700528833007812,-0.7685387329101562,0.9265560424804687,74.16793893129771,84.53435114503817,-21.435114503816795,-11.183315954589844,2.8706477905273435,0.8954314208984374,-3.2213740458015265,-8.488549618320612,14.641221374045802,0.0
11.40000033378601,-10.637437976074217,3.2704794677734372,1.4221557861328125,70.1526717557252,88.29007633587786,-28.50381679389313,-11.113884106445312,2.7844565307617186,0.8212111694335937,-8.396946564885496,-12.625954198473282,15.969465648854962,0.0
11.410000562667847,-9.991003527832031,3.0166940917968748,0.4333505004882812,56.458015267175576,86.03053435114504,-28.549618320610687,-11.348515869140625,2.858676782226562,0.8451531860351562,-15.877862595419847,-16.885496183206108,16.946564885496183,0.0
11.420000553131104,-9.809044201660155,2.913743420410156,0.22505495605468748,59.20610687022901,92.6412213740458,-24.65648854961832,-10.500968481445312,3.6152445068359373,0.8259995727539062,-29.755725190839694,-21.328244274809162,18.610687022900763,0.0
11.430000305175781,-11.018116040039061,4.6830584472656245,1.3000515014648437,53.404580152671755,97.25190839694656,-26.442748091603054,-10.029310754394531,4.058171813964844,0.928950244140625,-41.29770992366412,-24.045801526717558,19.893129770992367,0.0
11.440000772476196,-11.544840405273437,5.568913061523437,1.3407529296874998,28.412213740458014,90.74809160305344,-28.732824427480917,-10.077194787597655,4.015076184082031,0.9528922607421875,-53.23664122137404,-26.671755725190838,22.442748091603054,0.0
11.450000524520874,-8.949525805664061,2.664746447753906,0.7326257080078125,15.541984732824428,85.93893129770993,-23.068702290076335,-9.955090502929687,2.061407629394531,1.24498486328125,-63.31297709923664,-29.17557251908397,24.732824427480917,0.0
11.460000276565552,-9.248801013183593,2.0733786376953125,0.8858546142578124,17.114503816793892,88.91603053435115,-22.106870229007633,-9.141061938476563,0.01915361328125,1.3192051147460937,-57.954198473282446,-37.55725190839695,23.51145038167939,0.0
11.470000505447388,-9.698910925292969,2.7078420776367187,1.5179238525390624,11.450381679389313,88.13740458015268,-24.061068702290076,-10.251971508789062,-0.9026140258789062,1.5658078857421873,-42.732824427480914,-47.282442748091604,22.27480916030534,0.0
11.480000495910645,-9.188945971679686,2.9568390502929685,1.3551181396484375,2.0916030534351147,86.80916030534351,-24.213740458015266,-10.17056865234375,-0.8834604125976562,2.147598889160156,-30.290076335877863,-56.79389312977099,19.83206106870229,0.0
11.490000486373901,-9.129090930175781,2.913743420410156,1.2761094848632812,-7.770992366412214,85.83206106870229,-24.610687022900763,-8.427589843749999,0.7110778930664062,-1.5322890624999999,-25.633587786259543,-71.40458015267176,14.106870229007633,0.0
11.500000476837158,-9.763554370117188,3.9264907226562498,1.5514426757812498,-21.251908396946565,82.33587786259542,-25.17557251908397,-9.600748657226562,0.011971008300781249,0.41419688720703124,-28.900763358778626,-62.274809160305345,15.98473282442748,0.0
11.510000944137573,-14.8248966796875,13.47696114501953,5.121197351074218,-64.76335877862596,76.53435114503817,-30.27480916030534,-10.122684619140625,-0.36152445068359373,-0.7709329345703124,-14.916030534351146,-68.27480916030534,16.519083969465647,0.0
11.520000696182251,-11.719617126464843,7.690175732421874,2.73896669921875,-135.2824427480916,40.274809160305345,-24.82442748091603,-9.176974963378905,3.1076737548828124,-1.9608511596679685,-25.801526717557252,-66.51908396946565,12.244274809160306,0.0
11.530000686645508,-9.0021982421875,0.7206546997070312,1.4700398193359374,-108.70229007633588,45.7557251908397,-4.625954198473282,-8.470685473632813,0.5339069702148437,-1.388636962890625,-38.916030534351144,-52.51908396946565,13.801526717557252,0.0
11.540000438690186,-9.016563452148437,-0.17477672119140625,1.7453730102539062,-95.09923664122137,43.770992366412216,-6.2748091603053435,-10.283096130371094,-1.9201497314453124,-0.5889736083984375,-17.404580152671755,-50.70229007633588,11.419847328244275,0.0
11.5500009059906,-10.520122094726561,1.3072341064453123,1.5634136840820312,-88.91603053435115,40.6412213740458,-7.7251908396946565,-8.59278975830078,0.4908113403320312,-1.139639990234375,-9.541984732824428,-53.52671755725191,7.1603053435114505,0.0
11.560000658035278,-10.309432348632813,1.2593500732421874,2.24097275390625,-79.34351145038168,38.458015267175576,-0.7480916030534351,-7.467514978027343,1.7094599853515624,-0.6751648681640625,-18.290076335877863,-41.05343511450382,5.129770992366412,0.0
11.570000648498535,-9.667786303710937,1.1755530151367186,2.2385785522460937,-73.1145038167939,37.725190839694655,1.5419847328244274,-7.977479931640625,-0.718260498046875,-0.17956512451171874,-10.885496183206106,-36.19847328244275,5.4961832061068705,0.0
11.580000638961792,-8.966285217285156,-1.7501614135742187,1.1061211669921875,-58.85496183206107,35.43511450381679,3.7099236641221376,-7.9104422851562495,-1.2976572998046874,-0.5363011718749999,4.366412213740458,-39.87786259541985,2.2442748091603053,0.0
11.590000629425049,-10.290278735351562,0.6344634399414062,3.2130186279296873,-29.480916030534353,45.66412213740458,1.1908396946564885,-8.738836059570312,-1.2234370483398436,0.7206546997070312,18.045801526717558,-39.038167938931295,-1.1450381679389312,0.0
11.600000619888306,-13.201627954101562,5.03740029296875,4.242525341796875,-46.74809160305343,40.36641221374046,-5.679389312977099,-7.484274389648437,1.7836802368164062,-0.1580173095703125,13.450381679389313,-38.229007633587784,-6.9465648854961835,0.0
11.610000610351562,-10.424354028320312,2.118868469238281,1.9009961181640624,-59.541984732824424,28.12213740458015,0.44274809160305345,-6.265625744628906,2.327164013671875,-1.350329736328125,-6.824427480916031,-32.213740458015266,-9.236641221374045,0.0
11.62000036239624,-11.305420239257812,3.0621839233398433,2.913743420410156,-61.725190839694655,24.717557251908396,3.0839694656488548,-8.022969763183593,0.41898529052734373,-0.488417138671875,-11.801526717557252,-21.00763358778626,-5.557251908396947,0.0
11.630000591278076,-9.617508068847656,0.16280571289062498,2.0566192260742184,-54.29007633587786,22.580152671755727,5.862595419847328,-8.28633194580078,-0.09816226806640624,0.06943184814453125,-3.7404580152671754,-18.748091603053435,-5.419847328244275,0.0
11.640000820159912,-10.443507641601562,0.7158662963867187,1.7669208251953124,-43.14503816793893,21.450381679389313,5.786259541984733,-9.9215716796875,-0.7924807495117187,0.3112462158203125,11.740458015267176,-18.65648854961832,-6.854961832061068,0.0
11.65000057220459,-9.576806640625,-0.9576806640625,1.0271125122070313,-31.740458015267176,19.389312977099237,7.190839694656488,-9.193734375,-1.2401964599609374,1.216254443359375,26.53435114503817,-24.549618320610687,-11.114503816793894,0.0
11.660000562667847,-8.63109698486328,-3.1962592163085937,0.0,-11.267175572519085,22.442748091603054,8.13740458015267,-9.727641345214844,-1.6136919189453125,1.0965443603515623,41.61832061068702,-32.0763358778626,-13.450381679389313,0.0
11.670000553131104,-8.281543542480469,-2.1356278808593747,-0.16759411621093748,5.541984732824427,28.610687022900763,1.8931297709923665,-7.972691528320312,0.7805097412109374,0.03591302490234375,42.97709923664122,-39.465648854961835,-19.099236641221374,0.0
11.68000078201294,-9.291896643066405,1.01514150390625,1.1133037719726562,0.6564885496183206,31.633587786259543,-4.931297709923665,-7.824251025390624,3.0693665283203124,0.08379705810546874,24.48854961832061,-31.358778625954198,-21.068702290076335,0.0
11.690000534057617,-11.066000073242186,2.27927998046875,2.0470424194335934,-3.5572519083969465,37.38931297709924,-6.290076335877862,-7.905653881835937,1.8124106567382812,0.8571241943359375,10.83969465648855,-21.0381679389313,-17.114503816793892,0.0
11.700000524520874,-10.579977136230468,3.4620156005859375,2.5522189697265625,-22.748091603053435,28.259541984732824,-7.526717557251908,-8.52335791015625,1.3383587280273437,0.689530078125,14.534351145038167,-23.251908396946565,-14.961832061068701,0.0
11.71000051498413,-11.080365283203124,0.689530078125,1.6998831787109374,-18.748091603053435,24.27480916030534,-3.83206106870229,-9.871293444824218,-0.3327940307617187,2.205059729003906,22.519083969465647,-22.68702290076336,-14.442748091603054,0.0
11.720000505447388,-8.55448253173828,-0.9097966308593749,0.689530078125,-6.549618320610687,21.51145038167939,-2.9160305343511452,-11.149797131347656,-0.565031591796875,2.932897033691406,39.3587786259542,-28.27480916030534,-16.427480916030536,0.0
11.730000495910645,-10.71884083251953,-0.3112462158203125,0.9696516723632812,1.0076335877862594,25.404580152671755,-6.0458015267175576,-9.052476477050782,1.8914193115234375,1.0271125122070313,39.3587786259542,-37.7557251908397,-21.603053435114504,0.0
11.740000486373901,-9.950302099609374,1.1420341918945311,1.2641384765625,4.763358778625954,25.740458015267176,-6.732824427480916,-8.058882788085937,3.718195178222656,0.296881005859375,21.251908396946565,-34.717557251908396,-22.38167938931298,0.0
11.750000715255737,-10.733206042480468,2.059013427734375,0.9026140258789062,-2.8091603053435112,24.16793893129771,-6.3816793893129775,-8.259995727539062,1.9033903198242186,1.6711527587890624,10.427480916030534,-25.34351145038168,-16.80916030534351,0.0
11.760000705718994,-8.8489693359375,1.1468225952148436,0.6919242797851562,-4.656488549618321,21.51145038167939,-5.022900763358779,-10.137049829101562,1.216254443359375,3.268085266113281,14.793893129770993,-23.267175572519083,-11.801526717557252,0.0
11.770000457763672,-11.133037719726563,1.8028338500976562,0.9074024291992187,-6.519083969465649,21.755725190839694,-6.061068702290076,-10.390835205078124,0.5698199951171875,3.4668040039062498,24.458015267175572,-29.34351145038168,-11.450381679389313,0.0
11.780000686645508,-11.018116040039061,1.9776105712890624,0.8499415893554687,-9.297709923664122,16.99236641221374,-5.816793893129771,-10.228029492187499,0.0526724365234375,3.0430303100585934,32.0763358778626,-39.282442748091604,-13.129770992366412,0.0
11.790000915527344,-10.819397302246093,2.896984008789062,1.455674609375,-13.526717557251908,17.236641221374047,-6.33587786259542,-8.537723120117187,2.8012159423828122,1.4772224243164063,19.69465648854962,-44.80916030534351,-17.770992366412212,0.0
11.800000667572021,-9.943119494628906,1.8507178833007811,0.967257470703125,-24.793893129770993,12.229007633587786,-3.2977099236641223,-8.690952026367187,1.9680337646484374,2.1547814941406247,-1.7251908396946565,-34.36641221374046,-15.312977099236642,0.0
11.810000658035278,-9.662997900390625,1.6041151123046875,1.235408056640625,-22.610687022900763,13.083969465648854,-1.8625954198473282,-10.172962854003906,0.6607996582031249,2.858676782226562,3.5419847328244276,-33.847328244274806,-10.442748091603054,0.0
11.820000410079956,-9.789890588378906,1.2497732666015624,0.9888052856445312,-21.81679389312977,10.916030534351146,-2.519083969465649,-10.014945544433592,1.3479355346679687,2.454056701660156,8.50381679389313,-42.42748091603053,-12.244274809160306,0.0
11.830000400543213,-9.437942944335937,1.1923124267578125,0.8475473876953125,-16.27480916030534,11.938931297709924,-1.282442748091603,-8.068459594726562,3.342305517578125,1.1923124267578125,-3.49618320610687,-44.88549618320611,-15.923664122137405,0.0
11.840000629425049,-9.732429748535155,1.8028338500976562,0.9888052856445312,-19.16030534351145,12.183206106870228,-0.5038167938931297,-8.197746484375,3.1459809814453124,0.8810662109374999,-22.580152671755727,-34.99236641221374,-14.961832061068701,0.0
11.850000619888306,-9.634267480468749,1.6831237670898436,1.0989385620117187,-22.65648854961832,11.419847328244275,-0.1984732824427481,-8.769960681152343,0.8930372192382812,1.3359645263671873,-25.0381679389313,-31.236641221374047,-9.98473282442748,0.0
11.860000371932983,-9.660603698730467,1.0438719238281249,0.8044517578125,-24.3206106870229,9.007633587786259,-1.0229007633587786,-10.453084448242187,0.12210428466796874,2.0757728393554684,-14.732824427480915,-31.022900763358777,-8.458015267175572,0.0
11.87000036239624,-10.038887561035155,0.6200982299804687,0.6943184814453125,-19.068702290076335,9.770992366412214,-0.9923664122137404,-10.192116467285155,0.63206923828125,2.109291662597656,-6.702290076335878,-34.42748091603053,-9.694656488549619,0.0
11.880000591278076,-9.581595043945311,0.5434837768554687,0.44053310546874996,-16.076335877862597,10.83969465648855,-2.33587786259542,-8.894459167480468,1.6328455322265625,1.7717092285156248,-11.17557251908397,-33.770992366412216,-12.458015267175572,0.0
11.890000581741333,-9.82580361328125,1.218648645019531,0.5123591552734374,-18.35114503816794,11.893129770992367,-2.9160305343511452,-6.677428430175781,2.798821740722656,0.8667010009765624,-27.755725190839694,-28.045801526717558,-13.389312977099237,0.0
11.900000810623169,-9.629479077148437,1.7118541870117185,0.5027823486328125,-21.6793893129771,12.183206106870228,-2.9618320610687023,-7.544129431152343,2.597708801269531,0.3327940307617187,-35.786259541984734,-20.091603053435115,-10.51908396946565,0.0
11.910000562667847,-9.694122521972655,1.886630908203125,0.4429273071289062,-25.083969465648856,12.030534351145038,-2.7938931297709924,-9.026140258789061,1.0390835205078124,1.35990654296875,-38.152671755725194,-10.091603053435115,-6.564885496183206,0.0
11.920000791549683,-9.658209497070311,1.6352397338867186,0.41419688720703124,-28.198473282442748,11.32824427480916,-2.16793893129771,-8.109161022949218,1.5442600708007812,1.2210428466796874,-37.343511450381676,-8.67175572519084,-7.694656488549619,0.0
11.93000054359436,-9.560047229003906,0.852335791015625,0.40222587890625,-22.68702290076336,12.458015267175572,-0.4122137404580153,-8.846575134277343,0.37828386230468747,1.4173673828125,-29.96946564885496,-5.740458015267175,-6.625954198473282,0.0
11.940000772476196,-9.624690673828125,0.6081272216796875,0.7661445312499999,-22.30534351145038,12.900763358778626,-3.053435114503817,-8.616731774902343,0.63206923828125,1.7118541870117185,-28.38167938931298,-2.213740458015267,-7.175572519083969,0.0
11.950000524520874,-9.212887988281249,-0.8834604125976562,0.5817910034179687,-15.526717557251908,12.931297709923664,-3.267175572519084,-8.585607153320312,0.3136404174804687,1.467645617675781,-23.0381679389313,-0.8702290076335878,-7.343511450381679,0.0
11.96000051498413,-9.835380419921874,-0.3280056274414062,0.9097966308593749,1.0687022900763359,20.82442748091603,-6.152671755725191,-8.480262280273436,0.17477672119140625,1.8698714965820311,-21.236641221374047,2.717557251908397,-7.511450381679389,0.0
11.970000505447388,-10.532093103027343,0.39264907226562495,1.0366893188476562,0.04580152671755725,18.0,-10.13740458015267,-8.44674345703125,0.1292868896484375,1.6998831787109374,-15.709923664122137,3.954198473282443,-7.526717557251908,0.0
11.980000495910645,-8.971073620605468,-0.16041151123046873,0.6751648681640625,6.687022900763359,16.076335877862597,-10.381679389312977,-8.645462194824217,-0.062249243164062495,1.867477294921875,-11.633587786259541,5.923664122137405,-6.809160305343512,0.0
11.990000486373901,-8.877699755859375,0.4644751220703125,1.3144167114257812,10.51908396946565,19.755725190839694,-11.954198473282442,-8.84178673095703,-0.55545478515625,2.0733786376953125,-8.625954198473282,7.770992366412214,-7.816793893129771,0.0
12.000000476837158,-11.59990704345703,3.0071172851562498,1.8650830932617186,4.33587786259542,18.15267175572519,-14.076335877862595,-8.834604125976561,-0.7517793212890624,2.123656872558594,-4.793893129770993,8.625954198473282,-9.251908396946565,0.0
12.010000944137573,-11.439495532226562,3.825934252929687,1.9991583862304687,-5.4961832061068705,14.50381679389313,-13.618320610687023,-9.0788126953125,-1.1635820068359375,2.1356278808593747,0.2900763358778626,9.603053435114504,-10.0,0.0
12.020000696182251,-10.17056865234375,2.291250988769531,1.2234370483398436,-13.786259541984732,9.450381679389313,-11.145038167938932,-8.537723120117187,-0.7254431030273437,1.9488801513671874,1.984732824427481,10.122137404580153,-12.488549618320612,0.0
12.030000925064087,-8.846575134277343,0.09337386474609374,0.6919242797851562,-6.748091603053435,10.274809160305344,-8.778625954198473,-8.743624462890624,-1.1827356201171875,2.2553379638671873,3.9389312977099236,12.183206106870228,-13.923664122137405,0.0
12.040000438690186,-10.295067138671874,2.7533319091796873,1.7334020019531249,-10.274809160305344,12.061068702290076,-12.67175572519084,-8.700528833007812,-1.197100830078125,2.2170307373046874,8.854961832061068,12.320610687022901,-16.946564885496183,0.0
12.050000667572021,-10.120290417480469,2.0159177978515626,1.2593500732421874,-20.702290076335878,6.870229007633588,-11.98473282442748,-8.698134631347656,-1.3335703247070312,2.3822306518554686,12.198473282442748,12.717557251908397,-18.9618320610687,0.0
12.0600004196167,-9.610325463867188,1.4413093994140624,1.5849614990234373,-20.580152671755727,6.33587786259542,-10.13740458015267,-8.322244970703125,-0.34237083740234375,2.1308394775390624,10.244274809160306,11.633587786259541,-21.480916030534353,0.0
12.070000648498535,-9.842563024902343,1.4245499877929686,1.9656395629882812,-20.68702290076336,4.748091603053435,-10.610687022900763,-7.996633544921875,0.21308394775390624,1.5466542724609373,-0.6564885496183206,19.633587786259543,-22.091603053435115,0.0
12.080000638961792,-9.306261853027344,-0.7110778930664062,1.5729904907226562,-16.82442748091603,1.9541984732824427,-9.664122137404581,-7.302315063476562,-1.3551181396484375,1.4221557861328125,4.488549618320611,23.31297709923664,-20.244274809160306,0.0
12.090000629425049,-9.095572106933593,-1.4125789794921875,1.5514426757812498,1.251908396946565,3.0839694656488548,-12.045801526717558,-7.601590270996093,-1.6472107421875,1.3575123413085937,19.358778625954198,25.557251908396946,-19.81679389312977,0.0
12.100000619888306,-8.748412866210938,-0.9576806640625,1.7597382202148437,4.8396946564885495,-0.2748091603053435,-15.86259541984733,-7.584830859375,-1.3670891479492187,0.21308394775390624,35.083969465648856,23.129770992366414,-21.267175572519083,0.0
12.110000610351562,-8.980650427246093,-0.584185205078125,2.6886884643554687,8.320610687022901,-2.2748091603053435,-17.14503816793893,-7.44357296142578,-0.5339069702148437,0.28490999755859375,33.6793893129771,31.893129770992367,-21.69465648854962,0.0
12.12000036239624,-10.87925234375,1.3646949462890625,3.8474820678710935,-5.6183206106870225,-11.938931297709924,-18.137404580152673,-8.444349255371094,0.5793968017578125,1.5203180541992187,35.541984732824424,36.595419847328245,-21.72519083969466,0.0
12.130000352859497,-9.588777648925781,-0.9624690673828125,3.4907460205078125,1.3129770992366412,-20.519083969465647,-15.48091603053435,-8.475473876953124,0.8714894042968749,1.659181750488281,24.9618320610687,37.63358778625954,-22.625954198473284,0.0
12.140000820159912,-9.756371765136718,-0.49320554199218747,4.656722229003906,14.488549618320612,-22.85496183206107,-16.015267175572518,-8.305485559082031,2.626439221191406,0.9193734375,15.557251908396946,43.908396946564885,-22.137404580152673,0.0
12.15000057220459,-10.261548315429687,0.258573779296875,5.049371301269531,17.908396946564885,-31.389312977099237,-17.64885496183206,-8.93755479736328,3.162740393066406,0.7613561279296874,4.778625954198473,58.06106870229008,-15.099236641221374,0.0
12.160000562667847,-10.893617553710937,-0.6703764648437499,5.487510205078125,25.206106870229007,-41.770992366412216,-15.877862595419847,-11.633425866699218,1.2569558715820313,2.1643583007812497,12.076335877862595,60.61068702290076,-7.908396946564886,0.0
12.170000553131104,-12.801796276855468,0.8714894042968749,7.053318090820312,28.137404580152673,-56.0,-18.15267175572519,-12.440271826171875,2.925714428710937,2.588131994628906,9.816793893129772,56.68702290076336,-12.229007633587786,0.0
12.18000078201294,-12.904746948242186,1.5275006591796874,8.104372619628906,26.213740458015266,-76.56488549618321,-15.603053435114504,-14.07790576171875,1.3551181396484375,4.666299035644531,-12.0,64.06106870229007,-13.908396946564885,0.0
12.190000295639038,-13.953407275390624,1.2856862915039062,9.047688073730468,19.954198473282442,-100.03053435114504,-12.50381679389313,-14.942212561035156,-1.6232687255859375,5.0206408813476555,-7.114503816793893,53.43511450381679,-12.946564885496183,0.0
12.200000286102295,-15.105018273925781,2.1356278808593747,9.639055883789062,28.50381679389313,-120.4885496183206,-8.80916030534351,-12.179303845214843,-0.737414111328125,4.062960217285156,-6.656488549618321,43.25190839694657,-11.206106870229007,0.0
12.21000051498413,-16.800113049316405,1.4149731811523436,9.665392102050781,33.587786259541986,-144.1679389312977,0.5954198473282443,-10.417171423339843,-1.2138602416992186,3.172317199707031,5.312977099236641,33.099236641221374,-5.450381679389313,0.0
12.220000505447388,-17.846379174804685,-0.13407529296874998,9.052476477050782,38.50381679389313,-163.26717557251908,6.8396946564885495,-8.99501563720703,-1.3096283081054687,2.85388837890625,14.320610687022901,25.083969465648856,-0.24427480916030533,0.0
12.230000495910645,-18.018761694335936,-1.6735469604492186,7.620743884277343,43.66412213740458,-181.98473282442748,11.267175572519085,-9.79946739501953,-1.5083470458984374,3.071760729980469,29.328244274809162,19.49618320610687,1.9389312977099236,0.0
12.240000486373901,-17.853561779785156,-1.927332336425781,5.102043737792968,47.63358778625954,-194.91603053435114,12.274809160305344,-8.882488159179687,0.4860229370117187,1.7860744384765623,21.69465648854962,20.564885496183205,0.6259541984732825,0.0
12.250000476837158,-18.18875001220703,-1.886630908203125,3.603273498535156,41.80152671755725,-203.7709923664122,13.801526717557252,-7.568071447753906,-0.19871873779296872,0.8212111694335937,8.549618320610687,23.480916030534353,1.2366412213740459,0.0
12.260000705718994,-16.728286999511717,-2.473210314941406,2.4899697265625,46.152671755725194,-208.38167938931298,17.022900763358777,-8.499415893554687,-2.0733786376953125,1.7645266235351562,5.786259541984733,29.72519083969466,3.6030534351145036,0.0
12.27000093460083,-14.161702819824217,-3.265691064453125,0.8595183959960937,56.85496183206107,-208.10687022900763,19.587786259541986,-8.418013037109375,-3.323151904296875,0.8283937744140625,8.244274809160306,26.732824427480917,0.6717557251908397,0.0
12.280000925064087,-12.344503759765624,-3.4620156005859375,-0.28490999755859375,63.89312977099237,-200.29007633587787,17.908396946564885,-10.539275708007812,-4.936843823242187,1.8435352783203125,22.702290076335878,27.709923664122137,-1.9236641221374047,0.0
12.290000915527344,-10.395623608398436,-3.5314474487304683,-1.7118541870117185,66.44274809160305,-190.82442748091603,15.923664122137405,-10.022128149414062,-4.113238452148437,1.6424223388671875,29.587786259541986,22.564885496183205,-8.213740458015268,0.0
12.300000667572021,-8.856151940917968,-3.0047230834960934,-2.7246014892578123,64.04580152671755,-177.29770992366412,13.954198473282442,-9.165003955078124,-2.1404162841796874,0.9097966308593749,31.740458015267176,18.564885496183205,-12.473282442748092,0.0
12.310000658035278,-8.21690009765625,-1.4891934326171874,-1.9297265380859374,55.221374045801525,-159.75572519083968,9.48091603053435,-11.279084020996093,1.4508862060546874,1.3646949462890625,9.770992366412214,35.20610687022901,-10.381679389312977,0.0
12.320000648498535,-6.629544396972656,-0.23702596435546874,-1.9297265380859374,38.44274809160305,-149.72519083969465,7.114503816793893,-5.600037683105469,4.537012145996093,-0.9983820922851562,-31.740458015267176,40.01526717557252,-7.236641221374046,0.0
12.330000638961792,-6.5577183471679685,-0.8451531860351562,-0.8020575561523438,31.801526717557252,-131.64885496183206,5.877862595419847,-9.485826977539062,1.7501614135742187,-0.07900865478515624,-52.534351145038165,49.6793893129771,4.33587786259542,0.0
12.34000039100647,-6.7085530517578125,-1.6112977172851561,0.9337386474609375,34.85496183206107,-116.12213740458016,5.358778625954199,-12.61504854736328,-1.9823989746093749,1.8602946899414061,-52.030534351145036,53.908396946564885,10.65648854961832,0.0
12.350000619888306,-6.737283471679687,-1.5394716674804687,1.5131354492187499,48.06106870229008,-102.33587786259542,4.015267175572519,-11.044452258300781,-3.1268273681640624,0.5458779785156249,-33.908396946564885,37.19083969465649,6.229007633587786,0.0
12.360000610351562,-7.180210778808593,-1.1324573852539062,2.808398547363281,59.89312977099237,-87.46564885496183,1.0381679389312977,-7.692569934082031,1.6304513305664061,-2.0254946044921875,-49.770992366412216,35.93893129770992,-0.7022900763358778,0.0
12.37000060081482,-9.574412438964844,2.674323254394531,4.88417138671875,48.229007633587784,-82.59541984732824,-3.8625954198473282,-9.481038574218749,-1.5083470458984374,-1.1228805786132812,-60.74809160305343,45.3587786259542,4.183206106870229,0.0
12.380000591278076,-8.161833459472655,1.915361328125,4.412513659667969,30.763358778625953,-84.27480916030534,-0.9923664122137404,-5.652710119628906,0.8451531860351562,-3.6104561035156246,-66.56488549618321,41.11450381679389,4.106870229007634,0.0
12.390000581741333,-9.330203869628905,3.9911341674804683,4.740519287109374,24.3206106870229,-80.04580152671755,2.687022900763359,-6.442796667480469,3.1651345947265623,-4.505887524414062,-103.81679389312977,61.969465648854964,4.33587786259542,0.0
12.400000810623169,-9.81862100830078,3.9743747558593747,3.825934252929687,1.1603053435114503,-83.0381679389313,6.442748091603053,-10.70686982421875,-2.559401574707031,-0.603338818359375,-76.6412213740458,64.51908396946565,13.816793893129772,0.0
12.410000562667847,-7.747636572265624,0.7493851196289062,2.3367408203125,-5.923664122137405,-83.1145038167939,11.221374045801527,-10.675745202636719,-5.406107348632812,0.6655880615234374,-44.595419847328245,58.10687022900763,17.31297709923664,0.0
12.420000791549683,-6.983886242675781,-1.66636435546875,1.419761584472656,3.5572519083969465,-75.58778625954199,14.13740458015267,-10.220846887207031,-3.603273498535156,-0.373495458984375,-15.633587786259541,46.61068702290076,11.618320610687023,0.0
12.43000054359436,-6.265625744628906,-2.262520568847656,1.917755529785156,6.656488549618321,-66.41221374045801,10.763358778625955,-11.020510241699219,-4.3263223999023435,0.38307226562499996,-7.465648854961832,50.12213740458015,10.748091603053435,0.0
12.440000772476196,-5.1690813842773435,-2.6503812377929687,1.438915197753906,10.488549618320612,-60.412213740458014,7.557251908396947,-12.045228552246092,-5.8083332275390624,1.2689268798828124,25.984732824427482,42.85496183206107,11.969465648854962,0.0
12.450000524520874,-4.000710974121094,-2.5522189697265625,1.43652099609375,20.396946564885496,-49.099236641221374,4.122137404580153,-10.386046801757812,-2.959233251953125,0.4261678955078125,41.6793893129771,33.541984732824424,10.961832061068701,0.0
12.46000051498413,-4.429273071289062,0.0526724365234375,1.7932570434570312,18.427480916030536,-39.9236641221374,-2.045801526717557,-9.811438403320311,-0.584185205078125,-0.4285620971679687,37.89312977099237,32.18320610687023,8.82442748091603,0.0
12.470000267028809,-4.333505004882812,0.2920926025390625,1.8435352783203125,9.893129770992367,-31.72519083969466,-5.511450381679389,-9.830592016601562,-0.3280056274414062,-0.6392518432617187,33.25190839694657,32.62595419847328,10.610687022900763,0.0
12.480000257492065,-4.13718046875,0.9002198242187499,2.4109610717773435,8.717557251908397,-20.916030534351144,-6.5038167938931295,-9.878476049804688,-0.21308394775390624,-0.0383072265625,30.977099236641223,33.7557251908397,12.702290076335878,0.0
12.490000486373901,-3.708618371582031,0.469263525390625,2.940079638671875,7.022900763358779,-11.725190839694656,-7.114503816793893,-9.859322436523437,-0.16280571289062498,0.12449848632812499,28.625954198473284,34.47328244274809,14.335877862595419,0.0
12.500000476837158,-3.450044592285156,0.8858546142578124,3.39018955078125,2.885496183206107,-3.3435114503816794,-8.396946564885496,-9.727641345214844,-0.4477157104492187,0.06464344482421874,25.862595419847327,35.66412213740458,15.877862595419847,0.0
12.510000467300415,-3.9049429077148434,0.8188169677734375,4.290409374999999,-0.7938931297709924,2.946564885496183,-8.549618320610687,-10.819397302246093,-0.8044517578125,0.55545478515625,27.206106870229007,36.79389312977099,18.229007633587788,0.0
12.520000696182251,-2.6623522460937497,0.2753331909179687,4.328716601562499,12.702290076335878,14.595419847328245,-2.9160305343511452,-9.543287817382812,-0.74699091796875,0.0,24.580152671755727,35.541984732824424,18.564885496183205,0.0
12.530000686645508,-4.266467358398438,2.693476867675781,5.597643481445312,0.9312977099236641,17.740458015267176,-4.763358778625954,-9.342174877929686,-1.388636962890625,0.8068459594726562,26.229007633587788,37.00763358778626,19.099236641221374,0.0
12.540000677108765,-4.582501977539062,4.067748620605468,6.323086584472656,1.5419847328244274,23.786259541984734,1.2671755725190839,-11.654973681640625,-2.8203695556640622,2.398990063476562,33.98473282442748,39.49618320610687,23.19083969465649,0.0
12.5500009059906,-3.9887399658203124,4.2521021484374995,5.336675500488281,-5.648854961832061,25.328244274809162,6.137404580152672,-10.168174450683592,-1.4772224243164063,0.8690952026367187,43.63358778625954,32.25954198473283,20.82442748091603,0.0
12.560000658035278,-3.3638533325195312,4.762067102050781,4.031835595703125,-12.030534351145038,29.954198473282442,11.114503816793894,-9.205705383300781,0.05985504150390625,0.86191259765625,26.732824427480917,38.229007633587784,18.931297709923665,0.0
12.570000648498535,-3.153163586425781,4.876988781738281,2.5474305664062498,-27.908396946564885,35.954198473282446,15.450381679389313,-9.890447058105469,-0.8882488159179687,0.8954314208984374,29.114503816793892,36.961832061068705,21.00763358778626,0.0
12.580000638961792,-1.659181750488281,2.645592834472656,0.39264907226562495,-35.45038167938932,44.916030534351144,17.923664122137403,-10.189722265624999,-1.2689268798828124,0.5698199951171875,32.62595419847328,35.93893129770992,24.0,0.0
12.590000629425049,-7.544129431152343,1.5011644409179687,8.815450512695312,-47.87786259541985,50.396946564885496,17.358778625954198,-10.390835205078124,-0.8571241943359375,0.8283937744140625,30.33587786259542,36.58015267175573,24.946564885496183,0.0
12.600000619888306,-9.258377819824219,-6.2201359130859375,18.71068597412109,-5.541984732824427,39.81679389312977,29.6793893129771,-10.254365710449218,-0.009576806640625,0.09337386474609374,22.35114503816794,35.083969465648856,26.53435114503817,0.0
12.610000371932983,-12.344503759765624,-2.262520568847656,19.251775549316406,52.13740458015267,41.37404580152672,39.25190839694657,-12.758700646972656,-1.8842367065429686,1.0654197387695312,24.35114503816794,35.221374045801525,29.984732824427482,0.0
12.62000060081482,-9.605537060546874,-10.103531005859374,6.093243225097656,95.46564885496183,55.70992366412214,30.27480916030534,-11.784260571289062,-1.3215993164062498,0.8834604125976562,24.916030534351144,32.38167938931298,32.56488549618321,0.0
12.630000591278076,-14.051569543457031,2.379836450195312,0.46686932373046874,92.38167938931298,59.908396946564885,-4.290076335877862,-11.015721838378905,-1.35990654296875,-0.08379705810546874,29.786259541984734,23.61832061068702,30.9618320610687,0.0
12.640000343322754,-12.528857287597656,1.3359645263671873,-0.8475473876953125,64.03053435114504,62.19847328244275,-1.450381679389313,-11.927912670898436,-2.094926452636719,0.7781155395507812,27.69465648854962,24.595419847328245,28.458015267175572,0.0
12.65000057220459,-10.472238061523436,0.430956298828125,4.84586416015625,100.07633587786259,85.96946564885496,10.381679389312977,-9.773131176757811,0.4860229370117187,-0.612915625,16.671755725190838,17.52671755725191,17.801526717557252,0.0
12.660000801086426,-9.87608184814453,5.521029028320312,7.204152795410156,89.63358778625954,80.2442748091603,3.83206106870229,-12.208034265136718,-0.47644613037109373,0.32561142578124996,5.465648854961832,23.572519083969464,11.954198473282442,0.0
12.670000553131104,-9.066841687011719,9.552864624023437,4.438849877929687,33.786259541984734,65.55725190839695,-1.9083969465648856,-13.05558165283203,0.5051765502929687,0.8307879760742187,-3.0839694656488548,20.702290076335878,10.0,0.0
12.68000078201294,-5.980715747070312,6.189011291503906,3.4739866088867184,0.8244274809160306,50.82442748091603,5.709923664122138,-15.720328100585936,0.11252747802734374,1.2785036865234374,-4.061068702290076,13.877862595419847,10.778625954198473,0.0
12.690000772476196,-6.9168485961914055,1.8411410766601561,2.8323405639648436,-7.679389312977099,57.3587786259542,6.931297709923665,-16.46013641357422,-0.2920926025390625,0.3232172241210937,7.374045801526718,-2.732824427480916,9.206106870229007,0.0
12.700000524520874,-2.8802245971679685,-6.742071875,-0.8020575561523438,1.984732824427481,60.916030534351144,4.213740458015267,-17.190367919921876,1.9656395629882812,0.7685387329101562,9.938931297709924,-11.48091603053435,8.885496183206106,0.0
12.71000051498413,-5.7508723876953125,-7.632714892578124,1.2497732666015624,44.44274809160305,88.29007633587786,-4.2748091603053435,-14.563928698730468,1.1563994018554686,0.11731588134765625,5.709923664122138,-22.458015267175572,9.007633587786259,0.0
12.720000505447388,-9.133879333496093,-2.0446482177734375,1.4604630126953124,59.282442748091604,99.54198473282443,-22.091603053435115,-14.015656518554687,0.430956298828125,-0.05746083984375,11.145038167938932,-30.702290076335878,9.022900763358779,0.0
12.730000495910645,-11.643002673339844,2.9831752685546875,2.166752502441406,61.61832061068702,105.37404580152672,-28.045801526717558,-13.747505932617187,0.7685387329101562,0.36391865234375,16.12213740458015,-38.82442748091603,6.213740458015267,0.0
12.740000486373901,-10.127473022460936,3.265691064453125,1.8435352783203125,51.29770992366412,101.12977099236642,-26.549618320610687,-11.9135474609375,3.873818286132812,-0.40222587890625,4.290076335877862,-46.94656488549618,1.1603053435114503,0.0
12.750000476837158,-10.934318981933593,5.513846423339843,1.6998831787109374,41.038167938931295,106.51908396946565,-25.923664122137403,-9.624690673828125,5.2816088623046875,-0.3184288208007812,-22.30534351145038,-44.778625954198475,2.50381679389313,0.0
12.760000705718994,-11.631031665039062,6.770802294921874,2.061407629394531,13.877862595419847,98.3206106870229,-26.65648854961832,-10.73799444580078,2.5163059448242184,1.5322890624999999,-30.99236641221374,-36.67175572519084,9.221374045801527,0.0
12.77000093460083,-11.073182678222656,6.619967590332031,1.4772224243164063,-4.732824427480916,92.38167938931298,-20.33587786259542,-10.967837805175781,0.6009446166992187,1.905784521484375,-24.83969465648855,-41.51145038167939,12.534351145038167,0.0
12.780000448226929,-11.020510241699219,5.430049365234375,1.70467158203125,-17.84732824427481,90.07633587786259,-14.870229007633588,-10.146626635742187,1.6807295654296874,1.4987702392578124,-26.18320610687023,-49.770992366412216,10.51908396946565,0.0
12.790000677108765,-10.235212097167969,5.157110375976562,1.7669208251953124,-34.229007633587784,84.61068702290076,-10.351145038167939,-9.504980590820312,4.1563340820312495,0.7038952880859375,-37.267175572519086,-47.57251908396947,10.854961832061068,0.0
12.800000667572021,-9.916783276367187,4.299986181640625,1.5562310791015623,-48.36641221374046,81.05343511450381,-7.358778625954199,-10.989385620117186,3.897760302734375,1.6735469604492186,-57.61832061068702,-36.38167938931298,13.969465648854962,0.0
12.810000896453857,-9.9215716796875,1.9632453613281249,1.7621324218749999,-54.06106870229008,77.54198473282443,-3.7557251908396947,-10.117896215820313,1.20667763671875,0.9600748657226562,-54.01526717557252,-38.534351145038165,16.213740458015266,0.0
12.820000648498535,-8.872911352539061,2.379836450195312,2.4396914916992185,-45.770992366412216,77.57251908396947,-2.122137404580153,-9.509768994140625,0.9074024291992187,0.7350199096679687,-54.595419847328245,-45.221374045801525,14.335877862595419,0.0
12.830000877380371,-8.564059338378906,0.7972691528320313,2.6192566162109374,-48.33587786259542,71.49618320610686,-1.2061068702290076,-8.061276989746093,3.124433166503906,-0.679953271484375,-54.80916030534351,-48.80916030534351,10.412213740458014,0.0
12.840000629425049,-9.464279162597656,3.4955344238281247,3.9528269409179684,-44.33587786259542,73.32824427480917,-2.3206106870229006,-7.053318090820312,2.863465185546875,-0.7781155395507812,-74.91603053435115,-38.091603053435115,13.297709923664122,0.0
12.850000619888306,-10.175357055664062,2.4851813232421875,4.170699291992188,-59.770992366412216,62.79389312977099,-3.1603053435114505,-8.55448253173828,1.180341418457031,-1.177947216796875,-67.20610687022901,-33.64885496183206,17.450381679389313,0.0
12.860000610351562,-10.500968481445312,1.0295067138671874,3.787627026367187,-53.81679389312977,59.63358778625954,-1.8931297709923665,-9.318232861328125,-2.042254016113281,-0.7398083129882812,-47.038167938931295,-36.44274809160305,21.66412213740458,0.0
12.87000036239624,-7.426813549804687,-1.608903515625,2.8754361938476563,-43.587786259541986,54.93129770992366,-1.5877862595419847,-8.434772448730468,-1.2880804931640624,-0.7924807495117187,-19.52671755725191,-44.82442748091603,18.0,0.0
12.880000591278076,-10.510545288085936,3.421314172363281,5.123591552734375,-42.0763358778626,54.88549618320611,-6.763358778625954,-7.615955480957031,0.9097966308593749,-0.8188169677734375,-18.732824427480917,-42.94656488549618,14.381679389312977,0.0
12.890000581741333,-10.716446630859375,3.4572271972656248,4.218583325195312,-63.12977099236641,41.57251908396947,-5.770992366412214,-4.939238024902344,2.6862942626953124,-2.39420166015625,-34.412213740458014,-38.18320610687023,12.458015267175572,0.0
12.90000033378601,-11.228805786132812,2.094926452636719,3.9695863525390624,-55.038167938931295,42.67175572519084,-1.3740458015267176,-5.786785412597656,1.2282254516601563,-2.789244934082031,-39.86259541984733,-30.061068702290076,16.610687022900763,0.0
12.910000562667847,-8.137891442871092,-0.5674257934570313,3.6200329101562496,-48.68702290076336,32.274809160305345,0.9770992366412213,-6.907271789550781,0.39264907226562495,-1.8531120849609375,-38.19847328244275,-19.419847328244273,20.885496183206108,0.0
12.920000553131104,-10.218452685546874,0.5674257934570313,4.386177441406249,-37.31297709923664,35.11450381679389,0.9618320610687023,-7.5345526245117185,-0.9816226806640624,-1.838746875,-21.87786259541985,-18.30534351145038,20.931297709923665,0.0
12.93000054359436,-10.383652600097655,0.22266075439453123,3.9169139160156248,-27.221374045801525,30.82442748091603,2.7938931297709924,-7.706935144042968,-0.7230489013671875,-1.3383587280273437,-15.877862595419847,-16.82442748091603,17.862595419847327,0.0
12.940000534057617,-10.084377392578125,0.296881005859375,4.687846850585937,-14.473282442748092,31.31297709923664,3.984732824427481,-7.821856823730468,-1.2904746948242187,-1.62805712890625,-10.259541984732824,-16.259541984732824,12.473282442748092,0.0
12.950000524520874,-8.346186987304687,0.3064578125,3.622427111816406,-9.221374045801527,23.083969465648856,3.2977099236641223,-8.32463917236328,-1.4772224243164063,-1.8267758666992187,-3.282442748091603,-15.465648854961833,7.603053435114504,0.0
12.96000051498413,-12.449848632812499,4.9823336547851556,4.618415002441406,-18.82442748091603,24.137404580152673,-2.519083969465649,-8.930372192382812,-1.0271125122070313,-1.6136919189453125,3.282442748091603,-14.396946564885496,4.458015267175573,0.0
12.970000267028809,-10.505756884765624,2.8730419921875,2.779668127441406,-42.44274809160305,6.305343511450381,1.1755725190839694,-9.318232861328125,-0.04548983154296875,-1.6615759521484375,7.66412213740458,-15.770992366412214,1.83206106870229,0.0
12.980000495910645,-9.809044201660155,1.3623007446289062,2.099714855957031,-33.06870229007634,9.694656488549619,5.3893129770992365,-9.555258825683593,0.5746083984375,-1.6400281372070311,8.366412213740459,-15.34351145038168,0.6106870229007634,0.0
12.990000247955322,-9.567229833984374,1.5131354492187499,2.128445275878906,-31.83206106870229,10.045801526717558,1.5877862595419847,-9.758765966796874,1.1540052001953125,-1.3910311645507811,11.511450381679388,-14.0,-2.1374045801526718,0.0
13.000000715255737,-9.976638317871092,1.867477294921875,1.7238251953125,-36.2442748091603,8.931297709923664,-0.549618320610687,-10.230423693847655,1.4413093994140624,-1.0726023437499999,12.030534351145038,-13.587786259541986,-2.885496183206107,0.0
13.010000944137573,-9.639055883789062,1.9800047729492187,1.5227122558593749,-35.51145038167939,8.366412213740459,-0.9007633587786259,-9.878476049804688,2.0278888061523435,-0.7422025146484375,10.687022900763358,-12.80916030534351,-4.33587786259542,0.0
13.020000696182251,-10.512939489746094,3.1316157714843746,1.6400281372070311,-40.61068702290076,8.488549618320612,-1.8931297709923665,-9.95987890625,2.3247698120117186,-0.814028564453125,8.687022900763358,-12.793893129770993,-5.312977099236641,0.0
13.030001163482666,-9.907206469726562,2.1356278808593747,1.1037269653320312,-43.45038167938932,8.580152671755725,-1.0381679389312977,-9.923965881347655,2.6719290527343746,-0.6871358764648438,4.6106870229007635,-12.0,-4.9465648854961835,0.0
13.040000438690186,-8.640673791503906,-0.7134720947265625,0.29448680419921874,-32.06106870229008,12.717557251908397,1.4961832061068703,-10.067617980957031,2.6982652709960937,-0.41419688720703124,1.2671755725190839,-10.15267175572519,-4.351145038167939,0.0
13.050000667572021,-8.56166513671875,-0.6847416748046875,0.10295067138671875,-20.870229007633586,17.633587786259543,-0.9465648854961832,-10.218452685546874,2.2074539306640624,-0.19871873779296872,0.5648854961832062,-9.603053435114504,-3.3587786259541983,0.0
13.060000658035278,-9.911994873046874,1.5370774658203123,0.689530078125,-18.27480916030534,21.46564885496183,-5.511450381679389,-11.054029064941405,1.9009961181640624,-0.3854664672851562,6.259541984732825,-12.595419847328245,-3.786259541984733,0.0
13.070000648498535,-10.805032092285156,2.0350714111328125,0.6727706665039062,-23.00763358778626,19.954198473282442,-6.030534351145038,-12.054805358886718,1.7310078002929687,0.17956512451171874,10.625954198473282,-13.755725190839694,-3.3740458015267176,0.0
13.080000638961792,-9.507374792480467,1.649604943847656,0.46686932373046874,-24.259541984732824,20.38167938931298,-5.358778625954199,-10.151415039062499,1.6831237670898436,0.5626373901367188,8.15267175572519,-15.068702290076336,-4.824427480916031,0.0
13.090000629425049,-10.544064111328124,1.407790576171875,0.6823474731445313,-23.404580152671755,24.18320610687023,-6.213740458015267,-9.471461767578125,1.3407529296874998,-0.42377369384765623,9.725190839694656,-20.12213740458015,-5.465648854961832,0.0
13.100000858306885,-8.664615808105468,0.5578489868164063,-0.1484405029296875,-20.0,22.045801526717558,-6.33587786259542,-9.191340173339842,2.518700146484375,-1.189918225097656,7.648854961832061,-20.778625954198475,-6.366412213740458,0.0
13.110000371932983,-10.639832177734375,1.6735469604492186,0.14125789794921875,-21.984732824427482,26.48854961832061,-7.908396946564886,-9.0021982421875,5.276820458984375,-1.9321207397460936,-6.152671755725191,-16.47328244274809,-5.679389312977099,0.0
13.12000036239624,-9.016563452148437,1.6831237670898436,-0.055066638183593745,-22.15267175572519,26.641221374045802,-7.251908396946565,-9.983820922851562,3.6583401367187496,-0.5458779785156249,-21.404580152671755,-2.16793893129771,1.1450381679389312,0.0
13.130000591278076,-9.167398156738281,0.8930372192382812,-0.3854664672851562,-21.022900763358777,28.65648854961832,-6.351145038167939,-10.081983190917969,2.616862414550781,-0.27293898925781246,-18.427480916030536,-2.519083969465649,3.2061068702290076,0.0
13.140000820159912,-9.797073193359374,1.1468225952148436,-0.21787235107421873,-12.702290076335878,32.38167938931298,-7.740458015267175,-10.36210478515625,2.578555187988281,0.0383072265625,-19.6793893129771,-5.038167938931298,2.0916030534351147,0.0
13.15000057220459,-10.019733947753906,1.1516109985351561,0.023942016601562498,-12.030534351145038,33.61832061068702,-7.221374045801527,-10.184933862304687,1.8195932617187498,0.6871358764648438,-22.47328244274809,-4.641221374045801,0.8549618320610687,0.0
13.160000801086426,-9.603142858886718,0.39743747558593745,-0.09816226806640624,-6.549618320610687,35.86259541984733,-6.6106870229007635,-10.129867224121092,1.1061211669921875,0.9959878906249999,-23.374045801526716,-6.442748091603053,1.2366412213740459,0.0
13.170000553131104,-9.509768994140625,1.6160861206054686,0.33039982910156246,-4.687022900763359,35.49618320610687,-7.801526717557252,-9.89523546142578,0.8810662109374999,1.199495031738281,-23.541984732824428,-8.65648854961832,0.9618320610687023,0.0
13.18000078201294,-9.801861596679688,2.0733786376953125,0.612915625,-10.732824427480915,33.63358778625954,-8.0,-9.9981861328125,0.7254431030273437,1.3120225097656248,-22.580152671755727,-10.702290076335878,0.21374045801526717,0.0
13.190000295639038,-9.753977563476562,1.467645617675781,0.8451531860351562,-11.618320610687023,32.47328244274809,-6.015267175572519,-9.885658654785155,0.2920926025390625,1.4963760375976562,-22.18320610687023,-13.114503816793894,-0.7175572519083969,0.0
13.200000524520874,-10.565611926269531,2.262520568847656,1.2761094848632812,-14.717557251908397,31.755725190839694,-6.488549618320611,-10.819397302246093,-1.7477672119140624,2.461239306640625,-13.725190839694656,-14.076335877862595,-1.5877862595419847,0.0
13.21000051498413,-9.160215551757812,1.5705962890624998,0.9337386474609375,-17.908396946564885,26.442748091603054,-5.129770992366412,-11.33175645751953,-0.8092401611328125,2.482787121582031,-3.984732824427481,-21.206106870229007,-6.137404580152672,0.0
13.220000505447388,-10.216058483886718,1.218648645019531,0.612915625,-17.46564885496183,25.908396946564885,-4.488549618320611,-9.172186560058593,-0.023942016601562498,0.44053310546874996,-5.251908396946565,-30.442748091603054,-12.091603053435115,0.0
13.230000257492065,-9.387664709472656,1.254561669921875,1.1755530151367186,-15.435114503816793,24.900763358778626,-4.106870229007634,-10.68053360595703,-2.080561242675781,2.6623522460937497,2.9770992366412212,-27.068702290076335,-12.13740458015267,0.0
13.240000486373901,-11.643002673339844,2.2194249389648437,1.6711527587890624,-19.389312977099237,24.916030534351144,-5.679389312977099,-10.828974108886719,-1.5658078857421873,2.5546131713867184,19.49618320610687,-36.33587786259542,-15.587786259541986,0.0
13.250000476837158,-11.389217297363281,2.4971523315429685,1.3623007446289062,-24.18320610687023,18.916030534351144,-5.66412213740458,-10.041281762695311,-0.7517793212890624,1.7477672119140624,27.389312977099237,-46.396946564885496,-20.198473282442748,0.0
13.260000705718994,-9.950302099609374,1.1875240234375,1.3407529296874998,-19.938931297709924,19.251908396946565,-3.114503816793893,-8.444349255371094,2.463633508300781,0.41898529052734373,17.389312977099237,-51.12977099236641,-25.16030534351145,0.0
13.27000093460083,-10.414777221679687,3.0047230834960934,1.6017209106445311,-34.534351145038165,11.312977099236642,-3.435114503816794,-8.195352282714843,3.797203833007812,-0.5051765502929687,-10.946564885496183,-39.61832061068702,-23.862595419847327,0.0
13.280000686645508,-9.639055883789062,1.0486603271484374,1.4796166259765624,-38.10687022900763,8.335877862595419,0.8549618320610687,-8.473079675292968,2.166752502441406,0.7733271362304687,-24.015267175572518,-29.46564885496183,-19.557251908396946,0.0
13.290000677108765,-9.74200655517578,0.181959326171875,1.2114660400390624,-29.221374045801525,6.122137404580153,2.183206106870229,-10.026916552734374,0.4285620971679687,2.5474305664062498,-12.396946564885496,-27.419847328244273,-17.603053435114504,0.0
13.300000667572021,-9.763554370117188,0.08140285644531249,1.1061211669921875,-18.900763358778626,4.870229007633588,2.045801526717557,-9.315838659667968,1.9728221679687499,1.6136919189453125,-17.49618320610687,-27.51145038167939,-20.82442748091603,0.0
13.310000658035278,-9.813832604980469,-0.09816226806640624,0.7517793212890624,-10.564885496183207,5.633587786259542,3.4656488549618323,-10.395623608398436,-1.24498486328125,2.6719290527343746,-13.129770992366412,-24.35114503816794,-19.022900763358777,0.0
13.320000648498535,-9.502586389160156,-1.4987702392578124,0.23702596435546874,-0.6870229007633588,6.473282442748092,3.0076335877862594,-10.781090075683593,-1.9895815795898437,2.1643583007812497,6.916030534351145,-34.229007633587784,-20.671755725190838,0.0
13.330000638961792,-10.330980163574218,0.1867477294921875,0.7685387329101562,9.740458015267176,11.648854961832061,-1.7557251908396947,-10.615890161132812,-1.9776105712890624,2.7246014892578123,25.328244274809162,-42.82442748091603,-22.748091603053435,0.0
13.34000039100647,-10.575188732910156,1.0438719238281249,1.1180921752929687,-1.1450381679389312,7.679389312977099,-4.885496183206107,-9.0788126953125,0.8547299926757812,2.003946789550781,25.46564885496183,-48.961832061068705,-27.404580152671755,0.0
13.350000619888306,-9.710881933593749,0.296881005859375,1.139639990234375,-0.6564885496183206,8.305343511450381,-4.0458015267175576,-9.497797985839844,1.5059528442382812,1.89620771484375,18.82442748091603,-44.83969465648855,-26.33587786259542,0.0
13.360000610351562,-9.849745629882811,1.0726023437499999,1.5753846923828123,-2.931297709923664,8.01526717557252,-5.00763358778626,-8.343792785644531,2.47081611328125,0.584185205078125,13.648854961832061,-47.25190839694657,-25.954198473282442,0.0
13.37000060081482,-9.600748657226562,1.0821791503906248,1.6615759521484375,-3.2519083969465647,8.870229007633588,-5.114503816793893,-9.730035546875,1.915361328125,0.7110778930664062,12.854961832061068,-43.51145038167939,-23.206106870229007,0.0
13.380000352859497,-9.70369932861328,1.1324573852539062,1.3958195678710936,-3.099236641221374,8.366412213740459,-6.0458015267175576,-9.502586389160156,1.6639701538085936,1.1228805786132812,4.99236641221374,-39.66412213740458,-21.69465648854962,0.0
13.390000343322754,-9.33978067626953,1.3718775512695311,1.2378022583007813,-2.549618320610687,9.068702290076336,-4.8396946564885495,-9.507374792480467,2.250549560546875,1.0749965454101562,-11.84732824427481,-27.64885496183206,-21.587786259541986,0.0
13.400000810623169,-9.5384994140625,1.7214309936523438,1.1109095703125,-7.282442748091603,9.49618320610687,-3.648854961832061,-8.453926062011718,0.2705447875976562,1.0534487304687499,-10.687022900763358,-25.389312977099237,-18.47328244274809,0.0
13.410000324249268,-9.469067565917967,1.5729904907226562,0.8188169677734375,-8.82442748091603,9.664122137404581,-3.6946564885496183,-9.447519750976562,-1.4700398193359374,2.051830822753906,5.358778625954199,-25.801526717557252,-15.450381679389313,0.0
13.420000791549683,-9.514557397460937,1.697488977050781,0.5817910034179687,-10.82442748091603,11.389312977099237,-4.122137404580153,-9.05965908203125,-1.0462661254882812,2.090138049316406,21.00763358778626,-31.72519083969466,-16.3206106870229,0.0
13.430000305175781,-9.342174877929686,1.5873557006835937,0.5506663818359374,-13.450381679389313,13.84732824427481,-3.9389312977099236,-7.915230688476562,0.24181436767578124,1.5394716674804687,16.763358778625953,-30.213740458015266,-19.51145038167939,0.0
13.440000772476196,-8.176198669433592,0.15083470458984374,0.40222587890625,-10.183206106870228,19.206106870229007,-2.2900763358778624,-6.406883642578125,2.0661960327148434,1.8531120849609375,2.1526717557251906,-20.12213740458015,-20.549618320610687,0.0
13.450000524520874,-7.721300354003906,0.5363011718749999,0.7254431030273437,-15.206106870229007,23.328244274809162,-4.900763358778626,-7.580042456054687,0.6248866333007812,1.180341418457031,-9.312977099236642,-10.931297709923664,-16.793893129770993,0.0
13.46000051498413,-9.993397729492187,0.40462008056640625,1.6543933471679686,-17.083969465648856,27.389312977099237,-7.358778625954199,-8.52335791015625,-0.469263525390625,1.5897499023437498,0.9770992366412213,-9.206106870229007,-12.442748091603054,0.0
13.470000267028809,-9.311050256347656,-0.0383072265625,1.7262193969726563,-12.992366412213741,29.19083969465649,-8.702290076335878,-7.414842541503906,0.6919242797851562,1.5897499023437498,-2.366412213740458,-5.221374045801527,-13.98473282442748,0.0
13.480000495910645,-9.80665,0.24660277099609373,1.70467158203125,-11.267175572519085,30.33587786259542,-10.0,-8.022969763183593,-0.7948749511718749,1.7405846069335937,-0.0916030534351145,-1.633587786259542,-12.82442748091603,0.0
13.490000486373901,-9.488221179199218,0.5099649536132812,2.252943762207031,-11.16030534351145,29.46564885496183,-12.732824427480915,-8.001421948242188,-1.1947066284179686,1.9823989746093749,2.7938931297709924,-0.015267175572519083,-13.465648854961833,0.0
13.500000476837158,-9.366116894531249,0.6440402465820312,2.195482922363281,-9.145038167938932,28.091603053435115,-14.549618320610687,-7.812280017089844,-1.3287819213867187,1.9321207397460936,5.312977099236641,1.7099236641221374,-14.992366412213741,0.0
13.510000944137573,-10.153809240722655,0.5243301635742187,2.9496564453125,-10.030534351145038,28.366412213740457,-16.564885496183205,-7.673416320800781,-1.0079588989257813,2.059013427734375,8.427480916030534,3.1297709923664123,-15.877862595419847,0.0
13.520000457763672,-10.496180078124999,0.12689268798828124,3.687070556640625,-9.618320610687023,26.16793893129771,-17.541984732824428,-7.635109094238281,-1.0175357055664063,2.1978771240234374,9.648854961832061,4.2748091603053435,-16.16793893129771,0.0
13.530000925064087,-10.536881506347656,-0.009576806640625,3.948038537597656,-6.427480916030534,23.66412213740458,-18.076335877862597,-7.934384301757812,-1.4149731811523436,2.4779987182617185,12.83969465648855,4.885496183206107,-16.106870229007633,0.0
13.540000438690186,-11.030087048339842,0.7398083129882812,4.144363073730468,-4.061068702290076,20.27480916030534,-19.52671755725191,-7.45075556640625,-0.4333505004882812,2.1547814941406247,13.49618320610687,4.106870229007634,-17.755725190839694,0.0
13.5500009059906,-11.334150659179686,0.9457096557617187,4.826710546875,-3.66412213740458,12.687022900763358,-19.358778625954198,-7.261613635253906,0.9935936889648437,1.678335363769531,8.366412213740459,6.106870229007634,-19.755725190839694,0.0
13.560000658035278,-9.586383447265625,0.7805097412109374,4.405331054687499,1.6030534351145038,4.305343511450381,-16.80916030534351,-6.6151791870117185,1.5394716674804687,0.8307879760742187,-2.564885496183206,11.770992366412214,-19.374045801526716,0.0
13.570000886917114,-11.508927380371093,1.5203180541992187,5.84185205078125,0.7938931297709924,1.1603053435114503,-15.908396946564885,-8.123526232910155,0.011971008300781249,1.1324573852539062,0.5038167938931297,20.625954198473284,-14.748091603053435,0.0
13.580000400543213,-11.226411584472656,1.01514150390625,5.858611462402344,3.8931297709923665,-8.687022900763358,-13.84732824427481,-7.826645227050781,-0.2442085693359375,0.07422025146484375,11.267175572519085,20.763358778625953,-13.221374045801527,0.0
13.59000039100647,-10.656591589355468,0.17477672119140625,5.604826086425781,1.3282442748091603,-22.80916030534351,-11.221374045801527,-6.823474731445312,-0.55545478515625,-0.239420166015625,15.969465648854962,25.938931297709924,-13.267175572519085,0.0
13.600000619888306,-10.005368737792969,-1.7405846069335937,5.511452221679687,17.358778625954198,-29.022900763358777,-8.900763358778626,-7.141903552246093,-1.2641384765625,0.74699091796875,32.2442748091603,18.65648854961832,-15.34351145038168,0.0
13.610000610351562,-10.386046801757812,-0.9816226806640624,5.846640454101562,32.916030534351144,-36.16793893129771,-13.908396946564885,-9.868899243164062,-2.1404162841796874,2.042254016113281,33.603053435114504,18.33587786259542,-21.84732824427481,0.0
13.62000060081482,-10.577582934570312,-0.5793968017578125,6.169857678222656,37.083969465648856,-45.49618320610687,-14.50381679389313,-7.824251025390624,-0.028730419921875,0.4644751220703125,35.23664122137404,16.85496183206107,-24.12213740458015,0.0
13.630000591278076,-10.654197387695312,1.695094775390625,6.974309436035155,22.748091603053435,-64.53435114503817,-16.458015267175572,-9.706093530273437,1.189918225097656,0.7541735229492187,37.32824427480916,28.47328244274809,-19.251908396946565,0.0
13.640000820159912,-12.04762275390625,2.205059729003906,8.432378247070313,10.076335877862595,-84.19847328244275,-16.793893129770993,-11.329362255859374,3.066972326660156,1.2521674682617188,32.85496183206107,31.786259541984734,-18.3206106870229,0.0
13.65000057220459,-12.004527124023436,2.4947581298828125,8.377311608886718,7.770992366412214,-106.0,-14.961832061068701,-13.43865391845703,4.3239281982421875,2.6431986328124997,6.809160305343512,39.343511450381676,-21.099236641221374,0.0
13.660000801086426,-12.837709301757812,2.499546533203125,8.113949426269532,11.49618320610687,-125.49618320610686,-11.221374045801527,-15.79454835205078,1.1611878051757811,4.477157104492187,-13.664122137404581,45.69465648854962,-18.3206106870229,0.0
13.670000553131104,-13.275848205566405,0.9002198242187499,6.888118176269531,24.900763358778626,-144.44274809160305,-6.0,-16.074669946289063,-2.262520568847656,4.608838195800781,2.3206106870229006,32.82442748091603,-12.83969465648855,0.0
13.68000054359436,-13.716381311035155,0.39264907226562495,5.506663818359375,42.79389312977099,-154.8091603053435,-2.7786259541984735,-12.435483422851561,-0.02154781494140625,3.5434184570312497,7.969465648854962,19.49618320610687,-9.17557251908397,0.0
13.690000295639038,-15.746664318847655,0.7493851196289062,3.840299462890625,46.152671755725194,-162.12213740458014,1.4809160305343512,-10.75714805908203,-0.488417138671875,1.9608511596679685,8.488549618320612,12.778625954198473,-4.076335877862595,0.0
13.700000524520874,-16.75222901611328,-0.6919242797851562,1.7908628417968748,38.51908396946565,-169.64885496183206,4.3816793893129775,-10.764330664062498,-0.7996633544921875,1.7190367919921874,13.816793893129772,8.030534351145038,0.7633587786259542,0.0
13.71000051498413,-17.51119094238281,-1.3048399047851562,1.905784521484375,27.984732824427482,-172.36641221374046,4.5038167938931295,-12.287042919921875,-2.375048046875,1.22583125,23.480916030534353,4.534351145038168,3.236641221374046,0.0
13.720000267028809,-16.78335363769531,-2.825157958984375,2.0183119995117185,26.83969465648855,-172.50381679389312,5.786259541984733,-7.874529260253905,0.05027823486328125,0.33758243408203126,19.938931297709924,-2.717557251908397,-3.816793893129771,0.0
13.730000495910645,-15.67962667236328,-2.389413256835937,2.5713725830078125,26.870229007633586,-171.58778625954199,5.1603053435114505,-7.3669585083007805,-0.7015010864257812,-0.25139117431640623,7.770992366412214,3.9083969465648853,-6.427480916030534,0.0
13.740000486373901,-14.401122985839843,-2.013523596191406,2.8754361938476563,26.198473282442748,-169.7709923664122,4.732824427480916,-8.010998754882811,-1.7549498168945312,-0.023942016601562498,6.702290076335878,8.80916030534351,-5.572519083969466,0.0
13.750000476837158,-12.23197628173828,-1.9225439331054686,2.568978381347656,34.778625954198475,-167.98473282442748,5.66412213740458,-8.583212951660157,-1.8171990600585937,0.1867477294921875,11.450381679389313,11.664122137404581,-6.824427480916031,0.0
13.760000705718994,-10.558429321289061,-1.6639701538085936,2.291250988769531,41.587786259541986,-166.2290076335878,6.198473282442748,-9.330203869628905,-2.389413256835937,0.6512228515624999,17.72519083969466,14.916030534351146,-8.763358778625955,0.0
13.77000093460083,-8.978256225585938,-1.2306196533203124,0.8044517578125,45.786259541984734,-161.31297709923663,6.1679389312977095,-9.976638317871092,-2.4564509033203126,1.218648645019531,24.977099236641223,15.786259541984732,-11.099236641221374,0.0
13.780000686645508,-8.042123376464843,-0.42377369384765623,0.23223756103515625,41.48091603053435,-154.51908396946564,5.6183206106870225,-10.484209069824217,-2.001552587890625,1.7262193969726563,32.12213740458015,14.83969465648855,-11.893129770992367,0.0
13.790000915527344,-6.564900952148437,-0.5746083984375,-1.4532804077148436,32.80916030534351,-146.8091603053435,2.198473282442748,-10.51533369140625,-0.9696516723632812,1.8315642700195311,33.587786259541986,12.748091603053435,-11.099236641221374,0.0
13.800000667572021,-7.350199096679687,0.181959326171875,-1.4006079711914061,23.908396946564885,-135.32824427480915,-1.099236641221374,-10.800243688964843,-0.3136404174804687,1.8291700683593748,30.99236641221374,10.82442748091603,-8.564885496183207,0.0
13.810000658035278,-7.017405065917968,0.21308394775390624,-1.7477672119140624,16.366412213740457,-124.35114503816794,-1.4198473282442747,-10.333374365234375,0.8475473876953125,1.3024457031249999,21.64885496183206,8.351145038167939,-5.984732824427481,0.0
13.820000410079956,-7.637503295898437,0.9959878906249999,0.009576806640625,10.091603053435115,-109.2824427480916,-0.21374045801526717,-9.303867651367186,2.73896669921875,0.0,3.6030534351145036,6.99236641221374,-4.030534351145038,0.0
13.830000638961792,-7.50821640625,1.2976572998046874,0.9050082275390624,6.106870229007634,-97.86259541984732,1.5114503816793894,-9.291896643066405,2.0781670410156248,0.7254431030273437,-20.27480916030534,15.923664122137405,3.068702290076336,0.0
13.84000039100647,-7.256825231933593,0.9911994873046874,2.01112939453125,-3.312977099236641,-88.13740458015268,3.5267175572519083,-1.7956512451171873,14.623783740234375,-9.334992272949219,-71.16030534351145,8.595419847328245,-5.3893129770992365,0.0
13.850000619888306,-7.81467421875,3.27526787109375,2.9855694702148434,-12.473282442748092,-79.61832061068702,5.480916030534351,-5.003881469726562,10.884040747070312,-4.819527941894531,-167.98473282442748,59.23664122137404,5.343511450381679,0.0
13.860000610351562,-6.7803791015625,0.8643067993164062,3.612850305175781,-28.412213740458014,-75.93893129770993,9.297709923664122,-12.042834350585936,-3.1483751831054687,1.0534487304687499,-161.57251908396947,76.70229007633588,29.786259541984734,0.0
13.87000060081482,-6.675034228515624,-1.1444283935546875,2.85388837890625,-11.969465648854962,-69.25190839694656,11.526717557251908,-8.56166513671875,-1.6519991455078125,-3.21780703125,-128.67175572519085,63.00763358778626,28.82442748091603,0.0
13.880000591278076,-6.117185241699218,-2.4684219116210935,2.379836450195312,10.778625954198473,-55.66412213740458,15.389312977099237,-7.319074475097656,-1.3479355346679687,-2.5258827514648434,-150.24427480916032,80.3206106870229,18.48854961832061,0.0
13.890000343322754,-8.183381274414062,-1.5825672973632812,2.925714428710937,10.80916030534351,-44.50381679389313,10.16793893129771,-9.682151513671874,-6.998251452636718,0.0047884033203125,-141.31297709923663,93.38931297709924,20.18320610687023,0.0
13.900000810623169,-5.334281298828125,-4.276044165039062,0.9744400756835937,22.33587786259542,-41.51145038167939,10.16793893129771,-8.360552197265624,-6.56968935546875,-2.2074539306640624,-79.96946564885496,67.54198473282443,22.763358778625953,0.0
13.910000562667847,-6.945579016113281,-2.142810485839844,2.3319524169921872,38.030534351145036,-21.72519083969466,4.763358778625954,-11.391611499023437,-7.857769848632812,-0.201112939453125,-39.61832061068702,64.22900763358778,21.328244274809162,0.0
13.920000791549683,-5.810727429199218,-1.9009961181640624,2.1547814941406247,39.74045801526717,-17.14503816793893,1.2061068702290076,-12.038045947265624,-8.635885388183594,1.7956512451171873,-0.4580152671755725,63.38931297709924,22.580152671755727,0.0
13.93000054359436,-5.928043310546875,-0.7900865478515624,2.3319524169921872,35.98473282442748,-11.541984732824428,-2.045801526717557,-11.88721124267578,-7.505822204589843,1.209071838378906,48.6412213740458,45.6793893129771,21.435114503816795,0.0
13.940001010894775,-4.446032482910156,-0.29448680419921874,2.2481553588867187,41.786259541984734,-1.3129770992366412,-2.366412213740458,-9.117119921875,-2.8610709838867185,-1.0821791503906248,63.52671755725191,32.534351145038165,15.114503816793894,0.0
13.950000524520874,-3.9504327392578125,1.350329736328125,2.588131994628906,37.343511450381676,9.511450381679388,-3.3435114503816794,-9.698910925292969,-1.2378022583007813,-0.9816226806640624,59.3587786259542,36.54961832061068,14.183206106870228,0.0
13.96000051498413,-4.292803576660156,2.760514514160156,3.584119885253906,18.85496183206107,14.83969465648855,-4.656488549618321,-10.156203442382813,-0.6919242797851562,-0.17238251953125,60.045801526717554,39.343511450381676,16.977099236641223,0.0
13.970000505447388,-5.312733483886719,3.5913024902343746,5.1331683593749995,-0.5343511450381679,17.450381679389313,-3.2519083969465647,-9.591171850585937,0.19393033447265623,-0.1388636962890625,61.7557251908397,40.0,19.740458015267176,0.0
13.980000495910645,-4.898536596679687,2.664746447753906,6.294356164550781,-7.969465648854962,19.068702290076335,1.9083969465648856,-10.54645831298828,-0.27293898925781246,1.4508862060546874,62.213740458015266,43.404580152671755,21.297709923664122,0.0
13.990000247955322,-4.84586416015625,2.8514941772460936,7.319074475097656,-11.664122137404581,20.946564885496183,6.2748091603053435,-9.425971936035156,0.6440402465820312,0.7278373046875,57.69465648854962,43.099236641221374,22.18320610687023,0.0
14.000000238418579,-4.493916516113281,3.0621839233398433,6.8402341430664055,-10.427480916030534,22.580152671755727,11.358778625954198,-11.18571015625,-1.1731588134765625,2.1021090576171875,58.47328244274809,45.725190839694655,25.603053435114504,0.0
14.010000944137573,-3.402160559082031,3.7158009765625,5.035006091308594,-9.282442748091603,27.282442748091604,17.022900763358777,-9.72285294189453,0.11252747802734374,1.429338391113281,52.79389312977099,43.31297709923664,25.587786259541986,0.0
14.020000457763672,-1.5322890624999999,2.319981408691406,2.0063409912109376,-7.557251908396947,35.7557251908397,24.671755725190838,-8.511386901855468,1.5298948608398437,0.06703764648437499,35.63358778625954,45.038167938931295,24.717557251908396,0.0
14.030000925064087,0.12449848632812499,2.212242333984375,-1.149216796875,-10.305343511450381,49.221374045801525,28.229007633587788,-7.45075556640625,1.388636962890625,0.15562310791015624,22.625954198473284,45.725190839694655,25.6793893129771,0.0
14.040000438690186,0.16280571289062498,1.68551796875,-2.7653029174804686,-25.603053435114504,67.20610687022901,24.671755725190838,-8.911218579101561,2.6096798095703124,0.1580173095703125,4.824427480916031,53.63358778625954,28.16793893129771,0.0
14.0500009059906,-4.759672900390624,-6.581660363769531,11.087547888183593,-30.3206106870229,72.62595419847328,19.404580152671755,-8.978256225585938,0.5865794067382812,0.5961562133789062,-10.458015267175572,60.58015267175573,32.47328244274809,0.0
14.060000658035278,-10.83376251220703,-6.672640026855468,24.29875264892578,34.458015267175576,56.916030534351144,19.31297709923664,-11.537657800292967,-2.9496564453125,2.89219560546875,1.4045801526717556,61.83206106870229,35.14503816793893,0.0
14.070000648498535,-10.87925234375,-3.7325603881835936,16.354791540527344,79.37404580152672,54.68702290076336,33.847328244274806,-11.113884106445312,-0.9983820922851562,0.4836287353515625,12.732824427480915,47.32824427480916,31.129770992366414,0.0
14.080000638961792,-12.51928048095703,1.9943699829101562,4.331110803222656,70.90076335877863,32.534351145038165,4.763358778625954,-12.021286535644531,-0.24899697265624998,0.689530078125,-5.129770992366412,48.900763358778626,29.068702290076335,0.0
14.090000629425049,-17.84398497314453,7.936778503417968,-2.3415292236328122,27.923664122137403,40.091603053435115,3.0076335877862594,-12.586318127441405,-2.1883003173828124,0.8355763793945312,-1.7557251908396947,44.06106870229008,29.17557251908397,0.0
14.100000619888306,-15.485696337890625,1.9704279663085937,4.774038110351563,26.106870229007633,41.541984732824424,15.587786259541986,-12.612654345703124,-4.819527941894531,2.8107927490234372,15.312977099236642,33.87786259541985,26.137404580152673,0.0
14.110000371932983,-10.273519323730468,-0.5243301635742187,7.072471704101562,56.3206106870229,51.74045801526717,22.595419847328245,-11.130643518066405,-0.229843359375,1.446097802734375,15.816793893129772,13.053435114503817,16.53435114503817,0.0
14.12000060081482,-3.3111808959960936,-3.77326181640625,-0.26336218261718747,48.50381679389313,46.12213740458015,19.64885496183206,-12.957419384765624,-0.6488286499023437,3.423708374023437,-4.244274809160306,15.358778625954198,13.007633587786259,0.0
14.130000352859497,-3.5146880371093747,0.10295067138671875,0.20350714111328125,64.27480916030534,65.49618320610686,14.244274809160306,-13.486537951660155,-1.4101847778320311,3.4069489624023435,14.290076335877863,-3.5114503816793894,13.679389312977099,0.0
14.140000820159912,-4.848258361816406,1.9105729248046874,1.5203180541992187,50.33587786259542,67.64885496183206,3.068702290076336,-15.325284826660155,-0.5243301635742187,3.4907460205078125,13.16030534351145,-16.076335877862597,13.053435114503817,0.0
14.15000057220459,-7.620743884277343,3.3638533325195312,2.4684219116210935,30.82442748091603,71.46564885496183,-1.4961832061068703,-13.996502905273436,1.9416975463867185,0.8259995727539062,1.786259541984733,-34.152671755725194,6.641221374045801,0.0
14.160000801086426,-4.893748193359374,-2.482787121582031,2.8850130004882812,28.27480916030534,70.36641221374046,-2.030534351145038,-15.16247911376953,0.6631938598632812,0.6248866333007812,-2.6412213740458017,-39.86259541984733,6.1679389312977095,0.0
14.170000314712524,-8.662221606445312,-4.491522314453125,1.0749965454101562,54.94656488549618,93.32824427480917,-11.679389312977099,-14.101847778320312,0.5770026000976562,-0.8188169677734375,5.923664122137405,-52.82442748091603,2.50381679389313,0.0
14.18000078201294,-11.757924353027343,2.7269956909179687,2.655169641113281,47.66412213740458,96.7175572519084,-26.15267175572519,-12.677297790527343,3.840299462890625,-2.3582886352539063,-8.687022900763358,-55.37404580152672,-3.3587786259541983,0.0
14.190000534057617,-9.821015209960937,1.0941501586914062,2.741360900878906,42.58015267175573,91.6030534351145,-20.53435114503817,-12.512097875976561,2.5857377929687497,-2.2385785522460937,-19.862595419847327,-48.16793893129771,-0.7480916030534351,0.0
14.200000524520874,-10.517727893066406,-0.24899697265624998,0.8930372192382812,64.73282442748092,102.83969465648855,-15.389312977099237,-11.935095275878906,1.216254443359375,-1.4891934326171874,-14.076335877862595,-44.33587786259542,0.48854961832061067,0.0
14.21000051498413,-12.299013928222655,4.809951135253906,3.0142998901367184,51.63358778625954,100.19847328244275,-21.17557251908397,-11.159373937988281,2.492363928222656,-1.4891934326171874,-18.793893129770993,-41.282442748091604,1.251908396946565,0.0
14.220088958740234,-13.189656945800781,8.559270935058594,3.967192150878906,16.641221374045802,86.06106870229007,-22.50381679389313,-10.941501586914061,2.9831752685546875,-0.4285620971679687,-22.30534351145038,-32.80916030534351,5.32824427480916,0.0
14.230000495910645,-13.340491650390625,8.537723120117187,2.7150246826171873,-20.18320610687023,71.09923664122137,-17.633587786259543,-11.094730493164063,2.77727392578125,0.17477672119140625,-31.16030534351145,-26.702290076335878,11.374045801526718,0.0
14.240000247955322,-10.146626635742187,3.383006945800781,1.7118541870117185,-48.16793893129771,57.038167938931295,-8.396946564885496,-11.58075343017578,2.3535002319335936,0.45489831542968745,-26.137404580152673,-23.755725190839694,11.908396946564885,0.0
14.250000476837158,-12.389993591308594,4.618415002441406,2.9472622436523435,-57.57251908396947,59.770992366412216,-7.633587786259542,-11.583147631835937,1.7956512451171873,0.9074024291992187,-23.954198473282442,-23.14503816793893,12.13740458015267,0.0
14.260000705718994,-11.865663427734374,2.808398547363281,1.6543933471679686,-77.26717557251908,46.396946564885496,-6.244274809160306,-10.225635290527343,2.114080065917969,0.047884033203124995,-13.083969465648854,-34.42748091603053,8.229007633587786,0.0
14.270000457763672,-8.480262280273436,-1.0702081420898437,0.8595183959960937,-58.51908396946565,49.43511450381679,0.061068702290076333,-9.064447485351561,4.3430818115234375,-0.25139117431640623,-30.50381679389313,-34.47328244274809,9.053435114503817,0.0
14.280000448226929,-10.919953771972656,1.3383587280273437,3.038241906738281,-61.083969465648856,48.33587786259542,-3.9083969465648853,-10.510545288085936,3.2728736694335936,-0.13168109130859373,-43.41984732824427,-25.893129770992367,13.083969465648854,0.0
14.290000915527344,-10.041281762695311,0.15322890625,3.2800562744140622,-55.49618320610687,49.52671755725191,-6.259541984732825,-11.473014355468749,1.0869675537109373,1.005564697265625,-35.49618320610687,-27.435114503816795,16.229007633587788,0.0
14.300000429153442,-10.97502041015625,0.7278373046875,3.392583752441406,-53.083969465648856,43.908396946564885,-9.648854961832061,-12.337321154785155,-0.9193734375,2.3415292236328122,-19.81679389312977,-37.11450381679389,15.770992366412214,0.0
14.310000658035278,-9.624690673828125,-0.8762778076171874,2.1356278808593747,-40.85496183206107,46.85496183206107,-11.541984732824428,-9.698910925292969,1.0175357055664063,0.699106884765625,-14.564885496183207,-52.48854961832061,9.572519083969466,0.0
14.320000648498535,-11.10191309814453,1.5418658691406248,2.1068974609374997,-44.97709923664122,45.465648854961835,-17.52671755725191,-9.090783703613281,3.323151904296875,0.7924807495117187,-33.9236641221374,-49.282442748091604,8.305343511450381,0.0
14.330000638961792,-9.991003527832031,1.7812860351562498,1.9416975463867185,-46.44274809160305,45.52671755725191,-17.282442748091604,-9.251195214843749,-0.39743747558593745,1.149216796875,-33.11450381679389,-48.534351145038165,11.16030534351145,0.0
14.34000039100647,-10.127473022460936,2.521094348144531,1.4820108276367188,-49.038167938931295,44.36641221374046,-17.984732824427482,-9.842563024902343,-0.6488286499023437,0.9361328491210937,-8.259541984732824,-62.778625954198475,11.98473282442748,0.0
14.350000381469727,-10.709264025878905,3.801992236328125,2.157175695800781,-50.152671755725194,45.954198473282446,-15.587786259541986,-8.267178332519531,2.4588451049804685,0.373495458984375,-17.450381679389313,-62.595419847328245,9.16030534351145,0.0
14.360000371932983,-8.604760766601562,0.8882488159179687,1.4628572143554686,-45.32824427480916,45.93893129770992,-8.793893129770993,-9.081206896972656,-0.63206923828125,0.5530605834960938,-16.3206106870229,-56.67175572519084,12.366412213740459,0.0
14.37000060081482,-8.310273962402343,-0.8475473876953125,1.6472107421875,-29.435114503816795,51.86259541984733,-8.0,-8.67658681640625,0.5674257934570313,-1.1420341918945311,2.885496183206107,-66.53435114503817,12.351145038167939,0.0
14.380000591278076,-8.044517578125,-1.3192051147460937,1.177947216796875,-5.526717557251908,58.778625954198475,-7.877862595419847,-8.305485559082031,2.0159177978515626,-0.8092401611328125,-10.305343511450381,-56.16793893129771,9.17557251908397,0.0
14.390000581741333,-10.534487304687499,3.2345664428710936,2.7533319091796873,-2.549618320610687,62.2442748091603,-10.580152671755725,-9.351751684570312,-0.55545478515625,-0.5985504150390625,-3.6946564885496183,-50.213740458015266,11.755725190839694,0.0
14.400000810623169,-11.877634436035155,5.238513232421875,2.9568390502929685,-21.053435114503817,53.267175572519086,-10.961832061068701,-8.726865051269531,1.3455413330078123,-1.9704279663085937,-1.8473282442748091,-54.62595419847328,7.068702290076335,0.0
14.410000562667847,-9.593566052246093,4.019864587402344,2.530671154785156,-30.3206106870229,46.10687022900763,-3.5114503816793894,-8.183381274414062,2.6671406494140624,-1.2880804931640624,-21.603053435114504,-41.11450381679389,3.7709923664122136,0.0
14.420000791549683,-10.034099157714843,1.6208745239257811,2.2649147705078123,-31.129770992366414,43.70992366412214,1.8473282442748091,-9.33978067626953,-1.3311761230468748,-0.6607996582031249,-17.84732824427481,-34.717557251908396,4.076335877862595,0.0
14.430000305175781,-7.663839514160156,-0.9648632690429687,1.5298948608398437,-17.083969465648856,43.74045801526717,0.7786259541984732,-9.564835632324218,-2.4875755249023435,-0.5099649536132812,5.740458015267175,-40.99236641221374,1.3893129770992367,0.0
14.440000772476196,-10.445901843261717,1.0223241088867188,2.5163059448242184,-15.48091603053435,46.38167938931298,-5.312977099236641,-10.160991845703125,-0.74699091796875,0.26336218261718747,25.19083969465649,-44.534351145038165,-3.9236641221374047,0.0
14.450000524520874,-10.503362683105468,0.5434837768554687,2.288856787109375,-15.236641221374045,44.61068702290076,-5.526717557251908,-7.881711865234375,1.6711527587890624,-0.5315127685546874,14.687022900763358,-43.81679389312977,-8.106870229007633,0.0
14.460000276565552,-8.269572534179687,-0.143652099609375,1.6639701538085936,-6.5038167938931295,42.30534351145038,-4.717557251908397,-7.472303381347656,0.086191259765625,-0.033518823242187495,7.32824427480916,-34.274809160305345,-5.404580152671755,0.0
14.470000505447388,-8.846575134277343,-0.35194764404296874,1.697488977050781,0.7633587786259542,43.63358778625954,-7.587786259541985,-9.267954626464844,-1.3862427612304686,1.0031704956054688,19.81679389312977,-32.79389312977099,-2.595419847328244,0.0
14.480000495910645,-9.052476477050782,-0.4333505004882812,1.5562310791015623,10.076335877862595,44.18320610687023,-10.030534351145038,-8.789114294433594,-0.05985504150390625,0.3327940307617187,36.732824427480914,-39.20610687022901,-7.480916030534351,0.0
14.490000486373901,-9.162609753417968,-0.2154781494140625,1.4772224243164063,19.083969465648856,45.770992366412216,-12.122137404580153,-8.307879760742187,1.8291700683593748,0.354341845703125,34.0763358778626,-38.33587786259542,-12.244274809160306,0.0
14.500000715255737,-9.382876306152344,1.7836802368164062,2.1356278808593747,14.458015267175572,44.93129770992366,-13.679389312977099,-8.379705810546875,2.1021090576171875,0.5434837768554687,19.69465648854962,-27.099236641221374,-10.961832061068701,0.0
14.510000944137573,-10.216058483886718,2.1787235107421874,2.50912333984375,4.916030534351145,41.282442748091604,-13.48091603053435,-8.322244970703125,0.239420166015625,-0.4165910888671875,18.900763358778626,-26.30534351145038,-8.717557251908397,0.0
14.520000696182251,-10.13226142578125,1.9512743530273435,2.1547814941406247,7.343511450381679,36.3206106870229,-11.17557251908397,-10.347739575195313,-0.23223756103515625,1.3575123413085937,32.68702290076336,-22.213740458015266,-7.4961832061068705,0.0
14.530000686645508,-10.292672937011718,1.7836802368164062,1.7573440185546874,5.984732824427481,30.748091603053435,-9.267175572519085,-9.349357482910156,-0.1580173095703125,0.7900865478515624,45.343511450381676,-30.519083969465647,-12.793893129770993,0.0
14.540000677108765,-10.675745202636719,1.3168109130859373,1.8411410766601561,6.702290076335878,30.564885496183205,-8.274809160305344,-8.731653454589843,1.407790576171875,1.0462661254882812,41.66412213740458,-31.083969465648856,-15.86259541984733,0.0
14.5500009059906,-9.085995300292968,1.93451494140625,2.039859814453125,6.458015267175573,27.923664122137403,-6.595419847328245,-6.643909606933593,2.4109610717773435,0.3711012573242187,24.12213740458015,-24.900763358778626,-17.16030534351145,0.0
14.560000896453857,-10.850521923828124,2.93050283203125,2.288856787109375,-1.5267175572519085,27.52671755725191,-6.916030534351145,-7.936778503417968,1.5658078857421873,0.373495458984375,20.717557251908396,-18.549618320610687,-14.106870229007633,0.0
14.570000648498535,-11.326968054199218,3.1651345947265623,2.2936451904296873,-6.244274809160306,22.793893129770993,-6.3816793893129775,-9.787496386718749,0.8882488159179687,0.9217676391601562,25.81679389312977,-17.435114503816795,-11.923664122137405,0.0
14.580000877380371,-11.109095703125,2.013523596191406,1.9608511596679685,-2.549618320610687,22.33587786259542,-4.305343511450381,-10.409988818359375,0.20829554443359374,1.448492004394531,29.557251908396946,-17.49618320610687,-12.412213740458014,0.0
14.590000867843628,-10.445901843261717,1.4915876342773438,1.5969325073242187,-1.6488549618320612,20.198473282442748,-3.7709923664122136,-10.529698901367187,-0.4213794921875,2.748543505859375,39.80152671755725,-21.083969465648856,-13.893129770992367,0.0
14.600000619888306,-9.696516723632811,0.12449848632812499,0.4572925170898437,-4.015267175572519,15.145038167938932,-3.2519083969465647,-10.544064111328124,-0.9983820922851562,2.1452046874999997,47.31297709923664,-30.625954198473284,-16.458015267175572,0.0
14.610000848770142,-9.782707983398437,1.1420341918945311,0.6967126831054687,-0.030534351145038167,17.572519083969464,-5.435114503816794,-9.311050256347656,2.032677209472656,1.5394716674804687,41.770992366412216,-35.11450381679389,-20.564885496183205,0.0
14.62000060081482,-9.459490759277344,1.8363526733398436,1.218648645019531,-1.9389312977099236,20.427480916030536,-6.351145038167939,-7.491456994628906,3.0837317382812497,0.7757213378906249,17.541984732824428,-29.251908396946565,-21.374045801526716,0.0
14.630000591278076,-9.296685046386719,1.5610194824218748,0.6153098266601562,-14.305343511450381,15.98473282442748,-4.854961832061068,-10.532093103027343,1.0390835205078124,2.6384102294921874,11.404580152671755,-20.15267175572519,-15.038167938931299,0.0
14.640000820159912,-8.961496813964843,0.603338818359375,0.2705447875976562,-11.404580152671755,14.564885496183207,-4.534351145038168,-10.031704956054687,1.1133037719726562,3.076549133300781,15.954198473282442,-24.412213740458014,-14.51908396946565,0.0
14.65000033378601,-9.294290844726563,0.0383072265625,0.0047884033203125,-6.442748091603053,13.84732824427481,-6.015267175572519,-10.340556970214843,1.7477672119140624,2.6001030029296874,20.12213740458015,-30.15267175572519,-17.083969465648856,0.0
14.660000801086426,-8.415618835449218,-0.19632453613281248,0.143652099609375,1.7251908396946565,16.427480916030536,-7.114503816793893,-8.655039001464843,2.4851813232421875,2.001552587890625,10.854961832061068,-34.396946564885496,-21.00763358778626,0.0
14.670000314712524,-8.686163623046875,0.5434837768554687,0.8068459594726562,-0.3816793893129771,15.770992366412214,-6.931297709923665,-7.9846625366210935,4.6064439941406246,0.6416460449218749,-12.244274809160306,-27.83206106870229,-21.297709923664122,0.0
14.68000078201294,-8.75320126953125,0.3232172241210937,0.7852981445312499,-2.122137404580153,13.572519083969466,-4.5038167938931295,-8.710105639648438,2.664746447753906,1.8052280517578123,-32.213740458015266,-13.83206106870229,-15.16030534351145,0.0
14.690000295639038,-9.679757312011718,0.7589619262695312,1.3048399047851562,-6.595419847328245,8.946564885496183,-4.229007633587786,-9.380482104492186,1.8291700683593748,1.7477672119140624,-28.137404580152673,-14.83969465648855,-11.465648854961833,0.0
14.700000286102295,-11.056423266601563,1.7166425903320313,2.090138049316406,2.6717557251908395,11.541984732824428,-4.564885496183206,-8.743624462890624,1.93451494140625,1.8938135131835936,-31.64885496183206,-12.687022900763358,-12.320610687022901,0.0
14.71000051498413,-10.560823522949217,1.149216796875,1.2832920898437499,-7.847328244274809,1.4045801526717556,-1.9694656488549618,-8.947131604003905,0.9576806640625,2.013523596191406,-31.267175572519083,-11.648854961832061,-12.01526717557252,0.0
14.720000505447388,-9.97184991455078,0.06943184814453125,0.8834604125976562,7.557251908396947,4.854961832061068,0.4122137404580153,-9.188945971679686,-0.0430956298828125,2.176329309082031,-28.50381679389313,-9.84732824427481,-10.610687022900763,0.0
14.730000495910645,-10.314220751953124,0.737414111328125,0.6655880615234374,6.229007633587786,4.0458015267175576,-2.946564885496183,-9.89523546142578,-0.7948749511718749,1.9584569580078124,-13.86259541984733,-14.0,-11.099236641221374,0.0
14.740000486373901,-9.588777648925781,0.2154781494140625,0.4165910888671875,9.786259541984732,4.534351145038168,-4.519083969465649,-9.358934289550781,-0.30885201416015623,2.530671154785156,-16.610687022900763,-10.106870229007633,-12.030534351145038,0.0
14.750000476837158,-9.90241806640625,0.612915625,0.15322890625,6.534351145038168,4.824427480916031,-5.0534351145038165,-8.269572534179687,0.1292868896484375,1.8124106567382812,-12.641221374045802,-12.458015267175572,-13.938931297709924,0.0
14.760000705718994,-10.146626635742187,0.9074024291992187,0.2346317626953125,4.854961832061068,6.122137404580153,-6.793893129770993,-9.026140258789061,-0.8906430175781249,1.407790576171875,-2.198473282442748,-14.641221374045802,-12.427480916030534,0.0
14.77000117301941,-10.172962854003906,0.8212111694335937,0.4572925170898437,2.885496183206107,6.320610687022901,-8.351145038167939,-10.012551342773437,-0.9983820922851562,2.346317626953125,9.84732824427481,-15.755725190839694,-12.687022900763358,0.0
14.780000448226929,-9.674968908691406,0.40222587890625,0.7110778930664062,5.175572519083969,8.564885496183207,-9.053435114503817,-9.753977563476562,-0.718260498046875,2.0829554443359375,12.67175572519084,-17.6793893129771,-15.083969465648854,0.0
